time,seconds_elapsed,z,y,x
1788862705133987000,0.033987060546875,8.550292678833006,2.523787825012207,-2.666093186187744
1788862705143992800,0.043992919921875,9.900173502349853,2.1990742248535153,-2.7534815467834473
1788862705153998800,0.053998779296875,10.717793369293211,2.1329344039916993,-2.6563667419433594
1788862705164006000,0.064005859375,10.86069728088379,2.3054665611267087,-1.7863737136840818
1788862705174012000,0.074011962890625,10.517129342651367,1.599177071380615,-0.8132803764343262
1788862705184018000,0.084017822265625,10.501866307067871,1.7859248008728026,-1.1552023010253905
1788862705194024700,0.094024658203125,10.469245309448242,2.3268647384643555,-1.7196353424072264
1788862705204031000,0.104031005859375,10.0748005859375,2.883815899658203,-1.9077298103332518
1788862705214038000,0.1140380859375,9.3209263381958,3.5978865447998043,-1.9809025985717772
1788862705224043800,0.124043701171875,8.41487064743042,4.0632594924926755,-2.395997311401367
1788862705234049800,0.1340498046875,7.641393873596191,3.168276984405517,-2.962824554443359
1788862705244056800,0.144056884765625,7.745990558624267,2.747196767425537,-3.6733038970947263
1788862705254062800,0.154062744140625,7.822754649353027,3.0992940490722654,-4.2149920227050774
1788862705264068900,0.16406884765625,7.480982362365722,3.220949420928955,-4.298489805603027
1788862705274076000,0.174075927734375,7.451354116821289,3.4789246498107906,-4.458452404022217
1788862705284082000,0.18408203125,6.733542531585693,3.4439094505310055,-4.365677089691162
1788862705294088000,0.194087890625,4.778976151275635,2.9364883361816405,-3.9369653549194332
1788862705304095000,0.204094970703125,5.580884069824219,2.4539070640563962,-3.8585552505493164
1788862705314101000,0.21410107421875,6.705111386871337,3.451391330718994,-4.924274264526367
1788862705324107000,0.22410693359375,8.647108208465575,4.238185851287842,-5.730521673583984
1788862705334113800,0.23411376953125,9.466074813842773,3.854215760040283,-5.107879604339599
1788862705344120000,0.2441201171875,10.395324333190917,3.075352032470703,-4.418948076629638
1788862705354126800,0.254126953125,11.229853249359131,2.2930466400146483,-3.784035723876953
1788862705364132900,0.2641328125,11.511321582031249,2.012326495361328,-2.6101287223815914
1788862705374139000,0.274138916015625,11.533916860198975,1.5269021087646484,-1.9960159965515136
1788862705384146000,0.28414599609375,11.438597706604003,1.209820026397705,-1.1736077262878417
1788862705394152000,0.29415185546875,11.462240447998047,1.194407353210449,-0.8423100715637206
1788862705404158000,0.304157958984375,11.138424673461913,1.4525322196960448,-0.5184942970275879
1788862705414165000,0.3141650390625,10.976666423797607,2.1664532272338866,0.10788871231079102
1788862705424171000,0.3241708984375,10.185083499908446,2.258031440734863,0.2859574607849121
1788862705434177000,0.334177001953125,9.015216713714599,2.3511060302734372,-0.1135749412536621
1788862705444183800,0.344183837890625,8.556727095794677,2.512265729522705,-1.0054150596618652
1788862705454190000,0.354190185546875,8.631396260070801,2.901772412109375,-1.9107225624084472
1788862705464195800,0.36419580078125,9.207949947357177,2.8522423652648925,-2.4102128837585446
1788862705474203000,0.374202880859375,10.51518405380249,2.5424925254821775,-2.0540753868103026
1788862705484209000,0.384208984375,11.783512383270264,2.4766519798278805,-1.1846809089660644
1788862705494216000,0.3942158203125,12.540379383087158,2.650231600189209,-0.7598597518920898
1788862705504222000,0.404221923828125,12.84564009475708,2.607435245513916,-0.19467852249145506
1788862705514228000,0.41422802734375,12.369193964385985,2.244115143585205,0.1897404815673828
1788862705524235000,0.424235107421875,11.709441769409178,1.8082208038330077,0.017657237243652344
1788862705534241000,0.434240966796875,11.41495496520996,1.1586439659118652,0.1945288848876953
1788862705544247000,0.4442470703125,11.298237634277344,0.6766612442016601,1.036838956451416
1788862705554253800,0.45425390625,11.51715744857788,0.12180500946044921,1.077690022277832
1788862705564260000,0.464260009765625,11.967716273498535,0.3725976333618164,1.4903905334472656
1788862705574265900,0.474265869140625,12.180052033233641,0.6241384452819824,1.261444999694824
1788862705584273000,0.48427294921875,12.306495808410643,0.2314893730163574,0.5789478889465332
1788862705594279000,0.49427880859375,11.97699380493164,-0.4128501487731933,0.8171709541320801
1788862705604285000,0.504284912109375,9.182361917114257,-0.9985317298889159,1.5830162101745604
1788862705614292000,0.5142919921875,4.449025234985351,-0.9967360786437988,2.2495020973205566
1788862705624298000,0.524298095703125,4.899584059906005,0.09965864410400391,1.617732134246826
1788862705634303700,0.5343037109375,7.592761652374267,1.4848539421081541,-0.040102877807617184
1788862705644311000,0.54431103515625,9.47460415725708,3.0400375579833985,-0.8991723609924316
1788862705654316800,0.55431689453125,9.105448188781738,2.708141352844238,-1.0603320602416992
1788862705664323800,0.56432373046875,8.111405587005615,2.067393133544922,-0.19018939437866209
1788862705674330000,0.574330078125,7.9548846534729,2.0738275505065915,0.8626607856750488
1788862705684335900,0.5843359375,8.192209893035889,2.2284031951904297,1.6261118400573729
1788862705694343000,0.594343017578125,8.936208058929443,2.4072201316833493,1.3257891693115234
1788862705704349000,0.604348876953125,9.87668039855957,2.5953145996093747,0.14544775085449219
1788862705714355000,0.61435498046875,9.463830249786376,2.6617536956787107,0.04279635467529297
1788862705724362000,0.624362060546875,8.278999703216552,2.7486931434631345,1.0764929214477539
1788862705734367700,0.63436767578125,7.5525091369628905,3.2601544731140133,2.053177561187744
1788862705744373800,0.644373779296875,7.53320588607788,3.3520319618225094,2.155080769348144
1788862705754381000,0.654381103515625,7.349151633453369,2.741360900878906,1.5875053382873534
1788862705764386800,0.66438671875,6.367379315185547,1.8052280517578123,1.8761562759399413
1788862705774392800,0.674392822265625,5.2825066879272455,0.38037878875732417,2.9994857673645017
1788862705784400000,0.68439990234375,5.287893641662597,-1.3332710494995117,3.8416462013244628
1788862705794406000,0.694406005859375,6.294206526947021,-2.6910826660156246,3.6258687767028808
1788862705804413000,0.704412841796875,6.693738928985596,-3.339612040710449,3.8667853187561034
1788862705814419000,0.7144189453125,7.27777449645996,-3.779995508575439,4.689193589019775
1788862705824425000,0.724425048828125,7.881412590026855,-3.8015433235168454,5.307945080566406
1788862705834432000,0.734431884765625,7.556399714660644,-3.695749537658691,6.155193193054199
1788862705844437800,0.744437744140625,6.345083312225341,-3.8263831657409666,6.565649140167236
1788862705854444000,0.754444091796875,4.9263691909790035,-3.3940801284790036,5.499481213378906
1788862705864450800,0.764450927734375,3.1938650146484373,-2.512864279937744,3.568258299255371
1788862705874456800,0.774456787109375,1.4701894569396972,-1.8745102622985839,1.4896423454284666
1788862705884462800,0.784462890625,1.0200795448303221,-1.8339584716796873,1.776647269439697
1788862705894469600,0.7944697265625,1.8321628204345701,-2.1356278808593747,5.080645560455322
1788862705904475600,0.8044755859375,1.7334020019531249,-1.901893943786621,7.926752783966064
1788862705914481700,0.814481689453125,-0.31483751831054685,-1.1113584831237793,9.63456675567627
1788862705924488700,0.82448876953125,-1.7778443702697753,-0.7211036125183105,10.16383496017456
1788862705934494700,0.83449462890625,-1.0298059890747069,-1.3133692481994628,10.159944382476805
1788862705944501800,0.844501708984375,0.8596680335998534,-2.5472809288024902,10.113706362915039
1788862705954507800,0.8545078125,1.71095636138916,-3.908384572601318,9.55181716079712
1788862705964513800,0.864513671875,1.2464812393188476,-4.725106613922119,10.232668257904052
1788862705974520600,0.8745205078125,0.6138134506225585,-4.5127708541870115,13.575273050689697
1788862705984526600,0.884526611328125,-0.29433716659545894,-3.429095327758789,17.287183449554444
1788862705994532900,0.894532958984375,-0.9783306533813476,-3.374627239990234,19.98978821105957
1788862706004539600,0.90453955078125,-1.1821370697021483,-5.3962312667846675,22.76062771987915
1788862706014545700,0.914545654296875,-1.5783774444580077,-5.982661035919189,25.777321811676025
1788862706024551700,0.9245517578125,-2.747795317840576,-3.929483474731445,25.58937698135376
1788862706034558700,0.934558837890625,-1.7145476638793944,-0.7276876670837402,24.80198391036987
1788862706044564700,0.944564697265625,-2.1429601234436033,-0.29179332733154295,24.212561389160154
1788862706054570800,0.95457080078125,-2.854337291717529,0.9448118301391601,24.792107828521726
1788862706064577800,0.964577880859375,-3.0261212608337402,2.5794530136108396,22.28792252960205
1788862706074583800,0.974583740234375,-3.0377929939270016,1.7108067237854003,18.511219048309325
1788862706084590600,0.984590576171875,-1.8641852676391601,0.7068880401611328,14.07057351913452
1788862706094596900,0.994596923828125,-0.27084406280517576,-1.2243348739624023,10.63698906326294
1788862706104603000,1.004602783203125,3.1878795104980466,-3.8271313537597655,8.745420114135742
1788862706114609700,1.014609619140625,5.908590422058105,-6.458807891082763,10.38769281539917
1788862706124615700,1.02461572265625,7.148786882019042,-4.8989855094909665,10.128370848083495
1788862706134622000,1.0346220703125,6.762871501922607,-2.691531578826904,9.892093071746826
1788862706144628700,1.044628662109375,5.436633419799804,-3.0353987922668457,9.781810157775878
1788862706154634800,1.054634765625,4.76924970703125,-2.0603601661682127,7.266551676177978
1788862706164640800,1.064640869140625,-2.823212670135498,1.4419079498291014,6.798335614013672
1788862706174647800,1.074647705078125,-8.127716085815429,4.048744644927979,6.18601853942871
1788862706184653800,1.08465380859375,-8.322693883514404,4.11144280090332,4.536263957977295
1788862706194660600,1.09466064453125,-5.411344664764404,1.777395457458496,5.343109917449951
1788862706204667000,1.1046669921875,-0.2910451393127441,-2.337489008331299,6.777685624694824
1788862706214673000,1.1146728515625,2.135927156066894,-4.661360994720459,7.6484268409729
1788862706224679700,1.1246796875,1.7739537925720215,-3.7208886550903317,7.949348062133788
1788862706234685700,1.134685791015625,-0.5102642288208008,-1.6117466300964354,8.253112397766113
1788862706244692000,1.14469189453125,-2.122310134124756,-1.1641805572509765,7.990797678375244
1788862706254698800,1.15469873046875,-1.4305354919433593,-2.2870611358642576,8.173505192565917
1788862706264704800,1.164704833984375,0.2198176399230957,-4.14346524810791,8.8359508644104
1788862706274710500,1.17471044921875,0.7860463325500487,-3.7389948051452633,8.071302709197997
1788862706284717800,1.1847177734375,0.5238812507629395,-5.16519080657959,8.330475038909912
1788862706294723800,1.194723876953125,0.9299977073669433,-5.977573357391357,8.300996430969239
1788862706304729600,1.2047294921875,0.9160814102172851,-5.744587608337402,7.965957836151123
1788862706314737000,1.21473681640625,0.582239916229248,-6.1273605987548825,8.43447317352295
1788862706324743000,1.224742919921875,1.0697592292785645,-6.132747552490234,8.63768103942871
1788862706334749700,1.234749755859375,1.1118073959350585,-5.46506456451416,7.940070530700683
1788862706344755700,1.244755615234375,0.5446808776855468,-5.482871439361572,7.237521981048584
1788862706354761700,1.25476171875,1.1236287666320801,-6.242581553649902,7.397634217071532
1788862706364768800,1.264768798828125,2.3313538665771483,-5.380818593597412,6.241833365631103
1788862706374774800,1.27477490234375,0.2198176399230957,-4.317493781280517,4.98622423248291
1788862706384780500,1.284780517578125,-1.2814964385986327,-3.902698343658447,4.886415950775146
1788862706394787800,1.294787841796875,-1.20024321975708,-2.9212253005981443,5.074360781097412
1788862706404793900,1.3047939453125,0.07212532501220703,-3.266738527679443,6.63971975402832
1788862706414799600,1.314799560546875,1.356614515686035,-4.192097469329834,7.801356472015381
1788862706424807000,1.324806884765625,1.451784031677246,-4.520552009582519,8.17904178390503
1788862706434812700,1.334812744140625,1.0497077903747558,-4.526986426544189,8.896254818725586
1788862706444819700,1.34481982421875,0.7023989120483398,-5.878064350891113,9.23099413833618
1788862706454825700,1.35482568359375,-0.18704700469970703,-6.417507912445068,9.707290631103515
1788862706464831700,1.364831787109375,0.1988683753967285,-6.272359436798095,10.007912577056883
1788862706474838800,1.3748388671875,0.5790975265502929,-6.206967803955078,9.534608836364745
1788862706484844800,1.3848447265625,0.7026981872558593,-6.432022760009765,8.977807312774658
1788862706494850600,1.3948505859375,0.46582186050415036,-6.228814894104003,9.63456675567627
1788862706504857900,1.40485791015625,-0.3043628860473633,-5.50980620803833,9.65970587310791
1788862706514863600,1.414863525390625,-0.7047931137084961,-5.340865353393554,9.328557855987547
1788862706524869600,1.42486962890625,0.009726444244384765,-5.20963317489624,8.738387146759033
1788862706534877000,1.434876953125,0.8307879760742187,-5.006275671386718,7.820061172485351
1788862706544882700,1.444882568359375,1.3485340850830076,-4.204966303253173,7.325209616851806
1788862706554889700,1.4548896484375,0.8780734588623046,-3.503016304016113,5.764489409637451
1788862706564895700,1.464895751953125,1.3946224670410154,-3.6973955513000485,6.1279591491699215
1788862706574901800,1.47490185546875,1.8592472267150877,-2.4402900421142575,7.164049917602538
1788862706584908800,1.48490869140625,1.805527326965332,-1.601271997833252,6.523152060699463
1788862706594914600,1.49491455078125,1.7465701110839842,-1.8930653251647949,6.87614716796875
1788862706604920800,1.5049208984375,0.9513958847045898,-2.116324629974365,6.553678131866454
1788862706614928000,1.514927978515625,-0.1545756446838379,-2.638709504699707,6.803722567749023
1788862706624933600,1.52493359375,-0.5753565864562988,-3.6803368644714354,6.778134537506103
1788862706634939600,1.534939697265625,-0.9325415466308593,-5.134215822601318,6.7006222587585444
1788862706644946700,1.54494677734375,-1.6683096443176268,-6.23734423751831,6.998850003051757
1788862706654952700,1.55495263671875,-2.116923180389404,-5.958719019317627,8.078934226989746
1788862706664959700,1.564959716796875,-1.4797662635803221,-5.345055206298828,8.897003006744384
1788862706674965800,1.5749658203125,-1.1569979522705078,-6.054636723327636,10.315866765594482
1788862706684971800,1.5849716796875,-1.5478513732910155,-6.819434516143798,10.688763674163818
1788862706694978800,1.594978759765625,-0.9310451705932616,-7.793874591827392,10.689212586975097
1788862706704984600,1.604984619140625,0.5928641860961914,-8.258499351501465,10.877307054901122
1788862706714990800,1.614990966796875,2.440888592529297,-7.86555100402832,10.669011510467529
1788862706724997600,1.62499755859375,3.017891192626953,-6.14127689590454,9.48702407836914
1788862706735003600,1.635003662109375,1.989431941986084,-5.797708957672119,8.31251852645874
1788862706745011000,1.645010986328125,1.0410288093566893,-7.157316225433349,9.035118515014648
1788862706755016700,1.6550166015625,2.267458609771728,-6.89515114364624,10.101884992218016
1788862706765022700,1.665022705078125,2.040458364868164,-6.488436136627197,9.886107567596435
1788862706775029800,1.67502978515625,1.6148890197753905,-6.617423751068115,9.205256470489502
1788862706785035800,1.685035888671875,1.9219453826904296,-7.039102518463134,8.67553935317993
1788862706795041800,1.695041748046875,2.214786173248291,-7.379827342224121,8.451681497955322
1788862706805048800,1.705048828125,1.8511667961120604,-6.888866364288329,8.590844469451904
1788862706815054600,1.7150546875,1.3555670524597168,-6.288819573211669,8.244283779144286
1788862706825060900,1.725060791015625,0.5313631309509277,-5.666327141571045,7.258770520782471
1788862706835067600,1.735067626953125,-0.9030629386901855,-5.584325734710693,6.6623150321960445
1788862706845073700,1.74507373046875,-1.526602833557129,-5.62502716293335,6.320692382812499
1788862706855081000,1.7550810546875,-1.769165389251709,-5.576394941711426,6.288969210815429
1788862706865086700,1.765086669921875,-2.0880431228637693,-5.659743087005615,5.180902754974365
1788862706875092700,1.7750927734375,-1.9387047943115234,-5.52866054611206,4.8889597900390624
1788862706885099800,1.785099853515625,-0.17866729888916014,-6.083516780853271,4.847360536193848
1788862706895105800,1.795105712890625,1.7233762825012207,-7.269095515441894,5.40715481185913
1788862706905111000,1.805111083984375,1.6090531532287597,-6.951115607452392,6.198588098144531
1788862706915118000,1.8151181640625,-0.263661457824707,-5.846790091705322,6.781725839996337
1788862706925123800,1.825123779296875,-1.093701245880127,-4.818929391479492,7.1023992248535155
1788862706935129900,1.8351298828125,-1.2900257820129393,-4.848258361816406,7.04793113708496
1788862706945137000,1.845136962890625,-1.1807903312683106,-5.442618923950195,6.5686418922424314
1788862706955143000,1.855142822265625,-0.5804442649841308,-5.8454433532714845,5.748178910827637
1788862706965150000,1.86514990234375,0.313490779876709,-6.676979517364502,5.556493140411376
1788862706975156000,1.875156005859375,-0.30137013397216794,-6.700921533966064,6.017975510406494
1788862706985162000,1.885161865234375,-0.8707412162780761,-4.829553661346435,5.172373411560058
1788862706995169000,1.8951689453125,-1.157446865081787,-3.7529111022949215,5.703137992095947
1788862707005175000,1.905175048828125,-2.280477081298828,-3.615543782043457,7.17557201309204
1788862707015181000,1.91518115234375,-1.5676035369873047,-3.704877431488037,9.011475773620605
1788862707025188000,1.92518798828125,-0.12509703674316405,-3.323151904296875,8.038831349182129
1788862707035193900,1.93519384765625,-0.7665934440612793,-4.796184475708007,8.570344117736816
1788862707045200100,1.9452001953125,-1.8704700469970703,-4.7481508049011225,11.21713405303955
1788862707055207000,1.95520703125,-2.1351789680480957,-3.9276878234863277,8.172906642150878
1788862707065213000,1.965212890625,-2.4812907455444333,-5.282357050323486,7.170633972167968
1788862707075220200,1.97522021484375,-2.801814492797851,-5.293579870605469,6.539911472320556
1788862707085226000,1.98522607421875,-2.4356512763977047,-5.3387704269409175,6.023811376953125
1788862707095232000,1.99523193359375,-2.638559867095947,-6.005705226898193,5.786486137390137
1788862707105239000,2.005239013671875,-4.140173220825195,-5.7697267257690426,6.64600453338623
1788862707115245000,2.0152451171875,-6.804470755767822,-4.5510780807495115,9.375394425964355
1788862707125251000,2.0252509765625,-7.206247721862793,-2.8540380165100094,11.144859090423584
1788862707135257900,2.0352578125,-6.345232949829101,-2.4193407775878906,11.270255402374266
1788862707145263900,2.045263916015625,-6.355557944488525,-3.4644098022460934,11.011531985473631
1788862707155271200,2.055271240234375,-6.214300046539306,-4.746804066467285,11.518803462219237
1788862707165277000,2.06527685546875,-5.215319403839111,-6.458209340667724,10.377218183135986
1788862707175283000,2.075282958984375,-3.852270471191406,-8.03179838180542,9.51231283340454
1788862707185290000,2.0852900390625,-3.960907371520996,-7.896825263214111,8.775197997283936
1788862707195296000,2.0952958984375,-4.383483964538574,-5.932382801055907,10.05504842224121
1788862707205302000,2.105302001953125,-3.9682396141052245,-4.7201685729980465,10.927286014556884
1788862707215308800,2.115308837890625,-3.8066310020446776,-4.30971262588501,10.434679022979736
1788862707225315000,2.125315185546875,-5.143792629241943,-3.721337567901611,8.65773247833252
1788862707235321000,2.135321044921875,-6.282684431457519,-3.953425491333008,6.931363443756103
1788862707245328000,2.145327880859375,-5.905896945190429,-5.088875628662109,5.515492436981201
1788862707255334000,2.155333984375,-4.751143556976318,-5.159205302429199,5.341912816619873
1788862707265341000,2.1653408203125,-4.276941990661621,-3.473687333679199,6.16102905960083
1788862707275347000,2.175346923828125,-5.180154566955566,-5.423764585876465,5.829881042480468
1788862707285353000,2.18535302734375,-4.775085573577881,-4.597166462707519,6.663961045837402
1788862707295360000,2.195360107421875,-5.179855291748047,-3.7071219955444334,7.854328183746337
1788862707305366000,2.205365966796875,-4.872350016021728,-3.9619548347473144,7.434893980407715
1788862707315372000,2.2153720703125,-3.865737855529785,-4.55212554397583,6.487837586212158
1788862707325378800,2.22537890625,-3.3871967987060545,-5.34325955505371,5.095010770416259
1788862707335385000,2.235385009765625,-3.1248820793151855,-6.303035145568847,5.0191445053100585
1788862707345391000,2.24539111328125,-2.120364845275879,-7.46347476272583,4.66076244430542
1788862707355398000,2.25539794921875,-2.0869956596374513,-6.947973217773437,4.828206922912598
1788862707365404000,2.26540380859375,-2.4568998161315916,-6.853851165008544,4.643105207061767
1788862707375411000,2.275410888671875,-3.482665589904785,-7.852233257293701,4.058770364379883
1788862707385417000,2.2854169921875,-5.0766053451538085,-8.713696942138672,5.083039762115479
1788862707395423000,2.295423095703125,-6.602011077880859,-8.209268579864501,6.016329496765136
1788862707405430000,2.305429931640625,-7.474547945404052,-7.428160288238525,6.003161387634277
1788862707415436000,2.31543603515625,-6.979546752166748,-6.559364360809326,6.281038417816162
1788862707425442000,2.325442138671875,-5.91816722869873,-6.655730977630615,6.4184057380676265
1788862707435448800,2.33544873046875,-5.164292980957031,-7.010821011352538,7.404367909240722
1788862707445455000,2.345455078125,-4.340837247467041,-6.776787799072265,8.17141026611328
1788862707455461000,2.355461181640625,-3.8610990898132322,-5.713462986755371,8.267028694915771
1788862707465468000,2.365468017578125,-4.03482834777832,-4.381089762878418,7.9560817543029785
1788862707475474000,2.375473876953125,-4.7289971916198725,-3.624372400665283,7.00363840637207
1788862707485481000,2.38548095703125,-5.585223560333252,-3.2800562744140622,5.703886180114746
1788862707495487000,2.395487060546875,-6.100126554870605,-2.819920642852783,5.138405675506592
1788862707505493000,2.405492919921875,-6.943783364868164,-2.6192566162109374,4.910208329772949
1788862707515500000,2.4155,-7.111078205871582,-3.1777041534423827,3.8537668472290036
1788862707525506000,2.425506103515625,-5.7782560691833496,-3.7306150993347167,4.564994377899169
1788862707535512000,2.435511962890625,-5.193771588897705,-3.7767034812927243,5.2439001861572265
1788862707545519000,2.44551904296875,-4.87100327758789,-3.394379403686523,5.808782140350341
1788862707555525000,2.455525146484375,-4.392911133575439,-3.8036382499694823,5.766584336090087
1788862707565532000,2.465531982421875,-4.000262061309814,-4.9348985343933105,5.256469744873047
1788862707575538000,2.475537841796875,-4.13059641418457,-5.594950004577637,5.839008936309814
1788862707585544200,2.485544189453125,-4.557811772918701,-6.629394759368896,5.989394728088379
1788862707595551000,2.495551025390625,-4.804713819122314,-7.332242584228515,5.428852264404297
1788862707605557000,2.505556884765625,-4.139425032806396,-7.22031365661621,5.527912358093261
1788862707615563000,2.51556298828125,-2.924666965484619,-5.641936212158202,4.335899206542969
1788862707625570000,2.525570068359375,-5.745036521148681,-6.9621887901306145,3.631555005645752
1788862707635576000,2.535576171875,-3.829974468231201,-6.104765320587158,5.1617491416931145
1788862707645582000,2.54558203125,-3.585616261291504,-5.3850084465026855,7.422174784088134
1788862707655589000,2.555589111328125,-6.6976295066833496,-7.771279313659668,8.7593364112854
1788862707665595100,2.56559521484375,-6.747907741546631,-10.056844073486328,7.315782447814941
1788862707675602000,2.575601806640625,-5.03740029296875,-9.495104508972167,4.5431472877502435
1788862707685608000,2.58560791015625,-3.731363287353515,-7.4568907081604,2.704550050354004
1788862707695614200,2.5956142578125,-2.738218511199951,-6.711246528625488,2.778620664215088
1788862707705621000,2.60562109375,-1.6983868026733397,-6.318747093963623,2.867056488037109
1788862707715627000,2.615626953125,-0.7246949150085449,-6.131400814056396,2.3728034828186035
1788862707725633000,2.625633056640625,-1.103278052520752,-5.68203908996582,2.417694763946533
1788862707735640000,2.63564013671875,-2.427271570587158,-5.271732780456543,2.7602152389526364
1788862707745646000,2.64564599609375,-4.565892203521728,-6.044611003875732,3.475632622528076
1788862707755651800,2.65565185546875,-6.317250717926025,-6.902932299041748,3.924545433807373
1788862707765659100,2.6656591796875,-6.374262644958495,-7.173776361846923,3.195959941101074
1788862707775665200,2.6756650390625,-5.271732780456543,-6.870460939025879,2.092681888580322
1788862707785672000,2.685671875,-3.1028853515624997,-7.658602198028564,2.206556105041504
1788862707795678000,2.695677978515625,-1.2078747375488281,-9.227552473449707,2.7091888160705566
1788862707805684000,2.70568408203125,-1.199495031738281,-11.176282987213135,3.3487399345397946
1788862707815691000,2.71569091796875,-2.2053590042114255,-12.27073242111206,4.270806848907471
1788862707825697000,2.725697021484375,-1.582118384552002,-16.008530125427246,4.376600634765625
1788862707835702800,2.735702880859375,-3.491045295715332,-20.66659909286499,4.113986640167236
1788862707845710000,2.7457099609375,-0.5556044227600098,-18.332851024627683,2.504035661315918
1788862707855716000,2.755716064453125,0.9237129280090332,-17.996465691375732,0.8008604553222656
1788862707865723000,2.765722900390625,1.3631985702514648,-16.101006164550782,-1.228973639678955
1788862707875729200,2.775729248046875,0.7604583023071289,-12.054356446075438,-0.16220716247558592
1788862707885735000,2.78573486328125,1.0956465347290039,-8.643217630767822,0.5377975479125976
1788862707895742200,2.7957421875,-2.636016027832031,-7.113322769927978,-0.20515315475463866
1788862707905748200,2.805748291015625,-5.673809021759033,-7.612962728881835,1.0482114143371581
1788862707915754200,2.815754150390625,-6.519860033416748,-8.366537701416014,3.644872752380371
1788862707925761300,2.82576123046875,-5.7709238265991205,-8.44719236984253,4.518606720733643
1788862707935767300,2.835767333984375,-3.9740754806518552,-7.917624890136718,3.9797617095947264
1788862707945773300,2.845773193359375,-2.581099027252197,-8.003666512298583,3.564218083953857
1788862707955780400,2.8557802734375,-1.3875894996643066,-8.120084568023682,2.3145944549560546
1788862707965786000,2.8657861328125,-2.2465093452453613,-7.5713634750366205,2.1883003173828124
1788862707975793400,2.87579345703125,-3.082983550262451,-6.669198361968994,2.2049100914001465
1788862707985799400,2.88579931640625,-4.056226525115966,-4.910956517791748,4.121169245147705
1788862707995805200,2.89580517578125,-6.353612655639648,-4.026897554779053,6.949319956207275
1788862708005812200,2.905812255859375,-6.549338641357421,-5.318868625640869,7.570166374206543
1788862708015818200,2.915818359375,-5.283853426361084,-8.011298030090332,7.202656419372558
1788862708025824300,2.92582421875,-4.8689083511352536,-10.766724865722656,7.4399816589355465
1788862708035831300,2.935831298828125,-4.578611399841308,-10.039037198638916,6.825420020294189
1788862708045837000,2.945837158203125,-5.187187534332275,-10.921300510406493,6.066009181213379
1788862708055844400,2.95584423828125,-5.814468369293213,-11.254244178771971,4.821473230743408
1788862708065850400,2.965850341796875,-5.4792801368713375,-8.533084354400634,3.4501942298889157
1788862708075856100,2.975856201171875,-4.3351510185241695,-7.527519657135009,2.8075007217407224
1788862708085863400,2.985863525390625,-3.6923078727722167,-8.819640365600586,2.798372827911377
1788862708095869200,2.995869140625,-4.133888441467285,-9.633369654846192,3.164236769104004
1788862708105875200,3.005875244140625,-4.211400720214844,-7.98032304611206,3.754108203125
1788862708115882200,3.01588232421875,-3.8983588531494138,-6.724564275360107,3.310283070373535
1788862708125888300,3.02588818359375,-3.6309564552307125,-7.093420968627929,2.3382371963500974
1788862708135895300,3.035895263671875,-5.139004225921631,-7.1483379692077635,2.756175023651123
1788862708145901300,3.0459013671875,-7.170484334564208,-4.955249248504638,4.479551306152343
1788862708155907000,3.055906982421875,-7.589020712280273,-4.853046765136718,4.926818103790283
1788862708165914400,3.065914306640625,-7.867047380065918,-5.4135892288208005,4.774038110351563
1788862708175920000,3.075920166015625,-6.781576202392578,-4.5678374923706055,5.6311623046875
1788862708185926100,3.085926025390625,-6.060622227478027,-4.244470630645751,6.519710395812988
1788862708195933400,3.095933349609375,-7.262511460876464,-6.426037255859375,7.665485527801513
1788862708205939200,3.105939208984375,-8.45991156616211,-8.476072427368164,8.544307174682617
1788862708215946200,3.1159462890625,-8.572439044189453,-9.013421062469481,8.82981572265625
1788862708225952300,3.1259521484375,-8.227524367523193,-9.15512787322998,9.094524643707274
1788862708235958300,3.135958251953125,-7.613860554504394,-9.439738595581055,8.807370082092284
1788862708245965300,3.14596533203125,-6.350470265960693,-9.703100778198241,7.255029580688476
1788862708255971000,3.15597119140625,-4.59028313293457,-9.758616329193115,5.412242490386962
1788862708265977000,3.16597705078125,-4.1091982368469235,-8.73344910583496,4.38587816619873
1788862708275984400,3.175984375,-3.5386300537109374,-8.448838383483887,4.0075943038940425
1788862708285990100,3.185990234375,-3.3720834007263183,-8.406939854431151,4.1115924385070795
1788862708295997200,3.1959970703125,-2.93050283203125,-8.740781348419189,4.087800059509277
1788862708306003500,3.20600341796875,-3.850325182342529,-7.183951718902588,4.716277995300293
1788862708316009200,3.21600927734375,-4.6055461685180665,-5.805340475463867,4.565892203521728
1788862708326016300,3.226016357421875,-4.406827430725097,-6.660220105743408,3.507355794525146
1788862708336022000,3.23602197265625,-4.008342491912842,-6.526444087982178,3.202992908477783
1788862708346028300,3.2460283203125,-3.9380128181457517,-5.914875201416015,3.3623569564819333
1788862708356035300,3.256035400390625,-3.716848439788818,-5.131522345733642,3.730914374542236
1788862708366041000,3.266041015625,-3.266738527679443,-4.04141240234375,3.8097733917236325
1788862708376047000,3.276047119140625,-3.2679356285095214,-3.6324528312683104,3.7184944534301754
1788862708386054400,3.286054443359375,-3.2995091629028317,-4.001459162139892,4.058471089172363
1788862708396060200,3.29606005859375,-2.919429649353027,-3.9468414367675777,4.432714736175537
1788862708406067200,3.306067138671875,-2.9583354263305663,-3.8673838691711424,4.204816665649414
1788862708416073200,3.3160732421875,-3.0252234352111813,-3.5595793182373043,3.4867058052062987
1788862708426079200,3.326079345703125,-3.022380320739746,-3.1528643112182615,2.6200048042297364
1788862708436086300,3.336086181640625,-3.7497687126159667,-2.895786907958984,3.3815105697631833
1788862708446092000,3.346092041015625,-5.3679497596740715,-3.0241759719848633,5.200505281066894
1788862708456098300,3.356098388671875,-6.781426564788818,-3.507355794525146,6.350470265960693
1788862708466105300,3.366105224609375,-7.411700151824951,-4.342183985900879,6.504596997833252
1788862708476111000,3.376111083984375,-7.138162612152099,-5.576544579315185,6.365434026336669
1788862708486118400,3.386118408203125,-6.907271789550781,-5.975179155731201,6.665756697082519
1788862708496124200,3.396124267578125,-7.177367664337158,-5.6760535858154295,6.846369284820557
1788862708506130200,3.406130126953125,-7.921964380645751,-5.352387448883056,7.419481307220458
1788862708516137500,3.416137451171875,-7.765293809509277,-6.181978324127197,7.706486231231689
1788862708526143200,3.426143310546875,-8.303989183044433,-7.151031446075439,7.681047838592529
1788862708536149200,3.436149169921875,-8.381351824188233,-7.1683894081115715,7.387159584808349
1788862708546156300,3.44615625,-6.9998974662780755,-7.001693117523193,7.6844895034790035
1788862708556162300,3.456162353515625,-7.013364850616455,-7.594856578826904,7.581239556884765
1788862708566169300,3.46616943359375,-7.522581616210937,-7.676708348083496,5.959616844940185
1788862708576175000,3.476175048828125,-8.345289161682128,-7.465868964385986,5.669768806457519
1788862708586181000,3.48618115234375,-7.506720030212402,-7.40586428527832,6.1641714492797846
1788862708596188400,3.4961884765625,-6.432172397613525,-7.698405800628661,5.772569840240478
1788862708606194200,3.506194091796875,-6.599018325805663,-7.295731008911132,4.853196402740478
1788862708616200200,3.5162001953125,-6.0604725898742675,-6.600963614654541,4.505588249206543
1788862708626207200,3.526207275390625,-3.8597523513793943,-6.392668070220947,5.015553202819824
1788862708636213200,3.536213134765625,-1.5996259841918945,-6.253954011535644,4.616918626403808
1788862708646220300,3.54622021484375,-0.9735422500610351,-6.029198330688476,2.917035447692871
1788862708656226000,3.55622607421875,-2.6491841369628903,-5.317671524810791,0.8530839790344238
1788862708666232300,3.566232421875,-5.394136340332031,-4.389619106292725,0.6260837341308594
1788862708676239400,3.5762392578125,-4.6155718879699705,-3.787776663970947,1.9360113174438476
1788862708686245000,3.5862451171875,-4.699967496490478,-3.3527801498413083,2.73253228225708
1788862708696251100,3.596251220703125,-5.601085146331787,-2.929754644012451,3.2071827613830566
1788862708706258200,3.606258056640625,-5.486911654663086,-2.3994389762878416,4.526238238525391
1788862708716264200,3.61626416015625,-5.825092639160156,-2.5311200675964356,4.463540082550049
1788862708726271200,3.626271240234375,-5.641636936950683,-2.2851158470153807,4.651185637664795
1788862708736277200,3.63627734375,-5.318569350433349,-2.4973019691467284,6.496366929626465
1788862708746283300,3.646283203125,-4.796783026123046,-4.242974254608154,5.6860793052673335
1788862708756290300,3.656290283203125,-4.388721280670166,-4.174739507293701,3.8070799148559566
1788862708766296000,3.666296142578125,-6.036680210876464,-3.580678220367431,2.339434297180176
1788862708776302300,3.67630224609375,-8.047959243011475,-3.1637878562927244,3.010708587646484
1788862708786309000,3.68630908203125,-7.71232209777832,-2.8764836570739742,6.266224295043945
1788862708796315100,3.696315185546875,-6.19918664855957,-3.3611598556518554,8.154052304077148
1788862708806322400,3.706322509765625,-6.487239035797119,-4.181024286651611,7.460781285858154
1788862708816328200,3.716328125,-7.336282799530029,-4.354454269409179,7.209689386749267
1788862708826334200,3.726334228515625,-6.707804863739013,-3.962703022766113,8.028955267333984
1788862708836341200,3.73634130859375,-6.020968262481689,-3.7693712387084957,8.004564337921142
1788862708846347300,3.74634716796875,-6.853701527404785,-3.4766800857543942,7.866299192047118
1788862708856354300,3.756354248046875,-6.943484089660644,-3.0074165603637693,9.016413814544677
1788862708866360000,3.766360107421875,-5.196315428161621,-2.3573908096313474,8.711153102874755
1788862708876366000,3.776365966796875,-5.2067900604248045,-2.2098481323242187,6.088155546569824
1788862708886373400,3.786373291015625,-6.6796729942321775,-3.6332010192871094,5.097105696868896
1788862708896379100,3.796379150390625,-7.0634934478759765,-4.005349739837646,6.335356867980956
1788862708906385700,3.8063857421875,-5.514295336151123,-3.6489129676818846,7.350348734283447
1788862708916392700,3.816392822265625,-4.422988291931152,-4.209605068969727,6.943184814453125
1788862708926398700,3.826398681640625,-4.299088356018066,-3.9625533851623533,6.4746694770812985
1788862708936404700,3.83640478515625,-4.566939666748047,-3.8666356811523435,5.716605376434326
1788862708946411800,3.846411865234375,-4.957493812561035,-4.815787001800537,4.772092821502685
1788862708956417800,3.856417724609375,-5.8554690727233885,-5.734711526489257,4.01597400970459
1788862708966424600,3.866424560546875,-5.754762965393066,-5.4333413925170895,3.5329438247680662
1788862708976430600,3.8764306640625,-5.294627333831786,-4.899284784698486,2.9617770912170407
1788862708986436900,3.886436767578125,-5.69505756149292,-4.547935691070556,3.0723592803955078
1788862708996443600,3.896443603515625,-5.39473489074707,-6.148758776092529,4.587140743255615
1788862709006449700,3.90644970703125,-5.545419957733154,-5.855020159912109,5.839158573913574
1788862709016457000,3.91645703125,-5.615599993896484,-6.311714126586914,3.602525310516357
1788862709026462700,3.926462646484375,-4.273201050567627,-5.446060588836669,3.526659045410156
1788862709036468700,3.93646875,-4.367622378540039,-7.491756269836426,5.078101721191406
1788862709046475800,3.946475830078125,-5.661688375854492,-7.5528084121704095,5.121197351074218
1788862709056481800,3.956481689453125,-4.757577973937988,-7.933486476135253,5.271134230041503
1788862709066487800,3.96648779296875,-3.3731308639526367,-7.809287265014648,4.2691608352661135
1788862709076494600,3.97649462890625,-2.054973212432861,-8.514828566741944,2.8898014038085935
1788862709086500600,3.98650048828125,-4.585794004821777,-9.715221424102783,1.8963573524475097
1788862709096508000,3.9965078125,-5.79711040725708,-8.434173898315429,3.0036756202697754
1788862709106513700,4.006513671875,-6.3244333229064935,-8.49672241668701,5.435137043762206
1788862709116519700,4.016519775390625,-5.624877525329589,-8.89311242904663,7.268646602630615
1788862709126526700,4.026526611328125,-4.735880521392822,-9.418938968658447,6.898293533325195
1788862709136532700,4.03653271484375,-3.716399526977539,-9.297433234405517,5.453841744232178
1788862709146538800,4.046538818359375,-2.876782932281494,-8.144026584625244,4.399195912933349
1788862709156545500,4.056545654296875,-4.051587759399414,-7.34181939086914,3.9127240631103515
1788862709166551800,4.0665517578125,-5.00477929534912,-7.824849575805664,4.164264875030518
1788862709176558800,4.076558837890625,-4.56439582748413,-7.333290047454834,4.6830584472656245
1788862709186564600,4.086564697265625,-3.0493150894165035,-9.412803826904296,5.486163466644287
1788862709196570600,4.096570556640625,-3.4763808105468748,-10.882843646240234,6.153996092224121
1788862709206577700,4.10657763671875,-3.1510686599731446,-10.383802237701415,5.84170241317749
1788862709216583700,4.116583740234375,-1.6490063934326171,-9.432705628204346,4.1201217819213865
1788862709226590700,4.1265908203125,-0.9208698135375976,-8.601768014526368,1.8824410552978514
1788862709236596700,4.1365966796875,-0.6736684921264648,-8.028805629730224,1.1617863555908203
1788862709246602800,4.146602783203125,-0.8447042732238769,-8.467842359161377,2.3316531417846678
1788862709256609800,4.15660986328125,-2.290652438354492,-9.932046311950684,4.507533538055419
1788862709266615600,4.166615478515625,-3.334075449371338,-10.551545991516113,5.799354971313476
1788862709276622800,4.176622802734375,-4.436605313873291,-10.398915635681151,3.5098996337890624
1788862709286628600,4.186628662109375,-4.051138846588135,-9.908702845764159,0.8767267204284668
1788862709296634600,4.196634521484375,-1.1640309196472167,-9.454552718353272,1.9328689277648925
1788862709306642000,4.206641845703125,-0.6190507667541504,-10.316166040802,2.6464906600952145
1788862709316647700,4.216647705078125,-1.4049474617004394,-10.480468129730223,0.539443561553955
1788862709326653700,4.22665380859375,-2.4302643226623535,-9.858873523712157,-0.24390929412841794
1788862709336660700,4.23666064453125,-3.734206401824951,-11.973252864837646,-0.7643488800048828
1788862709346666800,4.246666748046875,-4.344428549957275,-11.924171730804442,-0.15951368560791016
1788862709356673800,4.256673828125,-5.458031597137451,-10.963797589874266,1.5269021087646484
1788862709366679600,4.266679443359375,-6.098630178833007,-11.202319930267333,3.2564135330200195
1788862709376685800,4.276685791015625,-6.075286712646484,-12.739995946502685,5.260061047363281
1788862709386692900,4.28669287109375,-3.639635436248779,-11.304672051239013,6.506841561889648
1788862709396698600,4.29669873046875,-2.740163800048828,-9.032873950958251,6.198139185333251
1788862709406706000,4.306705810546875,-3.127276280975342,-10.165331336212157,5.135712198638916
1788862709416711700,4.316711669921875,-1.9786580345153808,-7.114370233154297,5.112518370056152
1788862709426717700,4.3267177734375,-1.604414387512207,-2.8568811309814452,4.375253896331787
1788862709436724700,4.336724853515625,-2.9741970123291015,-8.205826914978028,4.489726663208008
1788862709446730800,4.346730712890625,-1.5025111793518064,-8.456020988464354,5.259612134552001
1788862709456737800,4.35673779296875,-1.8558055618286131,-5.540033003997802,5.289090742492675
1788862709466743800,4.366743896484375,-2.5116671791076657,-4.078672165679931,3.9094320358276367
1788862709476749600,4.37674951171875,-2.5568577354431152,-4.493916516113281,2.693027954864502
1788862709486756900,4.3867568359375,-1.7030255683898925,-4.088997160339355,2.667290287017822
1788862709496763000,4.396762939453125,-2.675669992828369,-3.6426281883239744,2.9822774429321286
1788862709506768600,4.4067685546875,-3.5769372802734374,-6.886023249816894,4.198531886291503
1788862709516776000,4.41677587890625,-5.180902754974365,-7.900566203308105,5.40101967010498
1788862709526781700,4.42678173828125,-7.5333555236816405,-7.68015001296997,6.095936701965332
1788862709536788700,4.436788818359375,-7.746888384246826,-8.398560148620605,5.966949087524414
1788862709546794800,4.446794677734375,-4.823418519592285,-11.09562831878662,4.188506166839599
1788862709556800800,4.45680078125,-3.908384572601318,-10.39322940673828,2.0037971519470212
1788862709566807800,4.466807861328125,-6.142324359130859,-10.165331336212157,1.7143980262756346
1788862709576813800,4.476813720703125,-8.922142124176025,-13.594875576782226,3.3476924713134766
1788862709586820900,4.48682080078125,-8.853458464050293,-12.545467061614989,5.165789356994629
1788862709596827000,4.496826904296875,-7.6606971244812,-11.235090565490722,5.143044441223144
1788862709606832600,4.50683251953125,-7.2170216293334954,-11.341033988952637,4.295945966339111
1788862709616839700,4.516839599609375,-7.4883146049499505,-10.766724865722656,4.967669169616699
1788862709626846000,4.526845947265625,-7.735665563964844,-10.794258184814453,6.911760917663574
1788862709636852700,4.536852783203125,-7.945906397247314,-10.89242045288086,8.619125976562499
1788862709646858800,4.546858642578125,-7.752424975585937,-10.634295586395263,8.098387115478515
1788862709656864800,4.55686474609375,-6.163123986053466,-9.88999814529419,6.241983003234863
1788862709666871800,4.566871826171875,-4.345775288391113,-9.545981294250488,5.167884283447266
1788862709676877800,4.5768779296875,-3.292476195526123,-8.939200811004637,5.745186158752441
1788862709686883600,4.586883544921875,-3.1658827827453613,-8.412177170562744,6.929867067718505
1788862709696891000,4.596890869140625,-4.057872538757324,-7.64812756576538,6.4914288887023925
1788862709706897000,4.60689697265625,-4.261230042266845,-6.770951932525635,6.280739142608642
1788862709716903700,4.616903564453125,-4.199728987121582,-6.138433781433105,6.526743363189697
1788862709726909700,4.62690966796875,-5.691915171813965,-6.069001933288574,5.3950341659545895
1788862709736915700,4.636915771484375,-7.4108023262023925,-6.537068357849121,3.8078281028747556
1788862709746922800,4.6469228515625,-6.190058754730225,-6.4555158638000485,2.827103247833252
1788862709756928800,4.6569287109375,-4.439298790740967,-4.945672441864013,2.672976515960693
1788862709766935800,4.666935791015625,-3.601477847290039,-4.230255058288574,2.9792846908569333
1788862709776941800,4.67694189453125,-2.84086990737915,-3.6668694801330566,3.451241693115234
1788862709786947800,4.68694775390625,-3.5220202796936033,-3.46021994934082,3.6070144386291503
1788862709796954600,4.69695458984375,-5.334879849243164,-2.5564088226318358,3.4784757369995116
1788862709806961000,4.7069609375,-6.391022056579589,-1.4887445198059082,2.7741315361022947
1788862709816967700,4.7169677734375,-7.501931626892089,-0.7700351089477538,2.2819734573364254
1788862709826973700,4.7269736328125,-8.093748349761963,-0.859967308807373,3.034650604248047
1788862709836979700,4.736979736328125,-8.371775017547607,-1.8109142807006835,4.975001412200927
1788862709846986800,4.74698681640625,-8.962993190002441,-4.32811805114746,7.524077992248535
1788862709856992800,4.75699267578125,-8.348880464172362,-6.607846944427489,8.843582382202149
1788862709866999600,4.76699951171875,-5.756109703826904,-5.9391164932250975,6.996306163787842
1788862709877005800,4.777005859375,-5.45877978515625,-5.7697267257690426,4.095880490112305
1788862709887011800,4.78701171875,-6.252906548309326,-6.462997743988037,4.497657456207275
1788862709897018600,4.7970185546875,-6.001665011596679,-4.8515503890991205,4.811148236083984
1788862709907024100,4.807024169921875,-6.208164904785156,-3.398269981384277,3.7475241485595703
1788862709917031200,4.81703125,-6.873304053497314,-2.589628370666504,3.1794998046874996
1788862709927037200,4.827037109375,-7.691672108459472,-1.6991349906921385,3.2212486961364744
1788862709937043200,4.837043212890625,-7.206546997070312,-2.3582886352539063,3.9935283691406247
1788862709947050200,4.84705029296875,-7.55235949935913,-3.2050878349304197,4.3902176567077635
1788862709957056300,4.85705615234375,-6.691644002532959,-4.132990615844727,4.310610451507568
1788862709967063300,4.867063232421875,-6.477811866760254,-4.52608860092163,4.153341329956055
1788862709977069000,4.877069091796875,-7.152378184509277,-4.186860153198242,4.197783698272705
1788862709987075300,4.887075439453125,-7.044339834594727,-4.323479285430908,3.882946179962158
1788862709997082000,4.89708203125,-8.090905235290528,-4.045452617645264,2.7096377288818356
1788862710007088000,4.907088134765625,-8.654739726257324,-3.2034418212890623,1.8875287338256834
1788862710017095400,4.917095458984375,-7.318176649475097,-3.17321502532959,2.8350340408325194
1788862710027101200,4.92710107421875,-6.442347754669189,-3.238905933380127,3.7861306503295897
1788862710037107200,4.937107177734375,-5.663783302307128,-3.1878795104980466,3.370287749481201
1788862710047114200,4.9471142578125,-5.341463903808593,-3.1624411178588865,2.071732624053955
1788862710057120300,4.957120361328125,-5.987299801635742,-2.647089210510254,0.3284545402526855
1788862710067127300,4.967127197265625,-6.534075605773926,-1.186177285003662,-0.7332242584228515
1788862710077133000,4.977133056640625,-5.66288547668457,-0.03725976333618164,0.6832452987670898
1788862710087139000,4.98713916015625,-4.827309097290039,0.1879448303222656,2.547879479217529
1788862710097146400,4.997146484375,-5.377227291107177,0.1984194625854492,2.694973243713379
1788862710107152100,5.007152099609375,-6.2858268211364745,-0.037110125732421874,1.9391537071228027
1788862710117159200,5.0171591796875,-7.352294023132324,-0.3597287994384765,1.6174328590393066
1788862710127165400,5.02716552734375,-7.738807953643798,-0.7270891166687011,2.8335376647949215
1788862710137171200,5.037171142578125,-6.5123781532287595,-1.7028759307861328,5.579387693786621
1788862710147178200,5.04717822265625,-5.387253010559082,-3.0807389862060544,7.256376319122314
1788862710157184300,5.057184326171875,-5.794865843200683,-4.116829754638672,6.387879666900634
1788862710167191300,5.06719140625,-6.960393138885498,-5.062389772796631,4.731391393280029
1788862710177197300,5.077197265625,-7.759158667755126,-5.07555788192749,3.299209887695312
1788862710187203000,5.087203125,-7.971045514678955,-4.038718925476074,2.2662615089416502
1788862710197210400,5.09721044921875,-6.5409589355468745,-3.0591911712646485,3.0443770484924313
1788862710207216400,5.10721630859375,-5.027823486328125,-2.4883237129211424,4.438400965118408
1788862710217223200,5.11722314453125,-5.326649781036377,-2.1154268043518063,4.312256465148925
1788862710227229400,5.1272294921875,-5.517737001037597,-1.9877859283447263,3.9172131912231443
1788862710237235200,5.137235107421875,-4.721664949035644,-2.694973243713379,4.4656350090026855
1788862710247242200,5.1472421875,-4.355801007843017,-3.726574884033203,4.620659566497802
1788862710257248300,5.157248291015625,-5.110124168395996,-4.464886820983886,3.872621185302734
1788862710267255300,5.16725537109375,-5.644480051422119,-5.376928015899658,3.61344885559082
1788862710277261300,5.17726123046875,-6.097433078002929,-6.37785394744873,3.6815339653015133
1788862710287267300,5.187267333984375,-6.654833152008056,-6.766762079620361,3.7734114540100094
1788862710297274400,5.1972744140625,-6.640767217254639,-7.0364090415954585,4.385129978179932
1788862710307280400,5.2072802734375,-6.170306591033935,-7.555801164245605,5.1428948036193844
1788862710317287200,5.217287109375,-5.659743087005615,-8.464101419067383,5.973233866882324
1788862710327293200,5.227293212890625,-5.6109612281799315,-9.310451705932616,6.260538066101073
1788862710337299500,5.237299560546875,-6.126462773132324,-9.754276838684081,5.712116248321533
1788862710347306200,5.24730615234375,-6.600514701843261,-10.369287390136718,5.180453842163086
1788862710357312300,5.257312255859375,-6.905176863098144,-11.28776300201416,5.078101721191406
1788862710367319300,5.2673193359375,-6.918195334625244,-11.675025120544433,4.74351203918457
1788862710377325300,5.2773251953125,-6.984933705902099,-10.867730248260498,4.00909067993164
1788862710387331300,5.287331298828125,-6.085162794494629,-9.900921690368651,4.036474361419677
1788862710397338000,5.297338134765625,-5.03695138015747,-9.513809209442138,5.034856453704833
1788862710407344400,5.307344482421875,-4.44333900604248,-8.967033405303955,5.67560467300415
1788862710417351200,5.31735107421875,-4.940135850524902,-8.07609111251831,5.034407540893555
1788862710427357200,5.327357177734375,-5.546467420959472,-7.474697583007812,3.779995508575439
1788862710437363200,5.33736328125,-5.374833089447021,-8.080879515838623,3.9049429077148434
1788862710447370200,5.347370361328125,-5.672462283325195,-8.97631093673706,4.736479071807861
1788862710457376300,5.357376220703125,-6.264877556610107,-9.504980590820312,5.463717826080322
1788862710467383000,5.367383056640625,-6.979995664978027,-10.059088637542724,5.719149215698242
1788862710477389300,5.377389404296875,-7.434594705200195,-11.020360604095458,6.151302615356445
1788862710487395300,5.387395263671875,-7.237671618652343,-12.133065825653075,7.273285368347167
1788862710497402000,5.397402099609375,-6.432920585632324,-12.58407356338501,7.668478279876709
1788862710507408100,5.407408203125,-5.653159032440185,-11.982231121063231,6.177788471221923
1788862710517415200,5.417415283203125,-5.215169766235351,-10.62920790786743,3.7228339439392086
1788862710527421200,5.427421142578125,-4.655674765777587,-9.368062183380127,2.086397109222412
1788862710537428200,5.43742822265625,-4.157680820465088,-8.18427910003662,1.0166378799438476
1788862710547434200,5.447434326171875,-3.9324762268066404,-7.349151633453369,0.5500678314208984
1788862710557440300,5.457440185546875,-3.9004537796020506,-6.730849054718017,0.46238019561767574
1788862710567447300,5.467447265625,-4.138976119995117,-6.501903520965576,1.6086042404174803
1788862710577453000,5.477453125,-4.721515311431885,-7.640496047973633,4.132092790222168
1788862710587460400,5.48746044921875,-4.983381118011474,-8.93097074279785,6.491877801513671
1788862710597466000,5.497466064453125,-4.855590604400635,-9.18715032043457,6.891110928344726
1788862710607472000,5.50747216796875,-4.885218849945068,-9.083750736236572,5.737704278564453
1788862710617479400,5.5174794921875,-4.856338792419433,-8.827870433807373,4.248959758758545
1788862710627485200,5.527485107421875,-4.380491212463379,-8.011597305297851,2.9638720176696776
1788862710637492200,5.5374921875,-3.4124855537414547,-7.076212644195556,2.475005966186523
1788862710647498200,5.547498291015625,-2.2911013511657714,-6.99091921005249,3.62631768951416
1788862710657504300,5.557504150390625,-2.5106197158813477,-7.632415617370605,5.1152118469238275
1788862710667511300,5.56751123046875,-4.166958351898193,-7.899518740081787,5.200654918670654
1788862710677517000,5.57751708984375,-5.247192213439941,-7.940669081115722,4.746205516052246
1788862710687524400,5.5875244140625,-5.146486106109619,-8.856600853729248,5.147234294128418
1788862710697530400,5.5975302734375,-5.204246221160888,-9.114576082611084,5.394136340332031
1788862710707537200,5.607537109375,-5.327996519470214,-8.576778534698486,5.242403810119629
1788862710717543400,5.61754345703125,-5.56711741027832,-7.805995237731933,5.135412923431396
1788862710727549400,5.627549560546875,-5.710320597076415,-7.299023036193847,5.84155277557373
1788862710737556200,5.63755615234375,-5.5668181350708,-7.382670456695556,7.129333993530273
1788862710747562200,5.647562255859375,-5.421819297027588,-7.378630241394043,7.624035911560058
1788862710757569300,5.6575693359375,-4.904372463226318,-7.411101601409912,7.444620424652099
1788862710767575300,5.6675751953125,-3.9170635536193847,-7.7227967300415035,7.3469070693969725
1788862710777581300,5.677581298828125,-3.4096424392700193,-7.764246346282959,6.564152764129639
1788862710787588400,5.68758837890625,-3.5836709724426266,-7.02279201965332,5.033958628082275
1788862710797594400,5.697594482421875,-4.06655151977539,-5.915024839019775,3.88803385848999
1788862710807601200,5.70760107421875,-4.254047437286377,-5.250184965515136,3.7659295738220213
1788862710817607200,5.717607177734375,-4.350114778900147,-5.389796849822997,4.420893365478515
1788862710827614200,5.7276142578125,-4.850203650665283,-5.610063402557373,5.061192671966553
1788862710837620200,5.7376201171875,-5.4029649589538575,-5.913528462982177,5.909637885284424
1788862710847626200,5.747626220703125,-5.72034631652832,-6.504148085021972,6.856395004272461
1788862710857633300,5.75763330078125,-6.273855812835693,-7.29767629776001,7.407959211730956
1788862710867639300,5.767639404296875,-6.757484548187255,-7.64229169921875,7.238569444274902
1788862710877646000,5.77764599609375,-6.5668462409973145,-7.447014626312256,6.526893000793456
1788862710887652000,5.787652099609375,-6.669198361968994,-6.621763241577148,5.22265164642334
1788862710897658400,5.797658447265625,-6.911611280059814,-5.565770671844482,4.047248268890381
1788862710907665700,5.807665771484375,-6.400149950408935,-4.9163434715270995,3.955670055389404
1788862710917671700,5.817671630859375,-5.969792201995849,-4.50738390045166,4.4184991638183595
1788862710927678700,5.8276787109375,-6.265326469421386,-4.572625895690917,5.652859757232665
1788862710937684700,5.837684814453125,-7.495048297119141,-5.426158787536621,7.3663599578857415
1788862710947690800,5.847690673828125,-8.757391122436523,-7.504475466156006,9.099013771820069
1788862710957697500,5.857697509765625,-8.297405128479003,-9.374496600341796,9.485228427124023
1788862710967703800,5.867703857421875,-6.801926916503906,-9.656862758636475,8.335263442230223
1788862710977710800,5.8777109375,-6.029497605895996,-9.094075730895996,6.442946305084228
1788862710987716600,5.887716552734375,-5.360168604278564,-8.303689907836914,4.998494515991211
1788862710997724000,5.897723876953125,-5.452644643402099,-6.321590208435058,3.680636139678955
1788862711007729700,5.907729736328125,-5.481375063323974,-4.1952398590087885,2.6882395515441893
1788862711017735700,5.917735595703125,-5.539584091186523,-2.8643630111694334,1.645115815734863
1788862711027743000,5.927742919921875,-5.960813945770263,-2.1924901702880857,0.32441432495117184
1788862711037748700,5.937748779296875,-5.431246466064453,-1.3046902671813965,-0.4918588035583496
1788862711047755800,5.947755859375,-5.6857800300598145,-0.062249243164062495,-0.5533598587036133
1788862711057761800,5.95776171875,-6.791003371429443,1.054047280883789,-0.44846389846801754
1788862711067767800,5.967767822265625,-6.25006343383789,1.3000515014648437,-0.13033435287475587
1788862711077774800,5.97777490234375,-5.50292287826538,0.6440402465820312,0.2587234169006348
1788862711087780600,5.987780517578125,-5.41987400817871,-1.1213842025756835,1.3938742790222167
1788862711097788000,5.997787841796875,-3.9240965209960934,-3.3348236373901363,3.910329861450195
1788862711107794000,6.0077939453125,-3.5983354576110838,-3.844040402984619,5.772569840240478
1788862711117800700,6.01780078125,-4.88402174911499,-2.8070518089294434,5.684882204437256
1788862711127806700,6.027806640625,-4.994304663085937,-2.2694038986206055,4.209006518554688
1788862711137812700,6.037812744140625,-5.557839878845215,-3.1578023521423337,2.8369793296813963
1788862711147819800,6.04781982421875,-6.9892731964111325,-3.902099793243408,1.4502876556396485
1788862711157825800,6.05782568359375,-9.048286624145508,-4.300435094451904,1.2071265495300292
1788862711167832800,6.067832763671875,-8.750657430267333,-5.241954897308349,4.024652990722656
1788862711177838800,6.0778388671875,-7.172878536224365,-4.93534744720459,6.613084260559082
1788862711187845600,6.087845703125,-6.707954501342773,-3.746476685333252,5.257517208099365
1788862711197851600,6.0978515625,-7.709778258514404,-3.133261785125732,2.1505916412353514
1788862711207858000,6.10785791015625,-8.521562258911132,-2.1754314834594726,1.6430208892822264
1788862711217864700,6.11786474609375,-7.915529963684081,-1.2051812606811523,2.1932383583068846
1788862711227870700,6.12787060546875,-7.128735443115234,-0.08110358123779296,2.0823568939208985
1788862711237877800,6.137877685546875,-7.369951260375976,0.7417536018371581,2.57286895904541
1788862711247883800,6.1478837890625,-8.629301333618164,0.6431424209594726,3.7262756088256834
1788862711257889800,6.157889892578125,-8.673893339538573,-0.9644143562316894,5.356876576995849
1788862711267896600,6.167896484375,-6.784568954467773,-3.1980548675537106,6.953659446716308
1788862711277902800,6.17790283203125,-5.256769020080566,-4.744110589599609,7.577348979187011
1788862711287909600,6.18790966796875,-5.766285060882568,-5.540332279205322,7.111377481079101
1788862711297915600,6.19791552734375,-6.16761311416626,-5.970091477203368,6.584204203033447
1788862711307923000,6.2079228515625,-5.447556964874267,-6.21190584487915,6.215796422576904
1788862711317928700,6.2179287109375,-5.491251145172119,-6.072742873382568,5.306747979736328
1788862711327934700,6.227934814453125,-6.117484516906738,-5.498882662963867,4.198232611083984
1788862711337941800,6.237941650390625,-5.408651187896728,-4.886116675567627,3.744381758880615
1788862711347947800,6.24794775390625,-4.144961624145507,-4.368969116973877,3.31985987701416
1788862711357954800,6.257954833984375,-3.90060341720581,-3.818452372741699,2.464830609130859
1788862711367960600,6.267960693359375,-4.742614213562011,-3.151367935180664,1.407790576171875
1788862711377967900,6.2779677734375,-5.361515342712402,-2.620752992248535,1.0251672233581541
1788862711387974000,6.287973876953125,-4.39859736251831,-2.2074539306640624,1.5779285316467284
1788862711397979600,6.297979736328125,-2.7920880485534667,-1.9681834022521971,2.727294966125488
1788862711407986700,6.307986572265625,-3.0781951469421385,-2.042254016113281,3.5079543449401855
1788862711417992700,6.31799267578125,-4.005050464630127,-2.4117092597961425,3.3647511581420897
1788862711427999700,6.327999755859375,-4.220827889251709,-3.350535585784912,3.2386066581726074
1788862711438005800,6.338005859375,-4.714781619262695,-5.110273805999755,4.61602080078125
1788862711448011500,6.348011474609375,-6.0245595649719235,-7.300519412231445,6.8593877563476555
1788862711458018800,6.358018798828125,-7.066935112762451,-9.419238243865966,8.858845417785645
1788862711468024800,6.36802490234375,-7.596053679656982,-11.366622019195557,9.556007013702391
1788862711478031600,6.378031494140625,-7.576151878356933,-13.217938452911376,9.2443118850708
1788862711488038000,6.388037841796875,-7.732074261474609,-15.364789154052733,8.883984535217285
1788862711498044700,6.398044677734375,-8.531587978363037,-16.430358530426023,7.455843244934082
1788862711508050700,6.40805078125,-8.808866458129883,-15.480459021759032,4.530877004241943
1788862711518056700,6.418056640625,-7.981669784545898,-13.480552447509766,2.2854151222229
1788862711528063700,6.428063720703125,-6.786214968109131,-11.636268981170653,2.8452093978881834
1788862711538069800,6.43806982421875,-6.240037714385986,-9.77402900238037,4.856338792419433
1788862711548076500,6.44807666015625,-5.555146401977539,-8.31835439300537,6.584353840637207
1788862711558082800,6.458082763671875,-4.873996029663085,-7.408707399749756,6.509535038757324
1788862711568089600,6.468089599609375,-4.621108479309082,-6.88901600189209,5.291185668945312
1788862711578095600,6.478095703125,-4.2980408927917475,-6.874650791931152,5.122095176696777
1788862711588102000,6.488101806640625,-3.842095114135742,-6.7848682296752925,5.885246955871581
1788862711598108700,6.498108642578125,-3.9246950714111324,-6.600514701843261,5.762993033599853
1788862711608114700,6.50811474609375,-3.985747213745117,-6.764667153167724,4.689941777038574
1788862711618122000,6.5181220703125,-4.078073615264892,-7.541735229492187,4.044554792022705
1788862711628127700,6.528127685546875,-4.6079403701782224,-8.560916948699951,4.2311528839111325
1788862711638134800,6.538134765625,-4.759523262786865,-9.415347666168213,5.297769723510742
1788862711648140500,6.548140625,-4.569782781219482,-10.092158547973632,6.41631081161499
1788862711658146800,6.558146728515625,-5.210082087707519,-10.322899732971191,5.689969882965087
1788862711668153900,6.56815380859375,-5.929539686584472,-10.005069462585448,3.355623264312744
1788862711678159600,6.57815966796875,-5.510105483245849,-9.658508772277832,2.283170558166504
1788862711688167000,6.5881669921875,-5.012859725952148,-9.508721530914306,3.123834616088867
1788862711698173000,6.5981728515625,-5.44591095123291,-9.182361917114257,3.8754642997741695
1788862711708178700,6.6081787109375,-5.87971036453247,-8.474875326538086,3.9098809486389157
1788862711718185700,6.618185791015625,-5.567715960693359,-8.072350172424317,4.400991564178467
1788862711728191700,6.628191650390625,-5.308992543792725,-7.972990803527831,5.786635774993896
1788862711738198800,6.63819873046875,-5.302408489227295,-8.216151909637452,7.464821501159667
1788862711748204800,6.648204833984375,-5.571606538391113,-7.6856866043090815,7.552209861755371
1788862711758211800,6.6582119140625,-4.848856912231445,-7.15641839981079,6.873752966308594
1788862711768217900,6.6682177734375,-4.145410536956787,-7.649324666595459,6.941239525604248
1788862711778224600,6.678224609375,-4.554819020843506,-8.10093095474243,6.542156036376952
1788862711788230700,6.688230712890625,-5.259013584136962,-7.89772308883667,5.504568891906738
1788862711798237000,6.69823681640625,-5.402216770935058,-8.05080235748291,5.42630842514038
1788862711808243700,6.70824365234375,-5.231480265045166,-8.718784620666504,6.119130530548095
1788862711818249700,6.718249755859375,-4.64774397277832,-9.283666574859618,6.669946549987793
1788862711828256800,6.7282568359375,-3.9453450607299803,-8.964639203643799,6.124517484283447
1788862711838262800,6.7382626953125,-3.5271079582214355,-8.212710244750976,5.31827007522583
1788862711848268800,6.748268798828125,-3.3539772506713863,-7.678055086517333,4.923526076507568
1788862711858275600,6.758275634765625,-3.6550481094360348,-7.271340079498291,4.786607669067383
1788862711868281900,6.76828173828125,-4.619312828063965,-6.71648384475708,4.482244783020019
1788862711878288600,6.77828857421875,-4.803067805480957,-6.393565895843506,4.5224972984313965
1788862711888294700,6.788294677734375,-4.22636448059082,-6.764367877960205,5.555595314788818
1788862711898302000,6.798302001953125,-4.39246222076416,-7.465120776367187,6.701071171569824
1788862711908307200,6.80830712890625,-5.1882349975585935,-7.583334483337402,6.575076309204102
1788862711918314500,6.818314453125,-5.825391914367676,-6.664110683441161,5.596745655822754
1788862711928320500,6.828320556640625,-5.665878228759765,-5.885097318267822,5.187486809539795
1788862711938326300,6.838326171875,-5.24165562210083,-5.450250441741943,4.9357963600158685
1788862711948333600,6.84833349609375,-4.796034838104248,-4.911255792999268,4.485237535095215
1788862711958339300,6.85833935546875,-5.123591552734375,-4.159775746917725,3.9597102706909175
1788862711968346400,6.868346435546875,-6.151601890563964,-3.423259461212158,3.7585973312377927
1788862711978352400,6.878352294921875,-7.141454639434814,-2.938732900238037,4.2791865547180175
1788862711988359400,6.888359375,-7.829787616729736,-2.8739398178100584,5.729923123168945
1788862711998365400,6.898365478515625,-8.461108666992187,-3.650708618927002,7.774122428131103
1788862712008371500,6.908371337890625,-9.225607184600829,-5.327397969055175,9.130886581420897
1788862712018378500,6.91837841796875,-9.682899701690673,-7.429656664276123,9.872191270446777
1788862712028384500,6.928384521484375,-9.604639234924315,-9.152584033966065,10.13151323776245
1788862712038391300,6.938391357421875,-9.220070593261719,-8.834903401184082,8.514230016326904
1788862712048397300,6.948397216796875,-7.433098329162597,-7.002291667938232,6.739079122924804
1788862712058404400,6.958404296875,-7.155370936584473,-5.804741925048828,6.96533117980957
1788862712068410400,6.968410400390625,-8.040627000427246,-5.047426012420654,6.8302084236145015
1788862712078416400,6.97841650390625,-7.0832456115722655,-4.744709140014648,5.79052635269165
1788862712088423400,6.98842333984375,-4.8403275688171385,-3.854664672851562,2.4595932929992674
1788862712098429400,6.998429443359375,-4.314650666809082,-1.6397288619995116,-1.799092910003662
1788862712108436200,7.008436279296875,-4.894496381378174,-0.25528175201416015,-2.833238389587402
1788862712118442200,7.018442138671875,-5.619041658782959,0.030226795959472655,-1.682225941467285
1788862712128449500,7.028449462890625,-5.484367815399169,-1.5351321769714354,1.2107178520202635
1788862712138455300,7.038455322265625,-5.35657730178833,-4.216488398742675,3.309534882354736
1788862712148461300,7.04846142578125,-5.2450972869873045,-6.011092180633544,2.78999312210083
1788862712158468600,7.058468505859375,-5.917867953491211,-6.439803915405273,2.3319524169921872
1788862712168474400,7.068474365234375,-6.631489685821533,-5.888239707946777,1.609502066040039
1788862712178481400,7.0784814453125,-6.3347583175659175,-5.064783974456787,1.6383821235656737
1788862712188487400,7.0884873046875,-4.193294570159912,-5.326200868225097,4.096628678131103
1788862712198494500,7.098494384765625,-2.7507880699157714,-5.229983889007568,5.121197351074218
1788862712208500500,7.10850048828125,-2.767697119140625,-5.1042883018493646,3.928735286712646
1788862712218506200,7.11850634765625,-4.2794858299255365,-4.065354418945312,-0.09516951599121093
1788862712228513500,7.128513427734375,-4.536263957977295,-2.3307553161621093,-3.324498642730713
1788862712238519600,7.13851953125,-4.269909023284912,-1.260846449279785,-3.3918355644226073
1788862712248526300,7.1485263671875,-4.157082270050049,-0.7001543479919433,-2.9043162513732907
1788862712258532600,7.15853271484375,-4.602553416442871,-0.5770026000976562,-2.073079362487793
1788862712268539400,7.168539306640625,-5.093215119171142,-0.1384147834777832,-0.4337994132995605
1788862712278545400,7.17854541015625,-5.202001657104492,0.945560018157959,1.1426327423095703
1788862712288551400,7.188551513671875,-5.512050772094726,1.8243816650390623,2.745700391387939
1788862712298558500,7.198558349609375,-6.036380935668945,2.024896054077148,4.626944345855713
1788862712308564500,7.208564453125,-6.970867771148681,1.202188508605957,6.8320040748596185
1788862712318571300,7.2185712890625,-8.364592412567138,0.049829322052001954,7.901164753723144
1788862712328577500,7.22857763671875,-8.724919762420654,-1.319055477142334,9.134627521514892
1788862712338584300,7.238584228515625,-8.652046249389647,-3.100191874694824,10.736348432159422
1788862712348590300,7.24859033203125,-8.780734588623046,-4.9932571998596185,11.247959399414063
1788862712358596400,7.258596435546875,-8.434922086334227,-6.486790122985839,10.178948358154296
1788862712368603400,7.268603271484375,-8.148216437530516,-7.560290292358398,8.132205213928222
1788862712378609400,7.278609375,-7.079953584289551,-8.493131114196776,5.9676972755432125
1788862712388616400,7.288616455078125,-5.615300718688965,-8.649053497314453,3.493738772583008
1788862712398622500,7.29862255859375,-4.9732057609558105,-7.968352037811279,0.9317933586120605
1788862712408629500,7.30862939453125,-6.1379848686218255,-6.804021842956542,-0.7695861961364746
1788862712418635300,7.31863525390625,-8.04361975250244,-5.208286436462402,-1.0676643028259276
1788862712428641300,7.328641357421875,-9.001300416564941,-2.986168020629883,0.1740285331726074
1788862712438648600,7.338648681640625,-8.129811012268066,-1.571194839477539,3.4440590881347655
1788862712448654300,7.348654296875,-6.103568219757079,-2.0629040054321286,7.588871074676513
1788862712458661400,7.358661376953125,-4.144063798522949,-3.778798407745361,9.74888988494873
1788862712468667400,7.36866748046875,-2.583343591308594,-5.534047499847412,9.402628469848633
1788862712478674400,7.37867431640625,-2.3329998802185057,-6.203526139068603,7.365911045074462
1788862712488680400,7.388680419921875,-3.2007483444213864,-6.565200227355956,5.195118327331543
1788862712498687500,7.3986875,-4.7667058677673335,-6.562656388092041,3.2977135116577148
1788862712508693500,7.408693603515625,-5.011064074707031,-6.536020894622802,2.5999533653259275
1788862712518699500,7.418699462890625,-4.615272612762451,-6.7094508773803705,3.0365958930969237
1788862712528706300,7.428706298828125,-5.205742597198486,-6.275352188873291,3.055450231170654
1788862712538712600,7.438712646484375,-5.322011015319824,-5.792322003936767,3.234117530059814
1788862712548719400,7.44871923828125,-4.481047682189941,-6.192004043579101,4.728548278808593
1788862712558725400,7.458725341796875,-3.7696705139160156,-6.97805037612915,6.175394269561767
1788862712568732400,7.468732421875,-4.179527910614014,-7.235427054595947,6.027402679443359
1788862712578738400,7.478738525390625,-4.656572591400146,-7.006182245635986,4.957793087768555
1788862712588744400,7.488744384765625,-4.50094948348999,-6.932111631774902,4.121917433166503
1788862712598751200,7.498751220703125,-3.8899791473388667,-7.6737155960083,4.9078141281127925
1788862712608757500,7.508757568359375,-4.048894282531738,-9.106495652008055,6.782773303222656
1788862712618764300,7.518764404296875,-5.470301880645752,-10.219799423980712,7.277175946044921
1788862712628770300,7.528770263671875,-6.394912634277343,-11.015123287963867,5.7992053337097165
1788862712638777600,7.538777587890625,-6.864774710083007,-12.102090841674803,4.314351391601562
1788862712648783400,7.548783447265625,-8.106467546081543,-13.460800283813477,3.9267899978637693
1788862712658790400,7.558790283203125,-8.577975635528563,-14.208539389801025,4.6630070083618165
1788862712668796400,7.56879638671875,-7.8164698699951165,-13.909862732696533,5.802946273803711
1788862712678802400,7.578802490234375,-6.867168911743164,-13.405434370422363,7.504475466156006
1788862712688809500,7.5888095703125,-6.60141252746582,-12.624475716400145,9.12280615081787
1788862712698815200,7.598815185546875,-6.338349620056152,-10.887033499145508,8.485349958801269
1788862712708822500,7.608822509765625,-5.353135636901855,-9.490765018463135,7.2541317550659175
1788862712718828500,7.61882861328125,-5.024082546234131,-8.429684770202636,6.4281321823120114
1788862712728835300,7.62883544921875,-4.828805473327637,-7.7790604690551755,5.508309832000732
1788862712738841300,7.63884130859375,-4.059967465209961,-7.537096463775634,4.154538430786133
1788862712748847400,7.648847412109375,-3.1384991012573242,-7.329698744964599,2.965667668914795
1788862712758854400,7.6588544921875,-3.4917934837341305,-7.5902178131103515,2.9596821647644043
1788862712768860400,7.6688603515625,-5.083787950134277,-8.447491645050048,3.8625954658508297
1788862712778867500,7.678867431640625,-6.064512805175781,-9.16156229019165,5.463568188476562
1788862712788873500,7.68887353515625,-6.509684676361084,-9.526378768157958,7.01665687789917
1788862712798880300,7.69888037109375,-7.173028173828125,-9.379733916473388,7.666233715820312
1788862712808886500,7.708886474609375,-6.959794588470459,-8.821735292053223,7.4119994270324705
1788862712818892500,7.718892578125,-5.85412233428955,-7.91014300994873,6.85669427947998
1788862712828899300,7.7288994140625,-5.083787950134277,-7.103745963287353,6.498461856079101
1788862712838905300,7.7389052734375,-4.405630329895019,-6.332663391113281,5.410297201538086
1788862712848912400,7.748912353515625,-3.0348002418518063,-5.557241328430176,3.2781109855651853
1788862712858918400,7.75891845703125,-0.08439560852050781,-4.931905782318115,1.6534955215454101
1788862712868925400,7.768925537109375,2.833388027191162,-4.116081566619873,0.9335890098571776
1788862712878931500,7.778931396484375,2.6575638427734374,-3.0225299583435055,0.14350246200561523
1788862712888938500,7.7889384765625,-0.3624222763061523,-1.566705711364746,-0.46582186050415036
1788862712898944300,7.7989443359375,-3.52411520614624,-0.560542463684082,0.903362213897705
1788862712908950500,7.808950439453125,-6.692541828155517,-0.058957215881347655,5.154716174316406
1788862712918957600,7.81895751953125,-9.503184939575196,-1.3410522048950195,10.881796183013915
1788862712928963300,7.82896337890625,-10.938658472442626,-6.030245793914794,15.337106197357176
1788862712938970600,7.838970703125,-10.655993038940428,-11.201122829437255,17.433828301239014
1788862712948976600,7.8489765625,-8.627505682373046,-13.280486971282958,16.128090570831297
1788862712958983400,7.8589833984375,-5.6574985229492185,-11.870451831054687,11.2109989112854
1788862712968989700,7.86898974609375,-3.5933974166870115,-9.420435344696044,7.332841134643554
1788862712978995500,7.878995361328125,-3.7779005821228027,-7.573009488677978,5.594800366973876
1788862712989002500,7.88900244140625,-4.652831651306152,-6.191106217956543,5.378424391937256
1788862712999008500,7.899008544921875,-5.566369222259521,-5.27966357345581,6.472424913024902
1788862713009015600,7.909015625,-7.070077502441406,-5.1788078285217285,8.361599660491942
1788862713019021600,7.919021484375,-8.82951644744873,-6.081272216796875,10.370185215759276
1788862713029028400,7.9290283203125,-9.105747463989257,-7.6753616096496575,11.709890682220458
1788862713039034600,7.93903466796875,-7.521833428192139,-9.26466259918213,11.871948207092284
1788862713049041400,7.94904150390625,-5.521477941131591,-10.08722050704956,11.273547429656983
1788862713059047400,7.95904736328125,-3.6923078727722167,-10.040533574676513,9.579200842285156
1788862713069053400,7.969053466796875,-2.1639093879699707,-9.145251791381835,7.008127534484863
1788862713079060500,7.979060546875,-1.7203835304260253,-7.470807005310058,4.5684360427856445
1788862713089066500,7.98906640625,-1.4733318466186522,-5.646724615478515,2.4260744697570797
1788862713099073500,7.999073486328125,-1.2835913650512694,-3.9579146194458006,0.476895043182373
1788862713109079600,8.00907958984375,-1.2081740127563476,-2.146252150726318,-1.050904891204834
1788862713119086600,8.019086669921874,-1.5043068305969238,-0.7607575775146483,-1.878251202392578
1788862713129092400,8.02909228515625,-2.0778677658081053,-0.21697452545166016,-2.8993782104492185
1788862713139098400,8.039098388671874,-3.0533553047180173,0.1253963119506836,-4.535366132354736
1788862713149105700,8.049105712890626,-5.131821620941162,0.8473977500915527,-5.839158573913574
1788862713159111400,8.059111328125,-6.910414179229736,1.8073229782104492,-5.389647212219238
1788862713169118500,8.069118408203124,-7.542633055114746,1.374571028137207,-1.2018892333984375
1788862713179124500,8.07912451171875,-8.762029888153076,-0.8875006278991698,5.47119970626831
1788862713189131500,8.089131591796875,-9.091831166839599,-4.78181926574707,11.234192739868163
1788862713199137500,8.099137451171876,-6.9630866157531734,-9.53131680908203,13.737480213165282
1788862713209144600,8.10914453125,-3.529801435089111,-11.008539233398437,10.855310327148437
1788862713219150600,8.119150634765624,-4.919485861206055,-6.73548782043457,3.5327941871643063
1788862713229156600,8.129156494140625,-7.682095301818848,-2.429216859436035,0.35239655685424803
1788862713239163400,8.139163330078125,-9.78121160736084,0.5283703788757323,2.4082675949096677
1788862713249169700,8.149169677734376,-10.205883126831054,0.866401725769043,6.791302646636963
1788862713259176400,8.159176513671875,-8.782530239868164,-1.7304092498779295,9.630975453186034
1788862713269182500,8.169182373046874,-7.999327021789551,-3.117400199127197,7.146243042755127
1788862713279189500,8.179189453125,-7.352742935943603,-1.7304092498779295,3.5812767707824706
1788862713289195500,8.189195556640625,-7.318475924682617,-0.3981856636047363,2.752284445953369
1788862713299202600,8.19920263671875,-7.813926030731201,-1.1327566604614256,4.535665407562256
1788862713309208300,8.209208251953125,-8.747664678192137,-2.6927286796569825,6.771550482940674
1788862713319214600,8.219214599609375,-8.456469901275634,-3.4460043769836424,8.066514305877686
1788862713329221400,8.229221435546876,-6.64585489578247,-4.207959055328369,7.927052059173583
1788862713339227400,8.239227294921875,-5.393537789916992,-4.788852233123779,6.490531063079834
1788862713349234700,8.249234619140625,-6.165817462921142,-4.372410781860351,4.562151263427734
1788862713359240400,8.259240478515625,-6.074987437438964,-3.680785777282715,2.9331963088989257
1788862713369247500,8.26924755859375,-5.269937129211425,-3.5419220809936522,2.3268647384643555
1788862713379253500,8.27925341796875,-5.562927557373047,-3.2263363746643066,1.5469535476684568
1788862713389259500,8.289259521484375,-4.805910919952392,-2.590675833892822,1.1150994232177733
1788862713399266600,8.2992666015625,-3.305943579864502,-2.0126257705688477,1.1061211669921875
1788862713409272300,8.309272216796876,-3.243694336700439,-1.5487491989135742,0.5624877525329589
1788862713419279600,8.319279541015625,-4.122067070770264,-0.9548375495910644,-0.14933832855224607
1788862713429285600,8.32928564453125,-5.417779081726074,-0.5111620544433594,-0.20904373245239258
1788862713439292400,8.33929248046875,-5.091569105529785,-0.49904140853881834,0.9012672874450683
1788862713449298400,8.34929833984375,-4.028842843627929,-0.9500491462707519,2.6581623931884764
1788862713459305500,8.359305419921874,-3.301903364562988,-1.77485161819458,4.6903906898498535
1788862713469311500,8.3693115234375,-2.661454420471191,-3.274519683074951,7.18230570526123
1788862713479317500,8.3793173828125,-3.30055662612915,-4.986972420501709,8.03778388595581
1788862713489324500,8.389324462890626,-4.41819988861084,-6.1641714492797846,6.868665287780761
1788862713499330600,8.39933056640625,-4.893598555755615,-6.8439750831604,5.699546689605713
1788862713509337300,8.40933740234375,-4.911405430603027,-7.314435709381103,6.194098970031738
1788862713519343400,8.41934326171875,-5.876268699645996,-7.431901228332519,7.351246559906006
1788862713529350400,8.429350341796875,-6.578218698883056,-7.06109924621582,7.311592594909667
1788862713539356400,8.4393564453125,-6.214599321746825,-6.81180299835205,6.708702689361572
1788862713549362400,8.449362548828125,-5.955875904846191,-7.192780337524414,6.782174752807617
1788862713559369500,8.459369384765624,-6.579715074920654,-7.688679356384277,7.158064413452148
1788862713569375500,8.46937548828125,-7.114669508361816,-8.284685932159423,7.771279313659668
1788862713579382500,8.479382568359375,-6.843226895141601,-9.07926160812378,8.377311608886718
1788862713589388500,8.489388427734376,-6.567893704223632,-10.00417163696289,8.601618376922607
1788862713599395600,8.4993955078125,-6.745812815093994,-10.945990715026856,8.777442561340331
1788862713609401300,8.5094013671875,-7.088034014892577,-11.63926173324585,9.03422068939209
1788862713619408600,8.51940869140625,-7.313088970947265,-12.050316230773925,8.594735047149658
1788862713629414700,8.52941455078125,-7.524975817871093,-12.531700402069092,7.78893655090332
1788862713639420400,8.53942041015625,-7.12529377822876,-13.015628412628173,7.260266896820068
1788862713649427500,8.549427490234375,-6.24377865447998,-13.487136502075195,7.13756406173706
1788862713659433700,8.559433837890625,-5.862950952911377,-13.334206871032714,6.067505557250977
1788862713669440500,8.5694404296875,-5.296871897888184,-12.538284456634521,4.599859939575195
1788862713679446500,8.579446533203125,-4.409071994781494,-12.058396661376952,5.927744035339355
1788862713689453600,8.58945361328125,-4.0081928543090815,-10.181941110229491,6.45461803817749
1788862713699459600,8.59945947265625,-3.464709077453613,-8.008604553222655,4.658517880249023
1788862713709466400,8.60946630859375,-3.520523903656006,-6.7100494277954095,3.6351463081359863
1788862713719472400,8.619472412109374,-3.273921132659912,-5.999270809936523,4.345625650787353
1788862713729478700,8.629478759765625,-2.8495488883972167,-5.321861377716064,4.8141409881591795
1788862713739485400,8.6394853515625,-2.3546973327636715,-4.889558340454101,4.267215546417236
1788862713749491500,8.649491455078126,-2.1583727966308595,-5.054010066986084,3.2043396469116208
1788862713759498500,8.65949853515625,-2.5665841796874997,-5.537938077545165,1.9090765487670898
1788862713769504500,8.66950439453125,-2.963572742462158,-6.399551399993896,1.6243161888122557
1788862713779511600,8.679511474609376,-3.4275989517211913,-6.968174294281005,2.0898387741088866
1788862713789517300,8.689517333984375,-3.6132992179870604,-7.0847419876098625,2.5686791061401366
1788862713799524600,8.699524658203124,-3.7784991325378416,-7.670872481536865,3.2830490264892576
1788862713809530600,8.709530517578125,-4.154987343597412,-8.667010009765624,4.508281726074219
1788862713819536400,8.719536376953124,-5.262604886627197,-9.107094202423095,4.42433503036499
1788862713829543700,8.729543701171876,-4.8588826316833496,-8.975263473510742,3.665822016906738
1788862713839549400,8.739549560546875,-4.142567422485351,-8.560916948699951,4.050540296173096
1788862713849556500,8.749556396484374,-4.491372676849365,-7.854477821350097,5.028272399139404
1788862713859562500,8.7595625,-4.806509470367431,-6.8393363174438475,5.699097776794433
1788862713869569500,8.769569580078125,-4.45635747756958,-5.8743234107971185,6.00750087814331
1788862713879575600,8.779575439453126,-4.5319244674682615,-5.414487054443359,5.896469776153564
1788862713889582300,8.789582275390625,-5.168033921051025,-5.36929649810791,5.865345154571533
1788862713899588600,8.799588623046875,-5.639691648101806,-5.959018294525146,6.638073740386963
1788862713909594000,8.809593994140625,-6.7927990226745605,-6.78007982635498,7.633014167785644
1788862713919601200,8.81960107421875,-7.556100439453124,-7.612513816070556,8.801983128356934
1788862713929607200,8.829607177734376,-7.358728440093993,-8.71504368057251,10.429142431640624
1788862713939614000,8.839614013671875,-7.184849544525146,-9.783456171417235,11.857732634735108
1788862713949620000,8.849619873046874,-6.903231574249268,-10.395473970794677,12.650961572265624
1788862713959627300,8.859627197265626,-6.359747797393799,-10.13794765472412,12.238859611511229
1788862713969633000,8.869633056640625,-5.844695165252685,-8.737040408325194,10.894665016937255
1788862713979639000,8.87963916015625,-5.52282467956543,-7.264606387329101,10.097395864105223
1788862713989646000,8.88964599609375,-5.347599045562744,-6.008697978973388,9.249698838806152
1788862713999652000,8.899652099609375,-5.20948353729248,-5.258115758514404,8.492981476593018
1788862714009659100,8.9096591796875,-4.34113652267456,-5.840206037139892,8.215403721618651
1788862714019665000,8.919664794921875,-3.757250592803955,-6.974309436035155,7.6361565574645995
1788862714029672200,8.929672119140625,-3.7764042060852048,-7.88470461730957,6.7553896217346185
1788862714039678200,8.93967822265625,-4.013729445648194,-8.322843521118164,6.031293257141113
1788862714049685000,8.94968505859375,-4.0912417243957515,-8.255506599426269,5.409549013519287
1788862714059691300,8.959691162109374,-4.204218115234375,-7.710227171325683,4.816086277008056
1788862714069697000,8.969697021484375,-4.857685530853272,-6.834248638916015,3.8998552291870117
1788862714079704000,8.9797041015625,-5.909787522888183,-5.300014287567138,3.0590415336608885
1788862714089710300,8.98971044921875,-6.714239280700683,-3.778798407745361,3.890428060150146
1788862714099717000,8.999717041015625,-7.306355278778076,-3.365200070953369,6.0704983093261715
1788862714109723100,9.00972314453125,-7.722347817230224,-3.9463925239562987,8.24802471923828
1788862714119730200,9.019730224609376,-7.2066966346740715,-5.2433016357421875,9.16111337738037
1788862714129736200,9.029736083984375,-5.501127227020263,-6.839037042236328,8.33735836868286
1788862714139743000,9.039742919921874,-3.5660137351989745,-7.152378184509277,5.8174611213684075
1788862714149749000,9.0497490234375,-2.7364228599548337,-5.746832172393798,3.2995091629028317
1788862714159755300,9.05975537109375,-2.4383447532653806,-4.311209001922607,2.4953566802978515
1788862714169762000,9.069761962890626,-3.039439007568359,-3.580977495574951,2.347514727783203
1788862714179768000,9.07976806640625,-4.880580084228515,-2.9409774642944333,2.413953823852539
1788862714189775000,9.089775146484374,-6.639270841217041,-1.480514451599121,2.5392004981994627
1788862714199781000,9.099781005859375,-7.404966459655761,0.016160861206054686,3.1184476623535153
1788862714209788200,9.1097880859375,-7.39957950592041,0.07032967376708985,3.4428619873046875
1788862714219794000,9.1197939453125,-6.664559596252441,-0.7930792999267577,3.038092269134521
1788862714229801200,9.12980126953125,-4.770446807861328,-1.5197195037841795,2.596362062835693
1788862714239807200,9.13980712890625,-3.2742204078674315,-2.077568490600586,3.1884780609130856
1788862714249813000,9.14981298828125,-2.9884125846862792,-2.5471312911987303,4.713734156036376
1788862714259820300,9.1598203125,-3.965845412445068,-3.1132103462219236,5.178957466125488
1788862714269826000,9.169825927734376,-4.205115940856933,-3.191021900177002,3.801393685913086
1788862714279833000,9.1798330078125,-4.1198225067138665,-2.255637239074707,1.4119804290771483
1788862714289839000,9.189839111328125,-6.23120909576416,-0.5798457145690917,-1.3976152191162108
1788862714299846100,9.19984619140625,-8.096591464233398,1.4727332962036133,-1.8884265594482421
1788862714309852200,9.20985205078125,-8.9255837890625,1.7794903839111327,1.5158289260864257
1788862714319859000,9.21985888671875,-8.122628407287598,0.6212953308105469,5.006574946594238
1788862714329865200,9.229865234375,-7.00318949356079,-1.2023381462097167,7.7778633682250975
1788862714339871200,9.239871337890625,-6.659621555328369,-3.212120802307129,9.063848934936523
1788862714349878000,9.2498779296875,-7.031321363067627,-3.9166146408081053,9.000103315734863
1788862714359884000,9.259884033203125,-8.308029398345946,-3.1548096000671384,7.749731498718261
1788862714369891000,9.26989111328125,-8.597428524017333,-3.2185552192687985,7.694814498138427
1788862714379897000,9.27989697265625,-7.518242125701904,-4.236090924835205,7.849240505218505
1788862714389904100,9.289904052734375,-6.951414882659912,-4.185064501953125,5.869535007476807
1788862714399910100,9.29991015625,-6.8110548103332516,-4.064755868530273,4.778976151275635
1788862714409917200,9.309917236328126,-6.517166556549072,-4.21978042602539,5.17746109008789
1788862714419923000,9.3199228515625,-6.666654522705078,-3.964049761199951,4.799626140594482
1788862714429929000,9.329928955078126,-6.106411334228516,-3.591003215026855,3.864391117095947
1788862714439936300,9.339936279296875,-4.7289971916198725,-3.366397171783447,3.7261259712219235
1788862714449942000,9.34994189453125,-4.59013349533081,-2.917035447692871,3.710563660430908
1788862714459949000,9.359948974609376,-4.855590604400635,-2.371007831573486,3.6363434089660642
1788862714469955300,9.369955322265625,-4.14975002746582,-2.014720697021484,3.5992332832336422
1788862714479962000,9.379962158203124,-3.695749537658691,-1.7281646858215332,3.1530139488220215
1788862714489968000,9.389968017578125,-3.900004866790771,-1.5674538993835447,2.714126856994629
1788862714499975200,9.39997509765625,-4.028842843627929,-1.7693150268554687,2.9958944648742674
1788862714509981200,9.409981201171876,-4.1739913192749025,-2.159719535064697,3.3463457328796387
1788862714519987200,9.4199873046875,-3.724629595184326,-2.7150246826171873,3.591751403045654
1788862714529994000,9.429993896484374,-3.010259674835205,-3.649361880493164,4.05398196105957
1788862714540000300,9.440000244140625,-3.1976059547424316,-4.601206678009033,4.359093035125732
1788862714550007000,9.450007080078125,-3.86244582824707,-5.335777674865723,4.329015876770019
1788862714560013000,9.460012939453126,-4.182670300292968,-5.826738652801513,4.008492129516601
1788862714570020000,9.47002001953125,-4.321533996582031,-5.9968766082763665,3.93920991897583
1788862714580026000,9.480026123046875,-4.918737673187255,-5.932831713867187,4.36642527770996
1788862714590033200,9.490033203125,-5.5653217590332025,-6.004358488464355,5.1325698089599605
1788862714600039000,9.500038818359375,-4.977395613861083,-6.271012698364258,6.186916365051269
1788862714610045200,9.510045166015624,-4.247762657928466,-6.639270841217041,7.17557201309204
1788862714620052200,9.52005224609375,-4.190301818084716,-7.129333993530273,7.647828290557861
1788862714630058000,9.53005810546875,-5.328445432281494,-7.480084536743163,7.020098542785644
1788862714640065300,9.540065185546876,-6.323685134887695,-7.911190473175048,6.283731894683838
1788862714650071000,9.550071044921875,-6.622810704803467,-8.927229802703858,6.9998974662780755
1788862714660078000,9.560078125,-7.125593053436279,-10.609605381774902,8.992471797943114
1788862714670084400,9.57008447265625,-7.530662046813965,-12.298415377807617,10.611251395416259
1788862714680091100,9.580091064453125,-7.169137596130371,-13.706056316375731,10.959757374572753
1788862714690097200,9.59009716796875,-7.42471862335205,-14.605378314971922,10.018087934112549
1788862714700103200,9.600103271484375,-7.763797433471679,-14.522179807281493,8.499565531158447
1788862714710110200,9.610110107421875,-6.911012729644775,-13.587244058990478,7.624484824371337
1788862714720116200,9.6201162109375,-5.909039334869385,-11.739369290161132,6.464494120025634
1788862714730123000,9.630123046875,-5.111770182037353,-9.900023864746093,4.929511580657959
1788862714740129300,9.64012939453125,-4.784063829803467,-8.787767555999755,3.9573160690307616
1788862714750136000,9.650135986328126,-4.481197319793701,-7.993790430450439,4.068496808624268
1788862714760142000,9.66014208984375,-3.89446827545166,-7.490110256195068,5.310937832641601
1788862714770149000,9.670149169921874,-3.6444238395690918,-7.263708561706543,6.223577577972412
1788862714780155100,9.680155029296875,-3.7391444427490232,-7.260865447235107,5.76493832244873
1788862714790161200,9.6901611328125,-3.829226280212402,-7.165995206451416,4.843619596099853
1788862714800168000,9.70016796875,-4.07956999130249,-7.299621586608886,4.662258820343017
1788862714810174200,9.71017431640625,-4.340986885070801,-7.702595653533935,4.856638067626953
1788862714820181200,9.72018115234375,-4.671386714172363,-8.051400907897948,4.520851284790039
1788862714830187000,9.73018701171875,-4.7201685729980465,-8.435520636749267,3.919308117675781
1788862714840194300,9.7401943359375,-4.4002433761596675,-8.888024750518799,4.5492824295043945
1788862714850200000,9.750199951171876,-4.85843371887207,-9.151536570739745,5.504868167114258
1788862714860207000,9.76020703125,-5.134964010620117,-8.91899973449707,4.886266313171387
1788862714870213000,9.770213134765624,-4.572625895690917,-8.70172593383789,3.8744168365478515
1788862714880219100,9.78021923828125,-4.223222090911865,-8.613589385223388,3.546560846710205
1788862714890226200,9.79022607421875,-4.269909023284912,-8.24173993988037,3.799149121856689
1788862714900232200,9.800232177734374,-4.269011197662353,-7.641693148803711,4.175936608123779
1788862714910239200,9.8102392578125,-4.0161236473083495,-7.153276010131836,4.130746051788329
1788862714920245200,9.820245361328125,-3.524713756561279,-7.219415830993652,5.048623113250732
1788862714930252000,9.830251953125,-4.082113830566406,-7.78235249633789,6.899490634155273
1788862714940258000,9.840258056640625,-5.393687427520752,-7.89083975906372,7.37399147567749
1788862714950265000,9.85026513671875,-5.846191541290283,-7.803900311279296,7.059153957366943
1788862714960271000,9.86027099609375,-6.01378565750122,-7.778611556243896,7.7218989044189446
1788862714970277000,9.870277099609375,-5.916221939849853,-7.723844193267822,9.020304392242432
1788862714980284200,9.8802841796875,-5.36914686050415,-7.403021170806884,9.459041846466064
1788862714990290200,9.890290283203125,-4.673930553436279,-6.716184569549561,8.717886795043945
1788862715000297000,9.900296875,-3.8652889427185055,-6.283881532287597,8.19684865875244
1788862715010303000,9.910302978515626,-3.620332185363769,-6.072892510986327,8.06412010421753
1788862715020310300,9.920310302734375,-4.165013063049316,-5.800851347351074,7.454795781707763
1788862715030316000,9.93031591796875,-4.21978042602539,-5.66258620147705,6.899939546966553
1788862715040323000,9.940322998046875,-3.7366006034851074,-5.932831713867187,7.131728195190429
1788862715050329000,9.9503291015625,-4.13718046875,-6.119579443359375,6.940790612792968
1788862715060335000,9.960335205078126,-4.832546413421631,-5.942258882904053,5.591059426879882
1788862715070342100,9.970342041015625,-5.389647212219238,-5.298068998718262,4.048445369720459
1788862715080348000,9.980347900390624,-5.1876364471435545,-4.69906967086792,4.066252244567871
1788862715090355200,9.990355224609376,-4.981585466766357,-4.620210653686523,5.453991381835937
1788862715100361200,10.000361328125,-5.558887342071533,-4.9732057609558105,6.4284314575195305
1788862715110368000,10.010367919921874,-5.878213988494872,-5.440523997497558,7.171382160186767
1788862715120374300,10.020374267578125,-5.676502498626709,-6.043264265441894,8.020126648712157
1788862715130381000,10.030381103515625,-6.355408306884765,-6.21834026184082,8.378209434509277
1788862715140387000,10.040386962890626,-6.463745932006836,-6.155193193054199,8.29291600036621
1788862715150393000,10.05039306640625,-5.568164873504639,-5.970390752410888,8.102726605987549
1788862715160400100,10.060400146484374,-4.900032972717285,-5.915024839019775,7.803900311279296
1788862715170406100,10.07040625,-4.257938014984131,-5.909787522888183,7.166444119262695
1788862715180413000,10.080412841796875,-4.761917464447021,-5.046079273986816,5.793070191955566
1788862715190419200,10.090419189453126,-5.310339282226562,-3.7487212493896482,4.587290380859375
1788862715200426000,10.100426025390625,-5.386055909729004,-2.6515783386230467,4.067299707794189
1788862715210432000,10.110431884765624,-6.182127961730957,-1.8390461502075195,4.0143279960632325
1788862715220439300,10.120439208984376,-7.0844427124023435,-1.6329951698303222,4.792892448425293
1788862715230445000,10.130445068359375,-7.886799543762207,-1.9217957450866698,5.584924285125732
1788862715240451000,10.140451171875,-6.688651250457763,-2.720860549163818,5.5169888130187985
1788862715250458000,10.1504580078125,-5.163544792938232,-3.550301786804199,4.808454759216309
1788862715260464000,10.160464111328125,-5.322609565734863,-3.922001594543457,3.71565133895874
1788862715270471200,10.17047119140625,-5.151274509429931,-3.865588217926025,3.508702532958984
1788862715280477000,10.180476806640625,-5.611110865783691,-3.526060494995117,4.292953214263916
1788862715290484200,10.190484130859375,-7.285256376647949,-3.0365958930969237,4.670339250946045
1788862715300490200,10.200490234375,-7.4411787597656245,-2.597708801269531,4.708796115112304
1788862715310497000,10.2104970703125,-6.242581553649902,-2.040458364868164,4.241627516174316
1788862715320503300,10.22050341796875,-6.128408061981201,-1.167622222137451,3.2332197044372557
1788862715330509300,10.23050927734375,-6.449829634857178,-0.7026981872558593,3.1769559654235837
1788862715340516000,10.24051611328125,-5.8098296035766595,-1.0794856735229492,3.097199122619629
1788862715350522000,10.250522216796876,-5.110124168395996,-2.3279122016906735,2.663549346923828
1788862715360529200,10.260529052734375,-5.289240380096436,-3.106775929260254,2.844161934661865
1788862715370535200,10.27053515625,-5.842300963592529,-2.1727380065917967,1.8394950630187987
1788862715380542000,10.2805419921875,-4.311807552337646,-1.4456488899230957,1.919850456237793
1788862715390548200,10.29054833984375,-4.209305793762207,-1.194407353210449,2.535309920501709
1788862715400555000,10.300554931640624,-5.193921226501464,-0.632667788696289,1.847575493621826
1788862715410561000,10.31056103515625,-6.121075819396972,-0.239420166015625,1.788917552947998
1788862715420567000,10.320567138671874,-5.968744738769531,0.07766191635131836,3.056198419189453
1788862715430574000,10.330573974609376,-4.790348609161376,-0.1657984649658203,5.040243407440185
1788862715440580000,10.340580078125,-4.442291542816162,-0.692073917388916,5.8171618461608885
1788862715450587100,10.350587158203124,-4.182071749877929,-0.9856628959655761,5.012261175537109
1788862715460593200,10.36059326171875,-4.06670115737915,-1.4354735328674315,4.472069425964356
1788862715470600200,10.37060009765625,-4.966023155975342,-1.8893243850708006,4.618115727233887
1788862715480606000,10.38060595703125,-6.456413689422607,-2.099116305541992,4.838382279968261
1788862715490613200,10.39061328125,-6.289268486022949,-2.411260346984863,4.900930798339844
1788862715500619300,10.400619384765625,-5.221005632781982,-2.6747721672058105,4.693084166717529
1788862715510625000,10.410625,-4.9820343795776365,-3.1383494636535643,4.943278240203857
1788862715520632000,10.420632080078125,-5.463119275665283,-3.8049849884033202,5.17102667312622
1788862715530638300,10.430638427734374,-5.5826797210693355,-4.165761251068115,4.918139122772216
1788862715540645000,10.44064501953125,-5.501276864624023,-4.421940828704834,4.966172793579101
1788862715550651100,10.450651123046875,-5.681440539550781,-4.887912326812744,5.437680883026123
1788862715560658200,10.460658203125,-6.437260076141357,-5.400421119689941,5.879111814117431
1788862715570664200,10.470664306640625,-6.181679048919677,-5.934178452301025,6.451176373291015
1788862715580671000,10.4806708984375,-5.760149919128418,-6.319345644378662,7.04808077468872
1788862715590677000,10.490677001953125,-6.143072547149658,-6.701370446777343,7.6008420829772945
1788862715600683300,10.500683349609375,-6.131251176452636,-7.0364090415954585,7.8164698699951165
1788862715610690000,10.51068994140625,-5.974580605316162,-7.187692658996582,7.428758838653564
1788862715620696000,10.520696044921875,-5.889736083984375,-7.35438894958496,7.153126372528075
1788862715630703000,10.530703125,-5.5452703201293945,-7.811232553863525,7.681197476196289
1788862715640709000,10.540709228515626,-5.727977834320068,-8.455572075653075,7.979874133300781
1788862715650716200,10.550716064453125,-5.672911196136474,-8.43297679748535,6.911611280059814
1788862715660722000,10.560721923828124,-4.751742107391357,-8.174103742980957,5.834220532989502
1788862715670729200,10.570729248046876,-4.540304173278808,-8.364891687774657,5.755211878204346
1788862715680735200,10.5807353515625,-5.461772537231445,-8.254309498596191,5.673060833740234
1788862715690741000,10.590740966796876,-5.997175883483886,-8.000673760223389,5.358672228240967
1788862715700748300,10.600748291015625,-5.6564510597229,-8.464101419067383,5.97577770614624
1788862715710754000,10.610754150390624,-5.5535003883361815,-9.335291548156738,7.323713240814208
1788862715720761000,10.620760986328126,-5.970091477203368,-9.88341409072876,7.971494427490234
1788862715730767000,10.63076708984375,-5.733963338470459,-9.990105702209473,7.95473501586914
1788862715740774100,10.640774169921874,-5.416581980895995,-9.764003282928467,7.349450908660888
1788862715750780200,10.6507802734375,-5.93103606262207,-8.993668898773192,6.224026490783691
1788862715760787000,10.660786865234375,-6.219537362670898,-8.252214572143554,5.934926640319824
1788862715770793200,10.670793212890626,-5.56083263092041,-7.819761897277831,6.725911013793945
1788862715780799200,10.68079931640625,-4.931905782318115,-7.751676787567138,8.049904531860351
1788862715790806000,10.690805908203124,-5.1714755859374995,-7.722347817230224,7.798812632751464
1788862715800812000,10.70081201171875,-4.958092362976074,-7.7498811363220215,6.424540879821777
1788862715810819000,10.710819091796875,-4.187009790802001,-8.256703700256347,5.951087501525879
1788862715820825000,10.7208251953125,-4.126256923675537,-8.58111802520752,4.925920278167724
1788862715830832000,10.73083203125,-4.6341269508361815,-8.620323077392577,3.817105634307861
1788862715840838100,10.740838134765625,-4.6651019348144525,-8.707412162780761,3.7153520637512205
1788862715850845200,10.75084521484375,-4.576666110992432,-8.790012120056153,5.045181448364257
1788862715860851000,10.760850830078125,-4.790348609161376,-8.529792327117919,6.643311056518554
1788862715870857200,10.770857177734374,-4.604199430084228,-8.130858475494385,7.151181083679199
1788862715880864300,10.7808642578125,-4.304774584960938,-7.71232209777832,6.478260779571533
1788862715890870000,10.7908701171875,-4.446032482910156,-7.274781744384765,4.990414085388183
1788862715900877300,10.800877197265624,-3.9049429077148434,-6.900538097381592,4.159027558898925
1788862715910883000,10.810883056640625,-3.487005080413818,-6.8692638381958,4.566939666748047
1788862715920890000,10.82089013671875,-3.7102643852233883,-6.996455801391601,4.659714981079102
1788862715930896100,10.830896240234376,-4.048445369720459,-7.216572716522216,4.463689720153808
1788862715940903200,10.840903076171875,-4.26452206954956,-7.542333779907226,4.656422953796387
1788862715950909200,10.8509091796875,-4.209156156158447,-7.547271820831298,5.355978751373291
1788862715960915200,10.860915283203125,-3.9332244148254394,-7.6002435325622555,6.729801591491698
1788862715970922200,10.870922119140625,-4.27140539932251,-7.728482958984374,7.908347358703613
1788862715980928300,10.88092822265625,-4.743063126373291,-7.92944626083374,8.627505682373046
1788862715990935000,10.89093505859375,-5.016451028442383,-8.140884194946288,8.711452378082274
1788862716000941000,10.900941162109374,-5.439626171875,-8.138639630889893,8.132055576324463
1788862716010948000,10.910947998046876,-5.035305366516113,-8.258948264312744,8.13400086517334
1788862716020954000,10.9209541015625,-4.481197319793701,-8.185476200866699,8.515277479553221
1788862716030961200,10.930961181640624,-4.369118754577636,-7.4688617164611815,8.208670029449463
1788862716040967200,10.94096728515625,-4.277839816284179,-6.796539962768554,7.563881594848632
1788862716050973200,10.95097314453125,-4.309862263488769,-6.474519839477539,7.088482927703857
1788862716060980000,10.96097998046875,-5.295525159454345,-6.272509074401855,6.669347999572754
1788862716070986000,10.970986083984375,-5.933729539489746,-6.12287147064209,6.497264755249023
1788862716080993300,10.9809931640625,-5.457433046722412,-6.318597456359863,6.506691924285889
1788862716090999000,10.9909990234375,-4.396502436065673,-6.463147381591797,6.412270596313476
1788862716101006000,11.001006103515625,-3.868431332397461,-6.521506047058105,6.3892264053344725
1788862716111012000,11.01101220703125,-3.661482526397705,-6.535571981811523,6.036680210876464
1788862716121019100,11.02101904296875,-3.5339912879943847,-6.430077471160888,5.969941839599609
1788862716131025200,11.031025146484374,-2.832041288757324,-6.535422344207763,6.711845079040527
1788862716141031000,11.041031005859375,-3.169773360443115,-6.675632778930663,7.18200643005371
1788862716151038200,11.0510380859375,-4.7679029685974115,-6.5120788780212395,6.886172887420654
1788862716161044200,11.061044189453124,-5.56726704788208,-5.709273133850098,6.481403169250488
1788862716171051000,11.071051025390625,-6.005705226898193,-4.579808500671386,6.872256590270996
1788862716181057300,11.081057373046875,-6.758831286621094,-4.1109938880920405,7.952640089416503
1788862716191064000,11.09106396484375,-7.367108145904541,-3.9597102706909175,8.342745322418212
1788862716201070000,11.101070068359375,-6.635230625915527,-4.0075943038940425,7.870489044952392
1788862716211077000,11.1110771484375,-5.296871897888184,-4.3156981300354005,7.423970435333252
1788862716221083100,11.121083251953126,-4.547486778259277,-4.519205271148682,6.76077657546997
1788862716231089200,11.131089111328125,-4.8695069015502925,-4.237288025665283,5.6197898468017575
1788862716241096000,11.141095947265624,-5.32455485458374,-3.7666777618408203,4.763862753295898
1788862716251102200,11.151102294921875,-6.074987437438964,-2.937535799407959,4.258686203002929
1788862716261109000,11.16110888671875,-6.070199034118652,-2.5213936233520506,4.524741862487793
1788862716271115000,11.171114990234376,-6.270713423156738,-2.3210288719177243,4.674229828643798
1788862716281122300,11.181122314453125,-5.842300963592529,-2.2671593345642087,4.357895934295654
1788862716291128000,11.191128173828124,-4.760570726013183,-2.532017893218994,4.29639487915039
1788862716301135000,11.201135009765625,-5.737405003356933,-2.2629694816589354,4.023455889892578
1788862716311141000,11.21114111328125,-6.557568709564209,-1.901295393371582,3.8853403816223144
1788862716321147100,11.221147216796876,-6.161328334808349,-1.4990695144653319,3.9805098976135254
1788862716331154200,11.231154296875,-5.800252796936035,-1.3347674255371094,4.0161236473083495
1788862716341160000,11.241159912109374,-5.860107838439941,-1.717989328765869,4.008492129516601
1788862716351167200,11.251167236328126,-5.692812997436523,-2.1248539733886718,3.6572926734924316
1788862716361173200,11.26117333984375,-5.17102667312622,-2.246658982849121,2.658461668395996
1788862716371180000,11.271179931640624,-5.946897648620605,-2.148347077178955,1.6211737991333006
1788862716381186000,11.28118603515625,-6.785167504882812,-1.4870985061645507,1.5846622238159178
1788862716391193000,11.291193115234375,-7.194426351165771,-0.4560954162597656,2.6856957122802734
1788862716401199000,11.30119921875,-8.105868995666503,-0.1785176612854004,3.266139977264404
1788862716411205000,11.311205078125,-8.734047656249999,0.4177881896972656,4.116081566619873
1788862716421212200,11.321212158203124,-7.928099522399902,0.39698856277465816,6.4257379806518555
1788862716431218200,11.33121826171875,-7.2717889923095695,-0.45878889312744137,7.71875651473999
1788862716441225000,11.341224853515625,-5.935076277923583,-1.5346832641601562,8.023568313598632
1788862716451231000,11.35123095703125,-5.954379528808594,-2.851045264434814,7.9210665550231925
1788862716461238300,11.36123828125,-6.449530359649658,-3.3735797767639157,6.445041231536865
1788862716471244000,11.371244140625,-6.104765320587158,-3.4017116462707517,5.103540113830566
1788862716481251000,11.3812509765625,-6.547094077301025,-3.15391177444458,3.7714661651611325
1788862716491257000,11.391257080078125,-6.551134292602539,-2.5363573837280273,2.565237441253662
1788862716501263000,11.40126318359375,-5.347150132751464,-2.136675344085693,2.6104279975891114
1788862716511270100,11.411270263671875,-4.341884710693359,-2.1103391258239745,3.018489743041992
1788862716521276200,11.421276123046875,-4.793640636444091,-2.080710880279541,2.908805379486084
1788862716531283200,11.431283203125,-5.66258620147705,-2.1818659004211423,2.8622680847167965
1788862716541289200,11.441289306640625,-5.64388150100708,-2.1939865463256836,3.2505776664733883
1788862716551296300,11.451296142578125,-4.091989912414551,-2.2842180213928223,4.23923331451416
1788862716561302300,11.46130224609375,-2.606088507080078,-2.9707553474426267,5.9974751586914055
1788862716571309000,11.47130908203125,-2.778620664215088,-3.3942297660827636,6.162076522827148
1788862716581315000,11.481315185546874,-3.106775929260254,-3.5995325584411617,4.88387211151123
1788862716591321300,11.4913212890625,-3.6809354148864744,-4.171746755218505,3.805583538818359
1788862716601328000,11.501328125,-4.622455217742919,-4.573074808502197,3.2095769630432125
1788862716611334100,11.511334228515626,-5.578789143371582,-4.562300901031493,3.4057518615722655
1788862716621341200,11.521341064453125,-6.412420233917236,-4.594622623443604,4.426130681610108
1788862716631347200,11.53134716796875,-5.763741221618652,-5.250484240722656,6.26338118057251
1788862716641354000,11.54135400390625,-4.895693482208252,-6.428281819915771,8.022520850372313
1788862716651360000,11.551360107421875,-4.772841009521484,-7.654113069915771,8.474127138519286
1788862716661367300,11.5613671875,-4.717175820922852,-8.892364241027831,8.309675411987305
1788862716671373000,11.571373046875,-4.88447066192627,-10.018985759735108,7.748833673095703
1788862716681379000,11.581379150390624,-5.187786084747314,-10.564115550231932,6.960842051696777
1788862716691386000,11.59138623046875,-5.861155301666259,-10.327239223480223,6.053888535308838
1788862716701392100,11.60139208984375,-6.492177076721191,-9.33978067626953,5.485564916229248
1788862716711399200,11.611399169921874,-6.271162335968017,-8.053196559143066,5.594052178955078
1788862716721405000,11.621405029296875,-5.710470234680176,-7.022492744445801,6.081272216796875
1788862716731412200,11.631412109375,-5.160402403259277,-6.407631830596923,6.630142947387695
1788862716741418200,11.641418212890626,-4.550329892730713,-6.168810214996338,7.066785475158691
1788862716751425000,11.651425048828125,-4.037521824645996,-6.152948628997803,6.9731123352050774
1788862716761431300,11.661431396484375,-4.354753544616699,-6.215347509765625,6.30094021911621
1788862716771437000,11.67143701171875,-5.011363349914551,-6.512527790832519,5.856815811157226
1788862716781444000,11.681444091796875,-5.276970096588134,-7.218069092559814,6.120926181793212
1788862716791450000,11.6914501953125,-5.100696999359131,-8.24892254486084,6.616376287841796
1788862716801457200,11.70145703125,-4.995801039123535,-9.510816457366943,6.924629751586914
1788862716811463200,11.711463134765625,-4.969315183258057,-10.761188274383544,7.1793129531860345
1788862716821470000,11.721469970703126,-5.031714064025879,-11.515062522125243,7.642890249633789
1788862716831476200,11.731476318359375,-5.533897862243652,-11.537957075500488,7.889343383026122
1788862716841483000,11.74148291015625,-6.433818411254882,-11.077671806335449,7.937676329040527
1788862716851489000,11.751489013671875,-6.999149278259277,-10.480767404937744,8.170362802886963
1788862716861495000,11.7614951171875,-7.12454559020996,-10.063577765655516,8.986486293792725
1788862716871502000,11.771502197265624,-6.80596713180542,-9.849296717071532,10.319906980895995
1788862716881508000,11.781508056640625,-6.311863764190673,-9.58922656173706,10.650905360412597
1788862716891515100,11.79151513671875,-5.384709171295166,-9.383474856567382,9.604489597320557
1788862716901521200,11.801521240234376,-4.446631033325195,-8.992322160339356,7.817816608428955
1788862716911528700,11.81152880859375,-3.6343981201171873,-8.690054200744628,6.788309894561767
1788862716921534500,11.821534423828124,-3.2433950614929197,-8.679729206085204,6.3612441734313965
1788862716931541500,11.83154150390625,-3.2983120620727537,-8.563311150360107,5.391143588256836
1788862716941547500,11.841547607421875,-3.408744613647461,-8.131307388305663,4.561253437805176
1788862716951553500,11.851553466796876,-3.3138743728637694,-7.659350386047363,4.793490998840332
1788862716961560600,11.861560546875,-3.258059546661377,-7.328800919342041,5.289539655303955
1788862716971566300,11.87156640625,-2.759317413330078,-7.184550269317627,5.62427897491455
1788862716981573600,11.88157373046875,-2.231246309661865,-7.055263379669189,5.31841971282959
1788862716991579600,11.89157958984375,-2.3593360984802243,-6.740276223754883,4.380042299652099
1788862717001586400,11.90158642578125,-2.989609685516357,-6.268618496704101,3.4669536415100097
1788862717011592400,11.911592529296875,-3.6323031936645505,-5.7200470413208,3.293074745941162
1788862717021599500,11.921599609375,-3.9891888786315914,-5.336825138092041,4.069095359039307
1788862717031605500,11.93160546875,-4.108749324035644,-5.3968298171997064,4.8892590652465815
1788862717041611500,11.941611572265625,-4.074631950378418,-5.716755014038085,5.18359623184204
1788862717051618600,11.95161865234375,-3.819200560760498,-5.9394157684326165,5.548412709808349
1788862717061624600,11.96162451171875,-3.491643846130371,-5.958120468902588,6.10296966934204
1788862717071631400,11.97163134765625,-3.3755250656127926,-5.73920065460205,6.508637213134765
1788862717081637400,11.981637451171874,-4.074931225585937,-5.271283867645264,6.6271501953125
1788862717091644400,11.99164453125,-5.406705899047851,-4.958690913391113,6.581660363769531
1788862717101650400,12.001650390625,-5.8642976913452145,-5.193921226501464,7.550863123321533
1788862717111657500,12.011657470703126,-5.878363626098633,-6.0160302215576165,9.222165519714355
1788862717121663500,12.02166357421875,-6.01378565750122,-6.912509105682372,10.156502717590332
1788862717131669500,12.03166943359375,-5.576544579315185,-7.739705779266357,10.063128852844237
1788862717141676500,12.041676513671876,-5.2633530746459956,-8.221089950561524,9.232939427185059
1788862717151682300,12.051682373046875,-5.416282705688476,-8.156745780944824,8.206126190185547
1788862717161689600,12.061689697265624,-5.088725991058349,-7.874978173065185,7.4503066535949705
1788862717171695400,12.0716953125,-4.498854557037353,-7.303063251495361,6.921487361907959
1788862717181702700,12.08170263671875,-3.884891468811035,-6.569838993072509,6.761375125885009
1788862717191708700,12.091708740234376,-3.6534020957946773,-5.902455280303955,6.94602792892456
1788862717201715500,12.101715576171875,-4.132840978240966,-5.322310290527343,7.116764434814453
1788862717211721500,12.111721435546874,-5.405209523010254,-4.516362156677245,6.995109062957764
1788862717221727500,12.1217275390625,-5.635052882385254,-3.9264907226562498,7.191882511901855
1788862717231734500,12.131734619140625,-5.513696785736084,-3.7666777618408203,7.364115393829345
1788862717241740500,12.141740478515626,-6.054786360931396,-3.916165727996826,6.932560544586181
1788862717251747600,12.15174755859375,-6.442796667480469,-4.030638494873046,6.083367143249512
1788862717261753600,12.161753662109374,-5.72663109588623,-3.5824738716125486,5.780500633239746
1788862717271760400,12.171760498046876,-4.7195700225830075,-3.3873464363098145,6.117783792114257
1788862717281766400,12.181766357421875,-4.830152211761474,-3.8284780921936035,6.249165608215332
1788862717291773400,12.1917734375,-6.013336744689941,-4.656871866607665,6.405387266540527
1788862717301779500,12.201779541015625,-6.298845292663574,-5.204096583557129,6.19918664855957
1788862717311785500,12.211785400390625,-6.268019946289062,-5.205592959594727,5.4698529678344725
1788862717321792500,12.22179248046875,-6.188712016296386,-4.844966334533691,4.861426470947265
1788862717331798500,12.231798583984375,-6.328623175811767,-4.577264661407471,4.30926371307373
1788862717341805600,12.2418056640625,-6.339097808074951,-4.201823913574218,3.9242461585998534
1788862717351811300,12.251811279296875,-6.808810246276855,-3.061435735321045,3.1476269950866698
1788862717361818600,12.261818603515625,-5.935375553131103,-1.8915689491271972,2.9836241813659665
1788862717371824400,12.271824462890624,-5.405508798217773,-1.2645873893737791,3.2830490264892576
1788862717381830400,12.281830322265625,-5.390993950653076,-1.0513538040161132,3.1208418640136717
1788862717391837700,12.291837646484375,-4.863371759796142,-1.4139257179260254,3.169174810028076
1788862717401843500,12.301843505859376,-4.198382248687744,-1.7559972801208494,3.5699043128967283
1788862717411850500,12.3118505859375,-4.211251082611084,-2.064699656677246,3.554042726898193
1788862717421856500,12.3218564453125,-5.361066429901123,-1.4031518104553222,2.0971710166931152
1788862717431863600,12.331863525390625,-5.538536627960204,0.10070610733032226,1.4034510856628417
1788862717441869600,12.34186962890625,-5.460874711608886,0.4010287780761719,2.226906819152832
1788862717451876400,12.35187646484375,-4.5516766311645505,-0.2952349922180176,2.968211508178711
1788862717461882600,12.361882568359375,-3.90075305480957,-1.1237784042358399,2.878728221130371
1788862717471888600,12.371888671875,-4.670788163757324,-1.1827356201171875,2.2254104431152344
1788862717481895400,12.3818955078125,-5.971438215637207,-0.9000701866149902,2.085349645996094
1788862717491901400,12.3919013671875,-6.0811225791931145,-0.616058014678955,2.869749964904785
1788862717501908500,12.401908447265624,-4.732139581298828,-0.6148609138488769,4.617517176818847
1788862717511914500,12.41191455078125,-4.531625192260742,-0.9249100288391112,5.365405920410156
1788862717521921300,12.42192138671875,-5.270834954833984,-1.2633902885437012,5.140949514770507
1788862717531927600,12.431927490234376,-6.443993768310547,-1.507449220275879,4.8650177734375
1788862717541934600,12.4419345703125,-7.228843000030517,-1.8082208038330077,4.824465982818603
1788862717551940400,12.4519404296875,-7.579743180847167,-2.47710089263916,5.545719232940674
1788862717561946400,12.4619462890625,-6.970867771148681,-2.9309517448425293,6.4266358062744136
1788862717571953400,12.471953369140625,-6.356605407714843,-3.107224842071533,7.23946726989746
1788862717581959400,12.48195947265625,-6.4549173133850095,-3.6510078941345214,8.266579782104492
1788862717591966500,12.491966552734375,-7.71890615234375,-4.284274233245849,8.300248242950438
1788862717601972500,12.501972412109374,-9.228599936676025,-4.96707061920166,8.13355195236206
1788862717611979500,12.5119794921875,-8.05035344467163,-6.057779113006592,9.575310264587403
1788862717621985500,12.521985595703125,-5.467758041381836,-7.279420510101318,10.721235034179687
1788862717631991300,12.5319912109375,-4.869656539154052,-8.067412131500244,9.700108026123047
1788862717641998600,12.54199853515625,-6.360196710205078,-7.717110501098633,7.2069959098815914
1788862717652004600,12.552004638671875,-5.816413658142089,-7.728782234191894,6.178835934448242
1788862717662011400,12.562011474609376,-4.280982205963134,-8.214954808807372,6.742820063018798
1788862717672017700,12.572017578125,-4.285321696472168,-7.950844438171386,6.2778960281372065
1788862717682024400,12.5820244140625,-4.562001625823974,-7.1674915824890135,5.067776726531982
1788862717692030500,12.592030517578126,-3.9354689788818358,-6.581061813354491,4.182520662689209
1788862717702037500,12.60203759765625,-3.7606922576904296,-6.004059213256836,3.6228760246276854
1788862717712043500,12.61204345703125,-4.365826727294921,-5.207538248443603,3.277811710357666
1788862717722049500,12.622049560546875,-4.283526045227051,-4.655375490570068,3.8616976402282712
1788862717732056300,12.632056396484375,-3.4243069244384765,-4.4671313850402825,4.927715929412842
1788862717742062600,12.6420625,-2.5589526618957517,-4.231003246307373,5.4439656623840325
1788862717752069400,12.6520693359375,-2.362777763366699,-4.0161236473083495,5.238213957214355
1788862717762075400,12.662075439453124,-2.273444113922119,-4.50109912109375,5.387552285766601
1788862717772082700,12.672082763671876,-2.1625626495361328,-5.6947582862854,6.098929454040527
1788862717782088400,12.68208837890625,-3.1185972999572753,-6.950666694641113,6.616525925445556
1788862717792095500,12.692095458984374,-4.986822782897949,-7.615356930541992,5.583577546691894
1788862717802101500,12.7021015625,-5.7894788894653315,-7.926603146362305,3.8385038116455075
1788862717812107500,12.712107421875,-5.4649149269104,-8.742277724456786,3.321655528259277
1788862717822114600,12.722114501953126,-5.588814862823486,-9.945962609100341,4.37974302444458
1788862717832120300,12.732120361328125,-6.520458583831787,-10.773308920288086,6.620117227935791
1788862717842127600,12.742127685546874,-6.866570361328125,-11.189451096343994,9.47445451965332
1788862717852133600,12.752133544921875,-6.447136157989502,-11.43440785369873,11.113135918426513
1788862717862140400,12.762140380859375,-6.657526628875732,-11.368417670440673,10.836904901885985
1788862717872146700,12.772146728515626,-7.059453232574462,-10.666318033599852,9.718363813781737
1788862717882153500,12.782153564453125,-6.740575498962402,-9.57037222366333,8.360402559661864
1788862717892159500,12.792159423828124,-5.691017346191406,-8.4145713722229,7.515548648834228
1788862717902165500,12.80216552734375,-5.092915843963623,-7.287351303100586,6.960243501281738
1788862717912173000,12.812173095703125,-5.108777429962158,-6.778433812713622,5.900509991455078
1788862717922179300,12.822179443359374,-4.349216953277588,-6.886771437835693,5.9400143188476555
