time,seconds_elapsed,z,y,x
1788862705133987000,0.033987060546875,-0.02876782932281494,-0.23119681981056928,-0.868484669522941
1788862705143992800,0.043992919921875,1.1045523102402686,-0.47243952507823705,-0.8554274734206497
1788862705153998800,0.053998779296875,1.6052379788547753,-0.14146978713423014,-0.2761816244408488
1788862705164006000,0.064005859375,1.442669581851363,-0.47718555056154727,0.9060971918195485
1788862705174012000,0.074011962890625,1.2089239543408155,-0.8556905082710087,1.4174687973603606
1788862705184018000,0.084017822265625,1.3343641054332256,-0.3291881152242422,0.9048338938854634
1788862705194024700,0.094024658203125,1.1954115618169308,0.11033230607062577,0.7479688230901956
1788862705204031000,0.104031005859375,0.6505483133018016,0.7291776133805513,0.8612959270626306
1788862705214038000,0.1140380859375,-0.11410042643249034,1.3948597829282283,0.8034419962480663
1788862705224043800,0.124043701171875,-0.05141279185116291,1.3766171470120547,0.9721902509301901
1788862705234049800,0.1340498046875,-0.893923354423046,1.208292670699954,0.6221537012055516
1788862705244056800,0.144056884765625,-1.2810954565823078,0.23019874868392942,0.026666473129391667
1788862705254062800,0.154062744140625,-1.2354577410012484,0.6884247472316026,-0.95414635245651
1788862705264068900,0.16406884765625,-1.5001561406582593,0.9514027528367937,-1.1120052565947174
1788862705274076000,0.174075927734375,-1.573680811074376,1.0451087721467018,-1.2500719572871923
1788862705284082000,0.18408203125,-1.790400484982133,1.3383708568565547,-1.5406939027518034
1788862705294088000,0.194087890625,-3.5237621549248694,1.2423676665201782,-1.324364981727302
1788862705304095000,0.204094970703125,-3.1025375610381363,0.9503703410491346,-1.5072987058892846
1788862705314101000,0.21410107421875,-1.6155261486351489,2.3788092991046605,-2.825107105579972
1788862705324107000,0.22410693359375,-1.674965595075488,2.56764684048295,-2.9235411763250827
1788862705334113800,0.23411376953125,-0.20857319233119487,2.847979447123408,-3.0893051544994115
1788862705344120000,0.2441201171875,0.35334932753443715,2.3751385016374287,-2.4501956423178313
1788862705354126800,0.254126953125,1.845924803805351,1.1111352688271552,-1.2020216276064515
1788862705364132900,0.2641328125,1.9785592503160236,0.8987356500755995,-0.4797688450530171
1788862705374139000,0.274138916015625,1.939347183868289,0.904254267366603,-0.7045119586795568
1788862705384146000,0.28414599609375,1.7768588663637637,0.3146571933075785,-0.27967005107849835
1788862705394152000,0.29415185546875,1.8180793500244616,0.0911363880176097,0.2514651163354516
1788862705404158000,0.304157958984375,1.3829144935905933,0.5482428079508245,0.8453910864442586
1788862705414165000,0.3141650390625,1.0596119292736053,0.8212355732224881,1.1741049352202564
1788862705424171000,0.3241708984375,1.0730150162041188,0.6740066380396484,1.0600015131130813
1788862705434177000,0.334177001953125,-0.08811550582647323,0.5587060420371591,0.8462925653286277
1788862705444183800,0.344183837890625,-1.0625772088199854,0.9787551624037325,-0.902146408367157
1788862705454190000,0.354190185546875,-0.8382523206055164,1.2177879365369677,-1.6809227499142287
1788862705464195800,0.36419580078125,0.18345453316569327,0.9923165086358785,-1.905824122842401
1788862705474203000,0.374202880859375,1.5164292300671338,0.8706539763860404,-1.1997928456410765
1788862705484209000,0.384208984375,2.5564409713357685,0.9619155251532793,-0.6027268970061094
1788862705494216000,0.3942158203125,3.0861995896995067,1.1224513934157787,-0.19659668587138876
1788862705504222000,0.404221923828125,3.0268478215426207,0.841840262094885,0.334516251444444
1788862705514228000,0.41422802734375,2.3403350454121825,0.3947501361981034,0.37966348009482026
1788862705524235000,0.424235107421875,2.353354101461172,0.31348741887584325,0.3192008280865848
1788862705534241000,0.434240966796875,1.8732453569293022,-0.33381694406867024,0.04453657680558972
1788862705544247000,0.4442470703125,1.7261913399219513,-1.0246776862755418,0.6007763839928433
1788862705554253800,0.45425390625,2.1648165659427643,-1.8654298608727753,1.0740344954449683
1788862705564260000,0.464260009765625,2.5382494810849425,-1.571198638869822,1.2719682934053242
1788862705574265900,0.474265869140625,2.700672332137823,-1.7758021969176827,0.49403512468412514
1788862705584273000,0.48427294921875,2.7435592877060175,-1.9315069917619228,0.3932749490790069
1788862705594279000,0.49427880859375,2.8519506888419386,-2.6851912698894735,-0.03380925755612552
1788862705604285000,0.504284912109375,-2.8484225147157907,-3.9113437146678565,1.3091209431052206
1788862705614292000,0.5142919921875,-5.316044215869903,-3.495435639628768,1.6974699800893662
1788862705624298000,0.524298095703125,-5.276648609548807,-3.6366353776499625,1.825706776162982
1788862705634303700,0.5343037109375,-3.013752777647972,-2.490741295456886,0.37239487733133136
1788862705644311000,0.54431103515625,-0.5027420166224241,-0.8354246959641576,-0.8378162672758102
1788862705654316800,0.55431689453125,-0.7118985617995262,-0.9562129295974969,-1.1205864763267337
1788862705664323800,0.56432373046875,-1.2706120564907788,-1.227112229721248,-0.2420881065832451
1788862705674330000,0.574330078125,-1.2624965545743703,-1.214639117117226,-0.41523317145220934
1788862705684335900,0.5843359375,-1.1837345680266618,-1.0857044019073248,0.4166734333883971
1788862705694343000,0.594343017578125,-0.7138818445712327,-0.9221472861275076,0.5843723251480609
1788862705704349000,0.604348876953125,0.7129156298875808,-0.6199965231716632,-1.335462860455364
1788862705714355000,0.61435498046875,-0.24383915150165555,-0.6929463163092732,-0.8916428422704339
1788862705724362000,0.624362060546875,-1.2275906608879565,-0.4627580890193581,0.052019525572657585
1788862705734367700,0.63436767578125,-1.154203937637806,-0.5610211871117353,-0.13839885525628923
1788862705744373800,0.644373779296875,-1.3473714710444211,-0.5274480033338069,-0.14771043508946896
1788862705754381000,0.654381103515625,-1.8900719885677097,-1.3187041794866323,-0.6866632905170321
1788862705764386800,0.66438671875,-2.961677722495794,-2.480183661085367,-0.1831070349022746
1788862705774392800,0.674392822265625,-3.6040836458742618,-4.031672806356847,0.7102747599899768
1788862705784400000,0.68439990234375,-2.7890409359425306,-5.567717129737138,0.5913979129359126
1788862705794406000,0.694406005859375,-1.989243141415715,-6.403201154673099,0.1241278994500637
1788862705804413000,0.704412841796875,-1.4938321983337401,-6.771259975561499,0.3787158239811659
1788862705814419000,0.7144189453125,-0.6289245105147362,-6.896590821060538,0.7054281967416405
1788862705824425000,0.724425048828125,-0.42002515496909615,-6.7559180295228956,0.23780191716402768
1788862705834432000,0.734431884765625,-0.7915186264812946,-6.55370501987338,1.236172611272335
1788862705844437800,0.744437744140625,-1.7589421014010904,-6.367330799868703,0.3945616278886795
1788862705854444000,0.754444091796875,-2.943402645614743,-5.481815792828798,-1.7894822010934353
1788862705864450800,0.764450927734375,-4.274889149785041,-4.547588485068083,-4.401716955843567
1788862705874456800,0.774456787109375,-4.956579620325565,-4.002648956446349,-6.332920580744743
1788862705884462800,0.784462890625,-4.044908427765965,-4.046449811989069,-4.6035903582751745
1788862705894469600,0.7944697265625,-2.7143846311479805,-3.88527374612689,-1.7231097405195235
1788862705904475600,0.8044755859375,-3.3333673011019824,-2.971648496890068,0.15750117674171923
1788862705914481700,0.814481689453125,-4.931108494460583,-1.877563658519834,0.998110289606452
1788862705924488700,0.82448876953125,-4.892185766348242,-1.5644455113478004,0.9099170423686503
1788862705934494700,0.83449462890625,-2.984688011205196,-2.0961390432968736,0.827227068722248
1788862705944501800,0.844501708984375,-1.081029980355501,-3.0056127258121967,0.4001777142047882
1788862705954507800,0.8545078125,-0.6923077261447906,-3.6037013685584065,0.03493804239034653
1788862705964513800,0.864513671875,-0.9203612794935703,-3.434052657905221,2.1324241163820026
1788862705974520600,0.8745205078125,-1.286341540542245,-2.053312147352844,6.030904550084471
1788862705984526600,0.884526611328125,-1.8346582905121147,-0.685229458321631,9.33551249743104
1788862705994532900,0.894532958984375,-2.1136592101573943,-3.09038944260478,15.227459243202208
1788862706004539600,0.90453955078125,-1.8407324958592652,-2.66116829700619,15.35323198724985
1788862706014545700,0.914545654296875,-2.3263930292993784,-1.598845355208218,17.0175785731554
1788862706024551700,0.9245517578125,-2.1078888100624082,-1.3423837457597254,17.12209576320648
1788862706034558700,0.934558837890625,-0.9296762203276157,3.800660403202474,15.440276648974418
1788862706044564700,0.944564697265625,-3.004843495005369,4.457368115916848,15.835404094052313
1788862706054570800,0.95457080078125,-2.4513223082602025,5.523589234197139,7.534160994845628
1788862706064577800,0.964577880859375,-2.552176299628615,5.5966416109263895,7.571945074316859
1788862706074583800,0.974583740234375,-2.66744343175292,5.652019214755296,7.602648255616426
1788862706084590600,0.984590576171875,-2.747560340040922,5.722389805054664,7.642226817288995
1788862706094596900,0.994596923828125,-1.6288497405886648,4.684457500408589,3.7326428057700394
1788862706104603000,1.004602783203125,4.189365414017439,-0.6298799115434288,1.3156997369736432
1788862706114609700,1.014609619140625,6.293923618352413,-1.103787171086669,1.8860551541417836
1788862706124615700,1.02461572265625,6.203659410059451,-0.978921020489931,1.9678110618084668
1788862706134622000,1.0346220703125,5.394222849571705,2.60002350795269,1.8560691812008618
1788862706144628700,1.044628662109375,4.434532014730572,2.3003706992924213,0.13511808001995085
1788862706154634800,1.054634765625,1.2139508425921202,4.866887074440718,-1.4647539878875016
1788862706164640800,1.064640869140625,-7.671658663478493,8.354801086392998,-1.2926239818125962
1788862706174647800,1.074647705078125,-7.585361605250835,8.36334095120132,-1.2960159623384475
1788862706184653800,1.08465380859375,-8.28556739116907,8.671391001328825,-3.446778868487477
1788862706194660600,1.09466064453125,-3.3411130929231643,5.140915027979016,-2.078952638435364
1788862706204667000,1.1046669921875,0.6152963826566934,1.6084680468171835,-0.7519581849873066
1788862706214673000,1.1146728515625,0.6265975288718938,1.6645061603814362,-0.7144733807235956
1788862706224679700,1.1246796875,1.6729244446367024,1.041769983112812,-0.2596370246142149
1788862706234685700,1.134685791015625,0.03815349730551243,3.036089112618565,0.13904431355297564
1788862706244692000,1.14469189453125,-2.2346809602856634,4.463527223068476,0.17786182772517203
1788862706254698800,1.15469873046875,-1.377870069682598,2.2327175512582063,0.691312869888544
1788862706264704800,1.164704833984375,0.08665412803702056,1.7089987975805996,0.500207529708743
1788862706274710500,1.17471044921875,-0.12966390626728533,1.4962725772231817,0.13201719139516352
1788862706284717800,1.1847177734375,-0.1351379537642002,1.5322715268433094,0.15859481719732282
1788862706294723800,1.194723876953125,-0.06377141123004257,-0.06061433543860912,0.5936211419433355
1788862706304729600,1.2047294921875,-0.07670213140845299,-0.11596329769492149,0.35498306621611114
1788862706314737000,1.21473681640625,0.005593801419064402,-0.2804705538064241,0.7253840663164853
1788862706324743000,1.224742919921875,0.44051206268072124,-0.10222644876539706,0.6861229000300169
1788862706334749700,1.234749755859375,0.38700383292026813,-0.08232114033401013,0.7068629057198762
1788862706344755700,1.244755615234375,-0.1389057087998837,0.6874696384638548,-0.291677591997385
1788862706354761700,1.25476171875,1.1305717176377772,-0.2521983990460634,-0.5797627124607563
1788862706364768800,1.264768798828125,0.36643786862306293,1.4032880040556193,-2.3429449356496335
1788862706374774800,1.27477490234375,-1.7691957843899726,1.6628922954440115,-2.799254286921024
1788862706384780500,1.284780517578125,-1.7813024017691612,1.6847043142795561,-2.7806016088992354
1788862706394787800,1.294787841796875,-2.5588006862044335,2.7321137645840645,-2.8303040897011753
1788862706404793900,1.3047939453125,-0.3312310192286968,2.3158996923357247,-0.28888708449602124
1788862706414799600,1.314799560546875,0.48855216322839257,1.5272446385920047,0.35335049657821654
1788862706424807000,1.324806884765625,-0.04177402589023113,1.7285557309657333,0.8498293611526488
1788862706434812700,1.334812744140625,-0.08047112855315208,1.7312012770384548,0.858048323443532
1788862706444819700,1.34481982421875,-0.20874504176676273,0.9163216487139463,1.5771932031095026
1788862706454825700,1.35482568359375,-1.400378838610649,-0.31538696888685225,2.347753212714195
1788862706464831700,1.364831787109375,-0.7688936838276684,-0.16951427061855792,2.2182786915391683
1788862706474838800,1.3748388671875,-0.6706764707036316,-0.2759188818514347,1.537759018343687
1788862706484844800,1.3848447265625,-0.6731525054283439,-0.26837621138691903,1.544111017718911
1788862706494850600,1.3948505859375,-0.5915941661603749,-0.47915948098301886,1.561862362986803
1788862706504857900,1.40485791015625,-1.9245956049382686,0.6402654042184353,1.8776345317989587
1788862706514863600,1.414863525390625,-1.7412236354894934,0.7605851435571909,1.5120692812919616
1788862706524869600,1.42486962890625,-0.895711991405487,1.0378881732434033,0.7079758353978395
1788862706534877000,1.434876953125,-0.919357509278506,1.0304337655842304,0.7061351759672164
1788862706544882700,1.444882568359375,-0.12058394323289394,1.2954916462033987,0.044299160453677176
1788862706554889700,1.4548896484375,-0.3904425021320581,2.565679339802265,-1.9630951392024754
1788862706564895700,1.464895751953125,0.35958047700896856,2.7397522966384886,-0.6508844133883714
1788862706574901800,1.47490185546875,0.4837329263783991,4.406631615892052,-0.72423781889081
1788862706584908800,1.48490869140625,0.49024420796856283,4.404633720073104,-0.7270534608334303
1788862706594914600,1.49491455078125,0.42163083660006523,4.327536451867222,-0.8935013296186923
1788862706604920800,1.5049208984375,-0.9653681498251855,3.7471915556043385,-0.960871569058299
1788862706614928000,1.514927978515625,-1.733853252851963,3.012020254766941,-0.7632283515423536
1788862706624933600,1.52493359375,-1.8972645304203033,1.6690332824170588,-0.8231061893999576
1788862706634939600,1.534939697265625,-1.8593740679651498,1.6904554251521824,-0.8118880452930927
1788862706644946700,1.54494677734375,-2.450979778432846,0.4023977283418178,-0.8547118724972009
1788862706654952700,1.55495263671875,-3.0310780064582823,0.7104197214186191,0.9256628930330276
1788862706664959700,1.564959716796875,-2.3046540757000447,0.6064256784588098,2.0781343077898025
1788862706674965800,1.5749658203125,-2.5090385841697453,-0.24819676218926906,3.2181782026499506
1788862706684971800,1.5849716796875,-2.512918640473485,-0.25656886921525,3.2118262032747267
1788862706694978800,1.594978759765625,-2.4909102222830057,-1.0764444061309097,3.0752696148842573
1788862706704984600,1.604984619140625,0.4129068473964929,-2.016691120311618,3.2331139059752223
1788862706714990800,1.614990966796875,1.8640087420284748,-1.0598492451608181,2.613164729076624
1788862706724997600,1.62499755859375,1.5175637870550154,0.4398527219891548,1.1047691678613423
1788862706735003600,1.635003662109375,1.5522792727358639,0.3835404676586389,1.0560194577395916
1788862706745011000,1.645010986328125,0.15412790091633796,-0.6467395686686038,0.6481991198271513
1788862706755016700,1.6550166015625,1.3399341606505215,-0.7360118433147669,2.3063936128437517
1788862706765022700,1.665022705078125,0.7326112410910427,-0.6828864023268223,1.7413509151309727
1788862706775029800,1.67502978515625,0.8182815457224846,-1.0169921002089977,1.016302948901057
1788862706785035800,1.685035888671875,0.9019704672783613,-1.063107370173931,0.9735738142430782
1788862706795041800,1.695041748046875,1.388819333720207,-1.600880368167162,0.560219807600975
1788862706805048800,1.705048828125,0.9256856893867254,-0.9738152217835188,0.7326397365331649
1788862706815054600,1.7150546875,0.565113388328813,-0.27557226037085053,-0.4194558306485414
1788862706825060900,1.725060791015625,-0.5503081064501777,0.02713525968492031,-1.0325094028145074
1788862706835067600,1.735067626953125,-0.4068558767944574,0.0015793781459331512,-1.055391681230068
1788862706845073700,1.74507373046875,-1.4429209262639284,-0.05931786588728428,-1.690676374426484
1788862706855081000,1.7550810546875,-1.9302561149179935,-0.06723404583930968,-2.2652993859112263
1788862706865086700,1.765086669921875,-1.9838801530778407,-0.06299217048585415,-3.2477871589720246
1788862706875092700,1.7750927734375,-1.8669336895644664,-0.04522153599560261,-3.232589005318284
1788862706885099800,1.785099853515625,-0.8652151463329791,-0.048909869119524954,-3.1179122403025623
1788862706895105800,1.795105712890625,1.51113989148736,-1.1402297728210686,-3.056349225836992
1788862706905111000,1.805111083984375,1.478537598568201,-0.7751929301023482,-1.4864327357321976
1788862706915118000,1.8151181640625,-0.05499759153537452,0.4045212963670492,-0.9771522572517395
1788862706925123800,1.825123779296875,0.10380063927955925,0.45381519636809825,-0.9225801245868206
1788862706935129900,1.8351298828125,0.01206336275935173,1.0668313591331242,-0.6913701530337333
1788862706945137000,1.845136962890625,-0.011455459994077682,0.6982961529046297,-0.9634119011908769
1788862706955143000,1.855142822265625,1.3321980134405196,-0.26173838080763817,-2.3053040640413758
1788862706965150000,1.86514990234375,1.7155659010112285,-1.126066222912073,-1.6699129878610373
1788862706975156000,1.875156005859375,1.7665888167619703,-1.0844278061002492,-1.6274346130937336
1788862706985162000,1.885161865234375,0.8085049787260592,0.23620120396912098,-2.0179870053410527
1788862706995169000,1.8951689453125,0.8719336409330367,1.870685151052475,-2.307543951922655
1788862707005175000,1.905175048828125,-0.41638752911910415,2.3214076421022414,0.7409335176259279
1788862707015181000,1.91518115234375,-0.31472762819528577,2.334104626590013,0.7756184620380401
1788862707025188000,1.92518798828125,1.2382269134536386,2.653394448134303,1.779212151491642
1788862707035193900,1.93519384765625,1.9754446254268287,2.250261975777149,-0.4498457082152366
1788862707045200100,1.9452001953125,0.6889300664052367,0.8265811720341444,3.6799896584689615
1788862707055207000,1.95520703125,0.07410232417359948,1.4482733932077885,0.14438509005904196
1788862707065213000,1.965212890625,-0.320781959798187,0.6098679278671741,-0.47157063328921794
1788862707075220200,1.97522021484375,-0.20828882243186234,0.6135819799542427,-0.430340797278285
1788862707085226000,1.98522607421875,0.036657413528859616,0.8641852187633514,-0.9909633404612541
1788862707095232000,1.99523193359375,-0.26553777309060095,0.03377075217664242,-1.2542097877442837
1788862707105239000,2.005239013671875,-2.5842656745895742,0.7654992190837859,0.8476485099822282
1788862707115245000,2.0152451171875,-4.234256987406313,2.3692414064228533,3.340937736356258
1788862707125251000,2.0252509765625,-4.112296495123207,2.3030203370183706,3.3401708436369892
1788862707135257900,2.0352578125,-3.36055429097414,3.455596965715289,4.312614777067304
1788862707145263900,2.045263916015625,-2.8257027333855627,2.9116017322063446,3.879202901780605
1788862707155271200,2.055271240234375,-2.319319437651336,0.1107476088732481,3.9750580619484186
1788862707165277000,2.06527685546875,-0.9266557034626602,-1.8068085989475249,2.4455074845016003
1788862707175283000,2.075282958984375,-0.8647758781328797,-1.9267834703713653,2.3858511804401874
1788862707185290000,2.0852900390625,-0.006719955904781818,-2.9553958657473323,1.8501742779433725
1788862707195296000,2.0952958984375,-0.5927528346762061,-1.594419647720456,1.7143664620935917
1788862707205302000,2.105302001953125,0.04631576097309589,0.842290782341361,3.5591578779548403
1788862707215308800,2.115308837890625,-0.43325346985459323,1.336787533187866,2.384741757893562
1788862707225315000,2.125315185546875,-0.37120296413302417,1.3297002052754163,2.413123802769184
1788862707235321000,2.135321044921875,-1.8569149843752384,1.691044038695097,0.5560410606116056
1788862707245328000,2.145327880859375,-2.266663075479865,0.7620341733217239,-1.0357967539221047
1788862707255334000,2.155333984375,-0.3305740166246891,1.1062427475452423,-1.4747995810836552
1788862707265341000,2.1653408203125,-0.6702618985533714,0.8274322359055281,-0.9694476742237805
1788862707275347000,2.175346923828125,-0.6238824246942997,0.8470528821766375,-0.927689430424571
1788862707285353000,2.18535302734375,-0.743633716495335,0.07985562700331211,-1.1779238359212876
1788862707295360000,2.195360107421875,-0.7987941704422235,1.800881546986103,0.7606213839143514
1788862707305366000,2.205365966796875,-0.7881096948206424,1.9008114092469215,0.8467559450566768
1788862707315372000,2.2153720703125,0.8220438208654522,0.7744944264441728,-1.084942769885063
1788862707325378800,2.22537890625,0.8159852514788508,0.8890478573411703,-0.991774656844139
1788862707335385000,2.235385009765625,0.8954653231680393,0.09804127203524111,-1.6374141553163528
1788862707345391000,2.24539111328125,1.6440128229290245,-1.0096300470083952,-1.5964625517249107
1788862707355398000,2.25539794921875,2.0281535945683715,-0.6283978562921285,-1.4210592230677603
1788862707365404000,2.26540380859375,1.4818483305513859,-1.0254401950806378,-2.0070798268795014
1788862707375411000,2.275410888671875,1.5254527867391705,-0.9431436046659946,-1.892649145579338
1788862707385417000,2.2854169921875,0.1451671803474426,-2.1068740800619126,-1.643152406707406
1788862707395423000,2.295423095703125,-1.3931214148283004,-2.1095646343201397,-0.14687982948422432
1788862707405430000,2.305429931640625,-2.8894489371091128,-0.459520714533329,0.27073943338692186
1788862707415436000,2.31543603515625,-1.9619120668977499,-0.06780629276931285,0.42245150533318515
1788862707425442000,2.325442138671875,-1.9852765758723019,-0.02125146234333515,0.45616322079896926
1788862707435448800,2.33544873046875,-1.083725210788846,-0.28250819711387154,1.006843631160259
1788862707445455000,2.345455078125,-0.416411056125164,-0.38164544769227504,2.1572639586061237
1788862707455461000,2.355461181640625,0.4296002080440521,1.6563795525491236,2.4426328058481217
1788862707465468000,2.365468017578125,-0.04050502886772155,2.8493045582473275,1.9023504553824662
1788862707475474000,2.375473876953125,-0.054067982535064216,2.8720149872273204,1.91905375290215
1788862707485481000,2.38548095703125,-0.9203516348823905,3.3005577951729297,0.6339367857187986
1788862707495487000,2.395487060546875,-1.608058296972513,3.720601070320606,-0.3872060044288635
1788862707505493000,2.405492919921875,-3.083736998978257,3.9747219618618486,-1.4638018017292023
1788862707515500000,2.4155,-2.2378660200625657,3.2857249677002427,-1.5977280416160822
1788862707525506000,2.425506103515625,-2.245208491779864,3.3134003256112337,-1.5698849259227514
1788862707535512000,2.435511962890625,-1.1849860293924808,3.0195483121842144,-0.6639098991781472
1788862707545519000,2.44551904296875,-0.8510659172102808,3.3107506878852844,-0.05060030642449855
1788862707555525000,2.455525146484375,-0.012990414476394653,2.546563135921955,-0.16391396639347075
1788862707565532000,2.465531982421875,0.2086246302574873,1.6379367178857325,-0.058739773738384245
1788862707575538000,2.475537841796875,0.1612543917953968,1.6877590256750583,-0.03128711866736412
1788862707585544200,2.485544189453125,-0.6912240225613117,-0.1341705700367689,0.2540472417831421
1788862707595551000,2.495551025390625,-0.969706032899022,-0.3338251273751259,-0.07543839508295058
1788862707605557000,2.505556884765625,1.4039350697875022,0.9504162260174751,-0.1979974377810955
1788862707615563000,2.51556298828125,1.4396592941194772,0.9969114352107048,-0.10956862822175026
1788862707625570000,2.525570068359375,-1.0371434923559426,0.49626843669414517,-0.9328419908821582
1788862707635576000,2.535576171875,0.6004752456218004,1.9664508793711661,1.1276964544624088
1788862707645582000,2.54558203125,-1.2194389186143875,1.3632926782757042,3.575516599820554
1788862707655589000,2.555589111328125,-3.617761165831983,-1.3819944561362265,3.656198740775883
1788862707665595100,2.56559521484375,-3.665757427237928,-1.2707061645150184,3.808448280599713
1788862707675602000,2.575601806640625,-0.7245499535799026,-0.43098552492260933,-1.0422799784615635
1788862707685608000,2.58560791015625,0.47300066609233615,1.0925269414037466,-1.6990993348568677
1788862707695614200,2.5956142578125,1.3279030927255748,1.578151234486699,-1.2491963434964417
1788862707705621000,2.60562109375,2.4773420079186557,1.9587854593098162,-1.5008382777035236
1788862707715627000,2.615626953125,2.353339196152985,2.0665409006297586,-1.3885115829452872
1788862707725633000,2.625633056640625,1.6261150549277663,3.0308021121263504,-1.2834125013530253
1788862707735640000,2.63564013671875,1.5316645008608698,3.1569524573147296,-1.0790651100233197
1788862707745646000,2.64564599609375,-2.4603657386764883,2.0999960109859703,0.3993865638270974
1788862707755651800,2.65565185546875,-3.282858180092275,1.5497054767251013,0.5813219246014952
1788862707765659100,2.6656591796875,-3.233302998806536,1.597927948102355,0.7698281881988048
1788862707775665200,2.6756650390625,-0.9060881317302584,1.6630150450408459,-0.8281491520032286
1788862707785672000,2.685671875,1.2237503520727158,0.48202597633004185,-0.28959143337309357
1788862707795678000,2.695677978515625,2.4141113525018096,-1.3979483965933321,0.27450433887839315
1788862707805684000,2.70568408203125,1.0438616946950554,-2.8479677566856143,1.1395035043731332
1788862707815691000,2.71569091796875,0.9814555074036121,-2.812702966558933,1.184065991938114
1788862707825697000,2.725697021484375,0.13408289175331592,-10.117947653746604,1.8605796443626283
1788862707835702800,2.735702880859375,0.7332420863404869,-10.83197387522459,0.7062471119090914
1788862707845710000,2.7457099609375,3.4548686514407394,-8.95965498549044,-0.7785726356685161
1788862707855716000,2.755716064453125,4.566323288415372,-8.61588304911852,-3.1425343481227754
1788862707865723000,2.765722900390625,4.654223982447386,-8.670871945890784,-3.220281604669988
1788862707875729200,2.775729248046875,4.511768106885254,-1.384390411362052,-2.3217452034935353
1788862707885735000,2.78573486328125,3.2648338631018996,1.1108932036995887,-2.791033863325417
1788862707895742200,2.7957421875,-0.980349591988325,1.3979939893007278,-2.7681802264824507
1788862707905748200,2.805748291015625,-2.514336106055975,0.5944353809356689,-0.5510954209029674
1788862707915754200,2.815754150390625,-2.507424134710431,0.5860843166977167,-0.5669266117632389
1788862707925761300,2.82576123046875,-1.0908780051529408,0.42582828828990454,1.2656748923495411
1788862707935767300,2.835767333984375,0.5077613060891628,0.6258633693784474,0.8696931685298681
1788862707945773300,2.845773193359375,2.0862772822350264,0.3732569740533829,-0.17693565279096363
1788862707955780400,2.8557802734375,2.3293717528492213,0.493309002366662,-0.9561720130652188
1788862707965786000,2.8657861328125,2.4045319155126808,0.40732407882809635,-1.0861568218499422
1788862707975793400,2.87579345703125,0.733961925047636,2.3654098654359577,-0.5922223810613155
1788862707985799400,2.88579931640625,-1.0215642304301262,3.9139655876040456,2.090790668006241
1788862707995805200,2.89580517578125,-2.5945471223682164,3.5525276461601254,3.84090561209023
1788862708005812200,2.905812255859375,-1.6175556086361407,1.4253256483405827,3.4018148143842812
1788862708015818200,2.915818359375,-1.6110659543558954,1.354070676422119,3.2673768255829807
1788862708025824300,2.92582421875,-0.4875587682768702,-2.9367841042578218,3.142157916025817
1788862708035831300,2.935831298828125,-0.31524639137238264,-2.2804238898068667,2.2285747523650525
1788862708045837000,2.945837158203125,-1.24013566968441,-4.026818644323945,1.3281655430540442
1788862708055844400,2.95584423828125,-1.3676689936637878,-2.2343021901011464,-0.19950053582042454
1788862708065850400,2.965850341796875,-1.3321119425922632,-2.304433126425743,-0.2864455365628004
1788862708075856100,2.975856201171875,0.6045356269285083,-0.47787411734759805,-1.6925903913542628
1788862708085863400,2.985863525390625,0.6279603416576981,-2.051947142609954,-1.5859315130993723
1788862708095869200,2.995869140625,0.3014320932924747,-1.622805199727416,-1.0297703332394361
1788862708105875200,3.005875244140625,0.462886976096034,0.3294628405123949,-0.7992825384810567
1788862708115882200,3.01588232421875,0.4963832952454686,0.2955108865499496,-0.8205866077944636
1788862708125888300,3.02588818359375,0.5229246806904674,-0.11100362946093081,-2.2827958796352146
1788862708135895300,3.035895263671875,-1.6541870109409094,1.2664578594207763,-0.9498004322066903
1788862708145901300,3.0459013671875,-2.737684842714667,2.6445886258661746,0.32771628910601136
1788862708155907000,3.055906982421875,-3.0380624585181475,1.9414888720721006,0.09896423209905623
1788862708165914400,3.065914306640625,-3.0017817693471907,1.8926193349629639,0.06072977851182222
1788862708175920000,3.075920166015625,-1.3091495846778154,2.9762767412126063,1.3818793053239584
1788862708185926100,3.085926025390625,-1.2487088522404433,2.944877978864312,1.3970461870566009
1788862708195933400,3.095933349609375,-3.0603467710405585,-0.6142670396089553,3.522589019492268
1788862708205939200,3.105939208984375,-3.6471313449621197,-1.8414093722075222,4.016345473365486
1788862708215946200,3.1159462890625,-3.6299329574018713,-1.8836364025622605,3.9718499135568734
1788862708225952300,3.1259521484375,-2.97531870983541,-2.299445985662937,4.322462217342853
1788862708235958300,3.135958251953125,-2.01838389570415,-2.7485587034285066,3.3258199544623492
1788862708245965300,3.14596533203125,-0.2758271119147539,-3.022048312306404,1.4430261402040718
1788862708255971000,3.15597119140625,0.868801772648096,-2.4201211143106223,-0.021117022308707236
1788862708265977000,3.16597705078125,0.9048656041979789,-2.4278426484733817,0.006824585323035716
1788862708275984400,3.175984375,1.7773872741520405,-1.6236235303729771,-0.6874886354252696
1788862708285990100,3.185990234375,2.0281302136927843,-1.5897487332999705,-0.588422404256463
1788862708295997200,3.1959970703125,2.1230290960490703,-1.5480845975250004,-0.2763359382197261
1788862708306003500,3.20600341796875,0.7967500973939895,0.8843781119644641,0.3348848655611276
1788862708316009200,3.21600927734375,0.8013736655414104,0.9169856655806302,0.3906058760002255
1788862708326016300,3.226016357421875,1.0647399398118258,0.25969080062806604,-1.1725193465292454
1788862708336022000,3.23602197265625,1.3285101187080144,0.7889642658233642,-1.1558268626645207
1788862708346028300,3.2460283203125,1.4035504543840884,1.4330050969272852,-0.8170140100046992
1788862708356035300,3.256035400390625,1.8474539130687713,2.3698270973563194,-0.5537403824537992
1788862708366041000,3.266041015625,1.8837129749298094,2.3348715193092824,-0.5650590643256902
1788862708376047000,3.276047119140625,2.0535621765911576,3.061521660038829,-0.5735705798223615
1788862708386054400,3.286054443359375,2.3474317256748676,2.842636917051673,-0.13317512925863265
1788862708396060200,3.29606005859375,2.5770506286442276,2.8755782326668498,-0.07008943527042866
1788862708406067200,3.306067138671875,2.5058114388167856,2.9678987889677284,-0.6303203487873077
1788862708416073200,3.3160732421875,2.528074708551168,2.910685201883316,-0.6877797273263335
1788862708426079200,3.326079345703125,2.273416641393304,3.6290059056848287,-1.8906167629688977
1788862708436086300,3.336086181640625,1.1052806245148181,3.6775679842799898,-0.33344840301722284
1788862708446092000,3.346092041015625,-0.5170780004888773,3.3042595723003148,1.2459727052748202
1788862708456098300,3.356098388671875,-1.5327753847122192,2.6267846736282108,1.8885858416631818
1788862708466105300,3.366105224609375,-1.4750877503752708,2.570988552126288,1.882126874782145
1788862708476111000,3.376111083984375,-1.1344237168908118,0.4408674519896507,1.8285270942807197
1788862708486118400,3.386118408203125,-1.0555980174571276,0.422487161168456,2.0487287650853396
1788862708496124200,3.396124267578125,-1.6673329082399606,0.7690209634691476,2.434009938931465
1788862708506130200,3.406130126953125,-1.831758331286907,0.5091606514930724,2.880688415287435
1788862708516137500,3.416137451171875,-1.7791285648614168,0.42983986201882357,2.8460630921080705
1788862708526143200,3.426143310546875,-2.483784900447726,-1.3096329842805863,2.712280352345109
1788862708536149200,3.436149169921875,-1.5050217008680105,-1.10238665663898,2.6223665649250147
1788862708546156300,3.44615625,-0.5277841034203767,-1.4520254392176866,3.0342469918832182
1788862708556162300,3.456162353515625,-0.9634832128614187,-2.020329769074917,1.9583447298049925
1788862708566169300,3.46616943359375,-0.889022138378024,-2.1130062992066145,1.9475369200646877
1788862708576175000,3.476175048828125,-1.724054327893257,-1.858767334243655,1.1082485344097017
1788862708586181000,3.48618115234375,-0.3058861500918865,-2.082012610527873,1.1755769805341958
1788862708596188400,3.4961884765625,0.1039987191349268,-2.261908574429154,0.38194296933412547
1788862708606194200,3.506194091796875,-0.009550503155589102,-1.5512100360691548,-0.4938835873842239
1788862708616200200,3.5162001953125,-0.002787584891915321,-1.6251175683230161,-0.562303043615818
1788862708626207200,3.526207275390625,3.9806975291401145,-1.115047985291481,-0.16044541350007055
1788862708636213200,3.536213134765625,5.5228860543638465,-1.0899591367423533,-1.28560445843935
1788862708646220300,3.54622021484375,5.090348623824119,-0.6786281603604555,-3.4532454341530796
1788862708656226000,3.55622607421875,2.3136259021848438,0.1610281818240881,-4.803182956293225
1788862708666232300,3.566232421875,2.299755197742581,0.1396831959784031,-4.840760699537396
1788862708676239400,3.5762392578125,1.1904302662730217,0.9865765036791563,-4.122496109837293
1788862708686245000,3.5862451171875,2.2629846792280675,1.331394149711728,-2.8850100778788326
1788862708696251100,3.596251220703125,1.1399655689269304,1.852216012904048,-2.596459093469381
1788862708706258200,3.606258056640625,0.9807055658191441,2.1792378900051115,-1.5912129606336354
1788862708716264200,3.61626416015625,0.7897562929838895,2.676878491835296,-0.8055337078303099
1788862708726271200,3.626271240234375,0.6246943255990743,2.1721865101888773,-1.3097235851734876
1788862708736277200,3.63627734375,0.9607511575490236,2.8759298225834966,0.021107669958472252
1788862708746283300,3.646283203125,1.2036550740271805,1.318445528550446,0.756136931976676
1788862708756290300,3.656290283203125,1.9326275202244518,0.32983634999990463,-1.0616764605879783
1788862708766296000,3.666296142578125,1.3101228136241436,0.8982610913664102,-2.8922938051462173
1788862708776302300,3.67630224609375,-0.97274963837862,1.2774267049416899,-3.64453899038136
1788862708786309000,3.68630908203125,-1.9309598792731761,1.7325912700921295,-1.47701024287045
1788862708796315100,3.696315185546875,-0.770948716661334,1.6042527672097087,1.5774714355289936
1788862708806322400,3.706322509765625,0.09763444480001926,0.8765709453448652,1.868545800936222
1788862708816328200,3.716328125,-0.9710603701174259,0.24115970315933227,1.009684407544136
1788862708826334200,3.726334228515625,-1.1692939547419547,0.5031725169941783,1.4427549220472573
1788862708836341200,3.73634130859375,-0.18454057483673095,0.916713862901926,1.9827777447938917
1788862708846347300,3.74634716796875,-0.3849135095775127,1.0766446048781275,1.6373253079891203
1788862708856354300,3.756354248046875,-1.281348554560542,1.5945862364590166,2.2171704380363226
1788862708866360000,3.766360107421875,-0.248733937805891,2.278649281349778,3.1440240021586416
1788862708876366000,3.776365966796875,0.9365203871339559,2.7957003938317295,1.3957751442074775
1788862708886373400,3.786373291015625,-0.15747721134424209,2.549842303723097,-0.7823661827325821
1788862708896379100,3.796379150390625,-1.4926906270831823,1.1733990519732236,-0.3054430824995041
1788862708906385700,3.8063857421875,-0.6934206558227539,1.8567904812127352,1.1992945407301188
1788862708916392700,3.816392822265625,0.7978776401191949,1.698994120916724,1.557374988439679
1788862708926398700,3.826398681640625,1.3546961148440837,1.590547774723172,1.1104898835957049
1788862708936404700,3.83640478515625,1.1418810471594334,2.163279857894778,0.7041682598084211
1788862708946411800,3.846411865234375,0.8474743224591016,1.8776818780720232,-0.05507949766516685
1788862708956417800,3.856417724609375,0.06425590681135654,0.8571750477403401,-0.8172796752035617
1788862708966424600,3.866424560546875,-0.5152653981089592,0.7919780606865883,-1.201629121157527
1788862708976430600,3.8764306640625,0.02862052980661392,1.3068383851259946,-1.6552978947922588
1788862708986436900,3.886436767578125,-0.12247370250225066,2.1875684959769246,-1.8586209115102885
1788862708996443600,3.896443603515625,-0.30943536700606344,1.4340554827630518,-0.9818778244689106
1788862709006449700,3.90644970703125,-0.17427578593194484,0.8005079886227846,0.9292977424040436
1788862709016457000,3.91645703125,-0.6579571282535791,1.1414847413182259,0.6632043812572955
1788862709026462700,3.926462646484375,-0.11941840658485889,1.3015589834183454,-1.5903645271107554
1788862709036468700,3.93646875,0.8497510352194309,1.1828583697140216,0.28589316337704657
1788862709046475800,3.946475830078125,-0.6073585753947496,-0.32494682439267636,0.8610700093522667
1788862709056481800,3.956481689453125,-0.7908496411785483,0.06247311504781246,1.112183243510127
1788862709066487800,3.96648779296875,0.2729296369075775,-0.33435353516340255,0.7950774880066513
1788862709076494600,3.97649462890625,2.0537918936938047,0.03583762157857418,-0.4063327297031879
1788862709086500600,3.98650048828125,0.9931941682532429,-1.5723486856877802,-1.7646759688779712
1788862709096508000,3.9965078125,-1.220355448937416,-1.1623907512247562,-1.6933926476478576
1788862709106513700,4.006513671875,-1.9966139624446628,-0.18246493760645388,0.3791232357382774
1788862709116519700,4.016519775390625,-2.1245845087975264,-0.6110761346131562,2.878493243330717
1788862709126526700,4.026526611328125,-1.1251660592019557,-0.9485971938967704,3.7217771283626555
1788862709136532700,4.03653271484375,-0.4442050719797611,-1.2097498837709426,2.5873274002477524
1788862709146538800,4.046538818359375,0.6806728179305791,-0.5184013580471277,1.32542267408669
1788862709156545500,4.056545654296875,0.4228782063126564,0.8647469442993402,0.6649316434413194
1788862709166551800,4.0665517578125,-0.9848892812445759,0.8611907131224871,0.5434408144965768
1788862709176558800,4.076558837890625,-1.5055062695145607,0.9326888461470604,1.148045707269013
1788862709186564600,4.086564697265625,-0.17918869241476057,0.5204612131863832,1.7515134127050638
1788862709196570600,4.096570556640625,0.2339014025941491,-1.8863328020393848,2.6638673268318174
1788862709206577700,4.10657763671875,-0.2744821270465851,-2.1101637692570687,2.918771769966185
1788862709216583700,4.116583740234375,0.7580585476890206,-1.2290256621271372,1.9461127324804663
1788862709226590700,4.1265908203125,1.9694471385776995,-0.23950492168962953,-0.28454817850887776
1788862709236596700,4.1365966796875,2.227391095538437,0.46889469207823276,-1.924249860240519
1788862709246602800,4.146602783203125,2.3673241746246814,0.7082663427770137,-1.5991592434629798
1788862709256609800,4.15660986328125,1.4980515695944427,-0.35605507936179637,0.22461130394041537
1788862709266615600,4.166615478515625,-0.0428512997329235,-1.5513538284540176,2.3721079017698763
1788862709276622800,4.176622802734375,-1.0230617755115032,-1.6837912910878656,2.076952404528856
1788862709286628600,4.186628662109375,-1.981155112028122,-1.1736176631599664,-1.155531386849284
1788862709296634600,4.196634521484375,-0.0395554730579257,-0.6561176378667354,-1.9026836328595875
1788862709306642000,4.206641845703125,2.2073472554191946,-0.6283475874096155,-0.12318448112010955
1788862709316647700,4.216647705078125,1.3036974567517639,-1.8237720087081193,-1.1180229094490408
1788862709326653700,4.22665380859375,0.8822609736800193,-0.7939630970239638,-2.9580215380758044
1788862709336660700,4.23666064453125,-0.6754241036221384,-1.8360370315194128,-3.335669732825458
1788862709346666800,4.246666748046875,-1.149201891566813,-3.42299467279613,-3.5882708674535153
1788862709356673800,4.256673828125,-2.0376517830148337,-2.2291741795629263,-2.3387907385796307
1788862709366679600,4.266679443359375,-2.709758140391111,-2.5946640267461536,-0.584019200861454
1788862709376685800,4.276685791015625,-3.198623022830486,-2.8223779728770255,0.9168152774497866
1788862709386692900,4.28669287109375,-1.9277613754928111,-4.207113836675882,2.6777190343126653
1788862709396698600,4.29669873046875,0.6195847275003791,-0.9479963053941726,2.9152658076718447
1788862709406706000,4.306705810546875,-0.011058861891925334,-1.2509200985491276,1.876996233895421
1788862709416711700,4.316711669921875,0.6076750939980149,-0.942374373859167,1.0989967219397425
1788862709426717700,4.3267177734375,1.8689254479035735,4.35331562076807,0.938072000490129
1788862709436724700,4.336724853515625,0.3998220326349139,3.197535812115669,0.12333294968008994
1788862709446730800,4.346730712890625,1.017506187210977,-1.0935825879365204,0.827751092596352
1788862709456737800,4.35673779296875,1.7562936327189207,1.4236492395609617,1.2937804583713413
1788862709466743800,4.366743896484375,0.9996867451429367,3.6918946157962083,0.6535697069495916
1788862709476749600,4.37674951171875,0.6457455891951919,4.148607287171483,-0.9204948427453636
1788862709486756900,4.3867568359375,1.3770689824327826,3.7358243584156035,-1.3949471689507364
1788862709496763000,4.396762939453125,1.6678890808179974,4.700587674215436,-1.1158338749721646
1788862709506768600,4.4067685546875,0.472374350887537,3.192995246076584,-0.22716449555456636
1788862709516776000,4.41677587890625,-0.15021861851811408,0.3343517815977335,1.25758277130872
1788862709526781700,4.42678173828125,-2.326266188049316,0.5468897859066725,2.357344924663007
1788862709536788700,4.436788818359375,-3.9567151805281635,0.33385727607905863,2.87244519533813
1788862709546794800,4.446794677734375,-2.002908678674698,-1.6144056201726198,1.9029691718026995
1788862709556800800,4.45680078125,0.374200392383337,-3.162728702628612,-0.2577706462204456
1788862709566807800,4.466807861328125,0.1657639781743288,-1.6226280895948408,-1.81845519759953
1788862709576813800,4.476813720703125,-2.9819682308524844,-4.2338399310380215,-0.8839189700201153
1788862709586820900,4.48682080078125,-4.21983712464869,-5.900111347526312,0.8937225711539387
1788862709596827000,4.496826904296875,-3.099012894043326,-4.006681280702352,1.8611419544205068
1788862709606832600,4.50683251953125,-2.149927039846778,-3.920581790873408,0.8492226274311542
1788862709616839700,4.516839599609375,-2.0574282043695447,-3.7306338040351865,0.5133458282232284
1788862709626846000,4.526845947265625,-2.3431273064792153,-3.522856145995855,1.8139672385305166
1788862709636852700,4.536852783203125,-2.458047817122936,-3.7893987122148274,3.818996854881942
1788862709646858800,4.546858642578125,-2.521999188029766,-3.9010137515723704,4.380952984756231
1788862709656864800,4.55686474609375,-1.6377578541874884,-3.455766477063298,2.745357861560583
1788862709666871800,4.566871826171875,0.38995384183228016,-2.9930121874362228,0.9352429145440458
1788862709676877800,4.5768779296875,1.834306262204051,-2.821028896355629,0.5304705660253762
1788862709686883600,4.586883544921875,2.6740000137895343,-2.18410871091187,1.7242548189014195
1788862709696891000,4.596890869140625,2.1705250067174435,-1.8603642480462788,2.059156343336403
1788862709706897000,4.60689697265625,1.6139415097922085,-0.9357534944146871,1.4108070013836025
1788862709716903700,4.616903564453125,1.8247586816579102,-0.4143447712451219,1.6569541375666856
1788862709726909700,4.62690966796875,1.5014327364653348,0.0035860417932271956,1.440451905801892
1788862709736915700,4.636915771484375,-0.6170534554570913,-0.34130759208500383,-0.2779910119503736
1788862709746922800,4.6469228515625,-0.8072802592366933,-0.9425088138937949,-1.4646604643851517
1788862709756928800,4.6569287109375,1.2719716544061899,-0.029432430711388586,-2.146933118727803
1788862709766935800,4.666935791015625,2.503777887162566,1.0433838480502367,-1.9568778721228242
1788862709776941800,4.67694189453125,3.544727201542258,1.447902806329727,-1.6069640719950198
1788862709786947800,4.68694775390625,3.8146804529875515,1.6222347063630818,-1.1760676866605877
1788862709796954600,4.69695458984375,2.462035425454378,1.9667723664104937,-1.2322381944328546
1788862709806961000,4.7069609375,1.0547200655788183,3.018529490530491,-1.5087161714717745
1788862709816967700,4.7169677734375,0.20473989777863025,3.716766898985207,-2.3704160031601784
1788862709826973700,4.7269736328125,-0.6421510718345642,4.023810986940562,-2.0737585769236087
1788862709836979700,4.736979736328125,-0.9026941053777933,3.347185690835118,-0.8067255479633808
1788862709846986800,4.74698681640625,-1.0508721579790115,1.488936827507615,1.7448934100434184
1788862709856992800,4.75699267578125,-1.5627157649457453,-1.5353873207762836,3.7879303932279345
1788862709866999600,4.76699951171875,0.6890443404346704,-2.4562916211053727,3.7604797839835284
1788862709877005800,4.777005859375,2.396657821136713,-1.5888272345408796,0.6399094303876162
1788862709887011800,4.78701171875,1.8688409844905136,-2.5038307863935825,-0.5605167447209358
1788862709897018600,4.7970185546875,1.682127157267928,-2.1337322763711213,0.3706771866932511
1788862709907024100,4.807024169921875,1.917632780188322,-0.38278848024755713,-0.17495675393342972
1788862709917031200,4.81703125,1.6015917313069103,0.4913073071554303,-1.0863090898022054
1788862709927037200,4.827037109375,0.5077893631398678,1.4138795406967402,-1.3573372770026326
1788862709937043200,4.837043212890625,0.6435942563802004,1.5081924398586153,-0.9586024550825357
1788862709947050200,4.84705029296875,0.6060650284528732,0.509777029825747,-0.2713257088422775
1788862709957056300,4.85705615234375,0.7298994979143142,-0.3038780251398682,-0.21797698049247263
1788862709967063300,4.867063232421875,1.6843664606273174,-1.229305355851352,-0.40453707845807074
1788862709977069000,4.877069091796875,1.0546464158207178,-1.046479183717072,-0.5070356221631169
1788862709987075300,4.887075439453125,0.9175181650221347,-0.9492588726758956,-0.5447112728238106
1788862709997082000,4.89708203125,0.5074480023562908,-1.04961631269902,-1.3339216223627328
1788862710007088000,4.907088134765625,-0.6905863091796636,-0.29943448973447084,-2.671605812129378
1788862710017095400,4.917095458984375,-0.24175591548681258,0.20226707792431114,-2.589829446196556
1788862710027101200,4.92710107421875,1.1358283229917288,0.09860504339784383,-1.4093608942285178
1788862710037107200,4.937107177734375,1.7020605227500198,0.13936463154852388,-1.085213111259043
1788862710047114200,4.9471142578125,2.4293980612218378,0.2580377727240324,-2.1352637237221
1788862710057120300,4.957120361328125,2.202943175241351,0.41326048313975333,-3.5981568861737845
1788862710067127300,4.967127197265625,1.2984025652140379,1.5766300162687896,-5.3857496202588075
1788862710077133000,4.977133056640625,1.41328274384737,3.1301933374658226,-5.248244352841377
1788862710087139000,4.98713916015625,2.487479663312435,3.855745453825593,-3.2103432712405917
1788862710097146400,4.997146484375,2.5466262642860413,4.021399249623715,-2.1847581147313115
1788862710107152100,5.007152099609375,1.6008955657362938,4.045921696461737,-2.720610958316922
1788862710117159200,5.0171591796875,0.5224778137058019,3.8491903330937025,-3.437304937699437
1788862710127165400,5.02716552734375,-0.5094371303468942,3.6859465210467577,-3.1662346649229525
1788862710137171200,5.037171142578125,-0.1904758101046085,3.2202710832759736,-1.037113097217679
1788862710147178200,5.04717822265625,1.3214859191596506,2.0297242048859596,1.61945939643085
1788862710157184300,5.057184326171875,1.5605916123986243,0.9684922731950879,1.9403946470946072
1788862710167191300,5.06719140625,0.5499737233966588,0.12042115388661623,0.44973640262186526
1788862710177197300,5.077197265625,-0.531791585496068,-0.4173568125426769,-1.0060574492186307
1788862710187203000,5.087203125,-1.214780863675475,0.37032559677660465,-2.410266659772396
1788862710197210400,5.09721044921875,-0.7491565715700388,1.578598978254199,-2.581353294274211
1788862710207216400,5.10721630859375,1.064565752288699,2.49933142914772,-1.1351380026400089
1788862710217223200,5.11722314453125,1.5137556269437074,3.062804685586691,-0.3753869718194008
1788862710227229400,5.1272294921875,0.9525433011740445,3.524271858012676,-0.8875888907045125
1788862710237235200,5.137235107421875,1.145218082627654,3.4206939946383237,-0.74907035459131
1788862710247242200,5.1472421875,1.9195780690371989,2.5498002181470394,-0.09974310751706361
1788862710257248300,5.157248291015625,1.5658131464391947,1.8073235627323387,-0.4500114201709628
1788862710267255300,5.16725537109375,0.7046282785356044,1.2056249127954244,-1.0059086883977055
1788862710277261300,5.17726123046875,0.24417174445688722,0.28982933378219605,-0.8882815491437911
1788862710287267300,5.187267333984375,-0.4750625670582056,-0.2802449283570051,-0.8302285886257886
1788862710297274400,5.1972744140625,-0.763524119618535,-0.4294172526925802,-0.3534685699999332
1788862710307280400,5.2072802734375,-0.7140420035690069,-0.6101426531553268,0.3877271056935191
1788862710317287200,5.217287109375,-0.17184885104596614,-1.2140700850576163,1.335969202542305
1788862710327293200,5.227293212890625,0.040214521488547324,-2.03979376347959,2.06600693988353
1788862710337299500,5.237299560546875,-0.36429976061582564,-2.5156886897087096,2.003751851500571
1788862710347306200,5.24730615234375,-0.9913017786353826,-2.816637967920303,1.416708918903768
1788862710357312300,5.257312255859375,-1.5919225702077149,-3.496222406092286,1.2399722958162427
1788862710367319300,5.2673193359375,-1.7794845386922358,-4.123780888950824,1.1892188446566463
1788862710377325300,5.2773251953125,-1.9982126298129557,-3.8292157588183877,0.6928191827982664
1788862710387331300,5.287331298828125,-1.8392039711177348,-2.576463184145093,0.1773290360227227
1788862710397338000,5.297338134765625,-0.7506509017810225,-1.8879227015793323,0.9487781034216284
1788862710407344400,5.307344482421875,-0.11694295638203621,-1.3450398132264614,1.9031269927129149
1788862710417351200,5.31735107421875,-0.12034838091135025,-0.530884992045164,2.0554446293368933
1788862710427357200,5.327357177734375,-1.077488654486835,0.4602858536869287,0.8603358498588204
1788862710437363200,5.33736328125,-1.329566642023623,0.5280249264389276,0.21494798806011675
1788862710447370200,5.347370361328125,-1.4110907867610454,-0.30219781696796416,0.9050365768507123
1788862710457376300,5.357376220703125,-2.0076701939880848,-0.9706979665458202,1.7251964836657045
1788862710467383000,5.367383056640625,-2.7921821565777063,-1.3740081335574388,2.251099303384125
1788862710477389300,5.377389404296875,-3.5399557493567464,-2.069908331236243,2.456777943317592
1788862710487395300,5.387395263671875,-3.744879771530628,-3.19227511510849,3.3252132207408547
1788862710497402000,5.397402099609375,-3.24831848936975,-4.019713780754804,4.261071636834741
1788862710507408100,5.407408203125,-2.3460522540152073,-3.993865638270974,3.757479725384712
1788862710517415200,5.417415283203125,-1.7594214093506335,-2.9071693027168513,1.4441098437875508
1788862710527421200,5.427421142578125,-1.2602081513762473,-1.608414855325222,-0.7142910098940134
1788862710537428200,5.43742822265625,-0.6410588926836848,-0.4252010963022709,-2.104600874432921
1788862710547434200,5.447434326171875,-0.21979192095994948,0.5550017806917429,-2.940812044599652
1788862710557440300,5.457440185546875,-0.012464052514731884,1.1624813521176576,-3.285756239621341
1788862710567447300,5.467447265625,-0.02248363448679447,1.6418658740282057,-2.9744632620498535
1788862710577453000,5.477453125,-0.3930272579282522,1.162377891743183,-1.0726049740985035
1788862710587460400,5.48746044921875,-0.7875634591147304,-0.4025175553292036,1.6047154162853956
1788862710597466000,5.497466064453125,-0.7340987031698226,-1.2234990076601504,3.027106764739752
1788862710607472000,5.50747216796875,-0.5343213962346315,-1.2762415868103503,2.42240980976969
1788862710617479400,5.5174794921875,-0.5966761455997824,-1.2193319511085747,0.8667755275174975
1788862710627485200,5.527485107421875,-0.2963052517980337,-0.8177098833143711,-0.6639443859696388
1788862710637492200,5.5374921875,0.4825885786488652,0.09669862525463103,-1.8044240418985484
1788862710647498200,5.547498291015625,1.6711434064388273,0.613314853450656,-1.6130086128562688
1788862710657504300,5.557504150390625,2.381215921854973,0.132540338486433,-0.06981324867755175
1788862710667511300,5.56751123046875,1.313027302893996,-0.5258773930162192,0.7480190919727087
1788862710677517000,5.57751708984375,-0.28322131381928917,-0.5323661705136299,0.21809973008930683
1788862710687524400,5.5875244140625,-0.6239192495733499,-1.1244558651059866,0.14461042324751613
1788862710697530400,5.5975302734375,-0.49831543235182757,-1.9420868379652498,0.5656164059475064
1788862710707537200,5.607537109375,-0.6056815820932387,-1.7625456788510083,0.4828390462785959
1788862710717543400,5.61754345703125,-0.7739166265562176,-1.1228829167008398,0.2206587669223547
1788862710727549400,5.627549560546875,-1.0044371545404196,-0.43188685767650603,0.3750286599010229
1788862710737556200,5.63755615234375,-0.9161705498054623,-0.3098760965108871,1.5108885470747946
1788862710747562200,5.647562255859375,-0.7599927306219935,-0.454757445654273,2.4943682537823912
1788862710757569300,5.6575693359375,-0.4308943395078182,-0.4376841457784176,2.528085229945183
1788862710767575300,5.6675751953125,0.44222997251451013,-0.682987524613738,2.3652543826133012
1788862710777581300,5.677581298828125,1.3741378974169491,-1.0234645110934972,2.0664912162691356
1788862710787588400,5.68758837890625,1.5680939508527516,-0.729804805368185,0.7369815651297569
1788862710797594400,5.697594482421875,1.2534715365976095,0.19847908381819723,-0.7229308279454708
1788862710807601200,5.70760107421875,0.9815221428990364,1.0904080495536326,-1.407462074869871
1788862710817607200,5.717607177734375,0.9851777427971362,1.2612141135483979,-1.077690022277832
1788862710827614200,5.7276142578125,0.7885054161399603,0.8843336883008479,-0.36097090845406055
1788862710837620200,5.7376201171875,0.2919160769283771,0.5966571486383676,0.2920651300102472
1788862710847626200,5.747626220703125,-0.023309563916921613,0.08027356015443801,1.2518301991313696
1788862710857633300,5.75763330078125,-0.3004857523530721,-0.7933972798347473,2.0467606798827647
1788862710867639300,5.767639404296875,-0.8195324225664138,-1.5236597658425568,2.246118300101161
1788862710877646000,5.77764599609375,-0.8076672127276658,-1.7221674912333487,1.7711814052492378
1788862710887652000,5.787652099609375,-0.49525779834687705,-1.344600252765417,0.805227418360114
1788862710897658400,5.797658447265625,-0.7059662491410971,-0.4496428791195154,-0.6310083310514688
1788862710907665700,5.807665771484375,-0.4263263009399175,0.30987492746710776,-1.2357196068078278
1788862710917671700,5.817671630859375,0.3206003196209669,0.6448842961907386,-1.0082523289144039
1788862710927678700,5.8276787109375,0.5664993262618779,0.760980280354619,-0.15742577341794967
1788862710937684700,5.837684814453125,-0.08148644307553768,0.21676818922460078,1.435825415045023
1788862710947690800,5.847690673828125,-1.4584838215768337,-1.3360118726402521,3.2951141428142785
1788862710957697500,5.857697509765625,-1.9836790775477886,-3.7056279575943947,4.456669612258673
1788862710967703800,5.867703857421875,-0.6361193904548883,-4.881125735412538,3.977793039870262
1788862710977710800,5.8777109375,0.5956663840353489,-4.707297693248093,2.292493682307005
1788862710987716600,5.887716552734375,1.3678577942341565,-4.253691755716503,0.5708230346798896
1788862710997724000,5.897723876953125,1.8736282187670468,-3.0328654743969437,-0.7061199783980846
1788862711007729700,5.907729736328125,1.6873779174029826,-0.9207052706256508,-1.9079823237895965
1788862711017735700,5.917735595703125,1.9412211610466241,0.731264941048622,-2.7608085286706685
1788862711027743000,5.927742919921875,1.6142963145792484,1.5184733031153679,-3.9958243711233137
1788862711037748700,5.937748779296875,1.7696271615445613,2.0496186996623873,-5.127860316094756
1788862711047755800,5.947755859375,2.2849293845325707,3.0206442907273767,-5.494234544897079
1788862711057761800,5.95776171875,1.3663701860249042,4.145210630470514,-5.441558016720414
1788862711067767800,5.967767822265625,0.9826116917014122,4.757725273454189,-5.2663849896878
1788862711077774800,5.97777490234375,2.0502450148671865,4.4496062497437,-4.882294486930966
1788862711087780600,5.987780517578125,2.316175002145767,3.1008158518120643,-4.297479751777649
1788862711097788000,5.997787841796875,3.024924160003662,0.8820686659783125,-2.331028287884593
1788862711107794000,6.0077939453125,4.570515771669149,-0.8363479482889175,0.15109832396209238
1788862711117800700,6.01780078125,3.580964636093378,-0.37609570461064573,1.0604875430643559
1788862711127806700,6.027806640625,2.939404515889287,0.6062807170301675,0.011692775881290435
1788862711137812700,6.037812744140625,2.7058593793869017,0.3024392245084047,-1.460133342349529
1788862711147819800,6.04781982421875,1.9114730885148048,-0.7071344161376356,-2.843993592357635
1788862711157825800,6.05782568359375,-0.399077644008398,-1.1170689697250724,-4.082113830566406
1788862711167832800,6.067832763671875,-1.2719359985709189,-1.8083268945559858,-2.773279303187132
1788862711177838800,6.0778388671875,-0.21983868271112442,-2.411650807607174,0.5201449868440627
1788862711187845600,6.087845703125,1.098402555438876,-1.222979367700219,1.2693015584141014
1788862711197851600,6.0978515625,0.6007762743949889,-0.41816871344745155,-1.6543325568914413
1788862711207858000,6.10785791015625,-0.5886041905641556,0.44167204637080426,-3.736960668969154
1788862711217864700,6.11786474609375,-0.7620306661903857,1.4494628952533006,-3.301053469735384
1788862711227870700,6.12787060546875,0.10430208599567413,2.586303025636077,-3.2159184410244226
1788862711237877800,6.137877685546875,0.3745312317728996,3.7175156715258955,-3.2315245909571644
1788862711247883800,6.1478837890625,-0.5936795941323042,4.271042703489959,-2.3825398639351127
1788862711257889800,6.157889892578125,-1.6664526182740926,3.569118423216045,-1.0861772801160812
1788862711267896600,6.167896484375,-0.7401940974354744,1.5461957150384782,0.6446610088288783
1788862711277902800,6.17790283203125,1.3206857086926698,-0.27796938464045523,1.816616291734576
1788862711287909600,6.18790966796875,1.6823557053267955,-1.2694205086186527,1.8137626558691262
1788862711297915600,6.19791552734375,0.8423217620015144,-1.7091946124136448,1.2240437820613383
1788862711307923000,6.2079228515625,1.011637295177579,-1.8894512263208627,0.8775842140406369
1788862711317928700,6.2179287109375,1.5694021108418703,-1.8336206180274486,0.34626842936277386
1788862711327934700,6.227934814453125,0.8835270480930805,-1.2956716789454221,-0.7532341962724923
1788862711337941800,6.237941650390625,0.7689321161419153,-0.4881882983520627,-1.5099813691020012
1788862711347947800,6.24794775390625,1.8570102614432573,0.23594313755482435,-1.7918541909217833
1788862711357954800,6.257954833984375,2.686225873634219,0.9288777634263038,-2.353199203160405
1788862711367960600,6.267960693359375,2.1615239541381595,1.7459844201505184,-3.3808091434955596
1788862711377967900,6.2779677734375,1.0643301899671553,2.5361294201910494,-4.159554213121533
1788862711387974000,6.287973876953125,1.0322031133443117,3.1787749975442883,-4.056455073174834
1788862711397979600,6.297979736328125,2.468115037629008,3.710849491634965,-3.0896804175525903
1788862711407986700,6.307986572265625,3.2015351108849046,3.9566386081606146,-1.9414099616169929
1788862711417992700,6.31799267578125,2.049316794106364,3.945962315845489,-1.5954706180781124
1788862711427999700,6.327999755859375,1.3983920487076043,3.4943986977964636,-1.8949013084203004
1788862711438005800,6.338005859375,1.0111498039215803,2.3568963041126727,-1.2992670730888842
1788862711448011500,6.348011474609375,-0.028285598763823507,0.40784839496314523,0.7720517094671726
1788862711458018800,6.358018798828125,-1.4787024337410926,-1.6058698470175266,3.0847140273168683
1788862711468024800,6.36802490234375,-2.2831594522505996,-3.538632391798496,4.658252507311105
1788862711478031600,6.378031494140625,-2.6641175022006034,-5.211746806049347,4.759509526522457
1788862711488038000,6.388037841796875,-2.6366566638231275,-7.138150921714305,4.565794880627095
1788862711498044700,6.398044677734375,-3.2934590690836307,-8.844545089754462,3.9235742506876585
1788862711508050700,6.40805078125,-4.043983714136481,-8.81116538272202,1.7579744254127143
1788862711518056700,6.418056640625,-3.8872324789792296,-7.000342287436127,-1.1899509583234786
1788862711528063700,6.428063720703125,-2.751040291111171,-4.966292620566487,-1.9582778020486233
1788862711538069800,6.43806982421875,-1.9798580579549072,-3.0286814667105673,-0.36931378938555715
1788862711548076500,6.44807666015625,-1.5928955068930983,-1.1798095035374163,1.784137625195086
1788862711558082800,6.458082763671875,-0.8458242171645164,0.014172902259230612,2.820886857536435
1788862711568089600,6.468089599609375,-0.5733113443642854,0.8946031533807516,1.9168319851994513
1788862711578095600,6.478095703125,-0.457732077550888,1.1699953810095787,1.1316776330530642
1788862711588102000,6.488101806640625,-0.07123655947893857,1.263683134010434,1.6377750975832341
1788862711598108700,6.498108642578125,0.022473113092780113,1.4861585949659346,2.2232471276015042
1788862711608114700,6.50811474609375,-0.17745441596806047,1.6195745472431182,1.4845564204663038
1788862711618122000,6.5181220703125,-0.2395788637086749,1.1801602166712284,0.5664098944127559
1788862711628127700,6.528127685546875,-0.6024024142920971,0.24738603032827375,0.363860784676671
1788862711638134800,6.538134765625,-1.076585860428214,-0.702930242446065,1.0244052990749477
1788862711648140500,6.548140625,-0.9460869646415114,-1.430213420382142,2.3540803699091075
1788862711658146800,6.558146728515625,-0.9830343010276555,-1.9984423469156025,2.78354000043869
1788862711668153900,6.56815380859375,-1.9041162960112095,-1.892740330994129,0.9177741856098175
1788862711678159600,6.57815966796875,-1.9655410710498689,-1.5926707582265138,-1.0941206403359771
1788862711688167000,6.5881669921875,-1.2364341848179696,-1.3629191687881945,-1.1059645151257513
1788862711698173000,6.5981728515625,-1.1092506971895695,-1.2934849825561046,-0.10813070437312125
1788862711708178700,6.6081787109375,-1.6575167398855088,-0.7478741305440664,0.12327771236151457
1788862711718185700,6.618185791015625,-1.5607202072143553,-0.2505973935902119,0.2297092116013169
1788862711728191700,6.628191650390625,-1.0884294429570436,-0.05673603270053863,1.1101607977718113
1788862711738198800,6.63819873046875,-0.7927259564444422,-0.3097773123115301,2.7835855931460856
1788862711748204800,6.648204833984375,-0.957525765761733,-0.3491121283560991,3.733212422351539
1788862711758211800,6.6582119140625,-0.6814476016953587,0.2980225771099329,3.028027386716008
1788862711768217900,6.6682177734375,0.3815314659237861,0.16613105792105196,2.6802310171335932
1788862711778224600,6.678224609375,0.5870008470207453,-0.5617804810464382,2.557433489504456
1788862711788230700,6.688230712890625,-0.12189853296279907,-0.7285644499182701,1.602400125080347
1788862711798237000,6.69823681640625,-0.4907160632640123,-0.6498772821724415,0.8392799100875854
1788862711808243700,6.70824365234375,-0.4158563448518514,-1.2136761173039674,1.1922209490820765
1788862711818249700,6.718249755859375,0.008066986599564552,-1.9859195499509572,1.8903557739451526
1788862711828256800,6.7282568359375,0.7758996170669794,-2.2577555464029313,1.8719360278964041
1788862711838262800,6.7382626953125,1.4161948319017885,-1.6512743383646011,0.9670432434305548
1788862711848268800,6.748268798828125,1.7959236323177814,-1.1011620832800864,0.3382370985984802
1788862711858275600,6.758275634765625,1.8864000220566988,-0.7324906834512949,0.060956573005020616
1788862711868281900,6.76828173828125,1.2278127792060374,-0.3700923725426197,-0.15705460201799867
1788862711878288600,6.77828857421875,0.5887123271137475,0.060576341515779494,-0.4487108589664101
1788862711888294700,6.788294677734375,1.0600450599938631,-0.05209025272130966,0.06852730052024125
1788862711898302000,6.798302001953125,1.4409972647249698,-0.7721884875893592,1.3179077684119342
1788862711908307200,6.80830712890625,1.0204840339779853,-1.4286515778928994,1.931405869475007
1788862711918314500,6.818314453125,0.2653478034764528,-1.0837573594927787,1.1408756695091724
1788862711928320500,6.828320556640625,0.18546470394432543,-0.20796762765347956,0.38383974286615846
1788862711938326300,6.838326171875,0.6085270346522331,0.20616262405812738,0.1147995146125555
1788862711948333600,6.84833349609375,1.2568453969448805,0.5208247858017683,-0.21384616429805756
1788862711958339300,6.85833935546875,1.4624924726963042,1.0546697966963052,-0.7937450703591108
1788862711968346400,6.868346435546875,0.8172598014593124,1.6878431968271732,-1.1987854221642016
1788862711978352400,6.878352294921875,-0.17616729876697063,2.251590009510517,-1.107977608513832
1788862711988359400,6.888359375,-0.9086948070973158,2.387250525844097,-0.11728022551238536
1788862711998365400,6.898365478515625,-1.4059125073403118,1.9956278740167617,1.8202040870934724
1788862712008371500,6.908371337890625,-1.973118520566821,0.6416185723930596,3.6957358013942834
1788862712018378500,6.91837841796875,-2.5815941172927617,-1.4223492628782988,4.721559150573611
1788862712028384500,6.928384521484375,-2.547031922477484,-3.608449439868331,5.3745829140782355
1788862712038391300,6.938391357421875,-2.3902222351312634,-4.620605498223006,4.925440970218181
1788862712048397300,6.948397216796875,-1.0097475359082222,-3.3094609403356907,2.754929115243256
1788862712058404400,6.958404296875,0.5051783038586378,-1.8357938704133032,2.299005840680003
1788862712068410400,6.968410400390625,-0.022330489751696585,-0.9921864525154233,2.714580153720081
1788862712078416400,6.97841650390625,-0.11523381437659264,-0.5867085860759019,2.2454031375691295
1788862712088423400,6.98842333984375,1.9600433504164219,-0.32946927025318146,0.4072404921978712
1788862712098429400,6.998429443359375,3.6367432219386098,1.3073632857829331,-3.915552564534545
1788862712108436200,7.008436279296875,3.5115362950801847,3.2179373796314,-6.656139558431506
1788862712118442200,7.018442138671875,2.741884632492065,3.9897707701727745,-6.340425841808319
1788862712128449500,7.028449462890625,2.544172441393137,3.361621335683763,-4.292105949784815
1788862712138455300,7.038455322265625,2.734596813571453,0.8674237622931599,-1.2086343237444759
1788862712148461300,7.04846142578125,3.0564439183831213,-1.6455603446319698,-0.6825801128566265
1788862712158468600,7.058468505859375,2.6555904968738555,-2.7964176021903753,-1.445103531000018
1788862712168474400,7.068474365234375,2.0577648889780042,-2.8438392785787583,-1.8603458356067537
1788862712178481400,7.0784814453125,1.413215523830056,-1.936663351611793,-2.8464734264746308
1788862712188487400,7.0884873046875,2.9951673196434974,-1.8892001741692424,-1.2566396452397108
1788862712198494500,7.098494384765625,4.9527264520287515,-2.0998668316483498,0.7792275924459099
1788862712208500500,7.10850048828125,5.878404542630911,-2.043900614276528,0.7992424987316131
1788862712218506200,7.11850634765625,4.818834698933363,-1.681850970675051,-1.9315309571594
1788862712228513500,7.128513427734375,3.7762761957913633,-0.17554916686862707,-6.239782862842082
1788862712238519600,7.13851953125,3.957339449906349,1.2184443546190857,-7.836561640909314
1788862712248526300,7.1485263671875,4.146038313466311,1.9731749269291758,-7.460791807252169
1788862712258532600,7.15853271484375,3.876853123784065,2.2237021778926254,-7.141985969832539
1788862712268539400,7.168539306640625,3.2810534687578676,2.3644740458905695,-5.9600669267952435
1788862712278545400,7.17854541015625,2.8334581698179244,3.1709435732662676,-4.487009805464744
1788862712288551400,7.188551513671875,2.6953765638172626,4.281154347659648,-3.0591537618637084
1788862712298558500,7.198558349609375,2.0166431895166634,4.916040104666352,-1.5854367153197526
1788862712308564500,7.208564453125,1.3290005325734615,4.658856610684096,0.5187672687500715
1788862712318571300,7.2185712890625,-0.1373293263286352,3.6738469179302453,2.066796336695552
1788862712328577500,7.22857763671875,-1.2121750650912522,2.568183723838627,2.916418777099252
1788862712338584300,7.238584228515625,-1.2377853071659803,1.1282514579966663,4.442316677257418
1788862712348590300,7.24859033203125,-1.442708744817972,-0.6213315711677074,5.627194570100307
1788862712358596400,7.258596435546875,-1.4340841243356466,-2.1892349678844214,5.326655626255273
1788862712368603400,7.268603271484375,-1.1227011303931473,-3.247447551754117,3.7035131573975084
1788862712378609400,7.278609375,-0.6434604008674621,-4.101191456001997,1.5695090783476828
1788862712388616400,7.288616455078125,0.7159814471989869,-4.545730289980769,-0.6059288348525762
1788862712398622500,7.29862255859375,1.9149889876812696,-4.075995347686112,-3.1710370967686172
1788862712408629500,7.30862939453125,1.5670663613706826,-2.9484219350814818,-5.377774403595924
1788862712418635300,7.31863525390625,-0.30989772382080555,-1.4392746787160635,-6.4146835026741025
1788862712428641300,7.328641357421875,-2.0475012691169976,0.6634741381093859,-6.012382804965973
1788862712438648600,7.338648681640625,-2.3179782521754504,2.9408061993807553,-3.841144097021222
1788862712448654300,7.348654296875,-0.7678916671782732,3.5465199301779267,0.23255437189936637
1788862712458661400,7.358661376953125,1.0416571703881026,2.592235338294506,3.614689795562625
1788862712468667400,7.36866748046875,2.8331074566841123,0.8090238880336285,4.553980816453695
1788862712478674400,7.37867431640625,3.620501112189889,-0.15951427012979982,3.2528286602705716
1788862712488680400,7.388680419921875,3.196860689333081,-0.40851767252683635,1.1233090331584215
1788862712498687500,7.3986875,1.7140806308895349,-0.4421218359649181,-0.8454121292322874
1788862712508693500,7.408693603515625,0.5051543384611606,-0.1572282050192356,-2.1868062794327736
1788862712518699500,7.418699462890625,0.8125573228567838,-0.16022738683521748,-2.0481819448575376
1788862712528706300,7.428706298828125,0.5940104335218668,0.047073885864019394,-1.6424422126114369
1788862712538712600,7.438712646484375,-0.12572890490591526,0.8296165942072868,-1.7139689872086048
1788862712548719400,7.44871923828125,0.1510457169920206,1.0254524700403214,-0.8443979837536811
1788862712558725400,7.458725341796875,0.9896756387382745,0.46869303202629087,0.967195803643763
1788862712568732400,7.468732421875,0.9850608384191989,-0.02010463039577007,1.7402125587508082
1788862712578738400,7.478738525390625,0.20382132162898778,0.20432079558372496,0.9922668242752551
1788862712588744400,7.488744384765625,-0.13060557103157042,0.518840918508172,-0.05640431652814149
1788862712598751200,7.498751220703125,0.12286065599322318,0.4304214612990617,-0.24866233387440442
1788862712608757500,7.508757568359375,0.4892307931423187,-0.764885471099615,1.4646306537687777
1788862712618764300,7.518764404296875,-0.5396595423921943,-1.9717127454221248,2.9231647442281243
1788862712628770300,7.528770263671875,-2.0256214457422494,-2.8306659087508916,2.3533660841599104
1788862712638777600,7.538777587890625,-2.573701025955379,-3.61520242125988,0.6509510488837957
1788862712648783400,7.548783447265625,-3.5693203755289313,-4.878958035984635,-0.30452596765458584
1788862712658790400,7.558790283203125,-4.720099891676009,-5.9965913615941995,-0.06518968053013086
1788862712668796400,7.56879638671875,-4.540681189897656,-6.159463125458359,0.9704989368423819
1788862712678802400,7.578802490234375,-3.597425357028842,-5.58903055140078,2.2906866328850386
1788862712688809500,7.5888095703125,-2.9490573103755713,-5.095222951862215,4.281669603705406
1788862712698815200,7.598815185546875,-2.8892145438313483,-3.7557659072041507,4.843301323930919
1788862712708822500,7.608822509765625,-2.1181422007903454,-2.08099261983037,3.5924762101888654
1788862712718828500,7.61882861328125,-1.3478896496996282,-0.9151385764092207,2.6026263839274644
1788862712728835300,7.62883544921875,-1.1701049788638949,-0.07499182035923004,1.741443561850488
1788862712738841300,7.63884130859375,-0.6630512365221977,0.2903910593181848,0.5810135893046856
1788862712748847400,7.648847412109375,0.36206396438777444,0.42645197314620015,-0.923903482145071
1788862712758854400,7.6588544921875,0.898481456118822,0.45556993108093735,-1.6181383769601583
1788862712768860400,7.6688603515625,-0.2618628839701414,-0.25775954030454157,-1.1594421305522322
1788862712778867500,7.678867431640625,-1.6373668090432882,-1.1381932985574006,0.0829886643320322
1788862712788873500,7.68887353515625,-2.161888695797324,-1.7662679142445326,1.7451058837503193
1788862712798880300,7.69888037109375,-2.696077405562997,-1.9105127190500497,2.8542811776161194
1788862712808886500,7.708886474609375,-3.0478549537360666,-1.6555635599911211,2.9193489853322503
1788862712818892500,7.718892578125,-2.1617869889885184,-0.9703320558428764,2.2975541805669666
1788862712828899300,7.7288994140625,-1.1042024738892913,-0.1956488288283348,1.733239504867792
1788862712838905300,7.7389052734375,-0.38483693720996376,0.405571682202816,1.015760512587428
1788862712848912400,7.748912353515625,0.6071782503917813,1.0356745888471603,-0.8522229782909154
1788862712858918400,7.75891845703125,2.81665345775038,1.5392016183674335,-3.0910785939127203
1788862712868925400,7.768925537109375,6.2689925907135,2.061263837009668,-4.268755761596561
1788862712878931500,7.778931396484375,8.060083396047354,2.8332056563615797,-5.013869779777527
1788862712888938500,7.7889384765625,6.143324476084112,4.027967229837179,-6.000754911014437
1788862712898944300,7.7989443359375,2.8953426713228225,5.238868037208914,-5.929343287229537
1788862712908950500,7.808950439453125,-0.3043415509983897,5.911738072434067,-3.2360739248245953
1788862712918957600,7.81895751953125,-3.4134465077280995,5.847369352898001,2.0623259132832286
1788862712928963300,7.82896337890625,-5.59406620748043,2.7272534650713203,7.385216634047031
1788862712938970600,7.838970703125,-6.066402564445138,-2.882071686339378,10.710893672907352
1788862712948976600,7.8489765625,-4.845670683410764,-6.885816913589835,11.209696596515178
1788862712958983400,7.8589833984375,-2.1521026303201913,-7.220920390337705,7.640073438647389
1788862712968989700,7.86898974609375,0.6610030718207359,-5.02883821632862,2.651859493651986
1788862712978995500,7.878995361328125,1.6690040563225745,-2.9594653071433306,-0.07150164015591144
1788862712989002500,7.88900244140625,0.9599246435970067,-1.4577847333967684,-1.0414525877267122
1788862712999008500,7.899008544921875,0.25341771170794963,-0.3868652281671762,-0.5282499673664569
1788862713009015600,7.909015625,-0.8290402556240558,0.14172083928585053,1.040719597277045
1788862713019021600,7.919021484375,-2.5261802731066942,-0.3837988263338804,3.109336135137081
1788862713029028400,7.9290283203125,-3.662285659474134,-1.7297651067554949,4.91520482288599
1788862713039034600,7.93903466796875,-2.785196535474062,-3.5601802067399024,5.6731157787978646
1788862713049041400,7.94904150390625,-0.6700047089219093,-4.900445937432348,5.470272070029377
1788862713059047400,7.95904736328125,1.3729413811087607,-5.365525162875652,4.4722237397432325
1788862713069053400,7.969053466796875,3.2981220924586054,-4.982947402769327,2.2951275379419327
1788862713079060500,7.979060546875,4.486566153350473,-3.775717685125768,-0.16460662483274935
1788862713089066500,7.98906640625,4.8972956567078825,-2.0226208026215433,-2.321283138939738
1788862713099073500,7.999073486328125,5.360245761168002,-0.44070992334038017,-4.2214544967174525
1788862713109079600,8.00907958984375,5.654658915609121,1.1878493098691105,-5.919609244200587
1788862713119086600,8.019086669921874,5.7756800812155005,2.7552032560095188,-6.9490545832693575
1788862713129092400,8.02909228515625,5.449895052433013,3.5476615014284847,-7.6075950643688435
1788862713139098400,8.039098388671874,4.913430214428901,3.73316419929564,-8.933642592355609
1788862713149105700,8.049105712890626,3.4389690715193746,4.066970037448406,-10.546655881386995
1788862713159111400,8.059111328125,1.265886197012663,4.8868172250524164,-11.295913575243949
1788862713169118500,8.069118408203124,0.20822715537250042,5.205848980182409,-9.203867646479607
1788862713179124500,8.07912451171875,-0.6321271059483289,3.6714454097464677,-3.419313353934884
1788862713189131500,8.089131591796875,-1.6231027213692664,0.4323091747418046,3.1520600090980526
1788862713199137500,8.099137451171876,-0.9194277980357408,-4.257634940384328,7.475120776855945
1788862713209144600,8.10914453125,2.6744880895674226,-8.243286584800481,7.616490318486094
1788862713219150600,8.119150634765624,3.9473488017678258,-6.551304388472437,1.6319681648701427
1788862713229156600,8.129156494140625,1.1779326037496327,-1.7243883821532129,-4.521908684888482
1788862713239163400,8.139163330078125,-1.2836883956849574,1.769361204084754,-4.807856793323159
1788862713249169700,8.149169677734376,-2.8139012364327907,3.681517598688602,-1.3028513613164423
1788862713259176400,8.159176513671875,-2.0027040960133076,2.152151291767508,2.985415740957856
1788862713269182500,8.169182373046874,-0.8308090188622475,-0.3790852418154478,3.0975200251370665
1788862713279189500,8.179189453125,-0.22606734796762465,-0.17196897029429672,-0.7714221793919801
1788862713289195500,8.189195556640625,0.17011457459926604,1.6164263123452662,-3.1609406501680613
1788862713299202600,8.19920263671875,-0.16953940505981444,2.0398416942745445,-2.564105806875229
1788862713309208300,8.209208251953125,-0.9439087438195943,0.6045429334521293,-0.2496054599434137
1788862713319214600,8.219214599609375,-1.6010387735992668,-0.5072556946545839,1.5187766699761152
1788862713329221400,8.229221435546876,-0.37784663993120193,-1.0619821655362844,2.2151970921367408
1788862713339227400,8.239227294921875,1.4314952768862246,-1.7888982637256383,1.2876035233020782
1788862713349234700,8.249234619140625,1.6631828028231859,-1.770410713137686,-0.3324497473686933
1788862713359240400,8.259240478515625,0.7813327480316161,-0.9081269440814852,-2.3218267442971467
1788862713369247500,8.26924755859375,1.7027999429404734,-0.3940221141844988,-3.2278689910590646
1788862713379253500,8.27925341796875,1.7994389469623564,-0.1294800741329789,-3.8306893385022875
1788862713389259500,8.289259521484375,1.7486702982336282,0.5275651999726891,-4.525874081388116
1788862713399266600,8.2992666015625,3.1124148119300603,1.322475806979835,-4.620314698582887
1788862713409272300,8.309272216796876,3.917064722663164,1.9755805267661808,-4.842603697055578
1788862713419279600,8.319279541015625,3.3023540309399366,2.6528838682636615,-5.606449303713441
1788862713429285600,8.32928564453125,1.9182348377346992,3.3974501894339917,-6.129540280881524
1788862713439292400,8.33929248046875,1.0931523798257112,3.7898350578054782,-5.677310307878256
1788862713449298400,8.34929833984375,1.9489508785158394,3.733475457201898,-4.163372310104966
1788862713459305500,8.359305419921874,2.607486683440208,3.291583046078682,-2.3557868815660474
1788862713469311500,8.3693115234375,3.3112399327069517,2.3347294804900884,0.04495031783878803
1788862713479317500,8.3793173828125,3.2340351124733684,0.7940385003477335,2.0401818860143424
1788862713489324500,8.389324462890626,2.1220564516246316,-0.5324228691369295,1.769426086014509
1788862713499330600,8.39933056640625,1.1074877791702746,-1.2286796251684426,0.3556739710897207
1788862713509337300,8.40933740234375,0.9374994612991809,-1.6422452287346123,-0.0004436521142721176
1788862713519343400,8.41934326171875,0.3854319804936647,-1.7819424532383679,1.193159983497858
1788862713529350400,8.429350341796875,-0.7650175730466843,-1.501439750728011,1.9201532385766504
1788862713539356400,8.4393564453125,-1.0314771371573208,-0.8613818517804145,1.4377683658063412
1788862713549362400,8.449362548828125,-0.6327431920200586,-0.7981739927172661,1.232347500026226
1788862713559369500,8.459369384765624,-0.9995265861451625,-1.0771353110045194,1.5862322496116161
1788862713569375500,8.46937548828125,-1.879685619109869,-1.4019991332888602,2.2005887210696935
1788862713579382500,8.479382568359375,-2.140161432635784,-1.902390202870965,2.9737007532447577
1788862713589388500,8.489388427734376,-1.8996514255568384,-2.5612235294371843,3.5167210042417048
1788862713599395600,8.4993955078125,-2.0176748706519603,-3.339381154564023,3.7668335369244215
1788862713609401300,8.5094013671875,-2.454127428808808,-4.0316900497525925,4.194977993202209
1788862713619408600,8.51940869140625,-2.8591479068696497,-4.383400377908349,4.241269788777828
1788862713629414700,8.52941455078125,-3.2083015362799165,-4.695920266926288,3.6532194327041503
1788862713639420400,8.53942041015625,-3.2943118865206835,-5.08488275963366,2.9677284008368847
1788862713649427500,8.549427490234375,-2.6563956757768987,-5.485643826684355,2.812010892641544
1788862713659433700,8.559433837890625,-2.048660960546136,-5.686012085250019,2.482353114078939
1788862713669440500,8.5694404296875,-1.8745353967398404,-4.941572020807862,0.8319774781197309
1788862713679446500,8.579446533203125,-1.0319669665008784,-4.333723616069555,0.78073799700886
1788862713689453600,8.58945361328125,-0.5207289242118597,-3.2392630762547254,2.4374156557217237
1788862713699459600,8.59945947265625,0.03079436671435833,-0.887250452530384,1.5871996333390472
1788862713709466400,8.60946630859375,0.20224837322384118,0.887651434546709,-0.14068535875827073
1788862713719472400,8.619472412109374,0.21850509601980447,1.8621663290321826,-0.11383329992890358
1788862713729478700,8.629478759765625,0.6270891117811203,2.50858265709579,0.761358758278191
1788862713739485400,8.6394853515625,1.0963555597811936,3.1539123589664695,0.6999018345355987
1788862713749491500,8.649491455078126,1.5659823655262588,3.259239111834764,-0.12414017440974712
1788862713759498500,8.65949853515625,1.4222110234513878,2.9045880540519953,-1.4162635132238268
1788862713769504500,8.66950439453125,1.0258736180618404,2.18619779214561,-2.337330018377304
1788862713779511600,8.679511474609376,0.6234288357079029,1.3374030347377062,-2.150611514979601
1788862713789517300,8.689517333984375,0.3278127352178097,1.028511273089051,-1.6917510179206727
1788862713799524600,8.699524658203124,0.2056833161085844,0.7418132230699062,-1.2445900187447667
1788862713809530600,8.709530517578125,0.1072048216998577,-0.2409925298988819,-0.2755637848034501
1788862713819536400,8.719536376953124,-0.7420642752215266,-1.1310434268027543,0.44769495992213487
1788862713829543700,8.729543701171876,-1.194564005076885,-1.3154413782984018,-0.4614177803263068
1788862713839549400,8.739549560546875,-0.25730507453531026,-1.1561685157090424,-0.8170540497541428
1788862713849556500,8.749556396484374,0.0171884506881237,-0.7277075408279895,-0.1303036654755473
1788862713859562500,8.7595625,-0.4513169498115778,-0.008200257590413092,0.5994266133517027
1788862713869569500,8.769569580078125,-0.22424013254046438,0.905257233864069,0.9477969834297895
1788862713879575600,8.779575439453126,0.12621171998679637,1.4794114587932825,0.9073205961346625
1788862713889582300,8.789582275390625,-0.2910255578294396,1.5814233880251645,0.5694751272022723
1788862713899588600,8.799588623046875,-0.7443655379012226,1.1835434293687344,0.7938555449962615
1788862713909594000,8.809593994140625,-1.4219699081718922,0.22623685931563375,1.649565780881047
1788862713919601200,8.81960107421875,-2.5870681647896765,-0.6959153952479362,2.515174894967675
1788862713929607200,8.829607177734376,-2.6864287027299403,-1.8150281457602977,3.8453655141085386
1788862713939614000,8.839614013671875,-2.3556688081443307,-3.1187603815644978,5.36929591358602
1788862713949620000,8.849619873046874,-2.083110927158594,-4.164996111914515,6.405729796367884
1788862713959627300,8.859627197265626,-1.6256109047979115,-4.560418740546703,6.605619331505895
1788862713969633000,8.869633056640625,-0.933970702651143,-3.8357320088446136,5.442779082947969
1788862713979639000,8.87963916015625,-0.5056400761514902,-2.3967525136828423,4.230391251888871
1788862713989646000,8.88964599609375,-0.15793956815898416,-1.1885744092732666,3.4648224747002123
1788862713999652000,8.899652099609375,-0.03739771050214767,-0.17863982636034487,2.4847476080000397
1788862714009659100,8.9096591796875,0.5915531034976244,-0.18931261154413223,2.0442676940232514
1788862714019665000,8.919664794921875,1.6456687734425066,-1.3377104932516812,1.7278519666105507
1788862714029672200,8.929672119140625,2.010565915429592,-2.5014643495231867,0.981834277588129
1788862714039678200,8.93967822265625,1.9862486357748508,-3.3235110929980873,0.20591537129878998
1788862714049685000,8.94968505859375,1.9333342071890829,-3.6171763516813513,-0.415735933342576
1788862714059691300,8.959691162109374,2.0543623870581387,-3.4271766346558925,-0.9656704937726258
1788862714069697000,8.969697021484375,1.8287439519017934,-2.8428385771036147,-1.6413263603240251
1788862714079704000,8.9797041015625,0.9713251585334539,-1.8004565995723008,-2.700959332385659
1788862714089710300,8.98971044921875,0.12913608300089835,-0.19620938532054424,-2.8024147967785593
1788862714099717000,8.999717041015625,-0.5129536140352488,0.7044973456323146,-1.1449112086355686
1788862714109723100,9.00972314453125,-0.9327642494708299,0.4673506775066256,1.2343664386332034
1788862714119730200,9.019730224609376,-0.8906400949686765,-0.6240761937007308,2.9501293235212565
1788862714129736200,9.029736083984375,0.37951311183869835,-2.3139722314044833,3.033527153176069
1788862714139743000,9.039742919921874,2.5016128180831667,-3.628327860292792,1.3839064272373913
1788862714149749000,9.0497490234375,4.074674620476364,-3.062304042588174,-1.4545897367477416
1788862714159755300,9.05975537109375,4.658888467127085,-1.602220969121158,-2.9754367832571265
1788862714169762000,9.069761962890626,4.817409050044417,-0.6667308018177748,-3.2523645498901605
1788862714179768000,9.07976806640625,3.580560146945715,-0.286918122510612,-3.2062288216590877
1788862714189775000,9.089775146484374,1.6814514499634503,0.5398299305230378,-3.1322470551252364
1788862714199781000,9.099781005859375,0.4317033178031444,2.0923995645076037,-2.808350032046437
1788862714209788200,9.1097880859375,0.2064320886492729,2.776786726786196,-2.1899673738121983
1788862714219794000,9.1197939453125,0.5000111303538084,2.070534938701987,-2.298288047799468
1788862714229801200,9.12980126953125,1.9437807824015616,1.1056412745207547,-2.8116221855849024
1788862714239807200,9.13980712890625,3.8986464379191395,0.4013113944098353,-2.8408009337961673
1788862714249813000,9.14981298828125,4.8733513020187615,-0.19750585487186909,-1.5488620116382836
1788862714259820300,9.1598203125,4.470686447173357,-0.7576090503558516,-0.31981822933256626
1788862714269826000,9.169825927734376,3.5790240234196182,-1.3301834587477146,-0.7648428010016679
1788862714279833000,9.1798330078125,3.939970966476202,-0.8330145660825073,-2.817531117367744
1788862714289839000,9.189839111328125,2.947928598606586,0.33399697681069374,-5.47327008280158
1788862714299846100,9.19984619140625,0.49649523118734357,2.4296967519074677,-7.791095774763822
1788862714309852200,9.20985205078125,-0.7814291941434145,3.7779414986550806,-6.01492430614233
1788862714319859000,9.21985888671875,-1.0271475835204125,3.2129771268755194,-2.393153027886152
1788862714329865200,9.229865234375,0.19331074126958847,1.7382215310640632,0.747901018550992
1788862714339871200,9.239871337890625,0.8222633088350295,-0.2390146539546549,2.707593655833602
1788862714349878000,9.2498779296875,0.8183429205209016,-1.698487048177421,3.291761325255036
1788862714359884000,9.259884033203125,-0.18805705852508545,-1.3851201869413257,2.415324527683854
1788862714369891000,9.26989111328125,-1.3289111007243395,-0.6565848169870674,1.465659412294626
1788862714379897000,9.27989697265625,-0.6844529209911823,-1.34220722014904,2.0296119766831398
1788862714389904100,9.289904052734375,0.19558160881102085,-1.7740674820795654,0.9851906022787094
1788862714399910100,9.29991015625,0.3498912960350513,-1.3338117322474716,-0.9658440967738627
1788862714409917200,9.309917236328126,0.5962725332349539,-1.3083286236837506,-1.0352642544806003
1788862714419923000,9.3199228515625,0.6193149706482887,-1.1280401533335447,-0.8212661144912242
1788862714429929000,9.329928955078126,0.4935211838126182,-0.5663368291765452,-1.7087030295044183
1788862714439936300,9.339936279296875,1.6278665747702121,-0.10791121640354394,-2.2628671903282402
1788862714449942000,9.34994189453125,2.483458737233281,0.37795010030567644,-2.2009166378498075
1788862714459949000,9.359948974609376,2.0210843868345023,1.1331932983130215,-2.2767437399893997
1788862714469955300,9.369955322265625,2.161060428279638,1.7796145948126911,-2.2637995027422906
1788862714479962000,9.379962158203124,2.865762941095233,2.2973253402471543,-2.4328525855898855
1788862714489968000,9.389968017578125,2.7740678232163187,2.7528607845365998,-2.973931639391184
1788862714499975200,9.39997509765625,2.495722591000795,2.954902529272437,-3.0142630652576683
1788862714509981200,9.409981201171876,2.1878765390127897,2.8315605195030566,-2.5626474247604607
1788862714519987200,9.4199873046875,2.1739391990751025,2.5912398975163695,-2.258406703788042
1788862714529994000,9.429993896484374,2.792285032430291,2.04035373544991,-1.8431980091899631
1788862714540000300,9.440000244140625,3.0284014807254076,1.2358809348493813,-1.336367846471071
1788862714550007000,9.450007080078125,2.3414281013458966,0.5721493148475885,-1.132273260858655
1788862714560013000,9.460012939453126,1.721150423145294,0.136031687733531,-1.2688795336097478
1788862714570020000,9.47002001953125,1.4210440254986285,-0.03806698806583881,-1.4758680870980023
1788862714580026000,9.480026123046875,1.0044722258538008,0.13243980072140693,-1.2312749023586511
1788862714590033200,9.490033203125,0.0348912806391716,0.31706045505702496,-0.5521569126546383
1788862714600039000,9.500038818359375,-0.12165011115968227,0.29836802954673763,0.4392746298402548
1788862714610045200,9.510045166015624,0.5597779090523719,0.157729140278697,1.5634300506949423
1788862714620052200,9.52005224609375,0.8877239152610301,-0.1328454589128494,2.4643261667400598
1788862714630058000,9.53005810546875,0.18806115017831324,-0.4098176492094993,2.4607307725965977
1788862714640065300,9.540065185546876,-1.2596651305407285,-0.5878659394174814,1.6162492022126913
1788862714650071000,9.550071044921875,-1.9976146639198065,-1.0972603996664285,1.533611251014471
1788862714660078000,9.560078125,-2.4562983431071044,-2.367519989457726,3.1606621254876255
1788862714670084400,9.57008447265625,-3.171157216016948,-4.019745929458737,5.208248442539572
1788862714680091100,9.580091064453125,-3.2474446291446686,-5.4485103200763465,6.31561814828813
1788862714690097200,9.59009716796875,-3.127452222064137,-6.5953913674801585,6.0358840920627115
1788862714700103200,9.600103271484375,-3.7874873256355523,-6.938084276443719,4.684763789878786
1788862714710110200,9.610110107421875,-3.5644051309585567,-6.378416257506609,3.4485832875609397
1788862714720116200,9.6201162109375,-2.594620772126317,-4.93038485636115,2.6196643202289938
1788862714730123000,9.630123046875,-1.7113544207960367,-2.8843197575271127,1.1216790938690304
1788862714740129300,9.64012939453125,-1.1866589310407638,-1.4236761275678873,-0.21084405987262725
1788862714750136000,9.650135986328126,-0.9675660982608795,-0.5043780933916568,-0.6959916753545403
1788862714760142000,9.66014208984375,-0.48945671085268255,0.16357494369745254,0.06584317600280046
1788862714770149000,9.670149169921874,0.02660685189664364,0.5115665435910225,1.3896800422027706
1788862714780155100,9.680155029296875,0.05891396126151085,0.5895365029782057,1.609733536708355
1788862714790161200,9.6901611328125,-0.01348550451695919,0.6065227090924978,0.6932213338583707
1788862714800168000,9.70016796875,-0.15384353101700543,0.6277928761363029,0.08113193054944276
1788862714810174200,9.71017431640625,-0.38410160867273807,0.2711573665380478,0.17255495348870753
1788862714820181200,9.72018115234375,-0.6367272932201623,-0.14810557188689707,0.15808365280479192
1788862714830187000,9.73018701171875,-0.8511971423745155,-0.5517810650795698,-0.5009080791935324
1788862714840194300,9.7401943359375,-0.5741659153670072,-1.0234621730059386,-0.6806421305313706
1788862714850200000,9.750199951171876,-0.5348275921911001,-1.5012825143396853,0.3913037951365113
1788862714860207000,9.76020703125,-1.0705407350450753,-1.5754922444105148,0.5416939708292484
1788862714870213000,9.770213134765624,-0.8234232925251126,-1.3432552678972483,-0.6347860960245132
1788862714880219100,9.78021923828125,-0.20870587880015373,-1.328068804681301,-1.406992119270563
1788862714890226200,9.79022607421875,-0.13369827634990214,-1.210983809480071,-1.5578794308304786
1788862714900232200,9.800232177734374,-0.1290069036632776,-0.7929092040568589,-1.2157009011298416
1788862714910239200,9.8102392578125,0.030911855614185333,-0.31953356717228887,-1.2145540691822767
1788862714920245200,9.820245361328125,0.4684481173545122,-0.1431418119996786,-1.1218231785148383
1788862714930252000,9.830251953125,0.6972276468902826,-0.6756365773290396,0.45128597015142435
1788862714940258000,9.840258056640625,-0.44479836169779297,-1.204860942685604,1.7024883927732706
1788862714950265000,9.85026513671875,-1.3445382934451102,-1.197152852526307,1.3863310240358113
1788862714960271000,9.86027099609375,-1.569448872593045,-1.283401979959011,1.3575789768040178
1788862714970277000,9.870277099609375,-1.592744992506504,-1.3444143748044968,2.399149637952447
1788862714980284200,9.8802841796875,-1.2136825470447539,-1.3765186550736426,3.3375708902716634
1788862714990290200,9.890290283203125,-0.5300175615608692,-0.9415104505062103,2.9415999801069495
1788862715000297000,9.900296875,0.27974750022888184,-0.48397068065702914,2.0550883632451296
1788862715010303000,9.910302978515626,1.0220730567350984,-0.33561785601079464,1.766293048685789
1788862715020310300,9.920310302734375,0.8160439959287643,-0.25612229449152946,1.3780483488589523
1788862715030316000,9.93031591796875,0.441135455276072,-0.11603519388735294,0.5665092631340026
1788862715040323000,9.940322998046875,0.8846239034190774,-0.3129015818119049,0.39719548352360723
1788862715050329000,9.9503291015625,1.13120066319108,-0.7576777316778898,0.5829910268574953
1788862715060335000,9.960335205078126,0.5371025513857602,-0.9243997412294149,-0.25921032363474367
1788862715070342100,9.970342041015625,-0.05621697726249694,-0.6214233411043882,-1.9663830748319624
1788862715080348000,9.980347900390624,-0.22953005564212797,-0.07698854713439941,-2.9377848057329654
1788862715090355200,9.990355224609376,0.2971241669654846,0.18883067324608563,-2.064030379113555
1788862715100361200,10.000361328125,0.11781272495388984,-0.16726649169176816,-0.758544577640295
1788862715110368000,10.010367919921874,-0.39204935280680653,-0.7030617598712444,-0.04971300219595432
1788862715120374300,10.020374267578125,-0.22174831572473047,-1.4005273071706295,0.7823685208201407
1788862715130381000,10.030381103515625,-0.31056700138449667,-1.993165575556457,1.4294324991375207
1788862715140387000,10.040386962890626,-0.9356184698581695,-2.1019836776718495,1.4735785148561
1788862715150393000,10.05039306640625,-0.2415244448184967,-2.152698550386727,1.3381617441505194
1788862715160400100,10.060400146484374,0.6896545812875032,-2.0723802743077275,1.1323422344416378
1788862715170406100,10.07040625,1.503004515826702,-2.3064330680713057,0.7747685672104359
1788862715180413000,10.080412841796875,1.880330931276083,-2.0542288238063455,-0.16452011559307575
1788862715190419200,10.090419189453126,1.119063066151738,-0.9585065934926271,-1.585803210544586
1788862715200426000,10.100426025390625,1.2388754404902458,0.14037351633012293,-2.30897076985538
1788862715210432000,10.110431884765624,0.8523410517126321,1.0111106409549713,-2.54662801785171
1788862715220439300,10.120439208984376,0.14475743050277232,1.4395707390531898,-2.109513780915737
1788862715230445000,10.130445068359375,-0.768511260381341,1.2724240743488073,-1.076883966591954
1788862715240451000,10.140451171875,-0.6237006383866072,0.6030836745545267,-0.6243009423673153
1788862715250458000,10.1504580078125,1.3529220909088848,-0.4164692160531878,-1.004893081614375
1788862715260464000,10.160464111328125,2.014326144745946,-1.151329843506217,-1.8785761965632437
1788862715270471200,10.17047119140625,1.9592045615047216,-1.3671788720592855,-2.647489608004689
1788862715280477000,10.180476806640625,2.1645932785809037,-1.2667372608840466,-2.1413597025096416
1788862715290484200,10.190484130859375,0.9493062189489603,-0.9151740861140191,-1.4103127881258726
1788862715300490200,10.200490234375,-0.25921149267852306,-0.5247231084145605,-1.272230597603321
1788862715310497000,10.2104970703125,0.7106231350362301,-0.15527853225618599,-1.326304717618227
1788862715320503300,10.22050341796875,1.4417489598751068,0.5805493327938019,-2.2446271847605703
1788862715330509300,10.23050927734375,1.197300152042508,1.3005445456787943,-2.821714540532231
1788862715340516000,10.24051611328125,1.2747674226045609,1.3766321984507142,-2.6662732189297675
1788862715350522000,10.250522216796876,2.132151144659519,0.4765960602357983,-3.1197979079186915
1788862715360529200,10.260529052734375,2.477293200340867,-0.7530424730926751,-3.144318016669154
1788862715370535200,10.27053515625,1.7093541868895292,-0.6543563272826374,-3.483678566339612
1788862715380542000,10.2805419921875,2.324161324724555,0.49946884017065163,-4.355800423321128
1788862715390548200,10.29054833984375,3.5164568003475662,0.8291299797341227,-3.5975247257500884
1788862715400555000,10.300554931640624,2.649581611847877,1.3122656708717346,-3.7997663769721983
1788862715410561000,10.31056103515625,1.6477677915483713,1.854862143498659,-4.449854087024927
1788862715420567000,10.320567138671874,0.9826432558834552,2.300094074308127,-3.9136464386522767
1788862715430574000,10.330573974609376,1.8371639897227285,2.503479488737881,-2.1551228549242016
1788862715440580000,10.340580078125,2.5433733999699353,2.0980597822263833,-0.5969803892433643
1788862715450587100,10.350587158203124,2.6905478284865616,1.8430945488154886,-0.7889128278970718
1788862715460593200,10.36059326171875,2.8751427638590332,1.6481322409465908,-1.711148669090867
1788862715470600200,10.37060009765625,2.5242922674030064,1.2679825847700237,-1.8354238680571318
1788862715480606000,10.38060595703125,0.9417109415143727,1.1325722438052297,-1.6608599128335713
1788862715490613200,10.39061328125,0.04568155472278595,1.0250804218575358,-1.5005612143278122
1788862715500619300,10.400619384765625,0.8028004834741354,0.8935632889389992,-1.6643009931981563
1788862715510625000,10.410625,1.4948603723376988,0.7602753469556569,-1.696927836036682
1788862715520632000,10.420632080078125,1.0774719956129788,0.30807606135159726,-1.3454232595860958
1788862715530638300,10.430638427734374,0.621231617924571,-0.048718145939707753,-1.426339793819189
1788862715540645000,10.44064501953125,0.5032213245719671,-0.12017653147578239,-1.6255027682483196
1788862715550651100,10.450651123046875,0.4763783258318901,-0.2968929885581136,-1.2919184638917445
1788862715560658200,10.460658203125,-0.2985889788210392,-0.6036942076683044,-0.8171089948117732
1788862715570664200,10.470664306640625,-0.7715951978713274,-0.9367261388391256,-0.29455519326031204
1788862715580671000,10.4806708984375,-0.31843466601967807,-1.1972720949918032,0.3767056532025337
1788862715590677000,10.490677001953125,-0.4503396292120218,-1.3552332904607056,0.9992921928673982
1788862715600683300,10.500683349609375,-0.9480781384587287,-1.5228689077258108,1.5128314978361128
1788862715610690000,10.51068994140625,-0.7991659263640641,-1.559877911171317,1.493500774422288
1788862715620696000,10.520696044921875,-0.9404811074584722,-1.4922686022788285,1.0999334182679652
1788862715630703000,10.530703125,-0.6863210529506206,-1.5815069746553896,1.343619425034523
1788862715640709000,10.540709228515626,-0.7494120076358318,-2.014534819060564,2.0705846230626106
1788862715650716200,10.550716064453125,-1.0402417506322263,-2.2287036394417283,1.8007459379076958
1788862715660722000,10.560721923828124,-0.6322714828550815,-1.7527128516227006,0.5394669424295425
1788862715670729200,10.570729248046876,0.06297171221971512,-1.582104940548539,0.12891864085793495
1788862715680735200,10.5807353515625,-0.5670049376964569,-1.5318571008235216,0.281464825540781
1788862715690741000,10.590740966796876,-1.5765800396472214,-1.0863754330366848,0.1006739586263895
1788862715700748300,10.600748291015625,-1.7428811934381723,-0.9987632005572319,0.2034562877088785
1788862715710754000,10.610754150390624,-1.4676710443779826,-1.629819462403655,1.4554402160972355
1788862715720761000,10.620760986328126,-1.8106752112478017,-2.3119798885434864,2.6517688927590846
1788862715730767000,10.63076708984375,-2.1197516818135975,-2.493462244853377,2.9644243908554313
1788862715740774100,10.640774169921874,-1.6716536940485238,-2.401100187498331,2.7699697402477264
1788862715750780200,10.6507802734375,-1.961922880552709,-1.8059259708940982,1.7902999472171066
1788862715760787000,10.660786865234375,-2.529295482517779,-0.9258008401989937,1.0334253486156464
1788862715770793200,10.670793212890626,-2.4516233370333906,-0.2562263393878937,1.296210900388658
1788862715780799200,10.68079931640625,-1.6410756004333495,0.00457622187435627,2.5789184683427213
1788862715790806000,10.690805908203124,-1.4778779656156897,0.04028115698397159,3.4063653172954913
1788862715800812000,10.70081201171875,-1.7383131548702715,0.13151917874515057,2.226050786845386
1788862715810819000,10.710819091796875,-1.0611097666159273,-0.1562690045982599,1.3638318997189403
1788862715820825000,10.7208251953125,-0.5419397622838616,-0.6827092921942473,0.7611144281283021
1788862715830832000,10.73083203125,-0.8335352289557456,-0.8156646412223577,-0.5164896792069077
1788862715840838100,10.740838134765625,-1.168685175193846,-0.892481923443079,-1.2492656093403696
1788862715850845200,10.75084521484375,-0.9832374223843217,-1.0519476782560349,-0.605358633749187
1788862715860851000,10.760850830078125,-1.020180667117238,-1.0190420184761284,1.0632052775904535
1788862715870857200,10.770857177734374,-1.0692512797564266,-0.6761147162348031,2.1602444357216357
1788862715880864300,10.7808642578125,-0.6453922457128762,-0.3348684989482164,2.0284055235028267
1788862715890870000,10.7908701171875,-0.5752531260818242,0.06328092429935932,0.8052361861884594
1788862715900877300,10.800877197265624,-0.47054947354793547,0.41773324463963507,-0.6592237871885299
1788862715910883000,10.810883056640625,0.2769377035051584,0.6020277357608079,-0.8141875544071197
1788862715920890000,10.82089013671875,0.33193361454010006,0.41406536978185177,-0.47113224187195296
1788862715930896100,10.830896240234376,0.09784545720219612,0.2029594441026449,-0.6997574576288461
1788862715940903200,10.840903076171875,-0.16703998945951462,-0.19434125336110591,-0.8025356950581073
1788862715950909200,10.8509091796875,-0.2214142614647746,-0.4576327088296413,-0.4510422245234251
1788862715960915200,10.860915283203125,0.03623918811678886,-0.4973685068905353,0.5554255590617656
1788862715970922200,10.870922119140625,0.11881868712604045,-0.6929641442269087,1.8832260681957005
1788862715980928300,10.88092822265625,-0.38007688320130106,-0.9070160602301358,2.7403701362758874
1788862715990935000,10.89093505859375,-0.61312079218328,-1.2547247515290976,3.1291788997262713
1788862716000941000,10.900941162109374,-1.0231152592644095,-1.4336369650900362,2.6856208934783936
1788862716010948000,10.910947998046876,-1.0086012884825468,-1.5850988616675137,2.198276936995983
1788862716020954000,10.9209541015625,-0.26970512190312146,-1.8281892406284808,2.4839964973717925
1788862716030961200,10.930961181640624,0.10470365253388882,-1.5311135889798402,2.4844109233915805
1788862716040967200,10.94096728515625,0.23009236570000646,-0.8648848914653062,1.8419360264301299
1788862716050973200,10.95097314453125,0.43719314739108084,-0.4926368021935224,1.1969032616794109
1788862716060980000,10.96097998046875,0.028731004443764686,-0.41434944742023944,0.6969120050698518
1788862716070986000,10.970986083984375,-0.9819365689188242,-0.32864041821360584,0.25819150198102
1788862716080993300,10.9809931640625,-0.9263163885056972,-0.5146107335925102,0.19438976867794988
1788862716090999000,10.9909990234375,0.06947218015491963,-0.8779542163968086,0.10214753831028937
1788862716101006000,11.001006103515625,1.080722521841526,-1.097476088243723,0.016222820526361464
1788862716111012000,11.01101220703125,1.559727104523778,-1.317661976957321,-0.12197510533034801
1788862716121019100,11.02101904296875,1.7796324227303266,-1.3763491437256334,-0.4989689278244972
1788862716131025200,11.031025146484374,2.4004279873251915,-1.530651232165098,-0.074091072127223
1788862716141031000,11.041031005859375,2.993006342217326,-1.852614949093759,0.6846411370396613
1788862716151038200,11.0510380859375,1.9253736035734415,-2.0531936355397105,0.7532733592391013
1788862716161044200,11.061044189453124,0.7400093885183334,-1.8076070558488369,0.27943653458356854
1788862716171051000,11.071051025390625,0.3677256434112787,-0.8754968863725662,0.17376549832224844
1788862716181057300,11.081057373046875,-0.06352057827413082,-0.22233897509425876,1.0319465082347392
1788862716191064000,11.09106396484375,-0.801781077298522,-0.1766787554204464,1.9343875156342982
1788862716201070000,11.101070068359375,-0.6111556295901537,-0.2500871059805155,1.8322288714081048
1788862716211077000,11.1110771484375,0.7183142740607261,-0.6242950971484184,1.3799766865730285
1788862716221083100,11.121083251953126,2.0551573368281124,-1.106657465825975,0.9821697931528091
1788862716231089200,11.131089111328125,2.3048042978256937,-1.2016019408896566,0.060519058370590205
1788862716241096000,11.141095947265624,1.9995067612767219,-0.9662830727130174,-0.9211492150008678
1788862716251102200,11.151102294921875,1.4945774637430906,-0.4831611178398132,-1.5614508595764636
1788862716261109000,11.16110888671875,1.0896832424104212,0.1311535603031516,-1.6630378413945435
1788862716271115000,11.171114990234376,1.3180232114851473,0.14659458280205725,-1.1955647065520285
1788862716281122300,11.181122314453125,1.197026011276245,0.250317407605052,-1.3447481368035077
1788862716291128000,11.191128173828124,2.4231881006658074,-0.10626958667635918,-1.4459528413057325
1788862716301135000,11.201135009765625,2.628365805339813,-0.2431966158144176,-1.5325380688250063
1788862716311141000,11.21114111328125,1.3481652517706155,0.03882715878337621,-1.7740695279061793
1788862716321147100,11.221147216796876,1.3754524871468543,0.2893471032232046,-1.7062094591230152
1788862716331154200,11.231154296875,1.8756378050237894,0.5676438201218843,-1.5815169115275143
1788862716341160000,11.241159912109374,2.1116133835434914,0.38374519645050165,-1.5220225200295447
1788862716351167200,11.251167236328126,2.0025509512782094,-0.16009645393192767,-1.6055542051970957
1788862716361173200,11.26117333984375,2.5901772367209195,-0.44346229078844185,-2.259541845297813
1788862716371180000,11.271179931640624,2.5328315476894376,-0.5035480723083019,-3.3802105930805206
1788862716381186000,11.28118603515625,1.5469932951569556,-0.22986396377161145,-4.049970387330651
1788862716391193000,11.291193115234375,0.9013771775603294,0.821398070307821,-3.4509798273086547
1788862716401199000,11.30119921875,0.30966976028382776,1.4230074345260857,-2.5123726970285176
1788862716411205000,11.311205078125,-0.7528706236571073,1.8177138777129351,-2.1112375359684226
1788862716421212200,11.321212158203124,-0.6088344931662082,2.3681861982814967,-0.5297708933234214
1788862716431218200,11.33121826171875,0.0596434445798397,1.857161944873631,1.5681600018262862
1788862716441225000,11.341224853515625,1.027732105410099,1.0047102723933756,2.072657922205329
1788862716451231000,11.35123095703125,2.0067250220924615,-0.20131810663640498,2.3457623311579225
1788862716461238300,11.36123828125,1.242813948982954,-1.0881411275349557,1.4415502224326133
1788862716471244000,11.371244140625,1.2561772884249687,-1.1335019258707761,-0.1473369256019592
1788862716481251000,11.3812509765625,1.294823537683487,-0.9645916124947369,-1.3323738083988428
1788862716491257000,11.391257080078125,0.7466583250135183,-0.34325200415104623,-2.7981401881992816
1788862716501263000,11.40126318359375,1.380050336331129,0.38130934760570523,-3.4138872372329234
1788862716511270100,11.411270263671875,2.613623578760028,0.7091273435205221,-3.0140608206838366
1788862716521276200,11.421276123046875,2.8743700259208675,0.8916206304386257,-2.8429081352084875
1788862716531283200,11.431283203125,1.9069483045667408,1.018925698620081,-3.0794816796213387
1788862716541289200,11.441289306640625,1.2354448815196752,1.1217726173713802,-2.9112849213421343
1788862716551296300,11.451296142578125,1.9471862069308756,1.329243693679571,-2.3268232374101876
1788862716561302300,11.46130224609375,3.737152976670861,1.1176260190859437,-0.7872381726831197
1788862716571309000,11.47130908203125,4.215848347273469,0.6227978443279862,0.4695610470324754
1788862716581315000,11.481315185546874,3.7439667483389374,0.6237111597806215,-0.3248030320078134
1788862716591321300,11.4913212890625,3.2801188182562586,0.39824733066409823,-1.5591156946271656
1788862716601328000,11.501328125,2.3659599005341527,0.02702595409154892,-2.4030162502527235
1788862716611334100,11.511334228515626,1.3011042253881693,0.016385317611694334,-2.628876677471399
1788862716621341200,11.521341064453125,0.1755243246883154,0.26745734297633167,-2.002031895840168
1788862716631347200,11.53134716796875,-0.18970014955699444,0.13842998104691503,-0.593928015935421
1788862716641354000,11.54135400390625,0.7843985653430223,-0.6519178480893373,1.4640478854447603
1788862716651360000,11.551360107421875,0.9836439573585987,-1.686453788295388,2.572910460099578
1788862716661367300,11.5613671875,0.9769096806675195,-2.7282173416674134,2.6830489971637723
1788862716671373000,11.571373046875,0.6844745483011007,-3.7292291979342695,2.327637476402521
1788862716681379000,11.581379150390624,0.3446218311995268,-4.427223153021932,1.7146446945130824
1788862716691386000,11.59138623046875,-0.31609307132959363,-4.38043159123063,0.881487651219964
1788862716701392100,11.60139208984375,-1.2302338688731194,-3.554018761500716,0.15322130746543405
1788862716711399200,11.611399169921874,-1.634938997374475,-2.157795289003849,0.001602174499630928
1788862716721405000,11.621405029296875,-1.2721426270589231,-0.7755050647914409,0.44225861408710476
1788862716731412200,11.631412109375,-0.858646873858571,0.19790332975685596,1.0666308681249619
1788862716741418200,11.641418212890626,-0.3680021222651005,0.7548790408700704,1.7042600786209106
1788862716751425000,11.651425048828125,0.16499533188939094,0.9752157362312078,1.9924802236407995
1788862716761431300,11.661431396484375,0.21267302886545658,1.0458125365018844,1.6336919199228286
1788862716771437000,11.67143701171875,-0.4518640623003244,0.9718629186719655,1.000879754319787
1788862716781444000,11.681444091796875,-1.0220867929995059,0.5421452217280864,0.9938643225997685
1788862716791450000,11.6914501953125,-1.0790034429639577,-0.26906419365108014,1.4659382292360066
1788862716801457200,11.70145703125,-0.9225620044082402,-1.38620301374197,1.9694117750033735
1788862716811463200,11.711463134765625,-0.9173103674903511,-2.637615864244103,2.225302891087532
1788862716821470000,11.721469970703126,-0.9195096311002969,-3.6767087371021505,2.6652245866596695
1788862716831476200,11.731476318359375,-1.1452753657728434,-4.0175574795037505,3.1080835047274826
1788862716841483000,11.74148291015625,-1.957963329271972,-3.7468408424705264,3.2044898690372703
1788862716851489000,11.751489013671875,-2.747327700328827,-3.174533122190833,3.320844211876392
1788862716861495000,11.7614951171875,-3.0612741150185463,-2.6298651039868592,3.7636876401141284
1788862716871502000,11.771502197265624,-2.9785666057154536,-2.3771108246237036,4.940235803768038
1788862716881508000,11.781508056640625,-2.492616441679001,-2.158386825156212,5.956000992530584
1788862716891515100,11.79151513671875,-1.808932751494646,-1.9529975235581396,5.484718528532982
1788862716901521200,11.801521240234376,-0.7810387335211039,-1.7280319993525743,3.938545317587256
1788862716911528700,11.81152880859375,0.15870236922502517,-1.3456301803350448,2.3030896028622982
1788862716921534500,11.821534423828124,0.8403682898461818,-1.281309391593933,1.7367744009956716
1788862716931541500,11.83154150390625,1.0784364567309617,-1.331985101342201,1.0380664524197578
1788862716941547500,11.841547607421875,0.9467503969863057,-1.0995166541606187,-0.09555120878517627
1788862716951553500,11.851553466796876,1.0213166854098439,-0.6635077481180429,-0.39142508342862126
1788862716961560600,11.861560546875,1.1408517041116952,-0.3002437602907419,0.06193593943119049
1788862716971566300,11.87156640625,1.4102479061961173,-0.0983294413268566,0.47814007480740545
1788862716981573600,11.88157373046875,2.074188785034418,-0.05914952358305454,0.5128910701930522
1788862716991579600,11.89157958984375,2.353976617273688,0.12074877840578556,-0.20321078851521013
1788862717001586400,11.90158642578125,1.9393647195249795,0.4450117121875286,-1.285365973508358
1788862717011592400,11.911592529296875,1.2603411301061511,0.9162561822623014,-1.9636264696002006
1788862717021599500,11.921599609375,0.7833265521973372,1.3542530472517014,-1.6944067931264637
1788862717031605500,11.93160546875,0.5925275014877319,1.4383172318607569,-0.824856832459569
1788862717041611500,11.941611572265625,0.5720788799598813,1.1049661517381668,-0.3901654387563467
1788862717051618600,11.95161865234375,0.7575807010442018,0.6941489700973034,-0.22635025656223295
1788862717061624600,11.96162451171875,1.1080474588796496,0.45499651510715483,0.14764496863782406
1788862717071631400,11.97163134765625,1.425323310253024,0.41154666495919223,0.5684580591142178
1788862717081637400,11.981637451171874,1.2997183239877224,0.6451227811217307,0.7353706228017807
1788862717091644400,11.99164453125,0.10252747753858565,0.9643471362143754,0.562584783166647
1788862717101650400,12.001650390625,-0.8456225571125745,0.9127607413619756,0.7964362091392279
1788862717111657500,12.011657470703126,-0.8226426635414361,0.19629940169155596,2.2421277691602706
1788862717121663500,12.02166357421875,-0.8558756555795669,-0.8855740437507629,3.617866672033071
1788862717131669500,12.03166943359375,-0.6603524989575147,-1.8796698370188474,3.9456040039271114
1788862717141676500,12.041676513671876,-0.01792670183479786,-2.758375748565793,3.4003350972205397
1788862717151682300,12.051682373046875,0.04517009806931019,-3.1064865909248587,2.333331304129958
1788862717161689600,12.061689697265624,0.19477146147191524,-3.0635435212552546,1.3638906441688536
1788862717171695400,12.0716953125,0.8078308788567781,-2.845972491215169,0.6987327907562255
1788862717181702700,12.08170263671875,1.5605460196912289,-2.31768979062289,0.30723990278840063
1788862717191708700,12.091708740234376,2.185350819927454,-1.7666998759210109,0.3764303433924913
1788862717201715500,12.101715576171875,2.24886146132946,-1.3152344575494528,0.6321709450900554
1788862717211721500,12.111721435546874,1.3754407967090605,-0.8000921012982726,0.6298129837870597
1788862717221727500,12.1217275390625,0.5319388850122689,-0.15381255135685204,0.6145826814293861
1788862717231734500,12.131734619140625,0.8353069148033857,0.04389204095751047,0.9293950652986764
1788862717241740500,12.141740478515626,0.7557587463140487,-0.09629004445374012,0.836688140028715
1788862717251747600,12.15174755859375,0.19879998633563517,-0.49166415776908395,0.17195231142044065
1788862717261753600,12.161753662109374,0.4899719668984413,-0.4425464911177754,-0.5209364294826984
1788862717271760400,12.171760498046876,1.618280415779352,-0.12013795303106307,-0.3053413756906986
1788862717281766400,12.181766357421875,2.386914425757527,-0.3739958097219467,0.03440262033939361
1788862717291773400,12.1917734375,1.6084434968978165,-1.1906453703284263,0.23778058211505412
1788862717301779500,12.201779541015625,0.8875801228761673,-2.0770073495864865,0.3415349711000919
1788862717311785500,12.211785400390625,0.9120441175252199,-2.4709575675785542,-0.1558084013491869
1788862717321792500,12.22179248046875,1.1098030703753232,-2.3806585802331566,-0.8699965353906154
1788862717331798500,12.231798583984375,1.0619804119706153,-2.1317437329024074,-1.383957865163684
1788862717341805600,12.2418056640625,1.1282955893993376,-2.022918032002449,-1.8452981963396071
1788862717351811300,12.251811279296875,0.8261375199198723,-1.4160285354241728,-2.3811796814978123
1788862717361818600,12.261818603515625,0.9087889151215552,-0.17703545990362762,-3.053501435190439
1788862717371824400,12.271824462890624,2.016457896077633,0.5825163950830697,-2.806867684534192
1788862717381830400,12.281830322265625,1.9847031598985194,0.9688044078841805,-2.774153163412213
1788862717391837700,12.291837646484375,2.3567098416298626,0.7963140440642833,-2.9347686727821825
1788862717401843500,12.301843505859376,2.912609447944164,0.3058091393329203,-2.7250615079849956
1788862717411850500,12.3118505859375,3.479819552823901,-0.05388794979304075,-2.3487428082734345
1788862717421856500,12.3218564453125,2.60964707634449,-0.1135661734253168,-3.2110996425658462
1788862717431863600,12.331863525390625,1.8711463388234375,1.2008704117447138,-4.659210538688302
1788862717441869600,12.34186962890625,1.8295418242812156,2.221126482185721,-4.505598770600557
1788862717451876400,12.35187646484375,2.2209119626522065,1.916081166832149,-3.5678006186157463
1788862717461882600,12.361882568359375,3.241913883024454,1.0432700124122203,-3.265509862667322
1788862717471888600,12.371888671875,3.062445789146423,0.5856732516787946,-3.8284833528906104
1788862717481895400,12.3818955078125,1.8066665601283312,0.8616331961929797,-4.402014477485418
1788862717491901400,12.3919013671875,0.717693511813879,1.188200169133395,-4.202568594461679
1788862717501908500,12.401908447265624,1.5959622009873389,1.4799264225780964,-2.8690438624620436
1788862717511914500,12.41191455078125,2.4490280598431826,1.357721746275574,-1.4240543132305143
1788862717521921300,12.42192138671875,1.9751789602279661,1.1399622079260647,-1.4272019636064768
1788862717531927600,12.431927490234376,0.8418272564828395,0.9446630693182348,-1.7322358807832001
1788862717541934600,12.4419345703125,-0.2755523866266012,0.8774792923614382,-2.0528782859802246
1788862717551940400,12.4519404296875,-1.0021288775980473,0.5115829102039336,-1.7639385945141315
1788862717561946400,12.4619462890625,-1.0217962856203318,0.03026362083852291,-0.8936503827005624
1788862717571953400,12.471953369140625,-0.29486382081806656,-0.035844343580305575,-0.1316267307728529
1788862717581959400,12.48195947265625,-0.19813480042517184,-0.1676408779621124,0.8190215504348277
1788862717591966500,12.491966552734375,-0.8478302962899208,-0.6485711680099367,1.4909335542827844
1788862717601972500,12.501972412109374,-2.81908711463809,-1.0305191057801246,1.0641361286997795
1788862717611979500,12.5119794921875,-3.1703397621542213,-1.723463376262784,1.748510139235854
1788862717621985500,12.521985595703125,-0.9972241544216871,-2.7102622905209657,3.432793013232946
1788862717631991300,12.5319912109375,0.8595207340836525,-3.6267958284199238,3.648727674242854
1788862717641998600,12.54199853515625,-0.0936287162899971,-3.585257949373126,1.677595359057188
1788862717652004600,12.552004638671875,-0.9858967047214507,-2.9704110640496015,-0.34344869576692577
1788862717662011400,12.562011474609376,0.4762362870126962,-3.1790289723053573,-0.16328385179638863
1788862717672017700,12.572017578125,1.1869096909314394,-3.1507962727725505,0.17646482040882108
1788862717682024400,12.5820244140625,0.7356938634067773,-2.3226082500636576,-0.741455495673418
1788862717692030500,12.592030517578126,0.7745020252287388,-1.3814964434862136,-1.7786930960536003
1788862717702037500,12.60203759765625,1.346995038947463,-0.6716612439572811,-2.3421295276135203
1788862717712043500,12.61204345703125,0.7897808429032563,0.2519984925597906,-2.788454075965285
