time,seconds_elapsed,z,y,x
1788862705133987000,0.033987060546875,2.671517848968506,2.0263993740081787,-1.2383198738098145
1788862705143992800,0.043992919921875,2.803581714630127,1.7015209197998047,-1.389736294746399
1788862705153998800,0.053998779296875,2.7998721599578857,1.6595261096954346,-1.3051543235778809
1788862705164006000,0.064005859375,2.633915901184082,1.9106621742248535,-0.9916028380393982
1788862705174012000,0.074011962890625,2.243922710418701,2.1626076698303223,-0.5767700672149658
1788862705184018000,0.084017822265625,1.6511495113372803,2.3210055828094482,-0.10455270856618881
1788862705194024700,0.094024658203125,0.8406451940536499,2.3225584030151367,0.2946816086769104
1788862705204031000,0.104031005859375,0.05309522524476051,2.136482000350952,0.49789223074913025
1788862705214038000,0.1140380859375,-0.5155549645423889,1.8380953073501587,0.4936383366584778
1788862705224043800,0.124043701171875,-0.8518206477165222,1.5144604444503784,0.377851277589798
1788862705234049800,0.1340498046875,-1.0070257186889648,0.9417274594306946,0.1781308948993683
1788862705244056800,0.144056884765625,-1.1098878383636475,-0.01576979085803032,-0.05296331271529198
1788862705254062800,0.154062744140625,-1.192193627357483,-0.9031027555465698,-0.25108474493026733
1788862705264068900,0.16406884765625,-1.2751092910766602,-1.6140059232711792,-0.4510743021965027
1788862705274076000,0.174075927734375,-1.3650332689285278,-2.119258403778076,-0.7060667872428894
1788862705284082000,0.18408203125,-1.4147307872772217,-2.005688428878784,-1.172788381576538
1788862705294088000,0.194087890625,-1.4114869832992554,-1.227488398551941,-1.555513620376587
1788862705304095000,0.204094970703125,-1.258285641670227,-0.9389241337776184,-1.622623085975647
1788862705314101000,0.21410107421875,-0.9183485507965088,-0.9498084783554077,-1.7865902185440063
1788862705324107000,0.22410693359375,-0.518585205078125,-1.4139726161956787,-1.8447011709213257
1788862705334113800,0.23411376953125,-0.1743796467781067,-1.8645800352096558,-1.7899773120880127
1788862705344120000,0.2441201171875,0.09056573361158371,-2.3705008029937744,-1.5527762174606323
1788862705354126800,0.254126953125,0.27932631969451904,-2.6052393913269043,-1.1187876462936401
1788862705364132900,0.2641328125,0.41794252395629883,-2.3286616802215576,-0.47913479804992676
1788862705374139000,0.274138916015625,0.5060495138168335,-2.221670150756836,0.2080266773700714
1788862705384146000,0.28414599609375,0.5510071516036987,-1.8581382036209106,0.9226881265640259
1788862705394152000,0.29415185546875,0.6028818488121033,-1.5468543767929077,1.5357493162155151
1788862705404158000,0.304157958984375,0.6451771259307861,-1.252516508102417,1.834494948387146
1788862705414165000,0.3141650390625,0.6556079983711243,-1.1407828330993652,1.6838353872299194
1788862705424171000,0.3241708984375,0.5882734060287476,-1.0069100856781006,1.2336740493774414
1788862705434177000,0.334177001953125,0.4870466887950897,-0.8284007906913757,0.6654362678527832
1788862705444183800,0.344183837890625,0.5058518052101135,-0.7298601269721985,0.09624206274747849
1788862705454190000,0.354190185546875,0.6347260475158691,-0.6632078289985657,-0.405202180147171
1788862705464195800,0.36419580078125,0.8385415077209473,-0.5805142521858215,-0.6584091186523438
1788862705474203000,0.374202880859375,1.032887578010559,-0.45432284474372864,-0.6325782537460327
1788862705484209000,0.384208984375,1.162817120552063,-0.28570693731307983,-0.3697676658630371
1788862705494216000,0.3942158203125,1.200086236000061,-0.15762515366077423,0.03065219521522522
1788862705504222000,0.404221923828125,1.1122307777404785,-0.18653430044651031,0.43947112560272217
1788862705514228000,0.41422802734375,0.9612314701080322,-0.3376290500164032,0.7432740926742554
1788862705524235000,0.424235107421875,0.8739282488822937,-0.6075201630592346,0.8853628039360046
1788862705534241000,0.434240966796875,0.8155115246772766,-0.9032236933708191,0.9523773789405823
1788862705544247000,0.4442470703125,0.7401952147483826,-1.0471038818359375,1.0112072229385376
1788862705554253800,0.45425390625,0.757488489151001,-1.0539822578430176,1.1273078918457031
1788862705564260000,0.464260009765625,0.7953887581825256,-0.9546090364456177,1.32725191116333
1788862705574265900,0.474265869140625,0.9331194758415222,-0.8656517267227173,1.5630486011505127
1788862705584273000,0.48427294921875,1.1532247066497803,-0.7313035130500793,1.8032898902893066
1788862705594279000,0.49427880859375,1.366773247718811,-0.454049289226532,2.0248522758483887
1788862705604285000,0.504284912109375,1.5407843589782715,0.4378390908241272,2.0597622394561768
1788862705614292000,0.5142919921875,1.6797488927841187,1.7186799049377441,1.8132350444793701
1788862705624298000,0.524298095703125,1.9872084856033325,2.060537099838257,1.3841906785964966
1788862705634303700,0.5343037109375,2.311044931411743,1.3636729717254639,0.8376657962799072
1788862705644311000,0.54431103515625,2.5068511962890625,0.22607624530792236,0.36030131578445435
1788862705654316800,0.55431689453125,2.5443761348724365,-0.5724877715110779,0.10860119014978409
1788862705664323800,0.56432373046875,2.479041337966919,-0.9672552943229675,0.029857374727725983
1788862705674330000,0.574330078125,2.376404285430908,-1.0367209911346436,0.06759949773550034
1788862705684335900,0.5843359375,2.297076940536499,-0.8377541303634644,0.23362283408641815
1788862705694343000,0.594343017578125,2.3476083278656006,-0.7744856476783752,0.526547372341156
1788862705704349000,0.604348876953125,2.5429680347442627,-0.9208143949508667,0.9272502660751343
1788862705714355000,0.61435498046875,2.776663064956665,-0.9204634428024292,1.3474855422973633
1788862705724362000,0.624362060546875,3.004936933517456,-0.8555203676223755,1.6435600519180298
1788862705734367700,0.63436767578125,3.1757869720458984,-1.0147322416305542,1.6432394981384277
1788862705744373800,0.644373779296875,3.103458881378174,-1.5997956991195679,1.3206489086151123
1788862705754381000,0.654381103515625,2.7615013122558594,-2.150324583053589,0.767789900302887
1788862705764386800,0.66438671875,2.3722426891326904,-2.486172914505005,0.1823778599500656
1788862705774392800,0.674392822265625,2.1372792720794678,-2.6553637981414795,-0.309448778629303
1788862705784400000,0.68439990234375,2.161543369293213,-2.827380418777466,-0.5841515064239502
1788862705794406000,0.694406005859375,2.4551711082458496,-3.1468505859375,-0.5943688154220581
1788862705804413000,0.704412841796875,2.8516385555267334,-3.610280990600586,-0.40423479676246643
1788862705814419000,0.7144189453125,3.1317648887634277,-4.234094619750977,-0.11100315302610397
1788862705824425000,0.724425048828125,3.1638503074645996,-4.906041145324707,0.18376724421977997
1788862705834432000,0.734431884765625,2.8821983337402344,-5.603742599487305,0.33256375789642334
1788862705844437800,0.744437744140625,2.5119173526763916,-6.311034679412842,0.33626237511634827
1788862705854444000,0.754444091796875,2.2866580486297607,-6.980853080749512,0.3017246127128601
1788862705864450800,0.764450927734375,2.3333358764648438,-7.444037914276123,0.30404555797576904
1788862705874456800,0.774456787109375,2.7407984733581543,-7.575253009796143,0.3735215365886688
1788862705884462800,0.784462890625,3.3841445446014404,-7.551120281219482,0.5656134486198425
1788862705894469600,0.7944697265625,3.9616596698760986,-7.339294910430908,0.7824975848197937
1788862705904475600,0.8044755859375,4.297684669494629,-6.532875061035156,0.7379487156867981
1788862705914481700,0.814481689453125,4.386655330657959,-5.211745738983154,0.1746702939271927
1788862705924488700,0.82448876953125,4.395249843597412,-3.9051339626312256,-0.7083390951156616
1788862705934494700,0.83449462890625,4.483607769012451,-3.2470695972442627,-1.4463629722595215
1788862705944501800,0.844501708984375,4.867904186248779,-3.3517143726348877,-1.7898238897323608
1788862705954507800,0.8545078125,5.403066158294678,-3.7154834270477295,-1.670935869216919
1788862705964513800,0.864513671875,5.7510480880737305,-3.9886929988861084,-1.162772536277771
1788862705974520600,0.8745205078125,5.713104724884033,-3.8507473468780518,-0.5235815048217773
1788862705984526600,0.884526611328125,5.414348125457764,-3.3374764919281006,-0.11672776937484741
1788862705994532900,0.894532958984375,4.957622051239014,-2.900266408920288,-0.20630794763565063
1788862706004539600,0.90453955078125,4.171003341674805,-2.6831064224243164,-0.7246149778366089
1788862706014545700,0.914545654296875,3.156633138656616,-2.276062488555908,-1.1915544271469116
1788862706024551700,0.9245517578125,2.538834571838379,-1.346184492111206,-1.4165416955947876
1788862706034558700,0.934558837890625,2.046612501144409,-0.3551410734653473,-1.2388403415679932
1788862706044564700,0.944564697265625,1.575638771057129,0.9317052364349365,-1.2972418069839478
1788862706054570800,0.95457080078125,1.0322265625,1.6647459268569946,-1.4458634853363037
1788862706064577800,0.964577880859375,0.6569138765335083,2.175001621246338,-1.5996626615524292
1788862706074583800,0.974583740234375,0.6430119276046753,2.0481553077697754,-1.5154937505722046
1788862706084590600,0.984590576171875,0.9313398599624634,1.2919005155563354,-1.2836772203445435
1788862706094596900,0.994596923828125,1.3697153329849243,1.0143793821334839,-0.4744888246059418
1788862706104603000,1.004602783203125,1.7971121072769165,0.7507381439208984,0.5033648014068604
1788862706114609700,1.014609619140625,1.765907645225525,0.35968226194381714,1.1653852462768555
1788862706124615700,1.02461572265625,1.3798295259475708,-0.10423827171325684,1.7569905519485474
1788862706134622000,1.0346220703125,0.9121805429458618,-0.5874524116516113,2.3124191761016846
1788862706144628700,1.044628662109375,0.6711580753326416,0.03293176740407944,2.921910285949707
1788862706154634800,1.054634765625,0.466389000415802,-0.6538774967193604,2.385021924972534
1788862706164640800,1.064640869140625,0.1389315128326416,-1.408058762550354,0.833166241645813
1788862706174647800,1.074647705078125,0.19966758787631989,-0.9573518633842468,-0.22823570668697357
1788862706184653800,1.08465380859375,0.6333327293395996,-0.02195199765264988,-0.9326924085617065
1788862706194660600,1.09466064453125,0.8459326028823853,0.28856512904167175,-1.157706618309021
1788862706204667000,1.1046669921875,0.7421151399612427,0.2074391096830368,-0.7298474311828613
1788862706214673000,1.1146728515625,0.5953810811042786,-0.10524768382310867,0.1330695003271103
1788862706224679700,1.1246796875,0.3965091109275818,-0.4410892724990845,0.8490903377532959
1788862706234685700,1.134685791015625,0.29174038767814636,-0.6303554177284241,1.1505736112594604
1788862706244692000,1.14469189453125,0.36461007595062256,-0.6722221970558167,1.1190534830093384
1788862706254698800,1.15469873046875,0.4302918612957001,-0.5710891485214233,1.0018389225006104
1788862706264704800,1.164704833984375,0.4795861840248108,-0.3921068608760834,1.0061665773391724
1788862706274710500,1.17471044921875,0.5246537923812866,-0.5033305883407593,0.7520687580108643
1788862706284717800,1.1847177734375,0.5073280930519104,-0.3757196366786957,0.6733169555664062
1788862706294723800,1.194723876953125,0.521575927734375,-0.3828488886356354,0.6936613321304321
1788862706304729600,1.2047294921875,0.488732248544693,-0.3566942512989044,0.6954008936882019
1788862706314737000,1.21473681640625,0.4145459234714508,-0.18421173095703125,0.7450153827667236
1788862706324743000,1.224742919921875,0.3379627466201782,0.01082034595310688,0.9127599000930786
1788862706334749700,1.234749755859375,0.370673805475235,-0.013166213408112526,0.8798392415046692
1788862706344755700,1.244755615234375,0.3904893398284912,0.11220449209213257,0.858191728591919
1788862706354761700,1.25476171875,0.3048321306705475,0.3198862671852112,1.0881742238998413
1788862706364768800,1.264768798828125,0.32293710112571716,-0.1596182882785797,0.9365943670272827
1788862706374774800,1.27477490234375,0.32270532846450806,-0.3177018463611603,0.6529357433319092
1788862706384780500,1.284780517578125,0.3846973478794098,-0.12216348946094513,0.29383301734924316
1788862706394787800,1.294787841796875,0.3537346124649048,0.11420457810163498,-0.06057281047105789
1788862706404793900,1.3047939453125,0.24769817292690277,0.4193543493747711,-0.1966659277677536
1788862706414799600,1.314799560546875,0.1431082934141159,0.7119720578193665,-0.14904822409152985
1788862706424807000,1.324806884765625,0.03209976106882095,0.7042773962020874,-0.16115149855613708
1788862706434812700,1.334812744140625,-0.01795400120317936,0.497887521982193,-0.0878520980477333
1788862706444819700,1.34481982421875,-0.0850217193365097,0.27363231778144836,-0.015503864735364914
1788862706454825700,1.35482568359375,-0.2063843011856079,0.117705799639225,0.07288126647472382
1788862706464831700,1.364831787109375,-0.22537317872047424,-0.0002306937240064144,0.19632411003112793
1788862706474838800,1.3748388671875,-0.022497646510601044,-0.05742396414279938,0.2019067406654358
1788862706484844800,1.3848447265625,0.26257750391960144,-0.10653505474328995,0.09270168840885162
1788862706494850600,1.3948505859375,0.35075461864471436,0.007409177254885435,0.013729812577366829
1788862706504857900,1.40485791015625,0.26273074746131897,0.08097021281719208,-0.050669681280851364
1788862706514863600,1.414863525390625,0.044606052339076996,0.22661954164505005,-0.035669855773448944
1788862706524869600,1.42486962890625,-0.10126779973506927,0.28929221630096436,0.04750173166394234
1788862706534877000,1.434876953125,-0.05084909871220589,0.12739361822605133,0.19654901325702667
1788862706544882700,1.444882568359375,0.13304457068443298,-0.019123652949929237,0.3020418584346771
1788862706554889700,1.4548896484375,0.4165817201137543,-0.08771239221096039,0.3555588722229004
1788862706564895700,1.464895751953125,0.41942569613456726,-0.3002435564994812,0.502181887626648
1788862706574901800,1.47490185546875,0.19092927873134613,-0.4898917078971863,0.6467715501785278
1788862706584908800,1.48490869140625,0.0047796498984098434,-0.7596606612205505,0.6920324563980103
1788862706594914600,1.49491455078125,-0.0796402245759964,-0.9306185245513916,0.6488977074623108
1788862706604920800,1.5049208984375,-0.05285494774580002,-0.9116280674934387,0.4053865075111389
1788862706614928000,1.514927978515625,0.028049563989043236,-0.5947925448417664,0.006927108857780695
1788862706624933600,1.52493359375,0.11885030567646027,-0.19402620196342468,-0.40092429518699646
1788862706634939600,1.534939697265625,0.2738127112388611,0.15515439212322235,-0.7717186212539673
1788862706644946700,1.54494677734375,0.3450203239917755,0.4734077453613281,-1.0600659847259521
1788862706654952700,1.55495263671875,0.22263473272323608,0.72298264503479,-1.1910247802734375
1788862706664959700,1.564959716796875,0.05140040069818497,0.7781071662902832,-1.0567753314971924
1788862706674965800,1.5749658203125,-0.13361820578575134,0.6454737782478333,-0.7747491002082825
1788862706684971800,1.5849716796875,-0.27237075567245483,0.4743390381336212,-0.4679476320743561
1788862706694978800,1.594978759765625,-0.46366289258003235,0.22701945900917053,-0.1321243941783905
1788862706704984600,1.604984619140625,-0.6553380489349365,-0.012917769141495228,0.24743597209453583
1788862706714990800,1.614990966796875,-0.8476412892341614,-0.3142125606536865,0.5142282247543335
1788862706724997600,1.62499755859375,-0.8573043346405029,-0.7575122117996216,0.3974374532699585
1788862706735003600,1.635003662109375,-0.5148410797119141,-0.5935128927230835,0.22393779456615448
1788862706745011000,1.645010986328125,-0.4446108937263489,-0.43718427419662476,0.008559169247746468
1788862706755016700,1.6550166015625,-0.5463846921920776,-0.5213168263435364,-0.031238600611686707
1788862706765022700,1.665022705078125,-0.6448785662651062,-0.6288278698921204,-0.1274748593568802
1788862706775029800,1.67502978515625,-0.677066445350647,-0.7222536206245422,-0.3518705368041992
1788862706785035800,1.685035888671875,-0.5669702887535095,-0.7518871426582336,-0.5014336109161377
1788862706795041800,1.695041748046875,-0.4260093569755554,-0.7787827253341675,-0.5972739458084106
1788862706805048800,1.705048828125,-0.43115273118019104,-0.8854221105575562,-0.7754117250442505
1788862706815054600,1.7150546875,-0.4162251949310303,-1.0296335220336914,-0.9320932626724243
1788862706825060900,1.725060791015625,-0.3942921757698059,-1.0643885135650635,-1.0804896354675293
1788862706835067600,1.735067626953125,-0.32753196358680725,-0.8029303550720215,-1.3027138710021973
1788862706845073700,1.74507373046875,-0.21796715259552002,-0.4132792353630066,-1.6294381618499756
1788862706855081000,1.7550810546875,-0.051390912383794785,0.010722016915678978,-2.0782663822174072
1788862706865086700,1.765086669921875,0.22065098583698273,0.36243879795074463,-2.547774076461792
1788862706875092700,1.7750927734375,0.3389943838119507,0.49056118726730347,-2.9504830837249756
1788862706885099800,1.785099853515625,0.3962203860282898,0.39195019006729126,-3.1433191299438477
1788862706895105800,1.795105712890625,0.4810236096382141,0.12847748398780823,-2.9582953453063965
1788862706905111000,1.805111083984375,0.6851418018341064,-0.22429893910884857,-2.535860776901245
1788862706915118000,1.8151181640625,0.891654372215271,-0.3887636959552765,-2.2921295166015625
1788862706925123800,1.825123779296875,0.869909942150116,-0.4161207675933838,-2.133181571960449
1788862706935129900,1.8351298828125,0.8827043771743774,-0.311164915561676,-2.000833511352539
1788862706945137000,1.845136962890625,0.9410342574119568,-0.1032351478934288,-1.8735592365264893
1788862706955143000,1.855142822265625,1.0707720518112183,0.07697677612304688,-1.6394206285476685
1788862706965150000,1.86514990234375,0.9220572113990784,0.2764299511909485,-1.3182960748672485
1788862706975156000,1.875156005859375,0.6817312836647034,0.2935202419757843,-1.1877583265304565
1788862706985162000,1.885161865234375,0.6759865880012512,0.07729923725128174,-1.0721819400787354
1788862706995169000,1.8951689453125,0.7735857367515564,-0.13020232319831848,-1.0486832857131958
1788862707005175000,1.905175048828125,0.627091646194458,-0.3705166280269623,-1.0665576457977295
1788862707015181000,1.91518115234375,0.13658878207206726,-0.7829568386077881,-0.8511801958084106
1788862707025188000,1.92518798828125,0.2608979642391205,-1.3677263259887695,-0.5567022562026978
1788862707035193900,1.93519384765625,0.005064256489276886,-1.3250502347946167,-0.4271364212036133
1788862707045200100,1.9452001953125,-0.08747712522745132,-1.062639594078064,-0.524305522441864
1788862707055207000,1.95520703125,0.13227953016757965,-0.7363073229789734,-0.7592843770980835
1788862707065213000,1.965212890625,0.3737874925136566,-0.5740979313850403,-1.0170317888259888
1788862707075220200,1.97522021484375,0.4417085349559784,-0.7325121164321899,-1.120903730392456
1788862707085226000,1.98522607421875,0.38727378845214844,-1.073087453842163,-0.9948403239250183
1788862707095232000,1.99523193359375,0.28509873151779175,-1.6066092252731323,-0.8460462689399719
1788862707105239000,2.005239013671875,-0.024199197068810463,-1.7223690748214722,-0.7803034782409668
1788862707115245000,2.0152451171875,-0.4661647081375122,-1.3217390775680542,-0.7169190645217896
1788862707125251000,2.0252509765625,-0.7723156213760376,-0.9911094903945923,-0.6225547790527344
1788862707135257900,2.0352578125,-0.9468379616737366,-0.71077561378479,-0.49831685423851013
1788862707145263900,2.045263916015625,-1.1077877283096313,-0.4813237488269806,-0.48418185114860535
1788862707155271200,2.055271240234375,-1.4098957777023315,-0.3182683289051056,-0.5482501983642578
1788862707165277000,2.06527685546875,-1.5152674913406372,-0.34214675426483154,-0.5882370471954346
1788862707175283000,2.075282958984375,-1.198194146156311,-0.634885311126709,-0.368103563785553
1788862707185290000,2.0852900390625,-0.4074936807155609,-0.9987985491752625,0.06554215401411057
1788862707195296000,2.0952958984375,-0.032634954899549484,-1.242601990699768,0.3927840292453766
1788862707205302000,2.105302001953125,-0.01967468112707138,-1.3749709129333496,0.4954390227794647
1788862707215308800,2.115308837890625,-0.2136775553226471,-1.243131399154663,0.5054498910903931
1788862707225315000,2.125315185546875,-0.4216690957546234,-1.1034544706344604,0.27290213108062744
1788862707235321000,2.135321044921875,-0.5106456279754639,-0.8821955323219299,0.05118503421545029
1788862707245328000,2.145327880859375,-0.3820205628871918,-0.7325106859207153,0.04934026300907135
1788862707255334000,2.155333984375,-0.3458526134490967,-0.8083949685096741,0.10983417183160782
1788862707265341000,2.1653408203125,-0.330430269241333,-1.05864417552948,0.36911100149154663
1788862707275347000,2.175346923828125,0.22347140312194824,-1.1013628244400024,0.7982271313667297
1788862707285353000,2.18535302734375,0.653544008731842,-1.1789311170578003,0.9682289361953735
1788862707295360000,2.195360107421875,0.8900188207626343,-0.9807056188583374,0.8883450031280518
1788862707305366000,2.205365966796875,1.025438904762268,-0.5911154747009277,0.6931124329566956
1788862707315372000,2.2153720703125,1.2684680223464966,-0.3280056416988373,0.4937625825405121
1788862707325378800,2.22537890625,1.6332952976226807,-0.1470523476600647,0.2926129400730133
1788862707335385000,2.235385009765625,1.8579553365707397,0.025201670825481415,0.12291132658720016
1788862707345391000,2.24539111328125,1.9718235731124878,-0.0522150918841362,-0.054779838770627975
1788862707355398000,2.25539794921875,1.8658459186553955,-0.2861258387565613,-0.13330134749412537
1788862707365404000,2.26540380859375,1.6393468379974365,-0.48186203837394714,-0.15301086008548737
1788862707375411000,2.275410888671875,1.3063130378723145,-0.5233141183853149,-0.24829043447971344
1788862707385417000,2.2854169921875,0.9007028937339783,-0.5289674997329712,-0.29248055815696716
1788862707395423000,2.295423095703125,0.5996561646461487,-0.38325265049934387,-0.20793570578098297
1788862707405430000,2.305429931640625,0.4031396508216858,-0.20968909561634064,0.06842157989740372
1788862707415436000,2.31543603515625,0.31150421500205994,-0.224188894033432,0.47270792722702026
1788862707425442000,2.325442138671875,0.23945772647857666,-0.4989299178123474,0.9008342027664185
1788862707435448800,2.33544873046875,0.14084361493587494,-0.7615436911582947,1.353216290473938
1788862707445455000,2.345455078125,-0.06683342158794403,-0.9629468321800232,1.6250078678131104
1788862707455461000,2.355461181640625,-0.35199451446533203,-1.1237410306930542,1.6370699405670166
1788862707465468000,2.365468017578125,-0.546779990196228,-1.3492101430892944,1.4407318830490112
1788862707475474000,2.375473876953125,-0.5865922570228577,-1.221600890159607,1.1391161680221558
1788862707485481000,2.38548095703125,-0.4713801443576813,-0.7819033265113831,0.8493320941925049
1788862707495487000,2.395487060546875,-0.3160170018672943,-0.3804449141025543,0.6051799654960632
1788862707505493000,2.405492919921875,-0.016965316608548164,0.04278624430298805,0.36253002285957336
1788862707515500000,2.4155,0.36155906319618225,0.14881692826747894,0.12906226515769958
1788862707525506000,2.425506103515625,0.5207681655883789,0.0033524143509566784,-0.025229562073946
1788862707535512000,2.435511962890625,0.5929334163665771,0.07872327417135239,-0.12140591442584991
1788862707545519000,2.44551904296875,0.618427038192749,0.41181522607803345,-0.23604460060596466
1788862707555525000,2.455525146484375,0.7192913889884949,0.7591856718063354,-0.25057128071784973
1788862707565532000,2.465531982421875,0.8718955516815186,0.8296148180961609,-0.11236121505498886
1788862707575538000,2.475537841796875,0.9578635692596436,0.9528148770332336,0.04742977023124695
1788862707585544200,2.485544189453125,0.9193132519721985,0.995222806930542,0.06115596741437912
1788862707595551000,2.495551025390625,0.8909389972686768,0.8980374932289124,-0.2422877997159958
1788862707605557000,2.505556884765625,0.9844820499420166,0.20847028493881226,-0.6528779864311218
1788862707615563000,2.51556298828125,1.731792688369751,0.3614642024040222,-0.5011758804321289
1788862707625570000,2.525570068359375,2.4358670711517334,0.9849379062652588,0.3386964499950409
1788862707635576000,2.535576171875,2.8292019367218018,0.7300595045089722,1.1116639375686646
1788862707645582000,2.54558203125,2.7199182510375977,0.05225381255149841,1.4251408576965332
1788862707655589000,2.555589111328125,2.1531574726104736,-0.18090076744556427,1.0749753713607788
1788862707665595100,2.56559521484375,1.4789984226226807,-0.3815681040287018,0.466686487197876
1788862707675602000,2.575601806640625,1.1668751239776611,-0.5455082654953003,0.04777602478861809
1788862707685608000,2.58560791015625,1.1999435424804688,-0.2209794670343399,0.08159150928258896
1788862707695614200,2.5956142578125,1.391149878501892,0.6807628273963928,0.31951335072517395
1788862707705621000,2.60562109375,1.8081185817718506,1.5098522901535034,0.598243236541748
1788862707715627000,2.615626953125,2.3410279750823975,1.7688201665878296,0.7435905337333679
1788862707725633000,2.625633056640625,2.8044443130493164,1.5585159063339233,0.6830797791481018
1788862707735640000,2.63564013671875,2.997436761856079,1.0875678062438965,0.3335852026939392
1788862707745646000,2.64564599609375,2.8845584392547607,0.6127437949180603,-0.30359020829200745
1788862707755651800,2.65565185546875,2.552534818649292,0.4846290647983551,-0.70423424243927
1788862707765659100,2.6656591796875,2.0750696659088135,0.3941742479801178,-0.6962290406227112
1788862707775665200,2.6756650390625,1.4809991121292114,0.35018062591552734,-0.28983068466186523
1788862707785672000,2.685671875,0.7416868805885315,0.14986935257911682,0.2872385084629059
1788862707795678000,2.695677978515625,0.1707082986831665,-0.46186086535453796,0.8289777636528015
1788862707805684000,2.70568408203125,0.05144714191555977,-1.1148258447647095,1.0852864980697632
1788862707815691000,2.71569091796875,-0.030432337895035744,-1.6485786437988281,1.1722111701965332
1788862707825697000,2.725697021484375,-0.3223121166229248,-1.804223895072937,0.9773271679878235
1788862707835702800,2.735702880859375,-0.703648030757904,-1.9128282070159912,0.4438376724720001
1788862707845710000,2.7457099609375,-1.1209195852279663,-1.9066579341888428,0.08569204807281494
1788862707855716000,2.755716064453125,-1.5016371011734009,-1.9352201223373413,-0.18947337567806244
1788862707865723000,2.765722900390625,-1.4644719362258911,-1.5279101133346558,-0.7996192574501038
1788862707875729200,2.775729248046875,-1.2870670557022095,-1.3375461101531982,-1.4526362419128418
1788862707885735000,2.78573486328125,-1.0583348274230957,-1.6798348426818848,-1.4785728454589844
1788862707895742200,2.7957421875,-0.5408531427383423,-0.766528308391571,-0.7033197283744812
1788862707905748200,2.805748291015625,-0.17948798835277557,-0.05684120953083038,-0.12519752979278564
1788862707915754200,2.815754150390625,-0.3607427477836609,-0.3135446310043335,-0.0016034203581511974
1788862707925761300,2.82576123046875,-0.7371273040771484,-0.8787177205085754,-0.23233117163181305
1788862707935767300,2.835767333984375,-0.992254912853241,-0.8751755952835083,-0.5696684122085571
1788862707945773300,2.845773193359375,-1.248997688293457,-0.7918351888656616,-0.8102626800537109
1788862707955780400,2.8557802734375,-1.6417486667633057,-0.8823633193969727,-0.7208917140960693
1788862707965786000,2.8657861328125,-2.1685962677001953,-0.6325710415840149,-0.48854929208755493
1788862707975793400,2.87579345703125,-2.13018536567688,-0.4164043962955475,-0.6519995331764221
1788862707985799400,2.88579931640625,-1.6119731664657593,0.22051002085208893,-1.04853093624115
1788862707995805200,2.89580517578125,-1.261980652809143,1.5973827838897705,-1.187247395515442
1788862708005812200,2.905812255859375,-0.878541886806488,2.1850993633270264,-1.1513354778289795
1788862708015818200,2.915818359375,-0.38076379895210266,1.744539499282837,-1.0377488136291504
1788862708025824300,2.92582421875,-0.1890183538198471,0.9340329766273499,-0.986738920211792
1788862708035831300,2.935831298828125,-0.20253360271453857,0.5879594683647156,-0.864827573299408
1788862708045837000,2.945837158203125,-0.40892142057418823,0.5966682434082031,-0.7299320697784424
1788862708055844400,2.95584423828125,-0.6397731304168701,0.6414684653282166,-0.8592448830604553
1788862708065850400,2.965850341796875,-0.7818549275398254,0.7752712965011597,-0.8645038604736328
1788862708075856100,2.975856201171875,-0.6452760100364685,0.5887789130210876,-0.6495663523674011
1788862708085863400,2.985863525390625,-0.3056339919567108,0.0677679032087326,-0.4994144141674042
1788862708095869200,2.995869140625,-0.11836954206228256,-0.14870291948318481,-0.4859917163848877
1788862708105875200,3.005875244140625,-0.17997831106185913,0.022205710411071777,-0.5096774101257324
1788862708115882200,3.01588232421875,-0.328123539686203,0.015575231984257698,-0.45121878385543823
1788862708125888300,3.02588818359375,-0.3871820569038391,-0.27708354592323303,-0.3474242091178894
1788862708135895300,3.035895263671875,-0.29235342144966125,-0.12759704887866974,-0.3983291983604431
1788862708145901300,3.0459013671875,-0.25404810905456543,0.41055724024772644,-0.640485405921936
1788862708155907000,3.055906982421875,-0.2102089375257492,0.5992139577865601,-0.8186312317848206
1788862708165914400,3.065914306640625,-0.13879281282424927,0.42527681589126587,-0.8766465783119202
1788862708175920000,3.075920166015625,0.015263473615050316,-0.15160547196865082,-0.7871603965759277
1788862708185926100,3.085926025390625,0.07679793983697891,-0.2153535634279251,-0.6205815672874451
1788862708195933400,3.095933349609375,-0.03954098001122475,0.20722596347332,-0.5489346385002136
1788862708205939200,3.105939208984375,-0.17402182519435883,0.5343068838119507,-0.5930768251419067
1788862708215946200,3.1159462890625,-0.2582162916660309,0.5937867164611816,-0.6902440786361694
1788862708225952300,3.1259521484375,-0.3440672755241394,0.25774770975112915,-0.7168330550193787
1788862708235958300,3.135958251953125,-0.41601163148880005,-0.18494351208209991,-0.6430399417877197
1788862708245965300,3.14596533203125,-0.3732207417488098,-0.5120276212692261,-0.4425305724143982
1788862708255971000,3.15597119140625,-0.13949228823184967,-0.6160978078842163,-0.2462311089038849
1788862708265977000,3.16597705078125,0.09899406135082245,-0.5816695094108582,0.014641229063272476
1788862708275984400,3.175984375,0.2833051085472107,-0.7519658803939819,0.29285967350006104
1788862708285990100,3.185990234375,0.3618209660053253,-0.8602377772331238,0.4394821226596832
1788862708295997200,3.1959970703125,0.3113855719566345,-1.093916416168213,0.6088846921920776
1788862708306003500,3.20600341796875,0.2308124452829361,-0.8834415674209595,0.4591577649116516
1788862708316009200,3.21600927734375,0.15766480565071106,-0.7130569219589233,0.4483363628387451
1788862708326016300,3.226016357421875,0.11677861213684082,-0.5844994783401489,0.3335253596305847
1788862708336022000,3.23602197265625,0.04535330459475517,-0.5207802057266235,0.046557262539863586
1788862708346028300,3.2460283203125,-0.12886536121368408,-0.3916534185409546,-0.2086164504289627
1788862708356035300,3.256035400390625,-0.3180842101573944,-0.29467201232910156,-0.3371407091617584
1788862708366041000,3.266041015625,-0.3704310357570648,-0.19113017618656158,-0.39574092626571655
1788862708376047000,3.276047119140625,-0.4030252695083618,-0.10317285358905792,-0.47231119871139526
1788862708386054400,3.286054443359375,-0.5122068524360657,-0.04708721116185188,-0.5463718175888062
1788862708396060200,3.29606005859375,-0.6364826560020447,-0.010813670232892036,-0.5413816571235657
1788862708406067200,3.306067138671875,-0.6489555835723877,0.14589817821979523,-0.5079321265220642
1788862708416073200,3.3160732421875,-0.5961742997169495,0.3567984104156494,-0.5301205515861511
1788862708426079200,3.326079345703125,-0.4177059829235077,0.1707039177417755,-0.5456278324127197
1788862708436086300,3.336086181640625,-0.3273138999938965,-0.1510474979877472,-0.5383390188217163
1788862708446092000,3.346092041015625,-0.3055422902107239,-0.296685129404068,-0.5939809679985046
1788862708456098300,3.356098388671875,-0.1936286985874176,-0.14282260835170746,-0.7690409421920776
1788862708466105300,3.366105224609375,-0.08614645898342133,0.051069360226392746,-0.9614748358726501
1788862708476111000,3.376111083984375,-0.15681152045726776,-0.006514281500130892,-1.0602469444274902
1788862708486118400,3.386118408203125,-0.2736443877220154,-0.2009149193763733,-1.0832366943359375
1788862708496124200,3.396124267578125,-0.34974390268325806,-0.16864274442195892,-1.0738576650619507
1788862708506130200,3.406130126953125,-0.36584165692329407,0.14278385043144226,-1.0527191162109375
1788862708516137500,3.416137451171875,-0.38774821162223816,0.22402414679527283,-0.9756409525871277
1788862708526143200,3.426143310546875,-0.4109049439430237,0.2325771450996399,-0.9246954917907715
1788862708536149200,3.436149169921875,-0.41950395703315735,-0.030429460108280182,-0.896759569644928
1788862708546156300,3.44615625,-0.5630629658699036,-0.4913882911205292,-0.9108455777168274
1788862708556162300,3.456162353515625,-0.693036675453186,-0.5426717400550842,-0.9551435112953186
1788862708566169300,3.46616943359375,-0.6445050835609436,-0.29451361298561096,-0.9226644039154053
1788862708576175000,3.476175048828125,-0.6067264080047607,-0.027163609862327576,-0.8506386280059814
1788862708586181000,3.48618115234375,-0.7022260427474976,0.011956627480685711,-0.7290605306625366
1788862708596188400,3.4961884765625,-0.8264659643173218,0.06092227250337601,-0.5576826930046082
1788862708606194200,3.506194091796875,-0.8938420414924622,0.2501976490020752,-0.4535551965236664
1788862708616200200,3.5162001953125,-1.0075523853302002,0.2755559980869293,-0.33970943093299866
1788862708626207200,3.526207275390625,-1.1398828029632568,0.06362003087997437,-0.10579041391611099
1788862708636213200,3.536213134765625,-1.1881366968154907,-0.2753670811653137,0.14836174249649048
1788862708646220300,3.54622021484375,-1.051613211631775,-0.4047711193561554,0.3160721957683563
1788862708656226000,3.55622607421875,-0.7991305589675903,-0.16536937654018402,0.30035698413848877
1788862708666232300,3.566232421875,-0.6724413633346558,0.14733366668224335,0.22398018836975098
1788862708676239400,3.5762392578125,-0.701862633228302,0.08750496059656143,0.2952527701854706
1788862708686245000,3.5862451171875,-0.7154311537742615,0.2201213240623474,0.2726678252220154
1788862708696251100,3.596251220703125,-0.68616783618927,0.2286738008260727,0.21212857961654663
1788862708706258200,3.606258056640625,-0.5737462043762207,0.21252992749214172,0.1507011502981186
1788862708716264200,3.61626416015625,-0.5118338465690613,0.3777889311313629,0.0827639177441597
1788862708726271200,3.626271240234375,-0.29088640213012695,0.5746645331382751,-0.1101730614900589
1788862708736277200,3.63627734375,-0.47774097323417664,0.7386651635169983,-0.16756631433963776
1788862708746283300,3.646283203125,-0.654905378818512,0.6123216152191162,-0.147302508354187
1788862708756290300,3.656290283203125,-0.6172426342964172,0.6392395496368408,-0.1345936357975006
1788862708766296000,3.666296142578125,-0.32790225744247437,0.9050527811050415,-0.246276393532753
1788862708776302300,3.67630224609375,-0.1276130974292755,1.0060193538665771,-0.26297786831855774
1788862708786309000,3.68630908203125,-0.1720326840877533,0.7872667908668518,-0.16136959195137024
1788862708796315100,3.696315185546875,-0.21236786246299744,0.694683313369751,0.059179823845624924
1788862708806322400,3.706322509765625,-0.197198748588562,0.5894726514816284,0.22690708935260773
1788862708816328200,3.716328125,-0.18123549222946167,0.4888613522052765,0.3413495123386383
1788862708826334200,3.726334228515625,0.016799136996269226,0.41169479489326477,0.4713369905948639
1788862708836341200,3.73634130859375,0.34599193930625916,0.30494144558906555,0.562749981880188
1788862708846347300,3.74634716796875,0.4914790987968445,0.22454530000686646,0.6555079221725464
1788862708856354300,3.756354248046875,0.5276410579681396,0.06250127404928207,0.8097651600837708
1788862708866360000,3.766360107421875,0.7680281400680542,-0.04987606778740883,0.9572932720184326
1788862708876366000,3.776365966796875,1.3358747959136963,-0.022540317848324776,1.0310660600662231
1788862708886373400,3.786373291015625,1.5769163370132446,-0.0244815181940794,1.0301522016525269
1788862708896379100,3.796379150390625,1.612464427947998,-0.13689115643501282,0.9681642055511475
1788862708906385700,3.8063857421875,1.5028636455535889,-0.3374581038951874,0.9931984543800354
1788862708916392700,3.816392822265625,1.3651052713394165,-0.6572437882423401,1.060791254043579
1788862708926398700,3.826398681640625,1.3738088607788086,-0.803835928440094,1.2313201427459717
1788862708936404700,3.83640478515625,1.5944783687591553,-0.7372627258300781,1.3932349681854248
1788862708946411800,3.846411865234375,1.8045343160629272,-0.7211958765983582,1.3728729486465454
1788862708956417800,3.856417724609375,1.742995262145996,-0.8286253809928894,1.1788331270217896
1788862708966424600,3.866424560546875,1.5457781553268433,-0.9021388292312622,1.1304746866226196
1788862708976430600,3.8764306640625,1.3970310688018799,-0.5753614902496338,1.1538828611373901
1788862708986436900,3.886436767578125,1.511845350265503,-0.24276059865951538,1.0705434083938599
1788862708996443600,3.896443603515625,1.4795454740524292,-0.05109209939837456,1.2508889436721802
1788862709006449700,3.90644970703125,1.4787136316299438,0.5269169807434082,1.379067063331604
1788862709016457000,3.91645703125,1.4182822704315186,1.0895711183547974,1.437449336051941
1788862709026462700,3.926462646484375,1.7723346948623657,0.7767923474311829,1.6899125576019287
1788862709036468700,3.93646875,1.5539320707321167,0.31750038266181946,1.585960865020752
1788862709046475800,3.946475830078125,1.1067951917648315,0.08140879124403,1.4105720520019531
1788862709056481800,3.956481689453125,0.8061956763267517,-0.13775497674942017,1.3477767705917358
1788862709066487800,3.96648779296875,0.7582076787948608,-0.11370052397251129,1.4529660940170288
1788862709076494600,3.97649462890625,0.8654507994651794,0.18236044049263,1.4037714004516602
1788862709086500600,3.98650048828125,1.000392198562622,-0.1477745771408081,1.0135204792022705
1788862709096508000,3.9965078125,0.9445708990097046,-0.43216243386268616,0.8620068430900574
1788862709106513700,4.006513671875,0.7841300964355469,-0.5175684094429016,1.0135897397994995
1788862709116519700,4.016519775390625,0.6096789240837097,-0.5453856587409973,1.2263315916061401
1788862709126526700,4.026526611328125,0.6496188640594482,-0.14692291617393494,1.0986297130584717
1788862709136532700,4.03653271484375,0.7771214246749878,0.05313481390476227,0.9533628225326538
1788862709146538800,4.046538818359375,0.7478902339935303,-0.20534047484397888,1.0080726146697998
1788862709156545500,4.056545654296875,0.6876042485237122,-0.4433687627315521,1.0674397945404053
1788862709166551800,4.0665517578125,0.692339301109314,-0.2759253680706024,1.060813546180725
1788862709176558800,4.076558837890625,0.5922592878341675,-0.04342660307884216,1.0801275968551636
1788862709186564600,4.086564697265625,0.34277451038360596,0.03464784845709801,1.1190916299819946
1788862709196570600,4.096570556640625,0.26034167408943176,0.15301096439361572,1.114356517791748
1788862709206577700,4.10657763671875,0.21768975257873535,0.13408106565475464,1.0431889295578003
1788862709216583700,4.116583740234375,0.150676891207695,0.014814329333603382,0.9215102791786194
1788862709226590700,4.1265908203125,0.11193764209747314,-0.11949822306632996,0.8352853655815125
1788862709236596700,4.1365966796875,0.10518918931484222,-0.37914711236953735,0.7404760718345642
1788862709246602800,4.146602783203125,0.15570084750652313,-0.6262046694755554,0.7202896475791931
1788862709256609800,4.15660986328125,0.21042242646217346,-0.5652270317077637,0.8200511336326599
1788862709266615600,4.166615478515625,0.3527660071849823,-0.2958466708660126,0.9549261331558228
1788862709276622800,4.176622802734375,0.771763265132904,0.26198652386665344,1.0119510889053345
1788862709286628600,4.186628662109375,0.9930905699729919,0.4653322100639343,0.8820585608482361
1788862709296634600,4.196634521484375,0.7076825499534607,0.055841363966464996,0.7828747034072876
1788862709306642000,4.206641845703125,0.20520809292793274,-0.3463226854801178,0.566977858543396
1788862709316647700,4.216647705078125,-0.07048099488019943,-0.5831834077835083,0.14586205780506134
1788862709326653700,4.22665380859375,-0.27759841084480286,-0.41632723808288574,-0.41001778841018677
1788862709336660700,4.23666064453125,-0.3935084939002991,-0.7030918598175049,-0.9249660968780518
1788862709346666800,4.246666748046875,-0.7656586766242981,-0.9394122958183289,-1.326882004737854
1788862709356673800,4.256673828125,-1.2445147037506104,-0.6078159809112549,-1.5507144927978516
1788862709366679600,4.266679443359375,-1.4411789178848267,0.3937495946884155,-1.3902770280838013
1788862709376685800,4.276685791015625,-1.7274807691574097,1.0471510887145996,-1.0769799947738647
1788862709386692900,4.28669287109375,-1.7420802116394043,1.0270206928253174,-0.6991578340530396
1788862709396698600,4.29669873046875,-1.6700118780136108,1.0085848569869995,-0.49025270342826843
1788862709406706000,4.306705810546875,-1.2855068445205688,0.8188402652740479,-0.32795247435569763
1788862709416711700,4.316711669921875,-1.173261046409607,0.25149932503700256,-0.09028797596693039
1788862709426717700,4.3267177734375,-1.2313951253890991,-0.002272008452564478,0.07340682297945023
1788862709436724700,4.336724853515625,-0.9726290106773376,-0.13384148478507996,0.046442851424217224
1788862709446730800,4.346730712890625,-0.24273452162742615,-0.12459506839513779,-0.24255359172821045
1788862709456737800,4.35673779296875,0.4095950722694397,0.4507065713405609,-0.6629058718681335
1788862709466743800,4.366743896484375,0.7927777767181396,1.1665135622024536,-1.0528552532196045
1788862709476749600,4.37674951171875,1.0221824645996094,1.1970645189285278,-1.5117982625961304
1788862709486756900,4.3867568359375,1.3412458896636963,0.5658897757530212,-1.9348527193069458
1788862709496763000,4.396762939453125,1.642742395401001,0.05914215371012688,-2.275942087173462
1788862709506768600,4.4067685546875,1.8431484699249268,0.0522240586578846,-2.259110689163208
1788862709516776000,4.41677587890625,1.954786777496338,0.31387242674827576,-2.041640043258667
1788862709526781700,4.42678173828125,1.8620660305023193,0.7130469679832458,-1.700948715209961
1788862709536788700,4.436788818359375,1.247747778892517,1.011836051940918,-1.5720632076263428
1788862709546794800,4.446794677734375,0.4124354422092438,0.5502274632453918,-1.8265718221664429
1788862709556800800,4.45680078125,0.028531178832054138,-0.8820698261260986,-1.9430981874465942
1788862709566807800,4.466807861328125,-0.5677647590637207,-1.026975154876709,-2.141223669052124
1788862709576813800,4.476813720703125,-1.2466448545455933,-0.20235605537891388,-2.097060441970825
1788862709586820900,4.48682080078125,-1.6185745000839233,0.4700300097465515,-1.7816975116729736
1788862709596827000,4.496826904296875,-1.7582505941390991,0.6426866054534912,-1.3864691257476807
1788862709606832600,4.50683251953125,-1.6811976432800293,0.5549514293670654,-1.0984002351760864
1788862709616839700,4.516839599609375,-1.5450371503829956,0.26352789998054504,-1.0049268007278442
1788862709626846000,4.526845947265625,-1.5782756805419922,-0.03395790606737137,-1.023506999015808
1788862709636852700,4.536852783203125,-1.8235394954681396,0.008713122457265854,-1.0266183614730835
1788862709646858800,4.546858642578125,-1.975238561630249,0.3148149251937866,-0.9946011304855347
1788862709656864800,4.55686474609375,-2.0007200241088867,0.4038790166378021,-0.9180727601051331
1788862709666871800,4.566871826171875,-1.9402880668640137,0.11441256105899811,-0.8668514490127563
1788862709676877800,4.5768779296875,-1.6463311910629272,-0.3885078430175781,-0.920139729976654
1788862709686883600,4.586883544921875,-1.3840564489364624,-0.7116775512695312,-0.9093600511550903
1788862709696891000,4.596890869140625,-1.1107165813446045,-0.7035735249519348,-1.0301183462142944
1788862709706897000,4.60689697265625,-0.9142168164253235,-0.8739250302314758,-1.1020796298980713
1788862709716903700,4.616903564453125,-0.660067617893219,-1.252957820892334,-1.1108851432800293
1788862709726909700,4.62690966796875,-0.3772062659263611,-1.0678386688232422,-0.9889821410179138
1788862709736915700,4.636915771484375,-0.4864584505558014,-0.6127861738204956,-0.9656342267990112
1788862709746922800,4.6469228515625,-0.6872442364692688,-0.37899529933929443,-1.2827508449554443
1788862709756928800,4.6569287109375,-0.7911269068717957,-0.337214857339859,-1.6311132907867432
1788862709766935800,4.666935791015625,-0.8346912264823914,-0.4408726692199707,-1.8507338762283325
1788862709776941800,4.67694189453125,-0.8545736074447632,-0.6494248509407043,-1.7658216953277588
1788862709786947800,4.68694775390625,-0.8134661912918091,-0.6990434527397156,-1.4859546422958374
1788862709796954600,4.69695458984375,-0.7133796811103821,-0.8267384171485901,-1.3666952848434448
1788862709806961000,4.7069609375,-0.6227448582649231,-1.0291759967803955,-1.3395342826843262
1788862709816967700,4.7169677734375,-0.5852696895599365,-1.1284860372543335,-1.3997105360031128
1788862709826973700,4.7269736328125,-0.6158843636512756,-1.1510016918182373,-1.6236063241958618
1788862709836979700,4.736979736328125,-0.7524922490119934,-0.9390015602111816,-1.786879062652588
1788862709846986800,4.74698681640625,-0.9170587658882141,-0.3329717516899109,-1.7836410999298096
1788862709856992800,4.75699267578125,-0.8159116506576538,0.003853139001876116,-1.3888554573059082
1788862709866999600,4.76699951171875,-0.4915482699871063,-0.37742581963539124,-1.288600206375122
1788862709877005800,4.777005859375,-0.3171098828315735,-0.8204740881919861,-1.5026121139526367
1788862709887011800,4.78701171875,-0.385757714509964,-0.6626178026199341,-1.4502133131027222
1788862709897018600,4.7970185546875,-0.4452555477619171,-0.651094377040863,-1.1526950597763062
1788862709907024100,4.807024169921875,-0.4436235725879669,-0.7665961980819702,-0.9686921834945679
1788862709917031200,4.81703125,-0.4077449142932892,-0.24431808292865753,-0.7708925604820251
1788862709927037200,4.827037109375,-0.4570528566837311,0.20877934992313385,-0.5276666879653931
1788862709937043200,4.837043212890625,-0.5719789266586304,0.3430178761482239,-0.2842678725719452
1788862709947050200,4.84705029296875,-0.5887594819068909,0.2947699725627899,-0.11112137883901596
1788862709957056300,4.85705615234375,-0.5572828054428101,0.15777243673801422,0.03966200724244118
1788862709967063300,4.867063232421875,-0.507279098033905,0.1901875138282776,0.07833749055862427
1788862709977069000,4.877069091796875,-0.524910032749176,0.09942884743213654,0.15003672242164612
1788862709987075300,4.887075439453125,-0.5577139854431152,0.11573205143213272,0.28774869441986084
1788862709997082000,4.89708203125,-0.47113585472106934,0.3374849259853363,0.36938437819480896
1788862710007088000,4.907088134765625,-0.3882276713848114,0.37209081649780273,0.4573051929473877
1788862710017095400,4.917095458984375,-0.40361833572387695,0.30356794595718384,0.5725412368774414
1788862710027101200,4.92710107421875,-0.42485713958740234,0.2342873513698578,0.6110641956329346
1788862710037107200,4.937107177734375,-0.28623080253601074,0.032989390194416046,0.6904008388519287
1788862710047114200,4.9471142578125,-0.021445125341415405,0.038461145013570786,0.7380281686782837
1788862710057120300,4.957120361328125,0.2708517014980316,0.4806385338306427,0.7020134925842285
1788862710067127300,4.967127197265625,0.3694561719894409,0.6824745535850525,0.7031458020210266
1788862710077133000,4.977133056640625,0.36890143156051636,0.5431213974952698,0.8294731378555298
1788862710087139000,4.98713916015625,0.41729262471199036,0.5792738199234009,0.99430912733078
1788862710097146400,4.997146484375,0.5679240226745605,0.8229501843452454,1.1082549095153809
1788862710107152100,5.007152099609375,0.7790045738220215,0.9458684325218201,1.1355291604995728
1788862710117159200,5.0171591796875,0.970691978931427,1.1136575937271118,1.1423708200454712
1788862710127165400,5.02716552734375,1.0232573747634888,1.0482686758041382,1.1405316591262817
1788862710137171200,5.037171142578125,0.9333078265190125,0.6080982089042664,1.1876221895217896
1788862710147178200,5.04717822265625,0.9168151021003723,0.2314080148935318,1.213564157485962
1788862710157184300,5.057184326171875,1.0416210889816284,0.1447191834449768,1.1382895708084106
1788862710167191300,5.06719140625,1.0987188816070557,0.23270519077777863,1.0233702659606934
1788862710177197300,5.077197265625,1.1124645471572876,0.4851246774196625,0.9781801700592041
1788862710187203000,5.087203125,1.121867299079895,0.6809383630752563,0.9811332821846008
1788862710197210400,5.09721044921875,1.1256487369537354,0.435893714427948,1.031790018081665
1788862710207216400,5.10721630859375,1.1748943328857422,0.3244082033634186,1.110470175743103
1788862710217223200,5.11722314453125,1.2945202589035034,0.5907885432243347,1.180433988571167
1788862710227229400,5.1272294921875,1.3490322828292847,0.6051259636878967,1.219009518623352
1788862710237235200,5.137235107421875,1.286787509918213,0.20496976375579834,1.24395751953125
1788862710247242200,5.1472421875,1.2739098072052002,0.06871047616004944,1.2665950059890747
1788862710257248300,5.157248291015625,1.3291016817092896,0.053477998822927475,1.2465654611587524
1788862710267255300,5.16725537109375,1.3332544565200806,-0.0756106823682785,1.2443397045135498
1788862710277261300,5.17726123046875,1.304021954536438,0.048518192023038864,1.2752195596694946
1788862710287267300,5.187267333984375,1.2461128234863281,0.1375877857208252,1.3166462182998657
1788862710297274400,5.1972744140625,1.2065274715423584,0.1047358587384224,1.433898687362671
1788862710307280400,5.2072802734375,1.1679481267929077,-0.12910833954811096,1.5702126026153564
1788862710317287200,5.217287109375,1.1339560747146606,-0.3137953579425812,1.6350408792495728
1788862710327293200,5.227293212890625,1.1794763803482056,-0.18917275965213776,1.6634522676467896
1788862710337299500,5.237299560546875,1.3168991804122925,0.008287574164569378,1.6578572988510132
1788862710347306200,5.24730615234375,1.400983214378357,0.04937227815389633,1.6331267356872559
1788862710357312300,5.257312255859375,1.3521192073822021,0.06030428782105446,1.613562822341919
1788862710367319300,5.2673193359375,1.264184832572937,0.23323580622673035,1.5770126581192017
1788862710377325300,5.2773251953125,1.263740062713623,0.5218936800956726,1.5124626159667969
1788862710387331300,5.287331298828125,1.1717556715011597,0.657306969165802,1.5076438188552856
1788862710397338000,5.297338134765625,1.0026191473007202,0.6608400940895081,1.5490363836288452
1788862710407344400,5.307344482421875,0.8707780838012695,0.553329586982727,1.5272243022918701
1788862710417351200,5.31735107421875,0.8701676726341248,0.7288984656333923,1.413439154624939
1788862710427357200,5.327357177734375,0.8759928345680237,0.889403760433197,1.2819064855575562
1788862710437363200,5.33736328125,0.7037920951843262,0.7513747811317444,1.2013649940490723
1788862710447370200,5.347370361328125,0.4784947335720062,0.5846848487854004,1.1456581354141235
1788862710457376300,5.357376220703125,0.39400729537010193,0.5467529296875,1.057663083076477
1788862710467383000,5.367383056640625,0.4436635971069336,0.6192998886108398,0.8902217745780945
1788862710477389300,5.377389404296875,0.3707593083381653,0.6178545951843262,0.6649186611175537
1788862710487395300,5.387395263671875,0.12070734053850174,0.47799062728881836,0.41073790192604065
1788862710497402000,5.397402099609375,-0.1649298071861267,0.2490725815296173,0.13574005663394928
1788862710507408100,5.407408203125,-0.32760339975357056,0.15131033957004547,-0.18049034476280212
1788862710517415200,5.417415283203125,-0.43221315741539,0.3183073103427887,-0.4765779376029968
1788862710527421200,5.427421142578125,-0.5552631616592407,0.45044800639152527,-0.7010172009468079
1788862710537428200,5.43742822265625,-0.6637412309646606,0.4228006601333618,-0.8427602052688599
1788862710547434200,5.447434326171875,-0.7256754636764526,0.33881068229675293,-0.9305455088615417
1788862710557440300,5.457440185546875,-0.6864268183708191,0.21264530718326569,-1.0006484985351562
1788862710567447300,5.467447265625,-0.6284480690956116,-0.060040008276700974,-1.0265634059906006
1788862710577453000,5.477453125,-0.6637506484985352,-0.2668400704860687,-0.9637124538421631
1788862710587460400,5.48746044921875,-0.7324639558792114,-0.24392621219158173,-0.9122056365013123
1788862710597466000,5.497466064453125,-0.779606819152832,0.005738485138863325,-0.9537394642829895
1788862710607472000,5.50747216796875,-0.8965259790420532,0.42128002643585205,-1.030460238456726
1788862710617479400,5.5174794921875,-1.037158727645874,0.8246258497238159,-1.1055188179016113
1788862710627485200,5.527485107421875,-1.0961048603057861,1.0391212701797485,-1.1293662786483765
1788862710637492200,5.5374921875,-1.0730834007263184,0.8240761756896973,-1.0232651233673096
1788862710647498200,5.547498291015625,-1.0834243297576904,0.24717913568019867,-0.8476109504699707
1788862710657504300,5.557504150390625,-1.023378849029541,-0.08523610234260559,-0.6937106251716614
1788862710667511300,5.56751123046875,-0.7715732455253601,0.031133942306041718,-0.6056588888168335
1788862710677517000,5.57751708984375,-0.5950602889060974,0.24712003767490387,-0.5193879008293152
1788862710687524400,5.5875244140625,-0.6330320835113525,0.3208054006099701,-0.4263686239719391
1788862710697530400,5.5975302734375,-0.6825436353683472,0.3638143539428711,-0.3907961845397949
1788862710707537200,5.607537109375,-0.663790225982666,0.40866518020629883,-0.428219735622406
1788862710717543400,5.61754345703125,-0.5434350371360779,0.31283318996429443,-0.493256539106369
1788862710727549400,5.627549560546875,-0.4599315822124481,0.1313701719045639,-0.47403082251548767
1788862710737556200,5.63755615234375,-0.4087464213371277,-0.025368839502334595,-0.43832501769065857
1788862710747562200,5.647562255859375,-0.3373277485370636,-0.18373914062976837,-0.47695353627204895
1788862710757569300,5.6575693359375,-0.3239581286907196,-0.33242663741111755,-0.5423807501792908
1788862710767575300,5.6675751953125,-0.46925097703933716,-0.46712392568588257,-0.5759077668190002
1788862710777581300,5.677581298828125,-0.6568264961242676,-0.5499498248100281,-0.6150833964347839
1788862710787588400,5.68758837890625,-0.7784688472747803,-0.6269684433937073,-0.6878843307495117
1788862710797594400,5.697594482421875,-0.8204700350761414,-0.681037425994873,-0.7441112995147705
1788862710807601200,5.70760107421875,-0.846346914768219,-0.7730187177658081,-0.7361774444580078
1788862710817607200,5.717607177734375,-0.9096696972846985,-0.8720515370368958,-0.7091034650802612
1788862710827614200,5.7276142578125,-0.9203871488571167,-0.8815479874610901,-0.7101009488105774
1788862710837620200,5.7376201171875,-0.9384076595306396,-0.9011949300765991,-0.7549363374710083
1788862710847626200,5.747626220703125,-1.0139771699905396,-1.014001488685608,-0.8481793403625488
1788862710857633300,5.75763330078125,-1.1055132150650024,-1.0865832567214966,-0.9668005704879761
1788862710867639300,5.767639404296875,-1.1724494695663452,-1.1648478507995605,-1.0359621047973633
1788862710877646000,5.77764599609375,-1.1769979000091553,-1.2887673377990723,-1.0759392976760864
1788862710887652000,5.787652099609375,-1.1070506572723389,-1.245405673980713,-1.17093825340271
1788862710897658400,5.797658447265625,-1.086731195449829,-1.1247055530548096,-1.3056124448776245
1788862710907665700,5.807665771484375,-1.120880126953125,-1.1416923999786377,-1.3900306224822998
1788862710917671700,5.817671630859375,-1.1255285739898682,-1.3383029699325562,-1.3546065092086792
1788862710927678700,5.8276787109375,-1.0727274417877197,-1.5314396619796753,-1.1125117540359497
1788862710937684700,5.837684814453125,-1.0673388242721558,-1.3695623874664307,-0.6712715029716492
1788862710947690800,5.847690673828125,-1.2316126823425293,-0.7796878814697266,-0.32884714007377625
1788862710957697500,5.857697509765625,-1.3770180940628052,-0.3969162702560425,-0.3520467281341553
1788862710967703800,5.867703857421875,-1.3970483541488647,-0.6115843653678894,-0.6923406720161438
1788862710977710800,5.8777109375,-1.357432246208191,-1.0284042358398438,-0.9915777444839478
1788862710987716600,5.887716552734375,-1.3035855293273926,-1.186363697052002,-1.041788935661316
1788862710997724000,5.897723876953125,-1.227573037147522,-1.058509111404419,-0.964605987071991
1788862711007729700,5.907729736328125,-1.1609090566635132,-1.071000099182129,-0.9608306884765625
1788862711017735700,5.917735595703125,-1.0363423824310303,-1.053487777709961,-1.1328436136245728
1788862711027743000,5.927742919921875,-0.884703516960144,-0.8938442468643188,-1.322300672531128
1788862711037748700,5.937748779296875,-0.7698208689689636,-0.662649393081665,-1.3906803131103516
1788862711047755800,5.947755859375,-0.6274420022964478,-0.36686867475509644,-1.4249380826950073
1788862711057761800,5.95776171875,-0.4600474536418915,-0.01464804820716381,-1.3967297077178955
1788862711067767800,5.967767822265625,-0.28451773524284363,0.08089318871498108,-1.3941320180892944
1788862711077774800,5.97777490234375,-0.032859645783901215,-0.12762460112571716,-1.4881541728973389
1788862711087780600,5.987780517578125,0.1446692943572998,-0.2952095866203308,-1.4062597751617432
1788862711097788000,5.997787841796875,0.04034015163779259,-0.23172996938228607,-0.9917824268341064
1788862711107794000,6.0077939453125,-0.15903234481811523,0.17867299914360046,-0.704531729221344
1788862711117800700,6.01780078125,-0.14676928520202637,0.34875816106796265,-0.6423556804656982
1788862711127806700,6.027806640625,0.03071088157594204,0.25204041600227356,-0.5648328065872192
1788862711137812700,6.037812744140625,0.19736723601818085,0.24734044075012207,-0.35690733790397644
1788862711147819800,6.04781982421875,0.40314677357673645,0.5908401608467102,-0.20875242352485657
1788862711157825800,6.05782568359375,0.4155735969543457,0.8897882699966431,-0.11963345855474472
1788862711167832800,6.067832763671875,0.19201909005641937,0.7610834240913391,0.06369718909263611
1788862711177838800,6.0778388671875,0.21936042606830597,0.4725281000137329,0.3081977367401123
1788862711187845600,6.087845703125,0.3482460677623749,0.5855050683021545,0.41350650787353516
1788862711197851600,6.0978515625,0.4605717957019806,0.7197755575180054,0.33007553219795227
1788862711207858000,6.10785791015625,0.5005345940589905,0.7891494631767273,0.30886444449424744
1788862711217864700,6.11786474609375,0.5519119501113892,0.9324941039085388,0.462659627199173
1788862711227870700,6.12787060546875,0.653242826461792,1.0957965850830078,0.6039711833000183
1788862711237877800,6.137877685546875,0.7917842268943787,1.1926935911178589,0.6789112091064453
1788862711247883800,6.1478837890625,0.9806023836135864,1.330265760421753,0.7385582327842712
1788862711257889800,6.157889892578125,1.1477043628692627,1.3042930364608765,0.8000660538673401
1788862711267896600,6.167896484375,1.258689284324646,1.0772582292556763,0.9068019986152649
1788862711277902800,6.17790283203125,1.326081395149231,0.8050179481506348,0.9358203411102295
1788862711287909600,6.18790966796875,1.357055902481079,0.5383198857307434,0.883746862411499
1788862711297915600,6.19791552734375,1.321547269821167,0.26221880316734314,0.9262290596961975
1788862711307923000,6.2079228515625,1.2634116411209106,0.06683047115802765,1.073541522026062
1788862711317928700,6.2179287109375,1.270952582359314,0.18085263669490814,1.1966724395751953
1788862711327934700,6.227934814453125,1.3132869005203247,0.30932432413101196,1.2779595851898193
1788862711337941800,6.237941650390625,1.3532543182373047,0.30871152877807617,1.404581904411316
1788862711347947800,6.24794775390625,1.41538667678833,0.3015950620174408,1.5450385808944702
1788862711357954800,6.257954833984375,1.5113075971603394,0.45392146706581116,1.590349555015564
1788862711367960600,6.267960693359375,1.5953267812728882,0.8223565816879272,1.5371975898742676
1788862711377967900,6.2779677734375,1.6173365116119385,1.169715166091919,1.4476333856582642
1788862711387974000,6.287973876953125,1.6191848516464233,1.162354588508606,1.4569058418273926
1788862711397979600,6.297979736328125,1.6443325281143188,0.9316736459732056,1.5381900072097778
1788862711407986700,6.307986572265625,1.7022433280944824,0.9540218114852905,1.5576472282409668
1788862711417992700,6.31799267578125,1.7778980731964111,1.1526670455932617,1.5577837228775024
1788862711427999700,6.327999755859375,1.8035902976989746,1.1611829996109009,1.529944896697998
1788862711438005800,6.338005859375,1.6731369495391846,0.7813520431518555,1.4852321147918701
1788862711448011500,6.348011474609375,1.4644578695297241,0.2842380702495575,1.4379000663757324
1788862711458018800,6.358018798828125,1.3185358047485352,-0.05749793350696564,1.425165057182312
1788862711468024800,6.36802490234375,1.343137264251709,-0.14983659982681274,1.4259703159332275
1788862711478031600,6.378031494140625,1.410144567489624,-0.257114052772522,1.4031286239624023
1788862711488038000,6.388037841796875,1.3578424453735352,-0.24709588289260864,1.278753399848938
1788862711498044700,6.398044677734375,1.266545057296753,-0.005997518077492714,1.0505926609039307
1788862711508050700,6.40805078125,1.3111814260482788,0.4054659903049469,0.877072274684906
1788862711518056700,6.418056640625,1.357556939125061,0.6796506643295288,0.8314902782440186
1788862711528063700,6.428063720703125,1.331024408340454,0.6765456795692444,0.8616932034492493
1788862711538069800,6.43806982421875,1.303993821144104,0.6700872778892517,0.8783912062644958
1788862711548076500,6.44807666015625,1.3189725875854492,0.7714031934738159,0.8812070488929749
1788862711558082800,6.458082763671875,1.3895165920257568,1.0200830698013306,0.8795047402381897
1788862711568089600,6.468089599609375,1.3524328470230103,1.2094374895095825,0.8721232414245605
1788862711578095600,6.478095703125,1.144368290901184,1.0135985612869263,0.8462740778923035
1788862711588102000,6.488101806640625,0.8902612328529358,0.5919933319091797,0.8249213695526123
1788862711598108700,6.498108642578125,0.7587655186653137,0.34572869539260864,0.7642841339111328
1788862711608114700,6.50811474609375,0.6821463704109192,0.24849079549312592,0.6455232501029968
1788862711618122000,6.5181220703125,0.5720441341400146,0.1665375977754593,0.48494717478752136
1788862711628127700,6.528127685546875,0.4275008738040924,0.018317218869924545,0.3294629156589508
1788862711638134800,6.538134765625,0.24903127551078796,-0.31198611855506897,0.14872482419013977
1788862711648140500,6.548140625,0.0005067951278761029,-0.5912632942199707,-0.10330560058355331
1788862711658146800,6.558146728515625,-0.18133091926574707,-0.4081385135650635,-0.4084436595439911
1788862711668153900,6.56815380859375,-0.2746603488922119,0.0010394856799393892,-0.6612588763237
1788862711678159600,6.57815966796875,-0.4024135172367096,0.07969461381435394,-0.8097532391548157
1788862711688167000,6.5881669921875,-0.5917887091636658,-0.09423065185546875,-0.9265576004981995
1788862711698173000,6.5981728515625,-0.6695860624313354,-0.13722392916679382,-1.0482871532440186
1788862711708178700,6.6081787109375,-0.6307077407836914,-0.061126742511987686,-1.1360021829605103
1788862711718185700,6.618185791015625,-0.6300933361053467,-0.0841611847281456,-1.2018218040466309
1788862711728191700,6.628191650390625,-0.8187679052352905,-0.2884078025817871,-1.2895863056182861
1788862711738198800,6.63819873046875,-1.1148440837860107,-0.424664705991745,-1.3814408779144287
1788862711748204800,6.648204833984375,-1.2662832736968994,-0.24974192678928375,-1.377270221710205
1788862711758211800,6.6582119140625,-1.3173320293426514,-0.08836235105991364,-1.1634879112243652
1788862711768217900,6.6682177734375,-1.3796775341033936,-0.06374140828847885,-0.8761485815048218
1788862711778224600,6.678224609375,-1.355567216873169,-0.03364448994398117,-0.7064703106880188
1788862711788230700,6.688230712890625,-1.2014201879501343,-0.019278835505247116,-0.6232994794845581
1788862711798237000,6.69823681640625,-1.079336404800415,-0.12166273593902588,-0.5126675367355347
1788862711808243700,6.70824365234375,-1.0612459182739258,-0.34827113151550293,-0.45582157373428345
1788862711818249700,6.718249755859375,-1.1120766401290894,-0.49580487608909607,-0.5158026814460754
1788862711828256800,6.7282568359375,-1.0885615348815918,-0.48519909381866455,-0.6175138354301453
1788862711838262800,6.7382626953125,-1.0770766735076904,-0.5283675789833069,-0.6605542302131653
1788862711848268800,6.748268798828125,-1.1305155754089355,-0.7223173975944519,-0.6653829216957092
1788862711858275600,6.758275634765625,-1.1943504810333252,-0.8590549826622009,-0.6831315755844116
1788862711868281900,6.76828173828125,-1.1900160312652588,-0.8349047303199768,-0.6981735229492188
1788862711878288600,6.77828857421875,-1.206092119216919,-0.9091858863830566,-0.6726215481758118
1788862711888294700,6.788294677734375,-1.3469699621200562,-1.1949890851974487,-0.6173554062843323
1788862711898302000,6.798302001953125,-1.5415940284729004,-1.4375865459442139,-0.6009125113487244
1788862711908307200,6.80830712890625,-1.5740422010421753,-1.3806819915771484,-0.6710110306739807
1788862711918314500,6.818314453125,-1.4583420753479004,-1.2465835809707642,-0.7908118367195129
1788862711928320500,6.828320556640625,-1.4418251514434814,-1.2104623317718506,-0.9189929366111755
1788862711938326300,6.838326171875,-1.5245530605316162,-1.2089145183563232,-0.9613686203956604
1788862711948333600,6.84833349609375,-1.555692195892334,-1.185181736946106,-0.8908702731132507
1788862711958339300,6.85833935546875,-1.5035004615783691,-1.0714753866195679,-0.7868000864982605
1788862711968346400,6.868346435546875,-1.3981066942214966,-0.9328533411026001,-0.7629357576370239
1788862711978352400,6.878352294921875,-1.288149118423462,-1.0056599378585815,-0.8209666013717651
1788862711988359400,6.888359375,-1.1380914449691772,-1.406354546546936,-0.8720346689224243
1788862711998365400,6.898365478515625,-0.96147620677948,-1.756916880607605,-0.857556939125061
1788862712008371500,6.908371337890625,-0.8364538550376892,-1.667747974395752,-0.8160420060157776
1788862712018378500,6.91837841796875,-0.8789967894554138,-1.4509764909744263,-0.8398919105529785
1788862712028384500,6.928384521484375,-1.0051605701446533,-1.377206802368164,-0.9224324822425842
1788862712038391300,6.938391357421875,-0.8873279094696045,-1.7103211879730225,-0.9941900372505188
1788862712048397300,6.948397216796875,-0.7261510491371155,-2.2825393676757812,-1.0391440391540527
1788862712058404400,6.958404296875,-0.6626479625701904,-2.283301830291748,-1.0784916877746582
1788862712068410400,6.968410400390625,-0.6359462738037109,-1.912430763244629,-1.1039881706237793
1788862712078416400,6.97841650390625,-0.6756938099861145,-1.8109281063079834,-1.0323009490966797
1788862712088423400,6.98842333984375,-0.5439392328262329,-1.5196644067764282,-0.8610772490501404
1788862712098429400,6.998429443359375,-0.29038500785827637,-1.2361540794372559,-0.8140103816986084
1788862712108436200,7.008436279296875,-0.1504553258419037,-0.842902421951294,-0.8304242491722107
1788862712118442200,7.018442138671875,-0.16913872957229614,-0.4861637353897095,-0.9007516503334045
1788862712128449500,7.028449462890625,-0.32265180349349976,-0.31605783104896545,-0.9774985313415527
1788862712138455300,7.038455322265625,-0.41978126764297485,-0.0349249467253685,-0.9824413657188416
1788862712148461300,7.04846142578125,-0.4851628541946411,0.10953109711408615,-0.9790698885917664
1788862712158468600,7.058468505859375,-0.5012086629867554,0.35013920068740845,-0.9289721250534058
1788862712168474400,7.068474365234375,-0.2993662655353546,0.783628523349762,-0.9610438346862793
1788862712178481400,7.0784814453125,-0.21186508238315582,0.7328367233276367,-0.9566643238067627
1788862712188487400,7.0884873046875,-0.3023771643638611,0.19322569668293,-0.8214527368545532
1788862712198494500,7.098494384765625,-0.45157355070114136,-0.4760375916957855,-0.6622777581214905
1788862712208500500,7.10850048828125,-0.5018104314804077,-0.47538354992866516,-0.6223737001419067
1788862712218506200,7.11850634765625,-0.3027855157852173,0.27910012006759644,-0.7134622931480408
1788862712228513500,7.128513427734375,-0.07386178523302078,0.8790139555931091,-0.7641400694847107
1788862712238519600,7.13851953125,0.013185493648052216,1.3253557682037354,-0.7170567512512207
1788862712248526300,7.1485263671875,0.10494870692491531,1.8665318489074707,-0.6129095554351807
1788862712258532600,7.15853271484375,0.1374320685863495,2.0505762100219727,-0.5341465473175049
1788862712268539400,7.168539306640625,0.14649812877178192,2.088388442993164,-0.34778422117233276
1788862712278545400,7.17854541015625,0.2332848310470581,2.0809764862060547,-0.07934152334928513
1788862712288551400,7.188551513671875,0.3883519172668457,2.19482421875,0.18206559121608734
1788862712298558500,7.198558349609375,0.5587852001190186,2.025423526763916,0.38990721106529236
1788862712308564500,7.208564453125,0.7579323649406433,1.8682395219802856,0.588572084903717
1788862712318571300,7.2185712890625,0.9574062824249268,1.7509669065475464,0.7391006350517273
1788862712328577500,7.22857763671875,1.0911180973052979,1.3781042098999023,0.901535153388977
1788862712338584300,7.238584228515625,1.1620380878448486,0.9464536309242249,1.091398000717163
1788862712348590300,7.24859033203125,1.2074016332626343,0.6010981798171997,1.2943536043167114
1788862712358596400,7.258596435546875,1.23987877368927,0.34152573347091675,1.4718660116195679
1788862712368603400,7.268603271484375,1.2307075262069702,0.12757638096809387,1.5552470684051514
1788862712378609400,7.278609375,1.2121046781539917,-0.2342759668827057,1.5354636907577515
1788862712388616400,7.288616455078125,1.2507470846176147,-0.3256644606590271,1.485382318496704
1788862712398622500,7.29862255859375,1.2987124919891357,0.058820609003305435,1.4272396564483643
1788862712408629500,7.30862939453125,1.2929915189743042,0.6627439260482788,1.3514944314956665
1788862712418635300,7.31863525390625,1.2645715475082397,1.249467134475708,1.3299273252487183
1788862712428641300,7.328641357421875,1.3792036771774292,1.5924865007400513,1.403598666191101
1788862712438648600,7.338648681640625,1.5349349975585938,1.576076865196228,1.613772988319397
1788862712448654300,7.348654296875,1.6478325128555298,1.3435392379760742,1.8135665655136108
1788862712458661400,7.358661376953125,1.6649713516235352,0.8311824202537537,1.9088307619094849
1788862712468667400,7.36866748046875,1.6443589925765991,0.2767406105995178,1.9524518251419067
1788862712478674400,7.37867431640625,1.6529031991958618,-0.04650475084781647,1.9518345594406128
1788862712488680400,7.388680419921875,1.641534686088562,-0.15135660767555237,1.8544490337371826
1788862712498687500,7.3986875,1.5605069398880005,-0.1296510398387909,1.6965843439102173
1788862712508693500,7.408693603515625,1.3361810445785522,-0.19389742612838745,1.599173665046692
1788862712518699500,7.418699462890625,1.1166057586669922,-0.05205240100622177,1.5929239988327026
1788862712528706300,7.428706298828125,1.1321232318878174,0.4591941237449646,1.6096673011779785
1788862712538712600,7.438712646484375,1.2627696990966797,0.8240216374397278,1.619341254234314
1788862712548719400,7.44871923828125,1.2604143619537354,0.7386587262153625,1.6326861381530762
1788862712558725400,7.458725341796875,1.1658707857131958,0.5221874117851257,1.6697427034378052
1788862712568732400,7.468732421875,1.133801817893982,0.666123628616333,1.6678706407546997
1788862712578738400,7.478738525390625,1.1577811241149902,1.103790044784546,1.5890648365020752
1788862712588744400,7.488744384765625,1.1261646747589111,1.312011957168579,1.493146538734436
1788862712598751200,7.498751220703125,0.8489972352981567,0.7136836051940918,1.4667011499404907
1788862712608757500,7.508757568359375,0.5514878630638123,-0.2495061457157135,1.3979105949401855
1788862712618764300,7.518764404296875,0.463368684053421,-0.4838440716266632,1.2537107467651367
1788862712628770300,7.528770263671875,0.5489183664321899,0.04831814393401146,1.1198467016220093
1788862712638777600,7.538777587890625,0.6086801886558533,0.5851091742515564,0.9634220004081726
1788862712648783400,7.548783447265625,0.5427868366241455,0.6845784783363342,0.7380747199058533
1788862712658790400,7.558790283203125,0.4355278015136719,0.6195123791694641,0.5340616703033447
1788862712668796400,7.56879638671875,0.40705832839012146,0.563834011554718,0.3481820821762085
1788862712678802400,7.578802490234375,0.33319270610809326,0.31311991810798645,0.12083321809768677
1788862712688809500,7.5888095703125,0.25190478563308716,0.17618948221206665,-0.09196852892637253
1788862712698815200,7.598815185546875,0.13049127161502838,0.12820038199424744,-0.19835436344146729
1788862712708822500,7.608822509765625,-0.08118882775306702,-0.018479589372873306,-0.3223765790462494
1788862712718828500,7.61882861328125,-0.2912895977497101,-0.08026572316884995,-0.5396808981895447
1788862712728835300,7.62883544921875,-0.47211962938308716,0.10157362371683121,-0.7411928176879883
1788862712738841300,7.63884130859375,-0.6026389598846436,0.3730514645576477,-0.819527268409729
1788862712748847400,7.648847412109375,-0.6513620018959045,0.28904417157173157,-0.8060819506645203
1788862712758854400,7.6588544921875,-0.6362783908843994,0.08136341720819473,-0.7321086525917053
1788862712768860400,7.6688603515625,-0.5805429220199585,-0.020145898684859276,-0.6098628640174866
1788862712778867500,7.678867431640625,-0.5898773074150085,-0.12092044204473495,-0.5574308037757874
1788862712788873500,7.68887353515625,-0.6939116716384888,-0.14718776941299438,-0.5865238904953003
1788862712798880300,7.69888037109375,-0.8762550950050354,0.04247191548347473,-0.6190248727798462
1788862712808886500,7.708886474609375,-1.1015734672546387,0.3065654933452606,-0.7709566950798035
1788862712818892500,7.718892578125,-1.3743796348571777,0.4700881242752075,-1.0225600004196167
1788862712828899300,7.7288994140625,-1.6699424982070923,0.5004448294639587,-1.3523972034454346
1788862712838905300,7.7389052734375,-1.852657437324524,0.5603435635566711,-1.6177843809127808
1788862712848912400,7.748912353515625,-1.8808577060699463,0.5931298136711121,-1.707153081893921
1788862712858918400,7.75891845703125,-1.8291990756988525,0.15969634056091309,-1.6656088829040527
1788862712868925400,7.768925537109375,-1.7117164134979248,-0.3773176074028015,-1.5216495990753174
1788862712878931500,7.778931396484375,-1.5374062061309814,-0.18207970261573792,-1.3052812814712524
1788862712888938500,7.7889384765625,-1.3356860876083374,0.5444434285163879,-0.9581878185272217
1788862712898944300,7.7989443359375,-1.078853964805603,0.9821917414665222,-0.35128188133239746
1788862712908950500,7.808950439453125,-0.7343475818634033,0.6062819957733154,0.17718425393104553
1788862712918957600,7.81895751953125,-0.5251954197883606,-0.18953898549079895,-0.06005678325891495
1788862712928963300,7.82896337890625,-0.7514045238494873,-0.7211857438087463,-0.7789865732192993
1788862712938970600,7.838970703125,-1.3439120054244995,-0.4138453006744385,-1.0558890104293823
1788862712948976600,7.8489765625,-1.6798063516616821,0.34223806858062744,-0.8178911805152893
1788862712958983400,7.8589833984375,-1.4757921695709229,0.494848370552063,-0.6567840576171875
1788862712968989700,7.86898974609375,-1.1479820013046265,-0.16798438131809235,-0.7949761748313904
1788862712978995500,7.878995361328125,-0.9248594641685486,-0.7654541730880737,-0.85922771692276
1788862712989002500,7.88900244140625,-0.7932668328285217,-0.9511933922767639,-0.6361480355262756
1788862712999008500,7.899008544921875,-0.75043785572052,-1.0368702411651611,-0.446298211812973
1788862713009015600,7.909015625,-0.7968049645423889,-1.1357421875,-0.3811453580856323
1788862713019021600,7.919021484375,-0.8591815233230591,-1.097144365310669,-0.37175530195236206
1788862713029028400,7.9290283203125,-0.9073628783226013,-1.1509959697723389,-0.45637792348861694
1788862713039034600,7.93903466796875,-0.9132532477378845,-1.4639450311660767,-0.5849398970603943
1788862713049041400,7.94904150390625,-0.9453409910202026,-1.8589738607406616,-0.6160432696342468
1788862713059047400,7.95904736328125,-0.9704878926277161,-2.1920714378356934,-0.5380309820175171
1788862713069053400,7.969053466796875,-0.9800809621810913,-2.4738240242004395,-0.5196228623390198
1788862713079060500,7.979060546875,-1.0077236890792847,-2.6721134185791016,-0.6866188049316406
1788862713089066500,7.98906640625,-1.0684189796447754,-2.6829721927642822,-0.9082698225975037
1788862713099073500,7.999073486328125,-1.0866094827651978,-2.5285823345184326,-1.042188286781311
1788862713109079600,8.00907958984375,-1.0571190118789673,-2.419367790222168,-1.094559669494629
1788862713119086600,8.019086669921874,-1.0311782360076904,-2.237215042114258,-1.2098623514175415
1788862713129092400,8.02909228515625,-0.9665497541427612,-1.7820054292678833,-1.374412178993225
1788862713139098400,8.039098388671874,-0.7758597135543823,-0.8774926066398621,-1.5377286672592163
1788862713149105700,8.049105712890626,-0.4740288257598877,0.3598337173461914,-1.6879945993423462
1788862713159111400,8.059111328125,-0.1956707239151001,1.1022289991378784,-1.7598609924316406
1788862713169118500,8.069118408203124,-0.19279171526432037,0.876629650592804,-1.6922131776809692
1788862713179124500,8.07912451171875,-0.42725175619125366,0.4363670349121094,-1.5741702318191528
1788862713189131500,8.089131591796875,-0.7170044183731079,0.0872998759150505,-1.419188380241394
1788862713199137500,8.099137451171876,-0.9617510437965393,-0.3907697796821594,-1.1642937660217285
1788862713209144600,8.10914453125,-0.8490753769874573,-0.10466796159744263,-0.8163636922836304
1788862713219150600,8.119150634765624,-0.5304502844810486,0.7747757434844971,-0.6782846450805664
1788862713229156600,8.129156494140625,-0.4464511573314667,0.9680102467536926,-0.7341314554214478
1788862713239163400,8.139163330078125,-0.47856220602989197,0.6337976455688477,-0.6831255555152893
1788862713249169700,8.149169677734376,-0.4598126709461212,0.35857513546943665,-0.43020761013031006
1788862713259176400,8.159176513671875,-0.3251395523548126,0.40878424048423767,-0.0650205910205841
1788862713269182500,8.169182373046874,-0.1397138237953186,0.6142948269844055,0.21922463178634644
1788862713279189500,8.179189453125,0.09159728139638901,0.6360676884651184,0.3228857219219208
1788862713289195500,8.189195556640625,0.3785046935081482,0.6033257246017456,0.26786962151527405
1788862713299202600,8.19920263671875,0.5013272762298584,0.6653283834457397,0.23919615149497986
1788862713309208300,8.209208251953125,0.5264106392860413,0.5098294019699097,0.23788665235042572
1788862713319214600,8.219214599609375,0.5244721174240112,0.17750230431556702,0.39491385221481323
1788862713329221400,8.229221435546876,0.6010294556617737,0.07539843767881393,0.7004637122154236
1788862713339227400,8.239227294921875,0.7735213041305542,-0.19520056247711182,0.8805035352706909
1788862713349234700,8.249234619140625,0.9802807569503784,-0.351258784532547,0.8685270547866821
1788862713359240400,8.259240478515625,1.0757068395614624,-0.4111873507499695,0.8794771432876587
1788862713369247500,8.26924755859375,1.0982704162597656,-0.2202833890914917,0.9180440306663513
1788862713379253500,8.27925341796875,1.1465147733688354,0.1252530813217163,0.9304397702217102
1788862713389259500,8.289259521484375,1.2196673154830933,0.30514082312583923,1.016157627105713
1788862713399266600,8.2992666015625,1.2889832258224487,0.4993145763874054,1.1437875032424927
1788862713409272300,8.309272216796876,1.3611218929290771,0.9373748302459717,1.1769062280654907
1788862713419279600,8.319279541015625,1.4626495838165283,1.4400898218154907,1.1178407669067383
1788862713429285600,8.32928564453125,1.5713691711425781,1.8087077140808105,0.9773032069206238
1788862713439292400,8.33929248046875,1.7107545137405396,1.8811802864074707,0.9538431167602539
1788862713449298400,8.34929833984375,1.8577572107315063,1.8393263816833496,1.0372099876403809
1788862713459305500,8.359305419921874,1.9174450635910034,1.4487055540084839,1.1141914129257202
1788862713469311500,8.3693115234375,1.827163815498352,0.8350278735160828,1.1568641662597656
1788862713479317500,8.3793173828125,1.7649822235107422,0.5741236805915833,1.1814792156219482
1788862713489324500,8.389324462890626,1.807554006576538,0.7390287518501282,1.1783292293548584
1788862713499330600,8.39933056640625,1.7960208654403687,0.707499086856842,1.1943854093551636
1788862713509337300,8.40933740234375,1.6548855304718018,0.338383287191391,1.262046217918396
1788862713519343400,8.41934326171875,1.5350347757339478,0.28921759128570557,1.3583698272705078
1788862713529350400,8.429350341796875,1.6034815311431885,0.5810210704803467,1.4432156085968018
1788862713539356400,8.4393564453125,1.7694646120071411,0.7008656859397888,1.4928950071334839
1788862713549362400,8.449362548828125,1.939786434173584,0.6378777623176575,1.5504103899002075
1788862713559369500,8.459369384765624,2.085888385772705,0.5990363359451294,1.6701828241348267
1788862713569375500,8.46937548828125,2.153679609298706,0.6078051924705505,1.8023808002471924
1788862713579382500,8.479382568359375,2.121220350265503,0.5301607251167297,1.8929228782653809
1788862713589388500,8.489388427734376,2.0122151374816895,0.3765879273414612,1.96061372756958
1788862713599395600,8.4993955078125,1.833798885345459,0.15759167075157166,1.9305897951126099
1788862713609401300,8.5094013671875,1.6167749166488647,-0.03872780501842499,1.7366886138916016
1788862713619408600,8.51940869140625,1.4234893321990967,-0.05968714877963066,1.4932360649108887
1788862713629414700,8.52941455078125,1.2872254848480225,0.1817409247159958,1.3157498836517334
1788862713639420400,8.53942041015625,1.151369333267212,0.39987990260124207,1.245989441871643
1788862713649427500,8.549427490234375,1.0415164232254028,0.363455593585968,1.1876088380813599
1788862713659433700,8.559433837890625,1.012810468673706,0.4112936854362488,1.038334608078003
1788862713669440500,8.5694404296875,0.9368367195129395,0.1702379435300827,0.8317537903785706
1788862713679446500,8.579446533203125,0.7027992010116577,-0.23558548092842102,0.6702805757522583
1788862713689453600,8.58945361328125,0.5808799266815186,-0.37537240982055664,0.5975765585899353
1788862713699459600,8.59945947265625,0.5573511719703674,-0.27469027042388916,0.517137885093689
1788862713709466400,8.60946630859375,0.47616955637931824,-0.2866089940071106,0.31435444951057434
1788862713719472400,8.619472412109374,0.2778186500072479,-0.412553608417511,0.1281110644340515
1788862713729478700,8.629478759765625,0.08301276713609695,-0.5356461405754089,0.024685587733983994
1788862713739485400,8.6394853515625,-0.05636536329984665,-0.5912023186683655,-0.0490589402616024
1788862713749491500,8.649491455078126,-0.15731008350849152,-0.4539879262447357,-0.12172839045524597
1788862713759498500,8.65949853515625,-0.26414650678634644,-0.2076076865196228,-0.23297767341136932
1788862713769504500,8.66950439453125,-0.39698413014411926,-0.1167939081788063,-0.3747517168521881
1788862713779511600,8.679511474609376,-0.5247569680213928,-0.061608411371707916,-0.4710204601287842
1788862713789517300,8.689517333984375,-0.6714924573898315,0.022432439029216766,-0.49612727761268616
1788862713799524600,8.699524658203124,-0.8705857992172241,0.07380801439285278,-0.5495274066925049
1788862713809530600,8.709530517578125,-1.103481411933899,0.12849263846874237,-0.7145731449127197
1788862713819536400,8.719536376953124,-1.2228049039840698,0.4993021488189697,-0.9728131890296936
1788862713829543700,8.729543701171876,-1.2622308731079102,0.7867223620414734,-1.1969746351242065
1788862713839549400,8.739549560546875,-1.3751225471496582,0.7152793407440186,-1.4086464643478394
1788862713849556500,8.749556396484374,-1.5815701484680176,0.5039376020431519,-1.5753763914108276
1788862713859562500,8.7595625,-1.7392985820770264,0.342517614364624,-1.6048215627670288
1788862713869569500,8.769569580078125,-1.7737889289855957,0.25228649377822876,-1.5065444707870483
1788862713879575600,8.779575439453126,-1.727073311805725,0.31097909808158875,-1.3718734979629517
1788862713889582300,8.789582275390625,-1.7063348293304443,0.37663400173187256,-1.261558175086975
1788862713899588600,8.799588623046875,-1.7605681419372559,0.3588067889213562,-1.1898514032363892
1788862713909594000,8.809593994140625,-1.7758872509002686,0.3449184000492096,-1.0845192670822144
1788862713919601200,8.81960107421875,-1.7474228143692017,0.22099857032299042,-1.0265052318572998
1788862713929607200,8.829607177734376,-1.7307658195495605,-0.00600904505699873,-1.0845656394958496
1788862713939614000,8.839614013671875,-1.7577511072158813,-0.24493107199668884,-1.1387606859207153
1788862713949620000,8.849619873046874,-1.803722620010376,-0.3952137529850006,-1.0840097665786743
1788862713959627300,8.859627197265626,-1.7720887660980225,-0.3169788718223572,-0.9598912596702576
1788862713969633000,8.869633056640625,-1.6442265510559082,-0.15963850915431976,-0.7838165760040283
1788862713979639000,8.87963916015625,-1.5337685346603394,-0.1982564777135849,-0.6526681184768677
1788862713989646000,8.88964599609375,-1.3894522190093994,-0.4166220724582672,-0.6625869870185852
1788862713999652000,8.899652099609375,-1.2653312683105469,-0.9265084862709045,-0.7480310797691345
1788862714009659100,8.9096591796875,-1.2202792167663574,-1.549887776374817,-0.7830501794815063
1788862714019665000,8.919664794921875,-1.189168930053711,-1.8727723360061646,-0.7595696449279785
1788862714029672200,8.929672119140625,-1.1652977466583252,-1.8549120426177979,-0.7486127614974976
1788862714039678200,8.93967822265625,-1.1302388906478882,-1.6765191555023193,-0.7815989255905151
1788862714049685000,8.94968505859375,-1.114313006401062,-1.5721794366836548,-0.8838715553283691
1788862714059691300,8.959691162109374,-1.0985186100006104,-1.436954140663147,-0.9827797412872314
1788862714069697000,8.969697021484375,-1.0454024076461792,-1.0740073919296265,-1.005751371383667
1788862714079704000,8.9797041015625,-0.9507251381874084,-0.7153624296188354,-0.9504992961883545
1788862714089710300,8.98971044921875,-0.9026057124137878,-0.6415873169898987,-0.8822430968284607
1788862714099717000,8.999717041015625,-0.9268788695335388,-0.8990750908851624,-0.8485826253890991
1788862714109723100,9.00972314453125,-0.9791032671928406,-1.1077663898468018,-0.8500379920005798
1788862714119730200,9.019730224609376,-1.1045289039611816,-1.1813559532165527,-0.8368204236030579
1788862714129736200,9.029736083984375,-1.2913390398025513,-1.312631368637085,-0.8482317328453064
1788862714139743000,9.039742919921874,-1.29246187210083,-1.580344796180725,-0.8896178007125854
1788862714149749000,9.0497490234375,-1.1883752346038818,-1.769740343093872,-1.0026021003723145
1788862714159755300,9.05975537109375,-1.1088314056396484,-1.7692703008651733,-1.149215579032898
1788862714169762000,9.069761962890626,-1.0981522798538208,-1.4300997257232666,-1.3049275875091553
1788862714179768000,9.07976806640625,-1.1261125802993774,-0.8171671628952026,-1.3964142799377441
1788862714189775000,9.089775146484374,-1.1038181781768799,-0.3638046681880951,-1.4196836948394775
1788862714199781000,9.099781005859375,-1.0444165468215942,-0.29049769043922424,-1.3723047971725464
1788862714209788200,9.1097880859375,-0.9085022211074829,-0.2616613507270813,-1.2919354438781738
1788862714219794000,9.1197939453125,-0.7217022180557251,-0.30505383014678955,-1.1284639835357666
1788862714229801200,9.12980126953125,-0.5066389441490173,-0.4908725619316101,-0.8847024440765381
1788862714239807200,9.13980712890625,-0.459623247385025,-0.5169500112533569,-0.6697502136230469
1788862714249813000,9.14981298828125,-0.5384283661842346,-0.4771363437175751,-0.5713769793510437
1788862714259820300,9.1598203125,-0.5721644759178162,-0.37552717328071594,-0.5618956089019775
1788862714269826000,9.169825927734376,-0.4698920249938965,-0.2840578556060791,-0.4602535367012024
1788862714279833000,9.1798330078125,-0.32006019353866577,-0.08135002851486206,-0.37143340706825256
1788862714289839000,9.189839111328125,-0.0149274542927742,0.5581210255622864,-0.3226642608642578
1788862714299846100,9.19984619140625,0.18709754943847656,0.8712773323059082,-0.2590562403202057
1788862714309852200,9.20985205078125,0.2672460079193115,1.2177308797836304,-0.007608435116708279
1788862714319859000,9.21985888671875,0.3072104752063751,1.3015133142471313,0.274335652589798
1788862714329865200,9.229865234375,0.4471338391304016,1.2195239067077637,0.46448448300361633
1788862714339871200,9.239871337890625,0.5498412847518921,0.9868296980857849,0.5452874898910522
1788862714349878000,9.2498779296875,0.6596221327781677,0.855682909488678,0.638584554195404
1788862714359884000,9.259884033203125,0.7760323882102966,0.689229428768158,0.7337337136268616
1788862714369891000,9.26989111328125,0.8212489485740662,0.32661691308021545,0.8696721196174622
1788862714379897000,9.27989697265625,0.9107466340065002,0.2635948061943054,1.0353975296020508
1788862714389904100,9.289904052734375,1.0244377851486206,0.39106041193008423,1.089943289756775
1788862714399910100,9.29991015625,1.0728657245635986,0.27435722947120667,1.106555461883545
1788862714409917200,9.309917236328126,1.1166778802871704,0.29941752552986145,1.1846091747283936
1788862714419923000,9.3199228515625,1.2452746629714966,0.5478499531745911,1.2342162132263184
1788862714429929000,9.329928955078126,1.404604196548462,0.5245396494865417,1.305959939956665
1788862714439936300,9.339936279296875,1.5139517784118652,0.4842286705970764,1.4201469421386719
1788862714449942000,9.34994189453125,1.5703246593475342,0.5667679309844971,1.4581475257873535
1788862714459949000,9.359948974609376,1.5925298929214478,0.5191357135772705,1.4600363969802856
1788862714469955300,9.369955322265625,1.6398733854293823,0.5175114274024963,1.535581111907959
1788862714479962000,9.379962158203124,1.7359639406204224,0.6319535970687866,1.553146243095398
1788862714489968000,9.389968017578125,1.8376318216323853,0.6486204862594604,1.5227792263031006
1788862714499975200,9.39997509765625,1.8701272010803223,0.6800397038459778,1.5390937328338623
1788862714509981200,9.409981201171876,1.865890622138977,0.7602469325065613,1.560768961906433
1788862714519987200,9.4199873046875,1.8411120176315308,0.6560494303703308,1.569456696510315
1788862714529994000,9.429993896484374,1.794067621231079,0.4589092433452606,1.5874509811401367
1788862714540000300,9.440000244140625,1.7346398830413818,0.38082268834114075,1.567618489265442
1788862714550007000,9.450007080078125,1.6777557134628296,0.39679327607154846,1.5326955318450928
1788862714560013000,9.460012939453126,1.6226966381072998,0.49323007464408875,1.5372459888458252
1788862714570020000,9.47002001953125,1.5686094760894775,0.5842750072479248,1.5866613388061523
1788862714580026000,9.480026123046875,1.5030254125595093,0.6537209153175354,1.6318858861923218
1788862714590033200,9.490033203125,1.428907871246338,0.6291200518608093,1.660057783126831
1788862714600039000,9.500038818359375,1.3759411573410034,0.4211593568325043,1.7213109731674194
1788862714610045200,9.510045166015624,1.3406777381896973,0.27136901021003723,1.8239716291427612
1788862714620052200,9.52005224609375,1.3244116306304932,0.31751707196235657,1.8976093530654907
1788862714630058000,9.53005810546875,1.3576722145080566,0.6315823197364807,1.8868088722229004
1788862714640065300,9.540065185546876,1.3969945907592773,0.7557439804077148,1.817720890045166
1788862714650071000,9.550071044921875,1.3316435813903809,0.45978695154190063,1.7241636514663696
1788862714660078000,9.560078125,1.16254723072052,0.16191184520721436,1.6446632146835327
1788862714670084400,9.57008447265625,0.972747266292572,0.022684400901198387,1.580773949623108
1788862714680091100,9.580091064453125,0.7845067977905273,-0.0769958570599556,1.4606131315231323
1788862714690097200,9.59009716796875,0.637062668800354,0.02865000069141388,1.2406480312347412
1788862714700103200,9.600103271484375,0.4759576916694641,0.25962620973587036,0.9789876341819763
1788862714710110200,9.610110107421875,0.24135294556617737,0.41694626212120056,0.7666397094726562
1788862714720116200,9.6201162109375,0.10059531033039093,0.3578888177871704,0.5538433194160461
1788862714730123000,9.630123046875,0.09042739123106003,0.20473149418830872,0.32651278376579285
1788862714740129300,9.64012939453125,0.0934910923242569,0.1767624467611313,0.12591256201267242
1788862714750136000,9.650135986328126,0.052094727754592896,0.07852664589881897,0.024076079949736595
1788862714760142000,9.66014208984375,-0.04361262172460556,-0.16986185312271118,-0.008257891982793808
1788862714770149000,9.670149169921874,-0.16189934313297272,-0.3069171905517578,-0.03208500146865845
1788862714780155100,9.680155029296875,-0.24603472650051117,-0.28082698583602905,-0.08391570299863815
1788862714790161200,9.6901611328125,-0.31240034103393555,-0.31994420289993286,-0.1694662868976593
1788862714800168000,9.70016796875,-0.41657203435897827,-0.39070093631744385,-0.2602582573890686
1788862714810174200,9.71017431640625,-0.5165479183197021,-0.3936651051044464,-0.340263694524765
1788862714820181200,9.72018115234375,-0.5751560926437378,-0.19700849056243896,-0.3956393301486969
1788862714830187000,9.73018701171875,-0.6279600858688354,-0.04389192909002304,-0.42304491996765137
1788862714840194300,9.7401943359375,-0.7703244090080261,-0.18353983759880066,-0.46456465125083923
1788862714850200000,9.750199951171876,-0.9593073129653931,-0.12463897466659546,-0.5609888434410095
1788862714860207000,9.76020703125,-1.0144507884979248,0.19478534162044525,-0.6561070680618286
1788862714870213000,9.770213134765624,-1.023298978805542,0.4627419710159302,-0.691103994846344
1788862714880219100,9.78021923828125,-1.103172779083252,0.6397292017936707,-0.7154010534286499
1788862714890226200,9.79022607421875,-1.2144842147827148,0.6012873649597168,-0.8067143559455872
1788862714900232200,9.800232177734374,-1.2695841789245605,0.5723829865455627,-0.9323670864105225
1788862714910239200,9.8102392578125,-1.2263801097869873,0.5916656851768494,-0.9892985820770264
1788862714920245200,9.820245361328125,-1.2284613847732544,0.3004884123802185,-0.9491221308708191
1788862714930252000,9.830251953125,-1.2797471284866333,0.10778289288282394,-0.8555565476417542
1788862714940258000,9.840258056640625,-1.2551393508911133,0.25162050127983093,-0.7837364077568054
1788862714950265000,9.85026513671875,-1.219260334968567,0.4298645257949829,-0.7400567531585693
1788862714960271000,9.86027099609375,-1.2944120168685913,0.45108380913734436,-0.7719517946243286
1788862714970277000,9.870277099609375,-1.5051863193511963,0.3800143003463745,-0.8565474152565002
1788862714980284200,9.8802841796875,-1.6459393501281738,0.26946941018104553,-0.9456520080566406
1788862714990290200,9.890290283203125,-1.641677737236023,0.13639740645885468,-1.0010638236999512
1788862715000297000,9.900296875,-1.5694035291671753,-0.06841246783733368,-0.9846038818359375
1788862715010303000,9.910302978515626,-1.4678969383239746,-0.19742929935455322,-0.9047590494155884
1788862715020310300,9.920310302734375,-1.3366289138793945,-0.17519164085388184,-0.8493783473968506
1788862715030316000,9.93031591796875,-1.2775766849517822,-0.35842302441596985,-0.8709618449211121
1788862715040323000,9.940322998046875,-1.3251614570617676,-0.7453818917274475,-0.9429801106452942
1788862715050329000,9.9503291015625,-1.3503267765045166,-0.7732023000717163,-1.0089434385299683
1788862715060335000,9.960335205078126,-1.3140240907669067,-0.4361369013786316,-1.0348583459854126
1788862715070342100,9.970342041015625,-1.2417303323745728,-0.12834574282169342,-1.0557644367218018
1788862715080348000,9.980347900390624,-1.1881871223449707,-0.27462252974510193,-1.0753036737442017
1788862715090355200,9.990355224609376,-1.178780198097229,-0.568706214427948,-1.1024714708328247
1788862715100361200,10.000361328125,-1.129784345626831,-0.620182991027832,-1.0866725444793701
1788862715110368000,10.010367919921874,-1.097233772277832,-0.5507343411445618,-1.0667693614959717
1788862715120374300,10.020374267578125,-1.1439800262451172,-0.49979716539382935,-1.1058051586151123
1788862715130381000,10.030381103515625,-1.1472141742706299,-0.4512796401977539,-1.1014740467071533
1788862715140387000,10.040386962890626,-1.0755282640457153,-0.642169177532196,-1.0445878505706787
1788862715150393000,10.05039306640625,-0.9885779023170471,-1.0375356674194336,-1.070585012435913
1788862715160400100,10.060400146484374,-0.9888303875923157,-1.40751051902771,-1.1144577264785767
1788862715170406100,10.07040625,-0.9586430191993713,-1.5691616535186768,-1.094792127609253
1788862715180413000,10.080412841796875,-0.807658314704895,-1.4172698259353638,-1.100241780281067
1788862715190419200,10.090419189453126,-0.723796546459198,-1.4911478757858276,-1.153860330581665
1788862715200426000,10.100426025390625,-0.6692110300064087,-1.6240098476409912,-1.1091512441635132
1788862715210432000,10.110431884765624,-0.5783771872520447,-1.5872753858566284,-1.0035245418548584
1788862715220439300,10.120439208984376,-0.5110924243927002,-1.3733329772949219,-1.0429537296295166
1788862715230445000,10.130445068359375,-0.522037148475647,-1.1067994832992554,-1.171932339668274
1788862715240451000,10.140451171875,-0.5492793917655945,-1.113577961921692,-1.1784570217132568
1788862715250458000,10.1504580078125,-0.48969167470932007,-1.239320993423462,-1.124667763710022
1788862715260464000,10.160464111328125,-0.3270449936389923,-1.1993136405944824,-1.0865049362182617
1788862715270471200,10.17047119140625,-0.2481122612953186,-1.0080209970474243,-1.0563082695007324
1788862715280477000,10.180476806640625,-0.24099282920360565,-0.6198785901069641,-1.0701048374176025
1788862715290484200,10.190484130859375,-0.22317710518836975,-0.3613164722919464,-1.0993143320083618
1788862715300490200,10.200490234375,-0.2079925537109375,-0.43382370471954346,-0.9166129231452942
1788862715310497000,10.2104970703125,-0.11264800280332565,-0.28891411423683167,-0.61832594871521
1788862715320503300,10.22050341796875,0.00032914732582867146,-0.19538843631744385,-0.4368874728679657
1788862715330509300,10.23050927734375,0.03636650741100311,-0.06435398012399673,-0.30657660961151123
1788862715340516000,10.24051611328125,0.09844034910202026,0.09137910604476929,-0.19994190335273743
1788862715350522000,10.250522216796876,0.17604601383209229,0.07534074038267136,-0.11798004060983658
1788862715360529200,10.260529052734375,0.21935513615608215,0.23642976582050323,-0.09006025642156601
1788862715370535200,10.27053515625,0.25731560587882996,0.386013925075531,-0.09138990193605423
1788862715380542000,10.2805419921875,0.2373141199350357,0.33356568217277527,0.031065575778484344
1788862715390548200,10.29054833984375,0.3157777786254883,0.6598484516143799,0.18666794896125793
1788862715400555000,10.300554931640624,0.5016877055168152,0.977011501789093,0.25872376561164856
1788862715410561000,10.31056103515625,0.6776283383369446,1.1114184856414795,0.31438159942626953
1788862715420567000,10.320567138671874,0.784822940826416,1.0059956312179565,0.4667205512523651
1788862715430574000,10.330573974609376,0.8664728403091431,0.9191257953643799,0.6848025918006897
1788862715440580000,10.340580078125,0.9885793328285217,1.0073720216751099,0.8261938095092773
1788862715450587100,10.350587158203124,1.1422522068023682,0.9211758971214294,0.8577712178230286
1788862715460593200,10.36059326171875,1.2329621315002441,0.7542798519134521,0.930500328540802
1788862715470600200,10.37060009765625,1.2482794523239136,0.9120352864265442,1.0315499305725098
1788862715480606000,10.38060595703125,1.2323095798492432,1.0963600873947144,1.0700024366378784
1788862715490613200,10.39061328125,1.27904212474823,1.1018972396850586,1.1665618419647217
1788862715500619300,10.400619384765625,1.3589458465576172,1.0098650455474854,1.3062385320663452
1788862715510625000,10.410625,1.3948081731796265,0.962761640548706,1.3458962440490723
1788862715520632000,10.420632080078125,1.4332705736160278,1.1147711277008057,1.3312283754348755
1788862715530638300,10.430638427734374,1.514548659324646,1.2102324962615967,1.296995997428894
1788862715540645000,10.44064501953125,1.606231451034546,1.1010972261428833,1.3393876552581787
1788862715550651100,10.450651123046875,1.689924716949463,0.9688980579376221,1.381422519683838
1788862715560658200,10.460658203125,1.7669329643249512,0.9709095358848572,1.4005470275878906
1788862715570664200,10.470664306640625,1.8417835235595703,0.9246662259101868,1.4586669206619263
1788862715580671000,10.4806708984375,1.938055157661438,0.7888833284378052,1.5239896774291992
1788862715590677000,10.490677001953125,1.9909029006958008,0.6878853440284729,1.5132384300231934
1788862715600683300,10.500683349609375,2.0004513263702393,0.6064208745956421,1.4952384233474731
1788862715610690000,10.51068994140625,2.0174400806427,0.6046010851860046,1.4960222244262695
1788862715620696000,10.520696044921875,2.007962465286255,0.4522829055786133,1.5268006324768066
1788862715630703000,10.530703125,1.9334956407546997,0.18484745919704437,1.5435187816619873
1788862715640709000,10.540709228515626,1.8298838138580322,0.16525325179100037,1.5259877443313599
1788862715650716200,10.550716064453125,1.8241618871688843,0.3793781101703644,1.5058422088623047
1788862715660722000,10.560721923828124,1.8230564594268799,0.36531156301498413,1.5431240797042847
1788862715670729200,10.570729248046876,1.7443056106567383,0.23591715097427368,1.558789610862732
1788862715680735200,10.5807353515625,1.680665373802185,0.3206664025783539,1.504482388496399
1788862715690741000,10.590740966796876,1.663475513458252,0.4981881082057953,1.4005428552627563
1788862715700748300,10.600748291015625,1.5769989490509033,0.41208383440971375,1.2799711227416992
1788862715710754000,10.610754150390624,1.386181354522705,0.2600690424442291,1.1734507083892822
1788862715720761000,10.620760986328126,1.1881362199783325,0.2737257182598114,1.0646486282348633
1788862715730767000,10.63076708984375,0.991958498954773,0.328908771276474,0.9489052891731262
1788862715740774100,10.640774169921874,0.8377529382705688,0.4476180970668793,0.8014071583747864
1788862715750780200,10.6507802734375,0.770834743976593,0.571060299873352,0.6612018942832947
1788862715760787000,10.660786865234375,0.7079952955245972,0.6666486263275146,0.5296316146850586
1788862715770793200,10.670793212890626,0.5893919467926025,0.4428497552871704,0.44540780782699585
1788862715780799200,10.68079931640625,0.45234543085098267,0.07183519750833511,0.3614788055419922
1788862715790806000,10.690805908203124,0.3576280474662781,-0.02372751757502556,0.19851002097129822
1788862715800812000,10.70081201171875,0.22370833158493042,-0.07629725337028503,0.02294698730111122
1788862715810819000,10.710819091796875,-0.0022818848956376314,-0.08308858424425125,-0.13367371261119843
1788862715820825000,10.7208251953125,-0.15443147718906403,-0.009866570122539997,-0.2922247350215912
1788862715830832000,10.73083203125,-0.2019859403371811,0.11958349496126175,-0.43310704827308655
1788862715840838100,10.740838134765625,-0.23579584062099457,0.10186760872602463,-0.5048888325691223
1788862715850845200,10.75084521484375,-0.2998826205730438,-0.11554933339357376,-0.5361850261688232
1788862715860851000,10.760850830078125,-0.38252902030944824,-0.2608226239681244,-0.526028573513031
1788862715870857200,10.770857177734374,-0.49594545364379883,-0.26550713181495667,-0.5067986249923706
1788862715880864300,10.7808642578125,-0.6003792881965637,-0.08269274234771729,-0.5177505612373352
1788862715890870000,10.7908701171875,-0.6761438250541687,0.30019497871398926,-0.5393863320350647
1788862715900877300,10.800877197265624,-0.7759122252464294,0.2489916980266571,-0.5599661469459534
1788862715910883000,10.810883056640625,-0.9143940806388855,0.01950068399310112,-0.6207155585289001
1788862715920890000,10.82089013671875,-0.9490167498588562,-0.12263062596321106,-0.7031345367431641
1788862715930896100,10.830896240234376,-0.9134147763252258,-0.07689867913722992,-0.7556192278862
1788862715940903200,10.840903076171875,-0.8638924956321716,0.10062364488840103,-0.7354679107666016
1788862715950909200,10.8509091796875,-0.8411604166030884,0.11759180575609207,-0.6580532789230347
1788862715960915200,10.860915283203125,-0.9237762093544006,0.05498701333999634,-0.558367133140564
1788862715970922200,10.870922119140625,-1.0026168823242188,0.03841624781489372,-0.5015237927436829
1788862715980928300,10.88092822265625,-1.085240125656128,-0.05187982693314552,-0.589168131351471
1788862715990935000,10.89093505859375,-1.1603147983551025,-0.02821175940334797,-0.755165159702301
1788862716000941000,10.900941162109374,-1.2173032760620117,0.013375364243984222,-0.8783767819404602
1788862716010948000,10.910947998046876,-1.3185386657714844,-0.18815329670906067,-0.9095910787582397
1788862716020954000,10.9209541015625,-1.389649510383606,-0.3951844871044159,-0.9133440256118774
1788862716030961200,10.930961181640624,-1.3648051023483276,-0.347427099943161,-0.9218586087226868
1788862716040967200,10.94096728515625,-1.3340450525283813,-0.2261294275522232,-0.9446307420730591
1788862716050973200,10.95097314453125,-1.3603168725967407,-0.17167310416698456,-1.0063021183013916
1788862716060980000,10.96097998046875,-1.3780642747879028,-0.1370285451412201,-1.1314607858657837
1788862716070986000,10.970986083984375,-1.3796671628952026,-0.20773224532604218,-1.18169367313385
1788862716080993300,10.9809931640625,-1.36482834815979,-0.4703313708305359,-1.1721563339233398
1788862716090999000,10.9909990234375,-1.3305097818374634,-0.9116017818450928,-1.2186493873596191
1788862716101006000,11.001006103515625,-1.3093643188476562,-1.2043359279632568,-1.316174864768982
1788862716111012000,11.01101220703125,-1.2623522281646729,-1.217123031616211,-1.3506687879562378
1788862716121019100,11.02101904296875,-1.275093674659729,-1.2525066137313843,-1.317529559135437
1788862716131025200,11.031025146484374,-1.3653430938720703,-1.482285976409912,-1.2883272171020508
1788862716141031000,11.041031005859375,-1.4522886276245117,-1.517197847366333,-1.3339157104492188
1788862716151038200,11.0510380859375,-1.4992223978042603,-1.1825733184814453,-1.4052414894104004
1788862716161044200,11.061044189453124,-1.500449776649475,-0.8452796936035156,-1.4515881538391113
1788862716171051000,11.071051025390625,-1.5185794830322266,-0.8597064018249512,-1.4737900495529175
1788862716181057300,11.081057373046875,-1.5126030445098877,-1.099271297454834,-1.4663918018341064
1788862716191064000,11.09106396484375,-1.3769930601119995,-1.3428796529769897,-1.390818476676941
1788862716201070000,11.101070068359375,-1.250255823135376,-1.4998457431793213,-1.3043837547302246
1788862716211077000,11.1110771484375,-1.238478422164917,-1.5770771503448486,-1.202402114868164
1788862716221083100,11.121083251953126,-1.243657112121582,-1.5346211194992065,-1.1267180442810059
1788862716231089200,11.131089111328125,-1.2064549922943115,-1.4583678245544434,-1.1650075912475586
1788862716241096000,11.141095947265624,-1.1496596336364746,-1.3310801982879639,-1.219770073890686
1788862716251102200,11.151102294921875,-1.08481764793396,-1.1373289823532104,-1.2416797876358032
1788862716261109000,11.16110888671875,-1.0407295227050781,-1.1404863595962524,-1.2159252166748047
1788862716271115000,11.171114990234376,-0.9357966780662537,-1.1577223539352417,-1.217115879058838
1788862716281122300,11.181122314453125,-0.875464677810669,-1.1543418169021606,-1.1390522718429565
1788862716291128000,11.191128173828124,-0.8372631072998047,-1.0856627225875854,-0.9981045722961426
1788862716301135000,11.201135009765625,-0.7785481214523315,-0.812157392501831,-0.9149574041366577
1788862716311141000,11.21114111328125,-0.7269534468650818,-0.700793981552124,-0.8285853862762451
1788862716321147100,11.221147216796876,-0.6469113230705261,-0.725818395614624,-0.6921513676643372
1788862716331154200,11.231154296875,-0.5298961400985718,-0.7984256744384766,-0.5447579622268677
1788862716341160000,11.241159912109374,-0.4740648567676544,-0.679000735282898,-0.4230213761329651
1788862716351167200,11.251167236328126,-0.43993231654167175,-0.46254783868789673,-0.2997274696826935
1788862716361173200,11.26117333984375,-0.33793964982032776,-0.27859213948249817,-0.1815483719110489
1788862716371180000,11.271179931640624,-0.18070203065872192,-0.02118872106075287,-0.14753428101539612
1788862716381186000,11.28118603515625,-0.08461654931306839,0.22249767184257507,-0.15476511418819427
1788862716391193000,11.291193115234375,-0.028393493965268135,0.5806134939193726,-0.0417884960770607
1788862716401199000,11.30119921875,0.12189028412103653,0.9210725426673889,0.14188359677791595
1788862716411205000,11.311205078125,0.26559942960739136,0.9100174307823181,0.33148664236068726
1788862716421212200,11.321212158203124,0.33440354466438293,0.6955762505531311,0.511806070804596
1788862716431218200,11.33121826171875,0.41273850202560425,0.6790215373039246,0.6752215623855591
1788862716441225000,11.341224853515625,0.4667015075683594,0.48905882239341736,0.8193638920783997
1788862716451231000,11.35123095703125,0.5508672595024109,0.3971065282821655,0.9203301668167114
1788862716461238300,11.36123828125,0.6120432615280151,0.34267017245292664,1.015758752822876
1788862716471244000,11.371244140625,0.6274541020393372,0.21126100420951843,1.0716731548309326
1788862716481251000,11.3812509765625,0.6986364126205444,0.3148430585861206,1.1016957759857178
1788862716491257000,11.391257080078125,0.8039088249206543,0.4112424850463867,1.1675207614898682
1788862716501263000,11.40126318359375,0.8848902583122253,0.36778876185417175,1.3033355474472046
1788862716511270100,11.411270263671875,0.9589051008224487,0.4325962960720062,1.4443178176879883
1788862716521276200,11.421276123046875,1.0627329349517822,0.6913309097290039,1.4783698320388794
1788862716531283200,11.431283203125,1.1915922164916992,0.940805196762085,1.4278029203414917
1788862716541289200,11.441289306640625,1.3386871814727783,1.0298829078674316,1.413645625114441
1788862716551296300,11.451296142578125,1.4259283542633057,0.7176410555839539,1.4794243574142456
1788862716561302300,11.46130224609375,1.3995574712753296,0.4196426570415497,1.5971169471740723
1788862716571309000,11.47130908203125,1.397996187210083,0.44483861327171326,1.6397674083709717
1788862716581315000,11.481315185546874,1.4143315553665161,0.471971720457077,1.5638649463653564
1788862716591321300,11.4913212890625,1.4035680294036865,0.571875810623169,1.4959626197814941
1788862716601328000,11.501328125,1.3670355081558228,0.7422195672988892,1.4754115343093872
1788862716611334100,11.511334228515626,1.3384112119674683,0.9441859126091003,1.4925810098648071
1788862716621341200,11.521341064453125,1.3294239044189453,1.0974353551864624,1.536977767944336
1788862716631347200,11.53134716796875,1.3269002437591553,0.9819901585578918,1.6937220096588135
1788862716641354000,11.54135400390625,1.3804957866668701,0.9471305012702942,1.8688104152679443
1788862716651360000,11.551360107421875,1.4917434453964233,0.9282034039497375,1.9532922506332397
1788862716661367300,11.5613671875,1.5791590213775635,0.8880706429481506,1.9620423316955566
1788862716671373000,11.571373046875,1.6053781509399414,0.8219583630561829,2.0080015659332275
1788862716681379000,11.581379150390624,1.604913592338562,0.696122407913208,2.068709373474121
1788862716691386000,11.59138623046875,1.619482159614563,0.6296303272247314,2.0551788806915283
1788862716701392100,11.60139208984375,1.6447046995162964,0.6277562379837036,1.947273850440979
1788862716711399200,11.611399169921874,1.6627522706985474,0.5380191206932068,1.7845324277877808
1788862716721405000,11.621405029296875,1.6581228971481323,0.44718003273010254,1.590545415878296
1788862716731412200,11.631412109375,1.5886962413787842,0.36427295207977295,1.3757789134979248
1788862716741418200,11.641418212890626,1.433121919631958,0.309485524892807,1.1636509895324707
1788862716751425000,11.651425048828125,1.235133171081543,0.3222079873085022,0.9663830995559692
1788862716761431300,11.661431396484375,1.0886566638946533,0.39578181505203247,0.7739404439926147
1788862716771437000,11.67143701171875,0.9859331250190735,0.46037644147872925,0.5977450013160706
1788862716781444000,11.681444091796875,0.9036856889724731,0.45332467555999756,0.46385061740875244
1788862716791450000,11.6914501953125,0.8418667316436768,0.3075672686100006,0.3695005476474762
1788862716801457200,11.70145703125,0.7828545570373535,0.13931222259998322,0.28698331117630005
1788862716811463200,11.711463134765625,0.6877632737159729,0.06468400359153748,0.22678886353969574
1788862716821470000,11.721469970703126,0.5435781478881836,0.02908233180642128,0.17996624112129211
1788862716831476200,11.731476318359375,0.3638457953929901,0.03804267197847366,0.10238917171955109
1788862716841483000,11.74148291015625,0.18048234283924103,0.13738888502120972,-0.009358961135149002
1788862716851489000,11.751489013671875,0.029416391626000404,0.24431534111499786,-0.1352955847978592
1788862716861495000,11.7614951171875,-0.10649430006742477,0.2061338573694229,-0.21869513392448425
1788862716871502000,11.771502197265624,-0.20631632208824158,0.008908955380320549,-0.22460484504699707
1788862716881508000,11.781508056640625,-0.31205418705940247,-0.13388681411743164,-0.2163756638765335
1788862716891515100,11.79151513671875,-0.4739270806312561,-0.1381455808877945,-0.26605233550071716
1788862716901521200,11.801521240234376,-0.573606014251709,-0.1603241115808487,-0.36588171124458313
1788862716911528700,11.81152880859375,-0.6923130750656128,-0.41588014364242554,-0.44059187173843384
1788862716921534500,11.821534423828124,-0.8236883878707886,-0.5541240572929382,-0.44673603773117065
1788862716931541500,11.83154150390625,-0.8392032384872437,-0.5243000984191895,-0.42688125371932983
1788862716941547500,11.841547607421875,-0.7586974501609802,-0.5121557712554932,-0.4103025496006012
1788862716951553500,11.851553466796876,-0.6629840135574341,-0.48064982891082764,-0.3752950429916382
1788862716961560600,11.861560546875,-0.6150808930397034,-0.42193111777305603,-0.3202650547027588
1788862716971566300,11.87156640625,-0.663715124130249,-0.4333606958389282,-0.2583739161491394
1788862716981573600,11.88157373046875,-0.7616674900054932,-0.44519710540771484,-0.22023612260818481
1788862716991579600,11.89157958984375,-0.8757070899009705,-0.3518891930580139,-0.21847283840179443
1788862717001586400,11.90158642578125,-0.9940425753593445,-0.18979881703853607,-0.22405961155891418
1788862717011592400,11.911592529296875,-1.1072475910186768,-0.08803865313529968,-0.24574391543865204
1788862717021599500,11.921599609375,-1.2155494689941406,-0.07120028138160706,-0.29223498702049255
1788862717031605500,11.93160546875,-1.3043280839920044,-0.03928741067647934,-0.37270620465278625
1788862717041611500,11.941611572265625,-1.3873372077941895,0.0152333565056324,-0.5286023020744324
1788862717051618600,11.95161865234375,-1.4885817766189575,0.053975507616996765,-0.6896836757659912
1788862717061624600,11.96162451171875,-1.6146942377090454,0.049875035881996155,-0.7331275343894958
1788862717071631400,11.97163134765625,-1.7010586261749268,0.024976562708616257,-0.6993036270141602
1788862717081637400,11.981637451171874,-1.6862554550170898,0.1322244554758072,-0.6899556517601013
1788862717091644400,11.99164453125,-1.6336870193481445,0.20189857482910156,-0.7452971339225769
1788862717101650400,12.001650390625,-1.6280062198638916,-0.22151926159858704,-0.8442702889442444
1788862717111657500,12.011657470703126,-1.66946280002594,-0.7436596751213074,-0.9037594795227051
1788862717121663500,12.02166357421875,-1.6897547245025635,-0.9062432050704956,-0.887856662273407
1788862717131669500,12.03166943359375,-1.7065907716751099,-0.8239437937736511,-0.8745407462120056
1788862717141676500,12.041676513671876,-1.7172375917434692,-0.6450326442718506,-0.9445990920066833
1788862717151682300,12.051682373046875,-1.7352941036224365,-0.6096387505531311,-1.0522584915161133
1788862717161689600,12.061689697265624,-1.755232334136963,-0.7841482162475586,-1.1184457540512085
1788862717171695400,12.0716953125,-1.7097516059875488,-1.0776057243347168,-1.0975688695907593
1788862717181702700,12.08170263671875,-1.6393837928771973,-1.3532778024673462,-1.0053664445877075
1788862717191708700,12.091708740234376,-1.5859789848327637,-1.4950357675552368,-0.9032676219940186
1788862717201715500,12.101715576171875,-1.5583356618881226,-1.4208775758743286,-0.8691487908363342
1788862717211721500,12.111721435546874,-1.5349092483520508,-1.1528252363204956,-0.8480650186538696
1788862717221727500,12.1217275390625,-1.5444263219833374,-1.120268702507019,-0.8162927031517029
1788862717231734500,12.131734619140625,-1.5272126197814941,-1.2522300481796265,-0.8215322494506836
1788862717241740500,12.141740478515626,-1.5012462139129639,-1.2456375360488892,-0.8608683347702026
1788862717251747600,12.15174755859375,-1.4404033422470093,-1.200833797454834,-0.8700042963027954
1788862717261753600,12.161753662109374,-1.351366400718689,-1.4258173704147339,-0.7837733030319214
1788862717271760400,12.171760498046876,-1.2560155391693115,-1.8341954946517944,-0.6508331298828125
1788862717281766400,12.181766357421875,-1.1942198276519775,-1.8216561079025269,-0.5870733261108398
1788862717291773400,12.1917734375,-1.2338095903396606,-1.3738515377044678,-0.6183162331581116
1788862717301779500,12.201779541015625,-1.2952362298965454,-0.9827126860618591,-0.6709562540054321
1788862717311785500,12.211785400390625,-1.3015429973602295,-0.8107089996337891,-0.6590079069137573
1788862717321792500,12.22179248046875,-1.2621310949325562,-0.7967303395271301,-0.6475187540054321
1788862717331798500,12.231798583984375,-1.2184185981750488,-0.7218344807624817,-0.6640872359275818
1788862717341805600,12.2418056640625,-1.165076494216919,-0.5017871260643005,-0.6848012804985046
1788862717351811300,12.251811279296875,-1.055670142173767,-0.19248253107070923,-0.6236303448677063
1788862717361818600,12.261818603515625,-0.9978974461555481,-0.1749996840953827,-0.45116347074508667
1788862717371824400,12.271824462890624,-0.9161631464958191,-0.019610511139035225,-0.3265344202518463
1788862717381830400,12.281830322265625,-0.8520251512527466,0.07867983728647232,-0.30936554074287415
1788862717391837700,12.291837646484375,-0.8053518533706665,0.10254141688346863,-0.2753193974494934
1788862717401843500,12.301843505859376,-0.7453692555427551,0.17998693883419037,-0.14148834347724915
1788862717411850500,12.3118505859375,-0.5990369915962219,0.37055957317352295,-0.06757128238677979
1788862717421856500,12.3218564453125,-0.4476722180843353,0.5483519434928894,-0.07142407447099686
1788862717431863600,12.331863525390625,-0.2970637083053589,0.49274322390556335,-0.04510658606886864
1788862717441869600,12.34186962890625,-0.16004575788974762,0.4848659038543701,0.044296395033597946
1788862717451876400,12.35187646484375,-0.04308158904314041,0.6032964587211609,0.1761670857667923
1788862717461882600,12.361882568359375,0.12868937849998474,0.8704692721366882,0.2862696051597595
1788862717471888600,12.371888671875,0.3392218053340912,1.0870507955551147,0.29197534918785095
1788862717481895400,12.3818955078125,0.5486389398574829,1.2727817296981812,0.22857533395290375
1788862717491901400,12.3919013671875,0.7213292121887207,1.1565492153167725,0.25905755162239075
1788862717501908500,12.401908447265624,0.8196775913238525,0.9444710612297058,0.4423157870769501
1788862717511914500,12.41191455078125,0.9042347073554993,1.0404878854751587,0.6300732493400574
1788862717521921300,12.42192138671875,1.0189493894577026,1.193099021911621,0.7030166983604431
1788862717531927600,12.431927490234376,1.192464828491211,1.347240686416626,0.7175421118736267
1788862717541934600,12.4419345703125,1.360599398612976,1.3015998601913452,0.7113791704177856
1788862717551940400,12.4519404296875,1.4977774620056152,1.3285378217697144,0.7673060894012451
1788862717561946400,12.4619462890625,1.6340019702911377,1.3461809158325195,0.8918488025665283
1788862717571953400,12.471953369140625,1.7278244495391846,1.2191649675369263,0.980669379234314
1788862717581959400,12.48195947265625,1.7748420238494873,1.135435938835144,1.0558422803878784
1788862717591966500,12.491966552734375,1.912775993347168,1.3127623796463013,1.026316523551941
1788862717601972500,12.501972412109374,2.034111738204956,1.2493631839752197,0.980887234210968
1788862717611979500,12.5119794921875,2.060589551925659,0.7488495707511902,1.068237066268921
1788862717621985500,12.521985595703125,2.0376479625701904,0.34353750944137573,1.2800366878509521
