time,seconds_elapsed,z,y,x
1788862705135236900,0.03523681640625,2.6896603107452393,1.9903278350830078,-1.2692750692367554
1788862705145243000,0.045242919921875,2.8063573837280273,1.6740968227386475,-1.396247386932373
1788862705155250000,0.05525,2.7899680137634277,1.6883463859558105,-1.2754826545715332
1788862705165256000,0.065255859375,2.593827724456787,1.9483777284622192,-0.9483476877212524
1788862705175262000,0.075261962890625,2.17958402633667,2.1896185874938965,-0.5207313299179077
1788862705185269000,0.08526904296875,1.5580722093582153,2.3356502056121826,-0.049968358129262924
1788862705195274800,0.095274658203125,0.7338252663612366,2.3096330165863037,0.33026793599128723
1788862705205281000,0.105281005859375,-0.03675162419676781,2.103429079055786,0.5058799386024475
1788862705215287800,0.115287841796875,-0.5687150955200195,1.8052819967269897,0.4821394681930542
1788862705225293800,0.1252939453125,-0.8812010884284973,1.4653215408325195,0.35305100679397583
1788862705235299800,0.1352998046875,-1.024736762046814,0.8335387706756592,0.14839746057987213
1788862705245307000,0.145306884765625,-1.1231181621551514,-0.13144616782665253,-0.08272896707057953
1788862705255313000,0.15531298828125,-1.2040880918502808,-1.0014111995697021,-0.27552053332328796
1788862705265319000,0.16531884765625,-1.2870527505874634,-1.68800687789917,-0.48222389817237854
1788862705275326000,0.175325927734375,-1.3785576820373535,-2.1540780067443848,-0.745833694934845
1788862705285332000,0.18533203125,-1.416351318359375,-1.8850083351135254,-1.2682005167007446
1788862705295338800,0.1953388671875,-1.4029651880264282,-1.1809947490692139,-1.5628983974456787
1788862705305344800,0.2053447265625,-1.2267241477966309,-0.9044345617294312,-1.6444215774536133
1788862705315351000,0.21535107421875,-0.8712177276611328,-0.9958786964416504,-1.80189049243927
1788862705325357800,0.22535791015625,-0.47314730286598206,-1.468852162361145,-1.847106695175171
1788862705335363800,0.23536376953125,-0.13951422274112701,-1.9228243827819824,-1.7738878726959229
1788862705345369900,0.245369873046875,0.11640144139528275,-2.4243128299713135,-1.511833906173706
1788862705355377000,0.255376953125,0.29526519775390625,-2.5783655643463135,-1.0495376586914062
1788862705365383000,0.2653828125,0.43151065707206726,-2.317427635192871,-0.39712631702423096
1788862705375389000,0.275388916015625,0.5097751021385193,-2.183030128479004,0.2953118085861206
1788862705385396000,0.28539599609375,0.5554502010345459,-1.812042236328125,1.0058423280715942
1788862705395402000,0.295402099609375,0.6071817874908447,-1.507196068763733,1.593213438987732
1788862705405408000,0.305407958984375,0.647864818572998,-1.2251688241958618,1.8377151489257812
1788862705415414800,0.315414794921875,0.650495707988739,-1.128758430480957,1.6364490985870361
1788862705425421000,0.325421142578125,0.5720933079719543,-0.9804195761680603,1.16476309299469
1788862705435427800,0.335427734375,0.48073041439056396,-0.8062421679496765,0.5916821956634521
1788862705445433900,0.345433837890625,0.5131831765174866,-0.7244996428489685,0.02388402819633484
1788862705455440000,0.35543994140625,0.6562833189964294,-0.6494959592819214,-0.45369797945022583
1788862705465447000,0.365447021484375,0.862233579158783,-0.5653502345085144,-0.6728697419166565
1788862705475453000,0.375452880859375,1.0525689125061035,-0.43287205696105957,-0.6125220060348511
1788862705485459000,0.385458984375,1.17194402217865,-0.2614944577217102,-0.32723724842071533
1788862705495466000,0.395466064453125,1.1936074495315552,-0.15002012252807617,0.08213641494512558
1788862705505472000,0.405471923828125,1.0929056406021118,-0.19777671992778778,0.48316773772239685
1788862705515478000,0.41547802734375,0.9423915147781372,-0.36234036087989807,0.7666955590248108
1788862705525484800,0.42548486328125,0.8653313517570496,-0.6458735466003418,0.893983781337738
1788862705535491000,0.435490966796875,0.8029393553733826,-0.9289435744285583,0.9570183753967285
1788862705545496800,0.445496826171875,0.7396532893180847,-1.0514391660690308,1.0201973915100098
1788862705555503900,0.45550390625,0.7575393915176392,-1.0383340120315552,1.1443451642990112
1788862705565510000,0.465510009765625,0.8037875294685364,-0.9424338340759277,1.3552703857421875
1788862705575517000,0.475516845703125,0.9556476473808289,-0.8494767546653748,1.5900245904922485
1788862705585523000,0.48552294921875,1.182167887687683,-0.7034638524055481,1.8305929899215698
1788862705595529000,0.495529052734375,1.3885657787322998,-0.38703373074531555,2.041794776916504
1788862705605536000,0.505535888671875,1.5557832717895508,0.6209266781806946,2.038956642150879
1788862705615542000,0.5155419921875,1.701910138130188,1.8289886713027954,1.7658227682113647
1788862705625547800,0.5255478515625,2.033519744873047,2.02545428276062,1.3190008401870728
1788862705635555000,0.53555517578125,2.3398375511169434,1.2315654754638672,0.765404462814331
1788862705645561000,0.54556103515625,2.5179765224456787,0.10103154182434082,0.315267950296402
1788862705655566800,0.55556689453125,2.5388436317443848,-0.63786780834198,0.08927954733371735
1788862705665574000,0.565573974609375,2.4660303592681885,-0.9903422594070435,0.025557290762662888
1788862705675580000,0.575579833984375,2.360703706741333,-1.0222088098526,0.07969029992818832
1788862705685586000,0.5855859375,2.291865110397339,-0.8064680099487305,0.2621232271194458
1788862705695593000,0.595593017578125,2.364469528198242,-0.7875734567642212,0.5696243047714233
1788862705705598700,0.6055986328125,2.5704562664031982,-0.9294882416725159,0.9780176877975464
1788862705715606000,0.61560595703125,2.801849126815796,-0.9099944233894348,1.3947422504425049
1788862705725612000,0.625612060546875,3.0314371585845947,-0.8518104553222656,1.6586973667144775
1788862705735617800,0.63561767578125,3.18060040473938,-1.0646835565567017,1.617337942123413
1788862705745625000,0.645625,3.0704941749572754,-1.6799657344818115,1.2594658136367798
1788862705755630800,0.655630859375,2.7074897289276123,-2.199582815170288,0.6895096898078918
1788862705765636900,0.665636962890625,2.32999587059021,-2.514965295791626,0.11103969812393188
1788862705775644000,0.675643798828125,2.1222896575927734,-2.6678974628448486,-0.3599637746810913
1788862705785650000,0.68564990234375,2.182776927947998,-2.8584144115448,-0.6022003889083862
1788862705795656000,0.695656005859375,2.5016443729400635,-3.189988374710083,-0.5802958607673645
1788862705805663000,0.7056630859375,2.8928136825561523,-3.680753231048584,-0.373251348733902
1788862705815668700,0.715668701171875,3.1515917778015137,-4.315488815307617,-0.07302254438400269
1788862705825675000,0.725675048828125,3.142115831375122,-4.991191864013672,0.20992393791675568
1788862705835681800,0.735681884765625,2.832484245300293,-5.685776233673096,0.33730000257492065
1788862705845687800,0.745687744140625,2.4683048725128174,-6.401594161987305,0.3306756615638733
1788862705855695000,0.755695068359375,2.273669719696045,-7.0536346435546875,0.29679837822914124
1788862705865700900,0.765700927734375,2.362982988357544,-7.466714382171631,0.306375652551651
1788862705875707000,0.775706787109375,2.8114001750946045,-7.584980010986328,0.3878726363182068
1788862705885714000,0.7857138671875,3.4624459743499756,-7.536417007446289,0.5935717225074768
1788862705895719700,0.7957197265625,4.017117500305176,-7.274791240692139,0.796495795249939
1788862705905725700,0.8057255859375,4.316717624664307,-6.385058403015137,0.6949689388275146
1788862705915732700,0.815732666015625,4.386843204498291,-5.035276412963867,0.0701921358704567
1788862705925738800,0.82573876953125,4.394708633422852,-3.770979642868042,-0.8195199370384216
1788862705935744800,0.835744873046875,4.513275146484375,-3.225857734680176,-1.5145671367645264
1788862705945751600,0.84575146484375,4.929853439331055,-3.390685558319092,-1.8021414279937744
1788862705955757800,0.8557578125,5.462331771850586,-3.759380578994751,-1.626886248588562
1788862705965763800,0.865763916015625,5.7645792961120605,-3.996476173400879,-1.0846668481826782
1788862705975770600,0.8757705078125,5.684473037719727,-3.798184394836426,-0.454057514667511
1788862705985776600,0.885776611328125,5.360107898712158,-3.263615846633911,-0.10185126215219498
1788862705995783700,0.89578369140625,4.886915683746338,-2.8703501224517822,-0.2538661062717438
1788862706005789700,0.905789794921875,4.037949085235596,-2.649282693862915,-0.7995160818099976
1788862706015795700,0.915795654296875,3.045354127883911,-2.2102622985839844,-1.2286869287490845
1788862706025802800,0.925802734375,2.479811191558838,-1.224317193031311,-1.4241485595703125
1788862706035808800,0.935808837890625,1.976561427116394,-0.20261968672275543,-1.226784110069275
1788862706045814800,0.945814697265625,1.5187373161315918,1.0646671056747437,-1.307875156402588
1788862706055821600,0.955821533203125,0.9715014696121216,1.7474323511123657,-1.474241018295288
1788862706065827800,0.965827880859375,0.6232742071151733,2.2032313346862793,-1.6061351299285889
1788862706075833900,0.975833740234375,0.6697200536727905,2.0019161701202393,-1.495845913887024
1788862706085840600,0.985840576171875,0.9765319228172302,1.235977053642273,-1.2262122631072998
1788862706095846700,0.9958466796875,1.4492619037628174,0.9575970768928528,-0.34708765149116516
1788862706105853000,1.00585302734375,1.8200682401657104,0.7617396712303162,0.6085373759269714
1788862706115859700,1.015859619140625,1.7310712337493896,0.35523080825805664,1.2417806386947632
1788862706125865700,1.02586572265625,1.321220874786377,-0.19945798814296722,1.8251116275787354
1788862706135872800,1.035872802734375,0.852010190486908,-0.5027129054069519,2.415611743927002
1788862706145878800,1.045878662109375,0.650492250919342,0.03617957606911659,2.9238052368164062
1788862706155884800,1.055884765625,0.44545310735702515,-0.8327528834342957,2.204535484313965
1788862706165891600,1.0658916015625,0.10655813664197922,-1.3882280588150024,0.6689969897270203
1788862706175897900,1.07589794921875,0.23841603100299835,-0.8421480059623718,-0.333947092294693
1788862706185903900,1.08590380859375,0.6831327676773071,0.061354704201221466,-0.9924911260604858
1788862706195910700,1.09591064453125,0.8418151140213013,0.2911681830883026,-1.1427006721496582
1788862706205916700,1.105916748046875,0.723254919052124,0.18766070902347565,-0.6353449821472168
1788862706215923000,1.1159228515625,0.5727466344833374,-0.16458281874656677,0.2383582442998886
1788862706225929700,1.1259296875,0.3750268816947937,-0.4665061831474304,0.9085201025009155
1788862706235935700,1.135935791015625,0.2907831072807312,-0.6400393843650818,1.1594362258911133
1788862706245941800,1.145941650390625,0.3753264844417572,-0.6684616804122925,1.101578712463379
1788862706255948800,1.15594873046875,0.429474413394928,-0.5324175357818604,0.9974648952484131
1788862706265954800,1.165954833984375,0.4866042733192444,-0.42941874265670776,0.9665551781654358
1788862706275961600,1.175961669921875,0.5228325724601746,-0.48676273226737976,0.7313242554664612
1788862706285968000,1.1859677734375,0.5036173462867737,-0.36219921708106995,0.6710039377212524
1788862706295974000,1.195973876953125,0.5211347937583923,-0.38967666029930115,0.69209885597229
1788862706305980700,1.205980712890625,0.4782528579235077,-0.33635565638542175,0.695464551448822
1788862706315986700,1.215986572265625,0.4018654227256775,-0.15840135514736176,0.7601151466369629
1788862706325992700,1.22599267578125,0.33375826478004456,0.02050953544676304,0.9203351736068726
1788862706335999700,1.235999755859375,0.3688163757324219,0.008887501433491707,0.8756705522537231
1788862706346005800,1.246005859375,0.3820728063583374,0.1283654272556305,0.8584507703781128
1788862706356011500,1.256011474609375,0.3004027009010315,0.3135978579521179,1.1182162761688232
1788862706366018800,1.266018798828125,0.31741657853126526,-0.2048993557691574,0.8914335370063782
1788862706376024800,1.27602490234375,0.32450777292251587,-0.2970268726348877,0.6159124374389648
1788862706386031600,1.286031494140625,0.3884369432926178,-0.09899236261844635,0.24068477749824524
1788862706396038000,1.296037841796875,0.3386422395706177,0.15307264029979706,-0.09337016195058823
1788862706406043600,1.306043701171875,0.2342764139175415,0.4632243812084198,-0.19777034223079681
1788862706416050700,1.31605078125,0.12617231905460358,0.721315324306488,-0.14725789427757263
1788862706426057000,1.326056884765625,0.02839701995253563,0.6905496716499329,-0.16280782222747803
1788862706436062700,1.336062744140625,-0.02708248421549797,0.466610848903656,-0.07617039978504181
1788862706446069800,1.34606982421875,-0.10173434764146805,0.2524450421333313,-0.010470218025147915
1788862706456075800,1.35607568359375,-0.22070761024951935,0.10482122004032135,0.08568081259727478
1788862706466081800,1.366081787109375,-0.214625746011734,-0.007393201347440481,0.20429986715316772
1788862706476088800,1.3760888671875,0.012084359303116798,-0.06232888624072075,0.18894994258880615
1788862706486094600,1.386094482421875,0.28402507305145264,-0.09567326307296753,0.07850892096757889
1788862706496102000,1.396101806640625,0.34809884428977966,0.01637258194386959,0.002974484581500292
1788862706506108000,1.40610791015625,0.23791562020778656,0.10005655884742737,-0.055817458778619766
1788862706516113700,1.41611376953125,0.01631132885813713,0.24499644339084625,-0.02960742637515068
1788862706526120700,1.42612060546875,-0.1065666601061821,0.2878432273864746,0.05853414908051491
1788862706536127000,1.436126953125,-0.048711612820625305,0.11305518448352814,0.213261678814888
1788862706546132700,1.4461328125,0.1745414435863495,-0.03181571885943413,0.3051961362361908
1788862706556139800,1.456139892578125,0.4353509247303009,-0.0971585065126419,0.3646690547466278
1788862706566145500,1.4661455078125,0.39143460988998413,-0.3150508999824524,0.5220959782600403
1788862706576151800,1.47615185546875,0.1641484647989273,-0.5268545150756836,0.6551911234855652
1788862706586158800,1.486158935546875,-0.015164838172495365,-0.7833610773086548,0.6924248337745667
1788862706596164600,1.49616455078125,-0.0820397436618805,-0.9424697756767273,0.626731276512146
1788862706606172000,1.506171875,-0.04830548167228699,-0.8813457489013672,0.3596961200237274
1788862706616178000,1.516177978515625,0.039682965725660324,-0.5486577749252319,-0.0505627766251564
1788862706626183700,1.52618359375,0.12735715508460999,-0.1478925198316574,-0.45425909757614136
1788862706636190700,1.536190673828125,0.2925855219364166,0.20736543834209442,-0.8122188448905945
1788862706646196700,1.54619677734375,0.3343486785888672,0.5083034634590149,-1.092360019683838
1788862706656202800,1.55620263671875,0.20197387039661407,0.7455306649208069,-1.18943452835083
1788862706666209800,1.566209716796875,0.026087792590260506,0.7738720178604126,-1.0264533758163452
1788862706676215600,1.576215576171875,-0.1559765487909317,0.6308227181434631,-0.7403417229652405
1788862706686221800,1.586221923828125,-0.2937543988227844,0.44714102149009705,-0.4314800202846527
1788862706696228900,1.596228759765625,-0.4950198531150818,0.19909419119358063,-0.08587922155857086
1788862706706234600,1.606234619140625,-0.6762767434120178,-0.03575213998556137,0.2923887073993683
1788862706716242000,1.616241943359375,-0.8666821122169495,-0.3725631833076477,0.5138375163078308
1788862706726247700,1.62624755859375,-0.8211835622787476,-0.7645325660705566,0.38511547446250916
1788862706736253700,1.636253662109375,-0.4882993698120117,-0.5523281693458557,0.18765245378017426
1788862706746260700,1.6462607421875,-0.4563574194908142,-0.4423918128013611,-0.005540173966437578
1788862706756266800,1.656266845703125,-0.5611991286277771,-0.5300534963607788,-0.036801423877477646
1788862706766272800,1.666272705078125,-0.656248152256012,-0.640478789806366,-0.1540556102991104
1788862706776279800,1.67627978515625,-0.6736156940460205,-0.7274346947669983,-0.37977370619773865
1788862706786285600,1.68628564453125,-0.547008216381073,-0.7502196431159973,-0.5142508149147034
1788862706796292900,1.69629296875,-0.4157801568508148,-0.7837515473365784,-0.6143350601196289
1788862706806298600,1.706298583984375,-0.44285306334495544,-0.9008323550224304,-0.8009832501411438
1788862706816304600,1.7163046875,-0.41299715638160706,-1.0418627262115479,-0.9515218734741211
1788862706826312000,1.72631201171875,-0.3879067301750183,-1.0489027500152588,-1.105820655822754
1788862706836317700,1.736317626953125,-0.3184134066104889,-0.7537350654602051,-1.3376230001449585
1788862706846323700,1.74632373046875,-0.20420187711715698,-0.3575376272201538,-1.68100905418396
1788862706856330800,1.756330810546875,-0.021637119352817535,0.062067631632089615,-2.1392107009887695
1788862706866336800,1.766336669921875,0.2433423548936844,0.399698942899704,-2.605989694595337
1788862706876342800,1.7763427734375,0.3446631133556366,0.4868500828742981,-2.9933555126190186
1788862706886349600,1.786349609375,0.4005309045314789,0.3718095123767853,-3.144021987915039
1788862706896354800,1.796354736328125,0.49923059344291687,0.08609866350889206,-2.9124627113342285
1788862706906362000,1.806362060546875,0.7149338722229004,-0.25633299350738525,-2.4923150539398193
1788862706916368100,1.8163681640625,0.8980370759963989,-0.3972024917602539,-2.2757680416107178
1788862706926374000,1.826373779296875,0.8639166951179504,-0.4094120264053345,-2.1180145740509033
1788862706936381200,1.836381103515625,0.8867175579071045,-0.28324875235557556,-1.986742377281189
1788862706946387000,1.846386962890625,0.9532662630081177,-0.08109378814697266,-1.8575348854064941
1788862706956393000,1.85639306640625,1.0715886354446411,0.1104615330696106,-1.5968787670135498
1788862706966400000,1.86639990234375,0.8801862001419067,0.29602500796318054,-1.2930501699447632
1788862706976406000,1.876406005859375,0.6625398993492126,0.28199946880340576,-1.1771107912063599
1788862706986413000,1.8864130859375,0.6830768585205078,0.04345985874533653,-1.061966061592102
1788862706996419000,1.896419189453125,0.783042311668396,-0.1462850421667099,-1.0524322986602783
1788862707006424800,1.9064248046875,0.5805635452270508,-0.4096660912036896,-1.057397484779358
1788862707016432000,1.91643212890625,0.08424191176891327,-0.8493902087211609,-0.8116116523742676
1788862707026438000,1.92643798828125,0.2952446937561035,-1.3919717073440552,-0.521831214427948
1788862707036444000,1.93644384765625,-0.046713974326848984,-1.3054709434509277,-0.4339788854122162
1788862707046451200,1.946451171875,-0.06888239830732346,-1.0115015506744385,-0.5501866936683655
1788862707056457000,1.95645703125,0.1648709774017334,-0.7032876014709473,-0.7950944900512695
1788862707066463000,1.966462890625,0.3914250135421753,-0.5794596672058105,-1.043962836265564
1788862707076470000,1.976469970703125,0.4379075765609741,-0.7655714750289917,-1.1173204183578491
1788862707086476000,1.98647607421875,0.3727136552333832,-1.123368740081787,-0.974308431148529
1788862707096483000,1.996483154296875,0.2629149854183197,-1.654618263244629,-0.8381242156028748
1788862707106488800,2.00648876953125,-0.08373404294252396,-1.6855202913284302,-0.7730035185813904
1788862707116494800,2.016494873046875,-0.5135560035705566,-1.2709355354309082,-0.712202250957489
1788862707126502100,2.026502197265625,-0.8017774224281311,-0.95339035987854,-0.6099749207496643
1788862707136508000,2.0365078125,-0.9659250378608704,-0.6785646677017212,-0.48984453082084656
1788862707146514000,2.046513916015625,-1.1426239013671875,-0.4524995684623718,-0.49205735325813293
1788862707156521000,2.05652099609375,-1.4438228607177734,-0.3067338466644287,-0.5618436336517334
1788862707166527000,2.06652685546875,-1.5068929195404053,-0.3618740439414978,-0.5811025500297546
1788862707176533000,2.076532958984375,-1.1107126474380493,-0.6871957182884216,-0.3211527168750763
1788862707186539800,2.086539794921875,-0.33263760805130005,-1.0318207740783691,0.11529543250799179
1788862707196546000,2.096546142578125,-0.01341753825545311,-1.262366533279419,0.4148123562335968
1788862707206553000,2.106552978515625,-0.0466519258916378,-1.3648687601089478,0.5054141879081726
1788862707216558800,2.116558837890625,-0.24052844941616058,-1.2112221717834473,0.4902746379375458
1788862707226564900,2.12656494140625,-0.44914478063583374,-1.0896579027175903,0.2318076640367508
1788862707236572000,2.136572021484375,-0.5026077628135681,-0.8420063257217407,0.03893301635980606
1788862707246578000,2.146577880859375,-0.37376800179481506,-0.7242913842201233,0.05632878467440605
1788862707256584000,2.156583984375,-0.37537282705307007,-0.8256409168243408,0.13160410523414612
1788862707266591000,2.166591064453125,-0.27950409054756165,-1.0649690628051758,0.4095105528831482
1788862707276597000,2.176596923828125,0.2903069257736206,-1.1098824739456177,0.8379388451576233
1788862707286603000,2.18660302734375,0.6879605650901794,-1.1718227863311768,0.9603052735328674
1788862707296609800,2.19660986328125,0.9044651389122009,-0.932767927646637,0.8667345643043518
1788862707306616000,2.206615966796875,1.043203592300415,-0.5455917119979858,0.6699029803276062
1788862707316622800,2.216622802734375,1.3105388879776,-0.3046496510505676,0.4647301435470581
1788862707326628900,2.22662890625,1.6610682010650635,-0.11099176853895187,0.27244803309440613
1788862707336635100,2.23663525390625,1.8854213953018188,0.031131021678447723,0.09901872277259827
1788862707346642000,2.246641845703125,1.9680899381637573,-0.0713902935385704,-0.07622472941875458
1788862707356648000,2.25664794921875,1.8389252424240112,-0.3182775676250458,-0.1370641142129898
1788862707366654000,2.266654052734375,1.5990830659866333,-0.4910597503185272,-0.1655426174402237
1788862707376661000,2.276660888671875,1.2596416473388672,-0.5279349088668823,-0.2621772885322571
1788862707386667000,2.2866669921875,0.8509196639060974,-0.524211049079895,-0.29382389783859253
1788862707396673000,2.296673095703125,0.569201648235321,-0.3533064126968384,-0.18655362725257874
1788862707406680000,2.30668017578125,0.3868350684642792,-0.19149699807167053,0.11498064547777176
1788862707416686000,2.31668603515625,0.3017052710056305,-0.24465741217136383,0.5212533473968506
1788862707426692900,2.32669287109375,0.23076903820037842,-0.5310788154602051,0.9579970836639404
1788862707436699000,2.336698974609375,0.12160579115152359,-0.7835174202919006,1.3996386528015137
1788862707446705200,2.346705078125,-0.1022142544388771,-0.9805240035057068,1.6379420757293701
1788862707456712000,2.3567119140625,-0.3852555453777313,-1.1413147449493408,1.6214616298675537
1788862707466718000,2.366718017578125,-0.5640303492546082,-1.3516395092010498,1.4044278860092163
1788862707476724000,2.376723876953125,-0.5854527950286865,-1.180999517440796,1.0963836908340454
1788862707486731000,2.38673095703125,-0.45255547761917114,-0.7247747778892517,0.8156394362449646
1788862707496737000,2.396737060546875,-0.3015691637992859,-0.3305041491985321,0.5741890072822571
1788862707506743000,2.406742919921875,0.03740596026182175,0.07905673235654831,0.32459700107574463
1788862707516750000,2.41675,0.39229056239128113,0.1376476138830185,0.10458339750766754
1788862707526756000,2.426756103515625,0.5286012291908264,-0.0025268071331083775,-0.04038843512535095
1788862707536763000,2.436762939453125,0.5972782969474792,0.11231935024261475,-0.136173814535141
1788862707546769000,2.446768798828125,0.6181351542472839,0.4620075821876526,-0.2494463175535202
1788862707556775200,2.456775146484375,0.7382173538208008,0.7872666120529175,-0.24215936660766602
1788862707566782000,2.466781982421875,0.8857535123825073,0.8431668877601624,-0.09271954745054245
1788862707576788000,2.4767880859375,0.9593806266784668,0.962142288684845,0.05756848677992821
1788862707586794000,2.4867939453125,0.9124759435653687,0.9987778067588806,0.04273680970072746
1788862707596801000,2.496801025390625,0.8707774877548218,0.8920391201972961,-0.2960878610610962
1788862707606807000,2.50680712890625,1.055096983909607,0.12366654723882675,-0.6905028223991394
1788862707616813000,2.51681298828125,1.8287194967269897,0.46056067943573,-0.42100048065185547
1788862707626820000,2.526820068359375,2.5016629695892334,1.0079747438430786,0.45200687646865845
1788862707636826000,2.536826171875,2.8469839096069336,0.6448394656181335,1.1777746677398682
1788862707646833000,2.5468330078125,2.666487455368042,0.014841264113783836,1.4056705236434937
1788862707656839000,2.5568388671875,2.0622549057006836,-0.20000019669532776,1.0032497644424438
1788862707666845200,2.56684521484375,1.412324070930481,-0.4054715931415558,0.3930804431438446
1788862707676852000,2.57685205078125,1.1559903621673584,-0.5381247401237488,0.027637487277388573
1788862707686858000,2.58685791015625,1.2132141590118408,-0.1342448890209198,0.10175193101167679
1788862707696864000,2.596864013671875,1.4289171695709229,0.8102267980575562,0.3520461916923523
1788862707706871000,2.60687109375,1.871579885482788,1.5780526399612427,0.6242913007736206
1788862707716877000,2.616876953125,2.4032280445098877,1.7665023803710938,0.7454015016555786
1788862707726883800,2.6268837890625,2.8446099758148193,1.5104488134384155,0.6552585363388062
1788862707736890000,2.63689013671875,2.9960389137268066,1.025439739227295,0.26225265860557556
1788862707746896100,2.646896240234375,2.8505966663360596,0.5770859718322754,-0.38016277551651
1788862707756903000,2.65690283203125,2.4953768253326416,0.47352415323257446,-0.7214415669441223
1788862707766909000,2.666908935546875,2.008166551589966,0.3894833028316498,-0.6671618223190308
1788862707776915200,2.676915283203125,1.3908978700637817,0.3415890336036682,-0.228391632437706
1788862707786922000,2.686921875,0.6482110023498535,0.10164273530244827,0.36154434084892273
1788862707796928000,2.696927978515625,0.1345444917678833,-0.5643326044082642,0.8780844211578369
1788862707806933800,2.706933837890625,0.044434577226638794,-1.1823433637619019,1.0839468240737915
1788862707816941000,2.716941162109375,-0.04610171541571617,-1.695050597190857,1.181862711906433
1788862707826947000,2.726947021484375,-0.38443395495414734,-1.8097015619277954,0.910739541053772
1788862707836953900,2.736953857421875,-0.7417135238647461,-1.9329947233200073,0.3937331736087799
1788862707846960000,2.746960205078125,-1.1863607168197632,-1.8905538320541382,0.03877243027091026
1788862707856966100,2.756966064453125,-1.526085615158081,-1.939523696899414,-0.221741184592247
1788862707866973000,2.766972900390625,-1.4398298263549805,-1.4468402862548828,-0.9080758690834045
1788862707876979200,2.776979248046875,-1.2741258144378662,-1.3828610181808472,-1.4922573566436768
1788862707886985000,2.78698486328125,-1.004646897315979,-1.6309951543807983,-1.414542317390442
1788862707896992300,2.7969921875,-0.4794195890426636,-0.6371676921844482,-0.6105973124504089
1788862707906998300,2.806998291015625,-0.17432892322540283,-0.034148648381233215,-0.08781453967094421
1788862707917005300,2.81700537109375,-0.41083255410194397,-0.38791656494140625,-0.016288425773382187
1788862707927011300,2.82701123046875,-0.7790931463241577,-0.9090351462364197,-0.276084840297699
1788862707937017000,2.83701708984375,-1.013152003288269,-0.8384706974029541,-0.6080851554870605
1788862707947024400,2.8470244140625,-1.2849587202072144,-0.8151786923408508,-0.8166247606277466
1788862707957030400,2.857030517578125,-1.7250522375106812,-0.864403247833252,-0.7034422755241394
1788862707967036200,2.8670361328125,-2.205766201019287,-0.5926939249038696,-0.48351871967315674
1788862707977043200,2.877043212890625,-2.081145763397217,-0.38159477710723877,-0.7027067542076111
1788862707987049200,2.88704931640625,-1.5502785444259644,0.37516748905181885,-1.0861729383468628
1788862707997056300,2.89705615234375,-1.2307692766189575,1.7353378534317017,-1.1879583597183228
1788862708007062300,2.907062255859375,-0.8122846484184265,2.177948236465454,-1.14094877243042
1788862708017068000,2.917068115234375,-0.34147849678993225,1.6516728401184082,-1.0246515274047852
1788862708027075300,2.927075439453125,-0.18337488174438477,0.8533774614334106,-0.9888634085655212
1788862708037081300,2.937081298828125,-0.2201661914587021,0.5903186798095703,-0.8506216406822205
1788862708047087000,2.947087158203125,-0.42911380529403687,0.5864967703819275,-0.7151631712913513
1788862708057094400,2.957094482421875,-0.6714766621589661,0.6645053029060364,-0.8728845715522766
1788862708067100200,2.96710009765625,-0.7836399674415588,0.774442732334137,-0.8532640337944031
1788862708077106200,2.977106201171875,-0.6067817807197571,0.5352213382720947,-0.6183420419692993
1788862708087113200,2.98711328125,-0.27081045508384705,0.02178945206105709,-0.49775785207748413
1788862708097119200,2.997119140625,-0.11863743513822556,-0.14310522377490997,-0.4882567524909973
1788862708107126300,3.007126220703125,-0.20389240980148315,0.048057541251182556,-0.5088555216789246
1788862708117132300,3.01713232421875,-0.3390531539916992,-0.011349060572683811,-0.4436373710632324
1788862708127138000,3.027137939453125,-0.3888912796974182,-0.29477518796920776,-0.34203749895095825
1788862708137145300,3.037145263671875,-0.2700517177581787,-0.054186806082725525,-0.4231579303741455
1788862708147151000,3.047151123046875,-0.2560275197029114,0.4630560576915741,-0.6757819056510925
1788862708157157000,3.0571572265625,-0.2054215967655182,0.6003124713897705,-0.8324916362762451
1788862708167164400,3.067164306640625,-0.12667006254196167,0.3689250349998474,-0.8788838982582092
1788862708177170200,3.077170166015625,0.03181865066289902,-0.19566963613033295,-0.7669216990470886
1788862708187177200,3.08717724609375,0.0673939511179924,-0.17819610238075256,-0.6052172183990479
1788862708197183200,3.097183349609375,-0.060316868126392365,0.26523247361183167,-0.5514863133430481
1788862708207189200,3.107189208984375,-0.18913929164409637,0.5615869164466858,-0.6071362495422363
1788862708217196300,3.1171962890625,-0.26847752928733826,0.5706967711448669,-0.7014177441596985
1788862708227202300,3.127202392578125,-0.35889744758605957,0.20411238074302673,-0.7166774272918701
1788862708237208000,3.1372080078125,-0.41990458965301514,-0.22655750811100006,-0.6278998851776123
1788862708247215400,3.14721533203125,-0.3563453257083893,-0.5616814494132996,-0.3991450071334839
1788862708257221000,3.15722119140625,-0.11495907604694366,-0.5843747854232788,-0.22835807502269745
1788862708267228200,3.167228271484375,0.12593954801559448,-0.5982874035835266,0.05216573178768158
1788862708277234400,3.177234375,0.2987124025821686,-0.767117977142334,0.31665170192718506
1788862708287240200,3.187240234375,0.3536456823348999,-0.8745110034942627,0.45340901613235474
1788862708297247200,3.197247314453125,0.3104689121246338,-1.0843675136566162,0.5884875059127808
1788862708307253200,3.207253173828125,0.21999627351760864,-0.8612937331199646,0.45245906710624695
1788862708317259300,3.21725927734375,0.1486632376909256,-0.689642071723938,0.4416698217391968
1788862708327266300,3.227266357421875,0.11038988828659058,-0.5727221369743347,0.30229222774505615
1788862708337272000,3.23727197265625,0.02858477272093296,-0.5068637132644653,0.007209177128970623
1788862708347279400,3.247279296875,-0.15828683972358704,-0.37386706471443176,-0.23460452258586884
1788862708357285400,3.257285400390625,-0.3328101933002472,-0.28000688552856445,-0.34763121604919434
1788862708367291100,3.267291015625,-0.3741365671157837,-0.17647622525691986,-0.4063589572906494
1788862708377298400,3.27729833984375,-0.4149117171764374,-0.09095041453838348,-0.4853275418281555
1788862708387304200,3.28730419921875,-0.5318529605865479,-0.0435757078230381,-0.5536658763885498
1788862708397310200,3.297310302734375,-0.6481447219848633,0.002769953804090619,-0.5378333926200867
1788862708407317200,3.307317138671875,-0.647808849811554,0.1812337040901184,-0.5087138414382935
1788862708417323300,3.3173232421875,-0.5792964100837708,0.3514786660671234,-0.5366227030754089
1788862708427330300,3.327330322265625,-0.39947816729545593,0.13359826803207397,-0.5471845269203186
1788862708437336300,3.33733642578125,-0.3290548622608185,-0.17824989557266235,-0.5423458218574524
1788862708447342000,3.347342041015625,-0.29701730608940125,-0.29258206486701965,-0.6110934615135193
1788862708457349400,3.357349365234375,-0.17900383472442627,-0.10973608493804932,-0.7956705093383789
1788862708467355100,3.367355224609375,-0.08612076938152313,0.06594838947057724,-0.9829551577568054
1788862708477361200,3.377361083984375,-0.1750842034816742,-0.026146914809942245,-1.0699609518051147
1788862708487368400,3.387368408203125,-0.28826001286506653,-0.2333213984966278,-1.0814279317855835
1788862708497374200,3.397374267578125,-0.3588239252567291,-0.11469435691833496,-1.0782055854797363
1788862708507380200,3.407380126953125,-0.3692965507507324,0.1647047996520996,-1.045796513557434
1788862708517387300,3.41738720703125,-0.39382773637771606,0.22945955395698547,-0.969466507434845
1788862708527393300,3.427393310546875,-0.4120040535926819,0.2253657430410385,-0.9242718815803528
1788862708537400300,3.437400390625,-0.4304741621017456,-0.08662490546703339,-0.8947914838790894
1788862708547406000,3.447406005859375,-0.5905452966690063,-0.5256246328353882,-0.9195250868797302
1788862708557412000,3.457412109375,-0.6972730755805969,-0.5216570496559143,-0.9574005603790283
1788862708567419400,3.46741943359375,-0.6373567581176758,-0.2496846616268158,-0.9204201698303223
1788862708577425200,3.477425048828125,-0.6130596995353699,-0.011404454708099365,-0.8395791053771973
1788862708587432200,3.48743212890625,-0.7229454517364502,0.014304104261100292,-0.7120967507362366
1788862708597438200,3.497438232421875,-0.839002788066864,0.08381953090429306,-0.5406957268714905
1788862708607444200,3.5074443359375,-0.9042361378669739,0.2728573679924011,-0.4440181851387024
1788862708617451300,3.517451171875,-1.029164433479309,0.2625666558742523,-0.31938013434410095
1788862708627457000,3.52745703125,-1.1549251079559326,0.025546904653310776,-0.07507530599832535
1788862708637463300,3.53746337890625,-1.1837644577026367,-0.3073759377002716,0.1745968461036682
1788862708647470300,3.54747021484375,-1.022966742515564,-0.3985100984573364,0.3231671452522278
1788862708657476000,3.55747607421875,-0.7750283479690552,-0.10623988509178162,0.2852197587490082
1788862708667483400,3.5674833984375,-0.6735126376152039,0.15350353717803955,0.22349168360233307
1788862708677489400,3.577489501953125,-0.7089734077453613,0.0871623307466507,0.30012547969818115
1788862708687495200,3.5874951171875,-0.7167466878890991,0.2365448921918869,0.26049336791038513
1788862708697502200,3.597502197265625,-0.6800536513328552,0.22088630497455597,0.20372329652309418
1788862708707508200,3.60750830078125,-0.5626649260520935,0.22878578305244446,0.14067083597183228
1788862708717514200,3.61751416015625,-0.4968840777873993,0.4049514830112457,0.0592217780649662
1788862708727521300,3.627521240234375,-0.30277585983276367,0.6031455397605896,-0.12642131745815277
1788862708737527000,3.637527099609375,-0.5020668506622314,0.7400889992713928,-0.1738213300704956
1788862708747534300,3.647534423828125,-0.6698505282402039,0.5991870164871216,-0.1425078809261322
1788862708757540400,3.657540283203125,-0.5922143459320068,0.6721461415290833,-0.14631113409996033
1788862708767546000,3.667546142578125,-0.29089707136154175,0.9450520277023315,-0.26106223464012146
1788862708777553400,3.677553466796875,-0.1271105408668518,0.9827921986579895,-0.2550770342350006
1788862708787559200,3.68755908203125,-0.18538397550582886,0.769070565700531,-0.14080531895160675
1788862708797565200,3.697565185546875,-0.2122209072113037,0.6909451484680176,0.08481422066688538
1788862708807572200,3.707572265625,-0.2001943439245224,0.5746923089027405,0.24151729047298431
1788862708817578200,3.717578125,-0.1729603260755539,0.4819493293762207,0.3556414544582367
1788862708827585300,3.727585205078125,0.054853130131959915,0.40033623576164246,0.48295173048973083
1788862708837591300,3.73759130859375,0.37889352440834045,0.2962236702442169,0.5710922479629517
1788862708847597300,3.747597412109375,0.4908807873725891,0.20790286362171173,0.6682848334312439
1788862708857604400,3.757604248046875,0.5395063757896423,0.03779052197933197,0.8294569849967957
1788862708867610000,3.767610107421875,0.8200471997261047,-0.04542314261198044,0.9670909643173218
1788862708877616000,3.7776162109375,1.3862006664276123,-0.022763369604945183,1.0311352014541626
1788862708887623400,3.78762353515625,1.5885283946990967,-0.022707710042595863,1.0206111669540405
1788862708897629700,3.797629638671875,1.603413701057434,-0.15432965755462646,0.9660052061080933
1788862708907636700,3.80763671875,1.480688214302063,-0.3738183379173279,0.9969953298568726
1788862708917642800,3.817642822265625,1.3532719612121582,-0.6898588538169861,1.074662446975708
1788862708927648800,3.827648681640625,1.3900408744812012,-0.8026237487792969,1.2545959949493408
1788862708937655800,3.83765576171875,1.6273916959762573,-0.7298533916473389,1.401262640953064
1788862708947661600,3.84766162109375,1.8101633787155151,-0.7275905013084412,1.3498148918151855
1788862708957667800,3.857667724609375,1.7203290462493896,-0.8405636548995972,1.1568257808685303
1788862708967674600,3.867674560546875,1.5185445547103882,-0.8924812078475952,1.1362946033477783
1788862708977680600,3.8776806640625,1.3896076679229736,-0.5148609280586243,1.151837706565857
1788862708987688000,3.88768798828125,1.5075989961624146,-0.22202853858470917,1.0689311027526855
1788862708997693700,3.897693603515625,1.4839855432510376,-0.006302903406322002,1.2715866565704346
1788862709007699700,3.90769970703125,1.4450151920318604,0.642114520072937,1.3781533241271973
1788862709017706800,3.917706787109375,1.4770509004592896,1.094468355178833,1.458716630935669
1788862709027712800,3.927712646484375,1.7625657320022583,0.7063654065132141,1.7056372165679932
1788862709037719800,3.9377197265625,1.5091617107391357,0.28778359293937683,1.5493628978729248
1788862709047725600,3.9477255859375,1.043866753578186,0.056280847638845444,1.3992698192596436
1788862709057731600,3.957731689453125,0.7956745028495789,-0.1524800807237625,1.345270037651062
1788862709067739000,3.96773876953125,0.753311038017273,-0.0543399378657341,1.4945616722106934
1788862709077744600,3.97774462890625,0.8890116214752197,0.16727261245250702,1.348647117614746
1788862709087750700,3.987750732421875,1.0005285739898682,-0.19469651579856873,0.9731265306472778
1788862709097757700,3.9977578125,0.9260823130607605,-0.44637829065322876,0.8629563450813293
1788862709107763700,4.007763671875,0.7562490701675415,-0.5262209177017212,1.0463781356811523
1788862709117770800,4.017770751953125,0.5965147614479065,-0.5199864506721497,1.2247651815414429
1788862709127776800,4.02777685546875,0.663264811038971,-0.08913759887218475,1.0688029527664185
1788862709137782800,4.03778271484375,0.7835728526115417,0.04213706776499748,0.9531791806221008
1788862709147789800,4.047789794921875,0.7345970273017883,-0.23057062923908234,1.0101337432861328
1788862709157795600,4.057795654296875,0.6812664270401001,-0.45808127522468567,1.07011878490448
1788862709167801900,4.0678017578125,0.6941342949867249,-0.22984625399112701,1.0584642887115479
1788862709177808600,4.07780859375,0.553513765335083,-0.03351108729839325,1.086025595664978
1788862709187814700,4.087814697265625,0.32259881496429443,0.052913814783096313,1.1176810264587402
1788862709197822000,4.097822021484375,0.25218111276626587,0.15983520448207855,1.1044502258300781
1788862709207827700,4.10782763671875,0.207582488656044,0.12482848763465881,1.025146245956421
1788862709217833700,4.117833740234375,0.14065031707286835,0.005550294183194637,0.9119835495948792
1788862709227840800,4.1278408203125,0.10534533113241196,-0.14316648244857788,0.8202301859855652
1788862709237846800,4.1378466796875,0.10434690862894058,-0.4172353148460388,0.7284046411514282
1788862709247853800,4.147853759765625,0.15972548723220825,-0.6327319145202637,0.7243848443031311
1788862709257859600,4.157859619140625,0.21931344270706177,-0.5411599278450012,0.8366562724113464
1788862709267865600,4.167865478515625,0.3843860328197479,-0.23348678648471832,0.9677287936210632
1788862709277873000,4.177872802734375,0.8216230273246765,0.3287035822868347,1.005165457725525
1788862709287878700,4.187878662109375,0.9839229583740234,0.44239258766174316,0.8558563590049744
1788862709297884700,4.197884765625,0.6442234516143799,-0.012034292332828045,0.7742235064506531
1788862709307892000,4.20789208984375,0.15120390057563782,-0.38242965936660767,0.5148055553436279
1788862709317897700,4.217897705078125,-0.10896483063697815,-0.5652018785476685,0.07917977124452591
1788862709327904800,4.22790478515625,-0.28942036628723145,-0.42658141255378723,-0.4931279420852661
1788862709337910500,4.23791064453125,-0.42704612016677856,-0.7342654466629028,-0.9768304228782654
1788862709347916800,4.247916748046875,-0.8262148499488831,-0.9483639001846313,-1.373215913772583
1788862709357923800,4.257923828125,-1.2880815267562866,-0.501723051071167,-1.5557867288589478
1788862709367929600,4.2679296875,-1.4840220212936401,0.5155019760131836,-1.3500354290008545
1788862709377937000,4.27793701171875,-1.7364158630371094,1.0782936811447144,-1.0418227910995483
1788862709387943000,4.28794287109375,-1.74501633644104,1.0279756784439087,-0.6565176844596863
1788862709397948700,4.29794873046875,-1.6402803659439087,0.9998124241828918,-0.47450846433639526
1788862709407955700,4.307955810546875,-1.2440783977508545,0.7674140930175781,-0.3061993420124054
1788862709417961700,4.317961669921875,-1.1792964935302734,0.19499771296977997,-0.042440932244062424
1788862709427968800,4.32796875,-1.2333275079727173,-0.0046325684525072575,0.07090772688388824
1788862709437974800,4.337974853515625,-0.9011793732643127,-0.15045662224292755,0.02321903593838215
1788862709447980500,4.34798046875,-0.14963370561599731,-0.08190605044364929,-0.29587507247924805
1788862709457987800,4.35798779296875,0.47313693165779114,0.5550371408462524,-0.7160398364067078
1788862709467993900,4.367993896484375,0.8202341794967651,1.2269984483718872,-1.1121549606323242
1788862709477999600,4.37799951171875,1.055405616760254,1.1419187784194946,-1.568774700164795
1788862709488007000,4.3880068359375,1.383081316947937,0.4865403473377228,-1.986449956893921
1788862709498012700,4.3980126953125,1.6669691801071167,0.027291275560855865,-2.2973814010620117
1788862709508019700,4.408019775390625,1.8601253032684326,0.08602596074342728,-2.247770071029663
1788862709518025700,4.418025634765625,1.9571613073349,0.34899047017097473,-1.9977953433990479
1788862709528031700,4.42803173828125,1.815924882888794,0.7814716100692749,-1.6710275411605835
1788862709538038800,4.438038818359375,1.1331475973129272,1.0026910305023193,-1.5893617868423462
1788862709548044800,4.448044921875,0.3336956799030304,0.42827650904655457,-1.86920964717865
1788862709558051800,4.4580517578125,-0.0091157341375947,-1.0092954635620117,-1.9780117273330688
1788862709568057900,4.468057861328125,-0.6659007668495178,-0.9546912908554077,-2.1396102905273438
1788862709578063600,4.478063720703125,-1.3113876581192017,-0.08598015457391739,-2.0773160457611084
1788862709588070700,4.488070556640625,-1.6494687795639038,0.5168079733848572,-1.7326505184173584
1788862709598077000,4.498076904296875,-1.760629653930664,0.6435083746910095,-1.343473196029663
1788862709608083700,4.508083740234375,-1.6658072471618652,0.531101405620575,-1.077591896057129
1788862709618089700,4.51808984375,-1.533430576324463,0.21805882453918457,-1.0081154108047485
1788862709628095700,4.528095703125,-1.6058578491210938,-0.047090012580156326,-1.0283455848693848
1788862709638102800,4.538102783203125,-1.8562126159667969,0.04334214702248573,-1.0255197286605835
1788862709648108800,4.54810888671875,-1.9805442094802856,0.35110315680503845,-0.9923604130744934
1788862709658114600,4.558114501953125,-2.0019497871398926,0.38507604598999023,-0.9068332314491272
1788862709668121900,4.568121826171875,-1.9117405414581299,0.06911595165729523,-0.880548357963562
1788862709678127900,4.5781279296875,-1.6183271408081055,-0.45035943388938904,-0.9165292978286743
1788862709688134700,4.588134765625,-1.350302815437317,-0.719374418258667,-0.9212521314620972
1788862709698141000,4.598140869140625,-1.0827510356903076,-0.7051374316215515,-1.044762372970581
1788862709708146700,4.608146728515625,-0.8914644122123718,-0.9157031774520874,-1.1107099056243896
1788862709718153700,4.61815380859375,-0.6288967132568359,-1.2737140655517578,-1.096164584159851
1788862709728159700,4.62815966796875,-0.35971423983573914,-0.9995828866958618,-0.9723946452140808
1788862709738166800,4.638166748046875,-0.5246952176094055,-0.5652381181716919,-0.9956952333450317
1788862709748172800,4.6481728515625,-0.7042422890663147,-0.36795803904533386,-1.325416922569275
1788862709758178800,4.6581787109375,-0.8047172427177429,-0.33614471554756165,-1.6773765087127686
1788862709768185900,4.668185791015625,-0.8353694677352905,-0.46652695536613464,-1.8565316200256348
1788862709778192000,4.67819189453125,-0.8591961860656738,-0.6637321710586548,-1.741225004196167
1788862709788198700,4.68819873046875,-0.8033297657966614,-0.6980882883071899,-1.4502211809158325
1788862709798204700,4.69820458984375,-0.7048513889312744,-0.8523234128952026,-1.362986445426941
1788862709808211000,4.7082109375,-0.6138924360275269,-1.0425546169281006,-1.340859293937683
1788862709818217700,4.7182177734375,-0.5897396802902222,-1.1405307054519653,-1.4222776889801025
1788862709828223700,4.7282236328125,-0.622104823589325,-1.1310919523239136,-1.6543217897415161
1788862709838230800,4.738230712890625,-0.7842548489570618,-0.8817625045776367,-1.8025959730148315
1788862709848236800,4.74823681640625,-0.9136184453964233,-0.25080984830856323,-1.7472480535507202
1788862709858242800,4.758242919921875,-0.7890296578407288,-0.0037499971222132444,-1.3480130434036255
1788862709868249600,4.76824951171875,-0.4489325284957886,-0.4508680999279022,-1.31300687789917
1788862709878255900,4.778255859375,-0.3248225450515747,-0.8217676281929016,-1.5226309299468994
1788862709888262700,4.7882626953125,-0.3977510929107666,-0.6377458572387695,-1.4161497354507446
1788862709898268200,4.79826806640625,-0.44826459884643555,-0.6676142811775208,-1.127618670463562
1788862709908274200,4.808274169921875,-0.4449630677700043,-0.7402253746986389,-0.9455971717834473
1788862709918281200,4.81828125,-0.4070969223976135,-0.1527290940284729,-0.7461362481117249
1788862709928287200,4.828287353515625,-0.47512710094451904,0.23301753401756287,-0.49871525168418884
1788862709938294300,4.838294189453125,-0.5792819857597351,0.3584345877170563,-0.2593061327934265
1788862709948300300,4.84830029296875,-0.5884305238723755,0.2739543318748474,-0.09519708901643753
1788862709958306300,4.858306396484375,-0.552014172077179,0.162586510181427,0.051839228719472885
1788862709968313300,4.868313232421875,-0.507847785949707,0.18819200992584229,0.07756882905960083
1788862709978319000,4.878319091796875,-0.5321555137634277,0.08658415824174881,0.16533410549163818
1788862709988326400,4.888326416015625,-0.5574126839637756,0.14491458237171173,0.30032625794410706
1788862709998332200,4.898332275390625,-0.4558679163455963,0.36087802052497864,0.3756585717201233
1788862710008338200,4.908338134765625,-0.38883402943611145,0.36729705333709717,0.4716375768184662
1788862710018345500,4.918345458984375,-0.4118133783340454,0.3010178804397583,0.577867329120636
1788862710028351200,4.928351318359375,-0.4212369918823242,0.21460337936878204,0.617611825466156
1788862710038358300,4.938358154296875,-0.2604627311229706,0.01601465232670307,0.695989191532135
1788862710048364300,4.9483642578125,0.017420003190636635,0.08000215888023376,0.736783504486084
1788862710058370300,4.958370361328125,0.29085686802864075,0.534153163433075,0.6925430297851562
1788862710068377300,4.96837744140625,0.3707945644855499,0.6763310432434082,0.7115990519523621
1788862710078383000,4.978383056640625,0.36709463596343994,0.5300803780555725,0.8489736914634705
1788862710088390400,4.988390380859375,0.42918625473976135,0.6151286959648132,1.010858178138733
1788862710098396400,4.998396484375,0.5905735492706299,0.8457051515579224,1.1131478548049927
1788862710108402200,5.008402099609375,0.8052480220794678,0.9666494131088257,1.1339303255081177
1788862710118409200,5.0184091796875,0.9842934012413025,1.1274164915084839,1.1410877704620361
1788862710128415200,5.028415283203125,1.016304612159729,1.0164295434951782,1.1399072408676147
1788862710138422300,5.03842236328125,0.9202404022216797,0.5509206652641296,1.1922160387039185
1788862710148428300,5.04842822265625,0.9244162440299988,0.20161114633083344,1.209007740020752
1788862710158434000,5.05843408203125,1.0563009977340698,0.161728173494339,1.1205250024795532
1788862710168441300,5.06844140625,1.0975842475891113,0.2513597905635834,1.0115947723388672
1788862710178447400,5.078447265625,1.112610101699829,0.5271570086479187,0.9737014770507812
1788862710188454100,5.0884541015625,1.1199204921722412,0.6764413118362427,0.9827107191085815
1788862710198460400,5.09846044921875,1.1252638101577759,0.3976016938686371,1.0395691394805908
1788862710208466200,5.108466064453125,1.1855924129486084,0.3487851619720459,1.1172688007354736
1788862710218473200,5.11847314453125,1.304640293121338,0.6195964217185974,1.1864312887191772
1788862710228479200,5.128479248046875,1.3429874181747437,0.5642085075378418,1.2210122346878052
1788862710238486300,5.138486328125,1.2781977653503418,0.17064763605594635,1.2457854747772217
1788862710248492300,5.1484921875,1.2768070697784424,0.0741695687174797,1.2628209590911865
1788862710258498300,5.158498291015625,1.3299705982208252,0.03687040135264397,1.243062973022461
1788862710268505300,5.16850537109375,1.327344536781311,-0.07678639143705368,1.2463737726211548
1788862710278511400,5.178511474609375,1.298436164855957,0.07594216614961624,1.2752482891082764
1788862710288518100,5.18851806640625,1.2361032962799072,0.13956855237483978,1.3254950046539307
1788862710298524200,5.198524169921875,1.1998696327209473,0.08530823886394501,1.4509594440460205
1788862710308530400,5.208530517578125,1.1615811586380005,-0.15510037541389465,1.5796833038330078
1788862710318537200,5.218537109375,1.1318559646606445,-0.31535208225250244,1.6385767459869385
1788862710328543200,5.228543212890625,1.1895816326141357,-0.1516915261745453,1.661798119544983
1788862710338550300,5.23855029296875,1.3315887451171875,0.021106084808707237,1.654101848602295
1788862710348556300,5.248556396484375,1.3998572826385498,0.04842612147331238,1.6273221969604492
1788862710358562300,5.258562255859375,1.3389338254928589,0.07749772071838379,1.610068678855896
1788862710368569000,5.268569091796875,1.2577241659164429,0.27002882957458496,1.5664838552474976
1788862710378575400,5.278575439453125,1.260250210762024,0.5518053770065308,1.5051480531692505
1788862710388582100,5.28858203125,1.1490586996078491,0.6680043935775757,1.5122275352478027
1788862710398588200,5.298588134765625,0.9792912006378174,0.644891083240509,1.5502880811691284
1788862710408594200,5.30859423828125,0.8613454103469849,0.5578323602676392,1.5148206949234009
1788862710418601200,5.318601318359375,0.8739085793495178,0.7645692825317383,1.3946220874786377
1788862710428607200,5.328607177734375,0.8624300956726074,0.8884073495864868,1.2664645910263062
1788862710438614000,5.338614013671875,0.6731051802635193,0.7326608896255493,1.1925022602081299
1788862710448620300,5.348620361328125,0.4553110599517822,0.5715617537498474,1.1373043060302734
1788862710458627300,5.35862744140625,0.3943987190723419,0.5533199310302734,1.0398379564285278
1788862710468633000,5.368633056640625,0.44518065452575684,0.6274423599243164,0.8611448407173157
1788862710478639400,5.378639404296875,0.34338799118995667,0.6084116697311401,0.6305835247039795
1788862710488646100,5.388646240234375,0.08209992945194244,0.4590218961238861,0.37754756212234497
1788862710498652200,5.398652099609375,-0.19601504504680634,0.22470740973949432,0.09533530473709106
1788862710508659500,5.408659423828125,-0.34290117025375366,0.16642892360687256,-0.2221561074256897
1788862710518665200,5.418665283203125,-0.44915488362312317,0.34204337000846863,-0.5101996064186096
1788862710528671200,5.428671142578125,-0.5721338391304016,0.45623597502708435,-0.7251478433609009
1788862710538678300,5.43867822265625,-0.6773771643638611,0.4171200096607208,-0.8574845790863037
1788862710548684300,5.448684326171875,-0.7291519045829773,0.33089935779571533,-0.9411576390266418
1788862710558691300,5.45869140625,-0.6797537803649902,0.1842886209487915,-1.0089508295059204
1788862710568697000,5.468697021484375,-0.6294335722923279,-0.08936876058578491,-1.0261412858963013
1788862710578703000,5.478703125,-0.675451397895813,-0.2767413258552551,-0.9552151560783386
1788862710588710400,5.48871044921875,-0.7393278479576111,-0.22066687047481537,-0.9150251150131226
1788862710598716200,5.498716064453125,-0.7928691506385803,0.05102483555674553,-0.9645031690597534
1788862710608723200,5.50872314453125,-0.9168054461479187,0.4762437641620636,-1.0416499376296997
1788862710618729500,5.5187294921875,-1.0534112453460693,0.8692139387130737,-1.1161720752716064
1788862710628735200,5.5287353515625,-1.098633050918579,1.0408291816711426,-1.1258093118667603
1788862710638742300,5.5387421875,-1.0755722522735596,0.7608523368835449,-1.0038223266601562
1788862710648748000,5.548748046875,-1.0860644578933716,0.1832132339477539,-0.8283551931381226
1788862710658755300,5.55875537109375,-1.0052589178085327,-0.0910143256187439,-0.6799615025520325
1788862710668761300,5.56876123046875,-0.7390879392623901,0.0635153278708458,-0.5989888906478882
1788862710678768000,5.57876806640625,-0.5938894748687744,0.262409508228302,-0.5086233019828796
1788862710688774400,5.5887744140625,-0.6436998844146729,0.3277965188026428,-0.42045000195503235
1788862710698780400,5.598780517578125,-0.6882079839706421,0.3707074820995331,-0.3942357301712036
1788862710708787200,5.608787109375,-0.6536148190498352,0.405083030462265,-0.43894168734550476
1788862710718793200,5.618793212890625,-0.5308555960655212,0.29712435603141785,-0.49816158413887024
1788862710728800300,5.62880029296875,-0.45608338713645935,0.11344800144433975,-0.47021836042404175
1788862710738806300,5.63880615234375,-0.40268248319625854,-0.04141534864902496,-0.44068312644958496
1788862710748812300,5.648812255859375,-0.3311355710029602,-0.19954346120357513,-0.48801228404045105
1788862710758819300,5.6588193359375,-0.3364395201206207,-0.347736120223999,-0.550596296787262
1788862710768825300,5.668825439453125,-0.49567392468452454,-0.47647759318351746,-0.5819904208183289
1788862710778832100,5.67883203125,-0.6791942119598389,-0.5571519136428833,-0.6249166131019592
1788862710788838100,5.688838134765625,-0.7882786393165588,-0.6281715035438538,-0.7001815438270569
1788862710798844400,5.698844482421875,-0.8249801993370056,-0.6886851787567139,-0.7485647797584534
1788862710808851200,5.708851318359375,-0.8552539348602295,-0.7874863147735596,-0.7338561415672302
1788862710818857200,5.718857177734375,-0.9163809418678284,-0.8749756813049316,-0.7099372148513794
1788862710828864300,5.7288642578125,-0.9239230155944824,-0.8766623139381409,-0.715869665145874
1788862710838870300,5.738870361328125,-0.9459971785545349,-0.909610390663147,-0.7656010389328003
1788862710848877300,5.748877197265625,-1.0277245044708252,-1.02496337890625,-0.8635110855102539
1788862710858883000,5.758883056640625,-1.1177326440811157,-1.0905109643936157,-0.9808547496795654
1788862710868889300,5.768889404296875,-1.1790096759796143,-1.1788463592529297,-1.042825698852539
1788862710878896000,5.778896240234375,-1.173305630683899,-1.2943010330200195,-1.08503258228302
1788862710888902100,5.788902099609375,-1.1012698411941528,-1.2261584997177124,-1.1894603967666626
1788862710898909700,5.79890966796875,-1.0922778844833374,-1.1145004034042358,-1.3222330808639526
1788862710908915700,5.808915771484375,-1.1259921789169312,-1.1535292863845825,-1.3953086137771606
1788862710918921700,5.818921630859375,-1.1227778196334839,-1.3674980401992798,-1.3381284475326538
1788862710928928800,5.8289287109375,-1.064352035522461,-1.5311269760131836,-1.0678048133850098
1788862710938934800,5.838934814453125,-1.0821983814239502,-1.3115208148956299,-0.6175588369369507
1788862710948941800,5.84894189453125,-1.2575446367263794,-0.6998632550239563,-0.310746967792511
1788862710958947600,5.858947509765625,-1.389371633529663,-0.3908891975879669,-0.3850100040435791
1788862710968955000,5.868954833984375,-1.3933384418487549,-0.6624748706817627,-0.7420280575752258
1788862710978960600,5.878960693359375,-1.3543630838394165,-1.0665334463119507,-1.0132808685302734
1788862710988966700,5.888966552734375,-1.2942078113555908,-1.1724194288253784,-1.035966157913208
1788862710998974000,5.898973876953125,-1.221846342086792,-1.0491890907287598,-0.9584988355636597
1788862711008979700,5.908979736328125,-1.150195837020874,-1.0729402303695679,-0.974091112613678
1788862711018986800,5.91898681640625,-1.019456148147583,-1.0364394187927246,-1.1625696420669556
1788862711028992800,5.92899267578125,-0.8688525557518005,-0.8653366565704346,-1.3394914865493774
1788862711038998800,5.938998779296875,-0.7578527927398682,-0.6261398196220398,-1.398126482963562
1788862711049005800,5.949005859375,-0.609471321105957,-0.32030797004699707,-1.4280239343643188
1788862711059011600,5.959011474609375,-0.44345200061798096,0.023861125111579895,-1.3919037580490112
1788862711069019000,5.969018798828125,-0.25926247239112854,0.06550577282905579,-1.4052233695983887
1788862711079025000,5.97902490234375,-0.0035217641852796078,-0.15658801794052124,-1.4987934827804565
1788862711089031700,5.98903173828125,0.14448846876621246,-0.2993837893009186,-1.3672306537628174
1788862711099037700,5.99903759765625,0.013761351816356182,-0.19444750249385834,-0.9432194828987122
1788862711109043700,6.009043701171875,-0.17924219369888306,0.2330383062362671,-0.6915947198867798
1788862711119050800,6.01905078125,-0.12790043652057648,0.3421458899974823,-0.640036940574646
1788862711129056800,6.029056884765625,0.05107543617486954,0.2574336528778076,-0.5455213785171509
1788862711139063800,6.039063720703125,0.21788226068019867,0.2592206597328186,-0.3333398699760437
1788862711149069800,6.04906982421875,0.41902095079421997,0.6529160141944885,-0.19915971159934998
1788862711159075800,6.059075927734375,0.3944903314113617,0.8989436030387878,-0.10623136162757874
1788862711169082600,6.06908251953125,0.1732386201620102,0.7127945423126221,0.09213551878929138
1788862711179089000,6.0790888671875,0.23668603599071503,0.473033607006073,0.33085328340530396
1788862711189095700,6.089095703125,0.3606995940208435,0.6084539890289307,0.40855872631073
1788862711199101700,6.099101806640625,0.46748438477516174,0.7310907244682312,0.3148900270462036
1788862711209108700,6.109108642578125,0.5019126534461975,0.8051462769508362,0.3206661641597748
1788862711219114800,6.11911474609375,0.5596444010734558,0.9582898020744324,0.4820936620235443
1788862711229120800,6.129120849609375,0.6659111976623535,1.1125472784042358,0.6141840815544128
1788862711239127600,6.13912744140625,0.8108201622962952,1.2118147611618042,0.6841458678245544
1788862711249133800,6.1491337890625,1.0019395351409912,1.338853359222412,0.7430871725082397
1788862711259140600,6.159140625,1.1634669303894043,1.2933052778244019,0.8096609115600586
1788862711269146600,6.169146728515625,1.266623616218567,1.0432236194610596,0.9147776961326599
1788862711279154000,6.17915380859375,1.3308523893356323,0.7736040949821472,0.9281172156333923
1788862711289159700,6.18915966796875,1.3530213832855225,0.5032886862754822,0.8804815411567688
1788862711299165700,6.199165771484375,1.3099807500839233,0.2283937633037567,0.9392449855804443
1788862711309172700,6.2091728515625,1.2582759857177734,0.06959372758865356,1.0893069505691528
1788862711319178800,6.2191787109375,1.274298906326294,0.20938944816589355,1.2057682275772095
1788862711329185800,6.229185791015625,1.3156521320343018,0.3111474812030792,1.286998987197876
1788862711339191600,6.239191650390625,1.3579535484313965,0.3091447949409485,1.422486424446106
1788862711349197600,6.249197509765625,1.42329740524292,0.3112683892250061,1.5541129112243652
1788862711359204900,6.259204833984375,1.52174973487854,0.4902075231075287,1.5860271453857422
1788862711369210600,6.269210693359375,1.600165605545044,0.8772609829902649,1.52341628074646
1788862711379218000,6.279218017578125,1.615169644355774,1.1931246519088745,1.4392896890640259
1788862711389224000,6.289223876953125,1.618848204612732,1.1408534049987793,1.4642398357391357
1788862711399230700,6.299230712890625,1.648202896118164,0.9183521866798401,1.5428869724273682
1788862711409236700,6.30923681640625,1.7091920375823975,0.9772168397903442,1.5548213720321655
1788862711419242800,6.31924267578125,1.7838982343673706,1.176800012588501,1.5534950494766235
1788862711429249800,6.329249755859375,1.794345736503601,1.1343755722045898,1.522503137588501
1788862711439255800,6.339255859375,1.6466971635818481,0.7243340015411377,1.4760128259658813
1788862711449262800,6.349262939453125,1.437556266784668,0.22904729843139648,1.4306975603103638
1788862711459268900,6.359268798828125,1.3098571300506592,-0.07411816716194153,1.4242886304855347
1788862711469275600,6.369275634765625,1.3507297039031982,-0.1589217334985733,1.4233813285827637
1788862711479281700,6.37928173828125,1.4091086387634277,-0.2665126621723175,1.3927816152572632
1788862711489288000,6.389287841796875,1.3442018032073975,-0.2252006232738495,1.2505674362182617
1788862711499294700,6.399294677734375,1.2614504098892212,0.03965286910533905,1.020122766494751
1788862711509300700,6.40930078125,1.3203089237213135,0.4609662890434265,0.8625637888908386
1788862711519307800,6.419307861328125,1.3542098999023438,0.695086658000946,0.8301600217819214
1788862711529313800,6.429313720703125,1.32631254196167,0.6734974384307861,0.8633837699890137
1788862711539319800,6.43931982421875,1.3019920587539673,0.6806416511535645,0.8763078451156616
1788862711549326600,6.44932666015625,1.324076771736145,0.7992601990699768,0.8794010877609253
1788862711559332900,6.459332763671875,1.3920425176620483,1.0542141199111938,0.8772950768470764
1788862711569339600,6.469339599609375,1.3332127332687378,1.215360403060913,0.8675100803375244
1788862711579345700,6.479345703125,1.1082931756973267,0.9641756415367126,0.8414286971092224
1788862711589353000,6.48935302734375,0.8644950985908508,0.5516538619995117,0.8182879090309143
1788862711599358700,6.499358642578125,0.7467362284660339,0.33159178495407104,0.7506332397460938
1788862711609364700,6.50936474609375,0.6694883108139038,0.24114550650119781,0.6231996417045593
1788862711619371800,6.519371826171875,0.5528120398521423,0.16357135772705078,0.46461641788482666
1788862711629377800,6.529377685546875,0.4066582918167114,-0.015360048040747643,0.30845555663108826
1788862711639384800,6.539384765625,0.2195478081703186,-0.3529343605041504,0.11904676258563995
1788862711649390600,6.549390625,-0.03201998397707939,-0.5977531671524048,-0.14157924056053162
1788862711659398000,6.55939794921875,-0.19930697977542877,-0.35307469964027405,-0.4471338391304016
1788862711669404000,6.56940380859375,-0.28674840927124023,0.03909893333911896,-0.6876659989356995
1788862711679409700,6.57940966796875,-0.428949236869812,0.06545411050319672,-0.8254774212837219
1788862711689416700,6.589416748046875,-0.6136130690574646,-0.11040666699409485,-0.9432615637779236
1788862711699422700,6.599422607421875,-0.6701368093490601,-0.12516483664512634,-1.0637496709823608
1788862711709429800,6.6094296875,-0.6268966794013977,-0.05150952935218811,-1.146758794784546
1788862711719435800,6.619435791015625,-0.6433970928192139,-0.09687621146440506,-1.2123806476593018
1788862711729442800,6.62944287109375,-0.8589290976524353,-0.3237666189670563,-1.303072452545166
1788862711739448800,6.63944873046875,-1.1466623544692993,-0.4148983955383301,-1.3903815746307373
1788862711749454800,6.649454833984375,-1.274216890335083,-0.21643562614917755,-1.363312840461731
1788862711759461600,6.659461669921875,-1.327422857284546,-0.07639597356319427,-1.1296939849853516
1788862711769468000,6.669468017578125,-1.3889961242675781,-0.06542694568634033,-0.8464223742485046
1788862711779474700,6.679474609375,-1.3425037860870361,-0.025231054052710533,-0.6969945430755615
1788862711789480700,6.689480712890625,-1.1835814714431763,-0.020066386088728905,-0.6118495464324951
1788862711799487700,6.69948779296875,-1.071970820426941,-0.14290282130241394,-0.5028495788574219
1788862711809493800,6.70949365234375,-1.0687768459320068,-0.37465721368789673,-0.4583774209022522
1788862711819499800,6.719499755859375,-1.1161731481552124,-0.4993768036365509,-0.5305802226066589
1788862711829506600,6.729506591796875,-1.0856690406799316,-0.479420930147171,-0.6282410025596619
1788862711839512800,6.739512939453125,-1.0832974910736084,-0.544313907623291,-0.664391279220581
1788862711849519600,6.74951953125,-1.1429784297943115,-0.7476257681846619,-0.6675045490264893
1788862711859525600,6.759525634765625,-1.1993907690048218,-0.8582339882850647,-0.6878191232681274
1788862711869533000,6.769532958984375,-1.1890654563903809,-0.8276596069335938,-0.7003093361854553
1788862711879538700,6.77953857421875,-1.2200499773025513,-0.9375740885734558,-0.6672097444534302
1788862711889544700,6.789544677734375,-1.3742270469665527,-1.2331887483596802,-0.6136540770530701
1788862711899551500,6.799551513671875,-1.5610827207565308,-1.4458773136138916,-0.607372522354126
1788862711909557200,6.80955712890625,-1.5636651515960693,-1.357384204864502,-0.6873006224632263
1788862711919564500,6.819564453125,-1.45162034034729,-1.2367557287216187,-0.8107298612594604
1788862711929570600,6.829570556640625,-1.4505865573883057,-1.2055989503860474,-0.9324770569801331
1788862711939577300,6.839577392578125,-1.5360667705535889,-1.2086665630340576,-0.959744393825531
1788862711949583600,6.84958349609375,-1.554866075515747,-1.1737715005874634,-0.8794258236885071
1788862711959589400,6.85958935546875,-1.4944977760314941,-1.0493108034133911,-0.7798196077346802
1788862711969596400,6.869596435546875,-1.3861002922058105,-0.9226140975952148,-0.7678463459014893
1788862711979602400,6.8796025390625,-1.272050142288208,-1.0381885766983032,-0.8326767086982727
1788862711989609500,6.889609375,-1.1214643716812134,-1.4637441635131836,-0.8764896988868713
1788862711999615500,6.899615478515625,-0.9440698027610779,-1.7678478956222534,-0.8533556461334229
1788862712009622300,6.909622314453125,-0.83243727684021,-1.634885311126709,-0.8172785639762878
1788862712019628500,6.919628662109375,-0.8992022275924683,-1.4298408031463623,-0.8485614061355591
1788862712029634600,6.929634521484375,-1.0093880891799927,-1.3854637145996094,-0.9361839294433594
1788862712039641300,6.939641357421875,-0.8636250495910645,-1.7832790613174438,-1.0015454292297363
1788862712049647400,6.9496474609375,-0.7170451879501343,-2.322770118713379,-1.047701120376587
1788862712059654400,6.959654296875,-0.6592053174972534,-2.233668804168701,-1.084959626197815
1788862712069660400,6.969660400390625,-0.6405134201049805,-1.8885905742645264,-1.1049578189849854
1788862712079667500,6.97966748046875,-0.6774029731750488,-1.787621259689331,-1.0135754346847534
1788862712089673500,6.989673583984375,-0.5119181275367737,-1.4716122150421143,-0.8502528071403503
1788862712099679500,6.999679443359375,-0.2669169306755066,-1.1989036798477173,-0.8143472671508789
1788862712109686300,7.009686279296875,-0.14588236808776855,-0.7805666327476501,-0.8394384980201721
1788862712119692300,7.0196923828125,-0.18443721532821655,-0.46305686235427856,-0.9143577218055725
1788862712129699600,7.029699462890625,-0.3417906165122986,-0.27613651752471924,-0.9843506813049316
1788862712139705300,7.039705322265625,-0.4287857115268707,-0.00660570478066802,-0.9834702014923096
1788862712149712400,7.04971240234375,-0.4950334429740906,0.12826502323150635,-0.9784418940544128
1788862712159718400,7.059718505859375,-0.4921489655971527,0.40851107239723206,-0.9271867275238037
1788862712169724400,7.069724365234375,-0.27355697751045227,0.8139970302581787,-0.9703482985496521
1788862712179731500,7.0797314453125,-0.2205347716808319,0.691588819026947,-0.9477324485778809
1788862712189737200,7.0897373046875,-0.320497065782547,0.1155090183019638,-0.8016202449798584
1788862712199744500,7.09974462890625,-0.4727843403816223,-0.5350123047828674,-0.6491724252700806
1788862712209750500,7.10975048828125,-0.4913231134414673,-0.4004954695701599,-0.6318296194076538
1788862712219757300,7.11975732421875,-0.2686980366706848,0.3751800060272217,-0.726625919342041
1788862712229763600,7.129763671875,-0.06035228818655014,0.942114531993866,-0.7664217948913574
1788862712239769300,7.139769287109375,0.021221932023763657,1.3899219036102295,-0.706449568271637
1788862712249776400,7.1497763671875,0.11259019374847412,1.9180541038513184,-0.604769766330719
1788862712259782400,7.159782470703125,0.13399562239646912,2.055589437484741,-0.5220283269882202
1788862712269789400,7.16978955078125,0.15049630403518677,2.0944888591766357,-0.317773699760437
1788862712279795500,7.17979541015625,0.24692828953266144,2.0930371284484863,-0.04580903425812721
1788862712289802200,7.18980224609375,0.40899574756622314,2.1943185329437256,0.20759527385234833
1788862712299808500,7.19980859375,0.5792044997215271,1.9966850280761719,0.41392314434051514
1788862712309814500,7.209814453125,0.7838655114173889,1.8650442361831665,0.6075692772865295
1788862712319821300,7.2198212890625,0.9760637283325195,1.7224124670028687,0.7550173401832581
1788862712329827300,7.229827392578125,1.099599003791809,1.323381781578064,0.922457218170166
1788862712339834400,7.23983447265625,1.1661633253097534,0.8969065546989441,1.1139408349990845
1788862712349840400,7.24984033203125,1.210196614265442,0.5676410794258118,1.3188830614089966
1788862712359847400,7.259847412109375,1.239400863647461,0.32161423563957214,1.4850153923034668
1788862712369853400,7.269853515625,1.2243247032165527,0.0871703252196312,1.5572201013565063
1788862712379860500,7.279860595703125,1.211681842803955,-0.26603007316589355,1.5269641876220703
1788862712389866200,7.2898662109375,1.2558964490890503,-0.2964510917663574,1.478491187095642
1788862712399872300,7.299872314453125,1.2990790605545044,0.12749724090099335,1.414778470993042
1788862712409879600,7.309879638671875,1.286198377609253,0.7437921166419983,1.3435029983520508
1788862712419885300,7.31988525390625,1.266920804977417,1.3121975660324097,1.3303920030593872
1788862712429892400,7.329892333984375,1.3984887599945068,1.6157712936401367,1.4193823337554932
1788862712439898400,7.3398984375,1.5475136041641235,1.556586503982544,1.6405386924743652
1788862712449905400,7.349905517578125,1.6551867723464966,1.2990771532058716,1.829311490058899
1788862712459911400,7.359911376953125,1.6585333347320557,0.7572820782661438,1.9139089584350586
1788862712469917200,7.369917236328125,1.642372488975525,0.22595669329166412,1.954329013824463
1788862712479924500,7.379924560546875,1.6520483493804932,-0.06801393628120422,1.9443012475967407
1788862712489930500,7.389930419921875,1.6349103450775146,-0.14847709238529205,1.8333991765975952
1788862712499937300,7.399937255859375,1.5381797552108765,-0.12805303931236267,1.6785062551498413
1788862712509943600,7.409943603515625,1.2997459173202515,-0.19628030061721802,1.5914994478225708
1788862712519950300,7.419950439453125,1.1030375957489014,0.003582484321668744,1.593139410018921
1788862712529956400,7.429956298828125,1.1460753679275513,0.5216171145439148,1.6094797849655151
1788862712539962600,7.439962646484375,1.2700649499893188,0.8444129824638367,1.6184191703796387
1788862712549969400,7.449969482421875,1.2476155757904053,0.7085806131362915,1.633462905883789
1788862712559975400,7.459975341796875,1.1552581787109375,0.5163366198539734,1.6716758012771606
1788862712569982500,7.469982421875,1.134070634841919,0.7153106927871704,1.6601415872573853
1788862712579988500,7.479988525390625,1.15780770778656,1.1541650295257568,1.5726416110992432
1788862712589995300,7.489995361328125,1.1050240993499756,1.2916685342788696,1.4842262268066406
1788862712600001300,7.500001220703125,0.8028810024261475,0.5933986306190491,1.4620250463485718
1788862712610008600,7.510008544921875,0.5241593718528748,-0.3359982371330261,1.3805824518203735
1788862712620014300,7.520014404296875,0.4680185914039612,-0.437054306268692,1.2334307432174683
1788862712630020400,7.530020263671875,0.5602582693099976,0.13215723633766174,1.1000524759292603
1788862712640027600,7.540027587890625,0.605283796787262,0.6302578449249268,0.9366782307624817
1788862712650033400,7.550033447265625,0.5248728394508362,0.6725802421569824,0.707649827003479
1788862712660040400,7.56004052734375,0.4243680536746979,0.6188951730728149,0.5103269219398499
1788862712670046200,7.570046142578125,0.3999500572681427,0.5407993197441101,0.3198581635951996
1788862712680053500,7.580053466796875,0.31873831152915955,0.28600671887397766,0.08912455290555954
1788862712690059500,7.5900595703125,0.24209599196910858,0.17640991508960724,-0.11313534528017044
1788862712700065300,7.600065185546875,0.10357459634542465,0.11765126883983612,-0.21082594990730286
1788862712710072600,7.610072509765625,-0.10969720035791397,-0.0335712768137455,-0.34815290570259094
1788862712720078600,7.62007861328125,-0.31834256649017334,-0.06925630569458008,-0.5700661540031433
1788862712730085400,7.63008544921875,-0.494815856218338,0.14115498960018158,-0.7613426446914673
1788862712740091400,7.64009130859375,-0.6154589056968689,0.39101970195770264,-0.8237317204475403
1788862712750098400,7.650098388671875,-0.6556199193000793,0.2585567235946655,-0.8025529384613037
1788862712760104400,7.6601044921875,-0.6316594481468201,0.06745254248380661,-0.7200023531913757
1788862712770110500,7.6701103515625,-0.5795925259590149,-0.029928870499134064,-0.5973648428916931
1788862712780117500,7.680117431640625,-0.5993372201919556,-0.13232289254665375,-0.561656653881073
1788862712790123500,7.69012353515625,-0.7157072424888611,-0.1317542940378189,-0.5911224484443665
1788862712800130300,7.70013037109375,-0.904374361038208,0.07826337963342667,-0.6310014128684998
1788862712810136300,7.71013623046875,-1.134351372718811,0.33706218004226685,-0.8006452918052673
1788862712820143400,7.720143310546875,-1.4144974946975708,0.4817458689212799,-1.0625221729278564
1788862712830149400,7.7301494140625,-1.7040356397628784,0.5034689903259277,-1.394582986831665
1788862712840156400,7.740156494140625,-1.8663244247436523,0.5752260088920593,-1.640331506729126
1788862712850162400,7.750162353515625,-1.8805227279663086,0.5688669085502625,-1.709290862083435
1788862712860168400,7.76016845703125,-1.8195744752883911,0.08335534483194351,-1.6552469730377197
1788862712870175500,7.770175537109375,-1.695942997932434,-0.40172773599624634,-1.4991117715835571
1788862712880181200,7.78018115234375,-1.5144555568695068,-0.1006842628121376,-1.2754453420639038
1788862712890188500,7.7901884765625,-1.31002938747406,0.6341210007667542,-0.8987641334533691
1788862712900194300,7.8001943359375,-1.042903184890747,0.979396641254425,-0.26869669556617737
1788862712910201600,7.81020166015625,-0.6965625882148743,0.5251814723014832,0.19678683578968048
1788862712920207600,7.82020751953125,-0.5263633728027344,-0.2864413559436798,-0.14826776087284088
1788862712930214400,7.83021435546875,-0.8162527680397034,-0.7288190126419067,-0.851407527923584
1788862712940220700,7.840220703125,-1.4181050062179565,-0.32226139307022095,-1.0472356081008911
1788862712950226400,7.850226318359375,-1.6771416664123535,0.41697806119918823,-0.7842586040496826
1788862712960233500,7.8602333984375,-1.4366811513900757,0.44337478280067444,-0.6622751355171204
1788862712970239500,7.870239501953125,-1.1166807413101196,-0.2608497142791748,-0.818376362323761
1788862712980246500,7.88024658203125,-0.9050611853599548,-0.806717574596405,-0.8457483053207397
1788862712990252500,7.89025244140625,-0.7842633724212646,-0.9528537392616272,-0.6059410572052002
1788862713000259300,7.90025927734375,-0.7538370490074158,-1.0526466369628906,-0.4360705316066742
1788862713010265600,7.910265625,-0.8067308664321899,-1.1340746879577637,-0.3791228234767914
1788862713020271600,7.920271728515625,-0.8708938956260681,-1.0901516675949097,-0.3786242604255676
1788862713030278400,7.9302783203125,-0.9111478328704834,-1.1744508743286133,-0.47559183835983276
1788862713040284400,7.940284423828125,-0.9182342290878296,-1.5123908519744873,-0.5978540778160095
1788862713050291500,7.95029150390625,-0.9527719616889954,-1.903335690498352,-0.6123435497283936
1788862713060297500,7.96029736328125,-0.9750045537948608,-2.227168083190918,-0.5298939347267151
1788862713070304500,7.970304443359375,-0.982607901096344,-2.499427556991577,-0.5338564515113831
1788862713080310500,7.980310546875,-1.0179635286331177,-2.6846539974212646,-0.71668541431427
1788862713090317600,7.990317626953125,-1.0754706859588623,-2.667816162109375,-0.9324358105659485
1788862713100323300,8.0003232421875,-1.0884594917297363,-2.508419990539551,-1.052038311958313
1788862713110329300,8.010329345703125,-1.054709553718567,-2.402684211730957,-1.1048253774642944
1788862713120336600,8.020336669921875,-1.0287343263626099,-2.195852756500244,-1.2310686111450195
1788862713130342400,8.03034228515625,-0.9515567421913147,-1.6947765350341797,-1.3959587812423706
1788862713140349400,8.040349365234375,-0.7477344274520874,-0.730800986289978,-1.56099534034729
1788862713150355500,8.05035546875,-0.4338585138320923,0.5042772889137268,-1.7051783800125122
1788862713160362500,8.060362548828126,-0.1799125075340271,1.116510033607483,-1.7594293355941772
1788862713170368500,8.070368408203125,-0.21588516235351562,0.824953019618988,-1.6807332038879395
1788862713180374300,8.080374267578126,-0.4655250906944275,0.3829367160797119,-1.5574965476989746
1788862713190381600,8.090381591796875,-0.7560003399848938,0.03766828402876854,-1.4000428915023804
1788862713200387600,8.1003876953125,-0.9753683805465698,-0.42275071144104004,-1.121655821800232
1788862713210394400,8.110394287109376,-0.8095943331718445,0.01968555338680744,-0.7843952178955078
1788862713220400600,8.120400634765625,-0.507331132888794,0.8418060541152954,-0.6822251677513123
1788862713230407400,8.130407470703124,-0.4531725347042084,0.9414505958557129,-0.7404088377952576
1788862713240413400,8.140413330078125,-0.4785971939563751,0.5955837368965149,-0.6643966436386108
1788862713250420500,8.15042041015625,-0.4521791934967041,0.345230370759964,-0.3891538679599762
1788862713260426500,8.160426513671876,-0.3041284680366516,0.43822741508483887,-0.026134930551052094
1788862713270432500,8.1704326171875,-0.119780994951725,0.6345641613006592,0.24347896873950958
1788862713280439300,8.180439208984374,0.12561199069023132,0.6265288591384888,0.31809940934181213
1788862713290445600,8.190445556640626,0.4028814136981964,0.6177244782447815,0.25986698269844055
1788862713300452400,8.200452392578125,0.5049529075622559,0.6651095747947693,0.23621226847171783
1788862713310458400,8.210458251953124,0.5247681736946106,0.4647602140903473,0.24327923357486725
1788862713320465700,8.220465576171875,0.5238525867462158,0.15928898751735687,0.4283742606639862
1788862713330471400,8.230471435546875,0.6179207563400269,0.05834772810339928,0.7316840887069702
1788862713340477400,8.2404775390625,0.7965781092643738,-0.2292449027299881,0.8845316767692566
1788862713350484700,8.250484619140625,0.9965780377388,-0.3657846450805664,0.8637264966964722
1788862713360490500,8.260490478515624,1.0778387784957886,-0.4011511504650116,0.8833268284797668
1788862713370497500,8.27049755859375,1.1001944541931152,-0.17516808211803436,0.9169623255729675
1788862713380503300,8.28050341796875,1.1519449949264526,0.1613055318593979,0.9330291748046875
1788862713390510600,8.290510498046874,1.226199746131897,0.321024626493454,1.0324207544326782
1788862713400516600,8.3005166015625,1.2954941987991333,0.5467661619186401,1.1510860919952393
1788862713410523400,8.3105234375,1.3704499006271362,1.000694990158081,1.1749060153961182
1788862713420529700,8.32052978515625,1.4743232727050781,1.5034644603729248,1.1000839471817017
1788862713430535700,8.33053564453125,1.5841065645217896,1.831695318222046,0.9629553556442261
1788862713440542500,8.34054248046875,1.7281827926635742,1.8860163688659668,0.9590772986412048
1788862713450548500,8.350548583984375,1.8712410926818848,1.8193632364273071,1.0449687242507935
1788862713460555500,8.360555419921875,1.9103522300720215,1.3737295866012573,1.1204187870025635
1788862713470561500,8.3705615234375,1.812868595123291,0.7774164080619812,1.157679557800293
1788862713480568300,8.380568359375,1.763384461402893,0.5863327383995056,1.1803457736968994
1788862713490574600,8.39057470703125,1.8114094734191895,0.7585870623588562,1.1762924194335938
1788862713500580600,8.40058056640625,1.7818723917007446,0.6702356338500977,1.1988850831985474
1788862713510587400,8.41058740234375,1.6319999694824219,0.3074566125869751,1.2700912952423096
1788862713520593400,8.420593505859374,1.5313860177993774,0.32030609250068665,1.3685129880905151
1788862713530600400,8.430600341796875,1.6197073459625244,0.6155955195426941,1.449515700340271
1788862713540606500,8.4406064453125,1.7883858680725098,0.6996763348579407,1.496659517288208
1788862713550613500,8.450613525390626,1.9585161209106445,0.6312363147735596,1.5599173307418823
1788862713560619500,8.46061962890625,2.0973029136657715,0.6024491190910339,1.6863609552383423
1788862713570626600,8.47062646484375,2.152377128601074,0.60505610704422,1.812864899635315
1788862713580632600,8.480632568359376,2.109182596206665,0.5170071721076965,1.899997591972351
1788862713590638300,8.490638427734375,1.991898775100708,0.35539379715919495,1.9630181789398193
1788862713600645600,8.500645751953124,1.8051472902297974,0.13033457100391388,1.9128361940383911
1788862713610651400,8.5106513671875,1.5872812271118164,-0.05162084847688675,1.7046399116516113
1788862713620658400,8.520658447265625,1.4018083810806274,-0.03892609477043152,1.4637457132339478
1788862713630664700,8.530664794921876,1.2686750888824463,0.22101520001888275,1.2999200820922852
1788862713640671500,8.54067138671875,1.133759617805481,0.40754592418670654,1.2380114793777466
1788862713650677500,8.550677490234374,1.0286136865615845,0.3625568747520447,1.1740449666976929
1788862713660684500,8.5606845703125,1.0100123882293701,0.4117995500564575,1.0108941793441772
1788862713670690600,8.570690673828125,0.9089962840080261,0.11078616976737976,0.8039531707763672
1788862713680696600,8.580696533203126,0.6776679754257202,-0.2540692985057831,0.6548697352409363
1788862713690703400,8.590703369140625,0.5728214383125305,-0.3714151084423065,0.5902499556541443
1788862713700709600,8.600709716796874,0.5515702366828918,-0.2647877335548401,0.4957008361816406
1788862713710716400,8.61071630859375,0.45471131801605225,-0.29702261090278625,0.28541868925094604
1788862713720722400,8.620722412109375,0.24888625741004944,-0.4267180263996124,0.10837467759847641
1788862713730729500,8.6307294921875,0.06076614558696747,-0.5454390645027161,0.013251090422272682
1788862713740735500,8.640735595703125,-0.07461857795715332,-0.5864858627319336,-0.06039196997880936
1788862713750742500,8.650742431640625,-0.1699882447719574,-0.415799617767334,-0.13494530320167542
1788862713760748300,8.660748291015626,-0.2822234332561493,-0.18788281083106995,-0.2521185278892517
1788862713770754600,8.670754638671875,-0.41533833742141724,-0.10699862241744995,-0.3930293023586273
1788862713780761600,8.68076171875,-0.5436526536941528,-0.05344191938638687,-0.47829174995422363
1788862713790767400,8.690767333984375,-0.69666987657547,0.0409274585545063,-0.5016980171203613
1788862713800774700,8.700774658203125,-0.9006747007369995,0.06988241523504257,-0.564114511013031
1788862713810780400,8.710780517578126,-1.1291658878326416,0.16668511927127838,-0.7473722100257874
1788862713820787500,8.720787353515625,-1.2308944463729858,0.5487262010574341,-1.0047649145126343
1788862713830793500,8.73079345703125,-1.2712924480438232,0.8013414144515991,-1.2266687154769897
1788862713840800500,8.740800537109376,-1.3999049663543701,0.6897594928741455,-1.4356569051742554
1788862713850806500,8.750806640625,-1.6102409362792969,0.48531797528266907,-1.5905977487564087
1788862713860812500,8.7608125,-1.752200722694397,0.3261573314666748,-1.6000412702560425
1788862713870819600,8.770819580078125,-1.7734684944152832,0.25129562616348267,-1.491490364074707
1788862713880825600,8.78082568359375,-1.7225559949874878,0.3268742561340332,-1.3585277795791626
1788862713890832400,8.790832275390626,-1.7122567892074585,0.37909963726997375,-1.2535078525543213
1788862713900838100,8.800838134765625,-1.7679839134216309,0.35942766070365906,-1.181349277496338
1788862713910845000,8.810844970703124,-1.7756229639053345,0.3387277126312256,-1.0726743936538696
1788862713920851200,8.820851318359376,-1.744295358657837,0.20054028928279877,-1.030861496925354
1788862713930858200,8.830858154296875,-1.7341517210006714,-0.03393825888633728,-1.096625804901123
1788862713940864000,8.840864013671874,-1.7659817934036255,-0.27376309037208557,-1.1405261754989624
1788862713950870000,8.8508701171875,-1.8093430995941162,-0.3966112732887268,-1.0719883441925049
1788862713960877000,8.860876953125,-1.7603355646133423,-0.28774282336235046,-0.9420372843742371
1788862713970883000,8.870883056640626,-1.631316065788269,-0.15038417279720306,-0.763306200504303
1788862713980890000,8.88089013671875,-1.5203746557235718,-0.21350109577178955,-0.647726833820343
1788862713990896000,8.890896240234374,-1.3719217777252197,-0.4579713046550751,-0.6748726963996887
1788862714000903200,8.900903076171875,-1.257722020149231,-1.0043305158615112,-0.7590344548225403
1788862714010909200,8.9109091796875,-1.2187485694885254,-1.609549880027771,-0.7832282185554504
1788862714020916200,8.920916259765624,-1.1887216567993164,-1.88593327999115,-0.7583298087120056
1788862714030922200,8.930922119140625,-1.163503646850586,-1.8312742710113525,-0.7526229023933411
1788862714040928000,8.940927978515624,-1.1298907995224,-1.6541311740875244,-0.7930225133895874
1788862714050935000,8.95093505859375,-1.115900993347168,-1.5582882165908813,-0.9008342027664185
1788862714060941300,8.96094140625,-1.0969281196594238,-1.4041788578033447,-0.9927771687507629
1788862714070948000,8.970947998046874,-1.036420226097107,-1.0169695615768433,-1.004512071609497
1788862714080954000,8.9809541015625,-0.942032516002655,-0.6840888261795044,-0.9428743124008179
1788862714090961200,8.990961181640625,-0.9059900641441345,-0.6617127060890198,-0.8766154050827026
1788862714100967200,9.00096728515625,-0.9332528710365295,-0.9274485111236572,-0.8501721024513245
1788862714110973200,9.01097314453125,-0.9892575740814209,-1.1176801919937134,-0.8514096736907959
1788862714120980000,9.02097998046875,-1.1313188076019287,-1.187041163444519,-0.8382147550582886
1788862714130986200,9.030986328125,-1.3067049980163574,-1.3409298658370972,-0.8527268767356873
1788862714140993000,9.040992919921875,-1.281459093093872,-1.6083319187164307,-0.9012954831123352
1788862714150999000,9.0509990234375,-1.1785997152328491,-1.7781050205230713,-1.022885799407959
1788862714161006300,9.06100634765625,-1.10456120967865,-1.7443307638168335,-1.1707700490951538
1788862714171012000,9.07101220703125,-1.1041582822799683,-1.3625805377960205,-1.322721242904663
1788862714181019100,9.08101904296875,-1.1301454305648804,-0.7361336946487427,-1.4043657779693604
1788862714191025000,9.09102490234375,-1.0995880365371704,-0.33471113443374634,-1.4199748039245605
1788862714201031200,9.10103125,-1.0334854125976562,-0.2898363471031189,-1.3668514490127563
1788862714211038200,9.1110380859375,-0.8904311060905457,-0.2552829086780548,-1.2800246477127075
1788862714221044000,9.1210439453125,-0.6953369975090027,-0.32450324296951294,-1.101930856704712
1788862714231051300,9.13105126953125,-0.48960378766059875,-0.5036170482635498,-0.856637716293335
1788862714241057300,9.141057373046875,-0.4695715010166168,-0.5103325247764587,-0.6514081358909607
1788862714251064000,9.15106396484375,-0.5493813753128052,-0.46749475598335266,-0.5713276863098145
1788862714261070000,9.161070068359376,-0.5687716007232666,-0.35649287700653076,-0.5558416843414307
1788862714271077000,9.1710771484375,-0.4566706120967865,-0.27442437410354614,-0.4486164152622223
1788862714281083100,9.181083251953124,-0.29056763648986816,-0.013792511075735092,-0.36404159665107727
1788862714291089200,9.191089111328125,0.019590744748711586,0.6214600801467896,-0.3230164051055908
1788862714301096200,9.20109619140625,0.19899725914001465,0.9123585224151611,-0.23942111432552338
1788862714311102200,9.211102294921876,0.26951321959495544,1.2438336610794067,0.029332855716347694
1788862714321109000,9.22110888671875,0.31765198707580566,1.3006380796432495,0.3007963299751282
1788862714331115000,9.231114990234374,0.4610600173473358,1.2052377462387085,0.47879135608673096
1788862714341122000,9.2411220703125,0.5593301653862,0.95915687084198,0.5523521304130554
1788862714351128000,9.251128173828125,0.6746753454208374,0.8459608554840088,0.6494781374931335
1788862714361135000,9.261135009765624,0.7833001017570496,0.6581690907478333,0.7443758845329285
1788862714371141000,9.27114111328125,0.8253368139266968,0.2917303740978241,0.8880302309989929
1788862714381147100,9.281147216796874,0.9249935746192932,0.28407272696495056,1.0503674745559692
1788862714391154200,9.291154296875,1.032082200050354,0.39224714040756226,1.0868810415267944
1788862714401160000,9.301159912109375,1.0735793113708496,0.2631847560405731,1.112481951713562
1788862714411167200,9.311167236328124,1.1262390613555908,0.32832542061805725,1.1897584199905396
1788862714421173000,9.321173095703125,1.2643178701400757,0.5672376155853271,1.2375386953353882
1788862714431180300,9.33118017578125,1.4195241928100586,0.5142287015914917,1.317323088645935
1788862714441186300,9.341186279296876,1.5221267938613892,0.49777036905288696,1.42852783203125
1788862714451193000,9.351193115234375,1.5713646411895752,0.568381130695343,1.4539752006530762
1788862714461199000,9.36119921875,1.5934220552444458,0.5144487023353577,1.4650821685791016
1788862714471205000,9.371205078125,1.6481361389160156,0.5317898392677307,1.5417060852050781
1788862714481212200,9.381212158203125,1.748465895652771,0.642646312713623,1.5472185611724854
1788862714491218200,9.39121826171875,1.8429383039474487,0.6471116542816162,1.5208388566970825
1788862714501225200,9.40122509765625,1.8688788414001465,0.6951447129249573,1.5404253005981445
1788862714511231200,9.411231201171875,1.8616033792495728,0.7654407024383545,1.5588337182998657
1788862714521238000,9.421238037109376,1.8346245288848877,0.632632851600647,1.5703904628753662
1788862714531244000,9.431244140625,1.7849065065383911,0.44169166684150696,1.5857456922531128
1788862714541251000,9.4412509765625,1.7254998683929443,0.37988927960395813,1.5610483884811401
1788862714551257000,9.451257080078125,1.668656826019287,0.4051826596260071,1.5284637212753296
1788862714561263000,9.46126318359375,1.613508939743042,0.509719967842102,1.5396021604537964
1788862714571270100,9.471270263671874,1.5596885681152344,0.5947940945625305,1.5914299488067627
1788862714581276200,9.481276123046875,1.491295576095581,0.6648560166358948,1.6324740648269653
1788862714591283200,9.491283203125,1.4184092283248901,0.6082103252410889,1.663964033126831
1788862714601289000,9.5012890625,1.3682812452316284,0.396819531917572,1.7309513092041016
1788862714611296300,9.511296142578125,1.3338607549667358,0.26556670665740967,1.833704948425293
1788862714621302000,9.521302001953124,1.3230949640274048,0.3506626784801483,1.8981918096542358
1788862714631309000,9.53130908203125,1.3614451885223389,0.669547975063324,1.878867268562317
1788862714641315300,9.5413154296875,1.3943432569503784,0.7393403649330139,1.8051813840866089
1788862714651321000,9.551321044921876,1.3121376037597656,0.4168528914451599,1.7110391855239868
1788862714661328100,9.561328125,1.1369194984436035,0.14181704819202423,1.634723424911499
1788862714671334100,9.571334228515624,0.9467484354972839,0.008990298956632614,1.5680007934570312
1788862714681341200,9.581341064453126,0.7613399624824524,-0.07504761219024658,1.436448335647583
1788862714691347200,9.59134716796875,0.6191521883010864,0.05880259722471237,1.2037628889083862
1788862714701354000,9.60135400390625,0.4466366171836853,0.28949758410453796,0.948020339012146
1788862714711360300,9.6113603515625,0.21211625635623932,0.4251156151294708,0.7389070987701416
1788862714721367000,9.621366943359375,0.09204630553722382,0.33749228715896606,0.5243897438049316
1788862714731373000,9.631373046875,0.09035279601812363,0.1974499523639679,0.2968958616256714
1788862714741379000,9.641379150390625,0.08917328715324402,0.178237646818161,0.10509898513555527
1788862714751386000,9.65138623046875,0.04098391905426979,0.05549894645810127,0.015838617458939552
1788862714761392000,9.66139208984375,-0.05932217836380005,-0.19629228115081787,-0.012349610216915607
1788862714771399000,9.67139892578125,-0.17760008573532104,-0.30730560421943665,-0.038188133388757706
1788862714781405200,9.6814052734375,-0.25498753786087036,-0.2766385078430176,-0.09486658871173859
1788862714791412200,9.691412109375,-0.3253021836280823,-0.32635921239852905,-0.1836172342300415
1788862714801418000,9.70141796875,-0.43270668387413025,-0.3953438699245453,-0.2724432349205017
1788862714811425300,9.71142529296875,-0.5267796516418457,-0.3758455216884613,-0.35117214918136597
1788862714821431000,9.72143115234375,-0.5840522646903992,-0.16055744886398315,-0.40168485045433044
1788862714831437000,9.73143701171875,-0.6415813565254211,-0.0522160679101944,-0.4291748106479645
1788862714841444000,9.741444091796875,-0.79753577709198,-0.19249115884304047,-0.4750831723213196
1788862714851450000,9.7514501953125,-0.976708173751831,-0.09106945246458054,-0.5773317813873291
1788862714861457200,9.76145703125,-1.0153403282165527,0.2363952249288559,-0.6655548214912415
1788862714871463200,9.771463134765625,-1.0308347940444946,0.4914562702178955,-0.693755030632019
1788862714881470200,9.78147021484375,-1.118206262588501,0.6504526138305664,-0.723335862159729
1788862714891476200,9.791476318359376,-1.228654146194458,0.5935800075531006,-0.8243855237960815
1788862714901483000,9.80148291015625,-1.2707488536834717,0.5795280933380127,-0.9459452033042908
1788862714911489000,9.811489013671874,-1.2240761518478394,0.5738065242767334,-0.9903092384338379
1788862714921495300,9.821495361328125,-1.2363173961639404,0.26229047775268555,-0.9418684840202332
1788862714931502000,9.831502197265625,-1.2852420806884766,0.11486746370792389,-0.8457696437835693
1788862714941508000,9.841508056640626,-1.2502076625823975,0.27857276797294617,-0.7783759236335754
1788862714951515100,9.85151513671875,-1.222968578338623,0.4461958706378937,-0.7415137887001038
1788862714961521200,9.861521240234374,-1.3162508010864258,0.44891759753227234,-0.7835914492607117
1788862714971528000,9.87152783203125,-1.5329018831253052,0.3665119409561157,-0.8705282211303711
1788862714981534000,9.881533935546875,-1.654847264289856,0.25442641973495483,-0.9565570950508118
1788862714991541200,9.891541259765624,-1.6364938020706177,0.1181735098361969,-1.0055936574935913
1788862715001547000,9.901547119140625,-1.560306429862976,-0.0914875715970993,-0.9790898561477661
1788862715011553000,9.911552978515624,-1.455190896987915,-0.19733650982379913,-0.8952889442443848
1788862715021560300,9.921560302734376,-1.324676275253296,-0.1774139255285263,-0.8498144149780273
1788862715031566000,9.931566162109375,-1.2814795970916748,-0.404181569814682,-0.8796865940093994
1788862715041573000,9.941572998046874,-1.3333216905593872,-0.7737953066825867,-0.9551970362663269
1788862715051579100,9.9515791015625,-1.351637363433838,-0.7438954710960388,-1.0157328844070435
1788862715061586200,9.961586181640625,-1.3065332174301147,-0.38256922364234924,-1.0389108657836914
1788862715071592200,9.97159228515625,-1.2368558645248413,-0.11445387452840805,-1.059941053390503
1788862715081599200,9.98159912109375,-1.190178394317627,-0.3160543739795685,-1.0811622142791748
1788862715091605200,9.991605224609375,-1.1769827604293823,-0.590337872505188,-1.1046541929244995
1788862715101611300,10.001611328125,-1.1243005990982056,-0.6094838380813599,-1.0845774412155151
1788862715111618000,10.0116181640625,-1.1029436588287354,-0.5413817763328552,-1.0704631805419922
1788862715121624300,10.021624267578124,-1.1519553661346436,-0.4888943135738373,-1.1118183135986328
1788862715131631000,10.031631103515625,-1.1436982154846191,-0.4559861719608307,-1.0965912342071533
1788862715141637000,10.04163720703125,-1.0647696256637573,-0.6826283931732178,-1.0431638956069946
1788862715151644200,10.05164404296875,-0.9850286841392517,-1.0870301723480225,-1.08048415184021
1788862715161650200,10.061650146484375,-0.9917536973953247,-1.4411773681640625,-1.1157160997390747
1788862715171657000,10.071656982421874,-0.9471186399459839,-1.5574193000793457,-1.094460129737854
1788862715181663000,10.0816630859375,-0.7923058867454529,-1.4042669534683228,-1.1079412698745728
1788862715191669200,10.091669189453125,-0.720657229423523,-1.512642502784729,-1.1590993404388428
1788862715201676000,10.101676025390624,-0.6614900827407837,-1.6282193660736084,-1.0955989360809326
1788862715211682000,10.11168212890625,-0.5696581602096558,-1.569075345993042,-0.9995400309562683
1788862715221689300,10.121689453125,-0.5094454288482666,-1.3325427770614624,-1.0600155591964722
1788862715231695000,10.131695068359376,-0.5297613143920898,-1.0867822170257568,-1.183969497680664
1788862715241702100,10.1417021484375,-0.5509569048881531,-1.1303659677505493,-1.1740732192993164
1788862715251708000,10.1517080078125,-0.4727736711502075,-1.2380577325820923,-1.1200461387634277
1788862715261715200,10.161715087890625,-0.3131882846355438,-1.1829782724380493,-1.0842537879943848
1788862715271721200,10.17172119140625,-0.2465224266052246,-0.9690593481063843,-1.055460810661316
1788862715281727000,10.18172705078125,-0.24191142618656158,-0.5647760629653931,-1.0801304578781128
1788862715291734300,10.191734375,-0.22319845855236053,-0.3536864221096039,-1.0939499139785767
1788862715301740300,10.201740234375,-0.20340585708618164,-0.431272029876709,-0.879267156124115
1788862715311747000,10.2117470703125,-0.0989590734243393,-0.2648977041244507,-0.5922998189926147
1788862715321753000,10.221753173828125,0.006226470693945885,-0.1832696944475174,-0.42217016220092773
1788862715331760000,10.231760009765624,0.03825657442212105,-0.03946778178215027,-0.2928619682788849
1788862715341766100,10.24176611328125,0.1072516217827797,0.09934869408607483,-0.19097395241260529
1788862715351773000,10.25177294921875,0.17969892919063568,0.07831637561321259,-0.11103250831365585
1788862715361779200,10.261779296875,0.2270858734846115,0.2821480631828308,-0.09552519023418427
1788862715371785200,10.27178515625,0.2532660961151123,0.38054680824279785,-0.08598601073026657
1788862715381792000,10.2817919921875,0.23488840460777283,0.3484778106212616,0.05013613775372505
1788862715391798000,10.291798095703125,0.33333268761634827,0.7162020206451416,0.19827021658420563
1788862715401805000,10.30180517578125,0.5251654982566833,1.0110224485397339,0.2614355981349945
1788862715411811000,10.31181103515625,0.6919947266578674,1.1142029762268066,0.32527902722358704
1788862715421818000,10.321818115234375,0.7928174734115601,0.9825562238693237,0.4914554953575134
1788862715431824100,10.33182421875,0.8770710825920105,0.9301526546478271,0.7073989510536194
1788862715441831200,10.3418310546875,1.0047001838684082,1.0168920755386353,0.8323792219161987
1788862715451837200,10.351837158203125,1.1563879251480103,0.8958756923675537,0.8593443036079407
1788862715461843000,10.361843017578124,1.236804723739624,0.7559414505958557,0.944275975227356
1788862715471850200,10.371850341796875,1.244179368019104,0.947569727897644,1.0357744693756104
1788862715481856000,10.38185595703125,1.232096791267395,1.108354926109314,1.0744071006774902
1788862715491863000,10.391863037109376,1.2873483896255493,1.097741961479187,1.182928442955017
1788862715501869300,10.401869384765625,1.3642889261245728,0.9979360103607178,1.3157466650009155
1788862715511876000,10.4118759765625,1.3964588642120361,0.9742040038108826,1.3453309535980225
1788862715521882000,10.421882080078126,1.4386646747589111,1.1386216878890991,1.3238728046417236
1788862715531889200,10.43188916015625,1.5253068208694458,1.2108300924301147,1.295836091041565
1788862715541895200,10.441895263671874,1.6131600141525269,1.0767732858657837,1.3462327718734741
1788862715551901200,10.451901123046875,1.6989859342575073,0.9648129343986511,1.3818272352218628
1788862715561908000,10.461907958984375,1.7730892896652222,0.9755646586418152,1.4014378786087036
1788862715571914200,10.471914306640626,1.851264476776123,0.9143636226654053,1.4667937755584717
1788862715581921000,10.481921142578125,1.9451725482940674,0.7732993960380554,1.5246224403381348
1788862715591927000,10.491927001953124,1.9915193319320679,0.6781489253044128,1.507132887840271
1788862715601934000,10.50193408203125,2.0002830028533936,0.6057125329971313,1.492472529411316
1788862715611940000,10.511940185546875,2.017258405685425,0.6036983728408813,1.4965428113937378
1788862715621947100,10.521947021484374,2.000643014907837,0.4189080595970154,1.5298912525177002
1788862715631953200,10.531953125,1.9169793128967285,0.1613963544368744,1.540748119354248
1788862715641959200,10.541959228515625,1.8205928802490234,0.19186104834079742,1.5198644399642944
1788862715651966200,10.55196630859375,1.8253670930862427,0.39442506432533264,1.5058516263961792
1788862715661972000,10.561971923828125,1.8149921894073486,0.3491111099720001,1.5464625358581543
1788862715671979300,10.571979248046874,1.7300711870193481,0.23536698520183563,1.5531091690063477
1788862715681985000,10.581985107421875,1.6759510040283203,0.3485284149646759,1.4919520616531372
1788862715691992000,10.591991943359375,1.6559343338012695,0.5058426856994629,1.384148359298706
1788862715701998300,10.601998291015626,1.5562461614608765,0.3912409842014313,1.264130711555481
1788862715712005000,10.612005126953125,1.3586139678955078,0.2561438977718353,1.1569187641143799
1788862715722011100,10.62201123046875,1.1624058485031128,0.2847427725791931,1.0486100912094116
1788862715732017200,10.63201708984375,0.9661615490913391,0.3398723602294922,0.9313135743141174
1788862715742024200,10.642024169921875,0.824135422706604,0.4681605398654938,0.7808889150619507
1788862715752030200,10.6520302734375,0.7616696357727051,0.5949757695198059,0.64249187707901
1788862715762037000,10.662037109375,0.6943289637565613,0.6596157550811768,0.5131663680076599
1788862715772043300,10.672043212890625,0.5707148909568787,0.4009349048137665,0.43462443351745605
1788862715782050000,10.682050048828126,0.43491604924201965,0.041487522423267365,0.3427389860153198
1788862715792056000,10.69205615234375,0.343176007270813,-0.02237854339182377,0.17465196549892426
1788862715802063000,10.70206298828125,0.19652371108531952,-0.08199819922447205,-0.00021917815320193768
1788862715812069000,10.712069091796875,-0.029893184080719948,-0.07101425528526306,-0.15529344975948334
1788862715822075100,10.7220751953125,-0.16663213074207306,0.005216333549469709,-0.3144061267375946
1788862715832082000,10.73208203125,-0.20550255477428436,0.13102538883686066,-0.44771599769592285
1788862715842088200,10.742088134765625,-0.24453863501548767,0.08677776902914047,-0.5126622319221497
1788862715852095200,10.75209521484375,-0.31125935912132263,-0.1410636454820633,-0.539243757724762
1788862715862101000,10.76210107421875,-0.39820703864097595,-0.26499173045158386,-0.5245378017425537
1788862715872108300,10.7721083984375,-0.512113094329834,-0.2554096579551697,-0.5083713531494141
1788862715882114000,10.782114013671874,-0.6124396920204163,-0.031729698181152344,-0.5208644866943359
1788862715892121000,10.79212109375,-0.6865648031234741,0.3247346878051758,-0.5439687371253967
1788862715902127000,10.802127197265625,-0.7971312403678894,0.22218327224254608,-0.5663073658943176
1788862715912133000,10.812133056640626,-0.9275987148284912,-0.001967010786756873,-0.6329737305641174
1788862715922140200,10.82214013671875,-0.9476792216300964,-0.12631505727767944,-0.7144526243209839
1788862715932146200,10.832146240234374,-0.9104205369949341,-0.05534102022647858,-0.7589215636253357
1788862715942153200,10.8421533203125,-0.8593735694885254,0.1172344833612442,-0.7297878861427307
1788862715952159200,10.8521591796875,-0.8485856652259827,0.10977789759635925,-0.6492842435836792
1788862715962166000,10.862166015625,-0.9365231990814209,0.05766409635543823,-0.5488181114196777
1788862715972172000,10.872172119140625,-1.014512062072754,0.03308338299393654,-0.5056272149085999
1788862715982179000,10.882178955078125,-1.0996274948120117,-0.06176163628697395,-0.6094106435775757
1788862715992185000,10.89218505859375,-1.1686526536941528,-0.013937653042376041,-0.7763205170631409
1788862716002191000,10.902191162109375,-1.2287318706512451,0.005598230753093958,-0.8887855410575867
1788862716012198100,10.9121982421875,-1.334660530090332,-0.22046473622322083,-0.9113348126411438
1788862716022204200,10.9222041015625,-1.392586350440979,-0.40454134345054626,-0.9144490957260132
1788862716032211000,10.9322109375,-1.360288381576538,-0.3265429735183716,-0.9257256984710693
1788862716042217000,10.942217041015626,-1.33562433719635,-0.2135263979434967,-0.9518982172012329
1788862716052224300,10.952224365234375,-1.3678743839263916,-0.16423527896404266,-1.0219931602478027
1788862716062230000,10.96222998046875,-1.3806098699569702,-0.13808436691761017,-1.1463054418563843
1788862716072237000,10.972237060546876,-1.3811699151992798,-0.22218912839889526,-1.1843605041503906
1788862716082243300,10.982243408203125,-1.363913655281067,-0.5224853157997131,-1.1746971607208252
1788862716092249000,10.9922490234375,-1.3292031288146973,-0.9591233730316162,-1.2319117784500122
1788862716102256000,11.002256103515625,-1.3082493543624878,-1.2187190055847168,-1.3279790878295898
1788862716112262000,11.012261962890625,-1.2604570388793945,-1.2079541683197021,-1.3513432741165161
1788862716122269200,11.022269287109374,-1.285668969154358,-1.2723393440246582,-1.3133299350738525
1788862716132275200,11.032275146484375,-1.3806862831115723,-1.5065680742263794,-1.2918328046798706
1788862716142282000,11.042281982421875,-1.463478684425354,-1.4872710704803467,-1.345887541770935
1788862716152288300,11.052288330078126,-1.502402901649475,-1.1291821002960205,-1.4141281843185425
1788862716162295000,11.062294921875,-1.5034769773483276,-0.8210866451263428,-1.4576274156570435
1788862716172301000,11.072301025390624,-1.5247478485107422,-0.883610188961029,-1.4766253232955933
1788862716182307000,11.08230712890625,-1.5046069622039795,-1.1283230781555176,-1.4627225399017334
1788862716192314000,11.092314208984375,-1.3575668334960938,-1.3657331466674805,-1.3810104131698608
1788862716202320100,11.102320068359376,-1.2444146871566772,-1.510184645652771,-1.2960931062698364
1788862716212327000,11.112326904296875,-1.2441108226776123,-1.5786014795303345,-1.1905437707901
1788862716222333200,11.122333251953124,-1.242422103881836,-1.5222994089126587,-1.1284064054489136
1788862716232340200,11.13234033203125,-1.201677680015564,-1.446142315864563,-1.175384521484375
1788862716242346000,11.142345947265625,-1.1431703567504883,-1.3045628070831299,-1.2261712551116943
1788862716252353300,11.152353271484374,-1.080870509147644,-1.1249498128890991,-1.2424708604812622
1788862716262359000,11.162359130859375,-1.034026861190796,-1.1464972496032715,-1.2180925607681274
1788862716272366000,11.172365966796875,-0.9244236946105957,-1.1541171073913574,-1.2168965339660645
1788862716282372400,11.182372314453126,-0.8739964365959167,-1.153550624847412,-1.1232044696807861
1788862716292378000,11.192378173828125,-0.8321377038955688,-1.0548343658447266,-0.9855392575263977
1788862716302385200,11.20238525390625,-0.7744438052177429,-0.7811309695243835,-0.9091019630432129
1788862716312391200,11.21239111328125,-0.7214764356613159,-0.6985114812850952,-0.8169222474098206
1788862716322398200,11.222398193359375,-0.6356552839279175,-0.731626033782959,-0.6741414070129395
1788862716332404200,11.232404296875,-0.5211862325668335,-0.7964063286781311,-0.5308851599693298
1788862716342411000,11.242410888671875,-0.4723893702030182,-0.6474855542182922,-0.41036009788513184
1788862716352417300,11.252417236328125,-0.43373680114746094,-0.43786361813545227,-0.28509271144866943
1788862716362424000,11.262424072265626,-0.32046908140182495,-0.24342916905879974,-0.1746666133403778
1788862716372430000,11.27243017578125,-0.16836291551589966,0.008414790034294128,-0.15033385157585144
1788862716382436000,11.28243603515625,-0.08341526240110397,0.24869024753570557,-0.15176156163215637
1788862716392443100,11.292443115234375,-0.015634354203939438,0.6409541368484497,-0.023331953212618828
1788862716402449200,11.30244921875,0.14163649082183838,0.9524707794189453,0.16430744528770447
1788862716412456000,11.3124560546875,0.27368560433387756,0.8701178431510925,0.35412025451660156
1788862716422462200,11.322462158203125,0.34186944365501404,0.691213071346283,0.5303693413734436
1788862716432469200,11.33246923828125,0.42127159237861633,0.6768040657043457,0.6923283934593201
1788862716442475000,11.34247509765625,0.4728650152683258,0.46734854578971863,0.8299914598464966
1788862716452481000,11.35248095703125,0.5579809546470642,0.39164233207702637,0.9314925074577332
1788862716462488000,11.362488037109374,0.6131651401519775,0.32996752858161926,1.0231926441192627
1788862716472494000,11.372494140625,0.63053959608078,0.21656052768230438,1.0734461545944214
1788862716482501000,11.382501220703125,0.7091598510742188,0.3355407118797302,1.1047292947769165
1788862716492507100,11.392507080078126,0.814489483833313,0.4090578258037567,1.1792930364608765
1788862716502514200,11.40251416015625,0.8913895487785339,0.36622220277786255,1.320242166519165
1788862716512520200,11.412520263671874,0.9683413505554199,0.46585318446159363,1.4539154767990112
1788862716522527200,11.42252734375,1.0756350755691528,0.7254765033721924,1.4717211723327637
1788862716532533200,11.432533203125,1.2075622081756592,0.9707461595535278,1.4200317859649658
1788862716542539000,11.4425390625,1.354192852973938,1.0161861181259155,1.4144847393035889
1788862716552546000,11.452546142578125,1.424345850944519,0.6637452244758606,1.4929393529891968
1788862716562552300,11.46255224609375,1.3939261436462402,0.4119420051574707,1.607536792755127
1788862716572559000,11.47255908203125,1.398124098777771,0.4541427195072174,1.6336541175842285
1788862716582565000,11.482565185546875,1.4122424125671387,0.48013439774513245,1.5508534908294678
1788862716592572200,11.492572265625,1.3976181745529175,0.5955187678337097,1.4888378381729126
1788862716602578200,11.502578125,1.360542893409729,0.7663677334785461,1.4742833375930786
1788862716612585000,11.5125849609375,1.3328239917755127,0.9738527536392212,1.493237853050232
1788862716622591000,11.522591064453126,1.3264912366867065,1.0980639457702637,1.5474646091461182
1788862716632597200,11.53259716796875,1.327211856842041,0.9693568348884583,1.7161364555358887
1788862716642604000,11.54260400390625,1.3911913633346558,0.9514992237091064,1.883405089378357
1788862716652610000,11.552610107421875,1.5024100542068481,0.9232164621353149,1.954744815826416
1788862716662617000,11.5626171875,1.5833091735839844,0.8838884830474854,1.9618146419525146
1788862716672623000,11.572623046875,1.6033686399459839,0.8114590644836426,2.0142605304718018
1788862716682630100,11.582630126953125,1.6031832695007324,0.6850459575653076,2.0701591968536377
1788862716692636000,11.592635986328125,1.6206189393997192,0.6346033215522766,2.0441644191741943
1788862716702643200,11.602643310546876,1.6444028615951538,0.6215980648994446,1.927922010421753
1788862716712649200,11.612649169921875,1.6624854803085327,0.5281450748443604,1.7594107389450073
1788862716722655000,11.622655029296874,1.6526986360549927,0.4411523640155792,1.5623828172683716
1788862716732662300,11.632662353515625,1.5715276002883911,0.35862791538238525,1.3466711044311523
1788862716742668000,11.64266796875,1.406988263130188,0.30648961663246155,1.1368781328201294
1788862716752675000,11.652675048828126,1.2106493711471558,0.3331814110279083,0.9397611021995544
1788862716762681000,11.66268115234375,1.0722906589508057,0.4087859094142914,0.7490878105163574
1788862716772688100,11.672688232421875,0.9725478291511536,0.46659380197525024,0.5766990184783936
1788862716782694100,11.682694091796876,0.893612265586853,0.443932443857193,0.44937700033187866
1788862716792701000,11.692700927734375,0.8324759006500244,0.285828560590744,0.3563362658023834
1788862716802707200,11.702707275390624,0.7716479897499084,0.12634941935539246,0.27659058570861816
1788862716812713200,11.712713134765625,0.6705040335655212,0.06352304667234421,0.2182585597038269
1788862716822720000,11.722719970703125,0.5198679566383362,0.027881965041160583,0.17106522619724274
1788862716832726000,11.73272607421875,0.3391708731651306,0.0461089052259922,0.08873599767684937
1788862716842733000,11.742733154296875,0.15764155983924866,0.15686099231243134,-0.02676902897655964
1788862716852739000,11.752739013671874,0.009581254795193672,0.24999119341373444,-0.15256743133068085
1788862716862746000,11.76274609375,-0.12430304288864136,0.18906712532043457,-0.22568851709365845
1788862716872752000,11.772752197265625,-0.2197672426700592,-0.011228686198592186,-0.22402536869049072
1788862716882759200,11.78275927734375,-0.3340567946434021,-0.14663630723953247,-0.21987085044384003
1788862716892765000,11.792764892578125,-0.49260464310646057,-0.1217472106218338,-0.28026413917541504
1788862716902771500,11.802771484375,-0.5871375203132629,-0.1848854273557663,-0.38011670112609863
1788862716912778500,11.812778564453126,-0.7124341726303101,-0.4427265524864197,-0.44666537642478943
1788862716922784500,11.822784423828125,-0.8365654945373535,-0.5553540587425232,-0.44582754373550415
1788862716932791600,11.83279150390625,-0.8344568014144897,-0.5187749862670898,-0.42612147331237793
1788862716942797300,11.84279736328125,-0.7478500008583069,-0.5077037215232849,-0.408855676651001
1788862716952804600,11.8528046875,-0.6552993059158325,-0.46898558735847473,-0.3722481429576874
1788862716962810600,11.862810546875,-0.6196789741516113,-0.41724249720573425,-0.313475102186203
1788862716972817400,11.8728173828125,-0.6771068572998047,-0.43673285841941833,-0.2531920373439789
1788862716982823700,11.88282373046875,-0.7773077487945557,-0.4382559061050415,-0.2201206535100937
1788862716992829400,11.892829345703126,-0.8921784162521362,-0.3308892548084259,-0.2199811041355133
1788862717002836500,11.90283642578125,-1.0110464096069336,-0.16783933341503143,-0.22748349606990814
1788862717012842500,11.912842529296874,-1.123901128768921,-0.07959096878767014,-0.2531595528125763
1788862717022849500,11.922849609375,-1.2295430898666382,-0.06736759096384048,-0.3015561103820801
1788862717032855600,11.93285546875,-1.3178468942642212,-0.030412234365940094,-0.3892289698123932
1788862717042862300,11.9428623046875,-1.4004160165786743,0.02353488653898239,-0.5539132952690125
1788862717052868600,11.95286865234375,-1.5047760009765625,0.056403886526823044,-0.7038588523864746
1788862717062875400,11.96287548828125,-1.6318250894546509,0.052315134555101395,-0.7333762645721436
1788862717072881400,11.97288134765625,-1.706761360168457,0.02911394275724888,-0.6972408890724182
1788862717082887400,11.982887451171875,-1.6822993755340576,0.15505589544773102,-0.6953047513961792
1788862717092894500,11.99289453125,-1.631531834602356,0.18204569816589355,-0.758608341217041
1788862717102900500,12.002900390625,-1.633091688156128,-0.29500100016593933,-0.8575570583343506
1788862717112907500,12.012907470703125,-1.6761062145233154,-0.7833107709884644,-0.9072250127792358
1788862717122913500,12.02291357421875,-1.6942417621612549,-0.9044968485832214,-0.8852123618125916
1788862717132920600,12.032920654296875,-1.7090953588485718,-0.7997166514396667,-0.8810783624649048
1788862717142926300,12.04292626953125,-1.7225764989852905,-0.6235120296478271,-0.9590919017791748
1788862717152933600,12.05293359375,-1.741450309753418,-0.6188874840736389,-1.067551851272583
1788862717162939600,12.062939697265625,-1.7535314559936523,-0.8171393275260925,-1.1230072975158691
1788862717172945400,12.0729453125,-1.7044880390167236,-1.113121747970581,-1.09072744846344
1788862717182952400,12.082952392578125,-1.6334657669067383,-1.3758057355880737,-0.9933140873908997
1788862717192958700,12.092958740234375,-1.58377206325531,-1.5009278059005737,-0.8966155052185059
1788862717202965500,12.102965576171876,-1.556357979774475,-1.3878459930419922,-0.8712174296379089
1788862717212971500,12.112971435546875,-1.5374218225479126,-1.1324317455291748,-0.844457745552063
1788862717222978600,12.122978515625,-1.5473370552062988,-1.1302471160888672,-0.8172703385353088
1788862717232984600,12.132984619140625,-1.5253676176071167,-1.2613463401794434,-0.8283591866493225
1788862717242991400,12.142991455078125,-1.499739170074463,-1.232686996459961,-0.8672853112220764
1788862717252997400,12.152997314453126,-1.4332733154296875,-1.2094322443008423,-0.8655979037284851
1788862717263003600,12.163003662109375,-1.343799352645874,-1.4769811630249023,-0.7693547606468201
1788862717273010400,12.173010498046875,-1.2456477880477905,-1.8635739088058472,-0.6392849087715149
1788862717283016400,12.183016357421875,-1.1962072849273682,-1.7730181217193604,-0.58892422914505
1788862717293023500,12.1930234375,-1.2445199489593506,-1.317057490348816,-0.6283313035964966
1788862717303029500,12.203029541015624,-1.3019946813583374,-0.9419385194778442,-0.6764042973518372
1788862717313036500,12.21303662109375,-1.300445795059204,-0.8036554455757141,-0.6562004685401917
1788862717323042300,12.223042236328125,-1.2567193508148193,-0.7897779941558838,-0.6507508754730225
1788862717333049600,12.233049560546876,-1.2170089483261108,-0.7033528089523315,-0.6685985922813416
1788862717343055400,12.243055419921875,-1.153930425643921,-0.4566602110862732,-0.6863391995429993
1788862717353061400,12.253061279296874,-1.048267126083374,-0.1767156571149826,-0.6086401343345642
1788862717363068700,12.263068603515626,-0.9926341772079468,-0.16862337291240692,-0.4313380718231201
1788862717373074400,12.273074462890625,-0.9068750739097595,0.010806575417518616,-0.3206765651702881
1788862717383081500,12.28308154296875,-0.8490703701972961,0.08281552046537399,-0.31109902262687683
1788862717393087500,12.29308740234375,-0.8016173243522644,0.10789317637681961,-0.26401621103286743
1788862717403094500,12.303094482421875,-0.7356058359146118,0.19702039659023285,-0.12713052332401276
1788862717413100500,12.3131005859375,-0.5795304775238037,0.40924128890037537,-0.0694243460893631
1788862717423106300,12.323106201171875,-0.4321431517601013,0.5510154962539673,-0.07180547714233398
1788862717433113600,12.333113525390624,-0.2809206247329712,0.4816342890262604,-0.04038763791322708
1788862717443119600,12.34311962890625,-0.14737294614315033,0.49644145369529724,0.0588928759098053
1788862717453126400,12.35312646484375,-0.02786465361714363,0.6322256326675415,0.19158221781253815
1788862717463132400,12.36313232421875,0.15127554535865784,0.9079962372779846,0.2921282649040222
1788862717473139500,12.373139404296875,0.3634072244167328,1.1128345727920532,0.2835685908794403
1788862717483145500,12.3831455078125,0.5715386271476746,1.2890082597732544,0.22157926857471466
1788862717493152300,12.39315234375,0.7343267202377319,1.1209958791732788,0.2726088762283325
1788862717503158500,12.403158447265625,0.8275882005691528,0.9457918405532837,0.46865031123161316
1788862717513164500,12.41316455078125,0.9142221808433533,1.0568701028823853,0.6431304812431335
1788862717523171300,12.42317138671875,1.0359119176864624,1.2228604555130005,0.7046372890472412
1788862717533177600,12.433177490234375,1.2137072086334229,1.3503848314285278,0.7150094509124756
1788862717543184600,12.4431845703125,1.377271294593811,1.2994428873062134,0.7117353677749634
1788862717553190400,12.4531904296875,1.5125348567962646,1.339379906654358,0.7782688736915588
1788862717563197700,12.46319775390625,1.6473169326782227,1.3399420976638794,0.903630793094635
1788862717573203500,12.473203369140625,1.7305023670196533,1.1996568441390991,0.989399254322052
1788862717583210500,12.48321044921875,1.7841371297836304,1.1459558010101318,1.057761788368225
1788862717593216500,12.493216552734374,1.9306432008743286,1.3368884325027466,1.013973593711853
1788862717603222500,12.503222412109375,2.0408482551574707,1.2095816135406494,0.980664849281311
1788862717613229600,12.5132294921875,2.056788921356201,0.6777353286743164,1.0894064903259277
1788862717623235600,12.523235595703126,2.033848762512207,0.3311459720134735,1.3041504621505737
