time,seconds_elapsed,z,y,x
1788861949111109600,0.058109619140625,0.7541723539054394,-0.15330898574888704,0.18583879795372485
1788861949121152000,0.068152099609375,0.5056763165086507,-0.0060804889574646945,0.25730164046920834
1788861949131193900,0.07819384765625,0.3712690151065588,0.20023791018426418,0.3429062594532966
1788861949141235700,0.088235595703125,0.18961480936110017,0.2977776624381542,0.37883258222863075
1788861949151277800,0.09827783203125,-0.08458207100331783,0.25199323186278344,0.35039369259923697
1788861949161319700,0.108319580078125,-0.1840501609712839,0.17112433616369963,0.30140162508897483
1788861949171362000,0.118362060546875,-0.19611293920874595,0.14396628012508153,0.2980670738387853
1788861949181404000,0.12840380859375,-0.1768611262500286,0.18844868819117544,0.30060981712415813
1788861949191445800,0.13844580078125,-0.14499533091187478,0.20302461829334495,0.33942272818647323
1788861949201488000,0.14848779296875,-0.1264934595376253,0.195062845633924,0.42539851857051253
1788861949211528700,0.15852880859375,-0.05391980623602867,0.071547232863307,0.43938188960701224
1788861949221571000,0.168571044921875,-0.11040683261156081,-0.5784452001214027,0.13058854683153331
1788861949231613000,0.178613037109375,0.5089145677775144,0.012060440149903297,0.16452778744287788
1788861949241654800,0.18865478515625,0.39723406196832656,0.2228480936601758,0.3772782654587179
1788861949251697000,0.19869677734375,-0.004480944806337356,0.11523556794226168,0.41742454401664436
1788861949261738800,0.20873876953125,-0.34707506957054135,0.07105564995408058,0.26040713220387696
1788861949271780900,0.21878076171875,-0.4500134659975767,0.08988894523978233,0.16173209230974317
1788861949281823000,0.228822998046875,-0.39695816763639447,0.10396949304044246,0.1621151733431965
1788861949291864800,0.23886474609375,-0.05748655880689621,0.19329232883006334,-0.08704882644303143
1788861949301907000,0.248906982421875,-0.2256903313487768,0.0793897630572319,-0.09104944038651883
1788861949311948800,0.25894873046875,-0.5414104777127504,0.07710428246855736,-0.05279292109794914
1788861949321991000,0.268990966796875,-0.6158668760210275,0.25111907937675715,-0.06269559869207442
1788861949332033000,0.279032958984375,-0.520189410507679,0.6373989088714123,0.04854746554791927
1788861949342075000,0.289074951171875,-0.14558160636723042,0.7121385080352425,0.3879918941095471
1788861949352116700,0.29911669921875,0.7040355733394622,0.5222834601774812,0.6919313671130687
1788861949362157800,0.30915771484375,1.1623457430392503,0.3179360688477754,0.6540861320391297
1788861949372199700,0.31919970703125,0.7214063948571682,-0.3718129127249121,0.6775126733992248
1788861949382242000,0.329241943359375,0.5783247886121272,-0.7672793804988265,0.45999410419873893
1788861949392284000,0.339283935546875,0.5831985321283341,-0.7556453490674495,0.2932897033691406
1788861949402325800,0.34932568359375,-0.05105506445467472,-0.4851917468845844,0.12681019733659923
1788861949412368000,0.359367919921875,-0.9936644161134958,-0.11630816560983658,0.1576542484115809
1788861949422409700,0.36940966796875,-1.5501678335398434,0.045927638438344,0.37571576538234946
1788861949432451800,0.379451904296875,-1.1765151381671428,0.36753275118768214,0.5611240629643202
1788861949442494000,0.389493896484375,-0.4400713331758976,0.4279129856094718,0.8618534878801554
1788861949452535800,0.399535888671875,0.03515373096764087,0.10616349595338105,1.1073347805656493
1788861949462578000,0.409577880859375,0.016033435434103013,-0.15748773273825645,1.1846334896277635
1788861949472619800,0.419619873046875,-0.5047574480980634,-0.3097171065568924,1.0459778100661932
1788861949482662000,0.429661865234375,-1.0576391678959132,-0.6302405615493655,0.6078210052747279
1788861949492704000,0.4397041015625,-1.0134487285137177,-1.1885557045727968,0.04468300867211073
1788861949502744800,0.449744873046875,0.2142570831865072,-1.8544307663440702,-0.5212465548777953
1788861949512787000,0.459786865234375,0.5292939234614372,-2.4576567719787357,-0.9954549527920782
1788861949522828800,0.469828857421875,-0.4248024523735046,-2.5177315937131644,-1.4092026349268854
1788861949532870700,0.47987060546875,-1.334825877726078,-1.9974881149306891,-1.5839181274503469
1788861949542913000,0.4899130859375,-1.5556360358178614,-1.3605489325255156,-3.0530466771602627
1788861949552955000,0.499954833984375,-0.6238105285018682,-0.6704413467735052,-4.6826910752579565
1788861949562997000,0.5099970703125,-1.0322983904123306,-0.6213631353497505,-2.2714042786575854
1788861949573038800,0.520038818359375,-1.9971072989195584,-0.8403191900074481,0.7249847648005933
1788861949583080700,0.530080810546875,-1.5659236210763454,-0.5907859185174107,1.598302626633644
1788861949593123000,0.540123046875,-0.40902328396141524,-0.48642099641859526,0.8833784334026277
1788861949603165000,0.5501650390625,-0.3780880474716425,-0.630676030357182,0.6295813669882714
1788861949613206800,0.560206787109375,-0.4720335746258497,-0.890243789127469,0.877681975326687
1788861949623249000,0.570248779296875,-0.1869511431097984,-0.8215455159544944,1.2131029935911297
1788861949633289700,0.580289794921875,0.3445633790105581,-0.64352966671139,0.8336692305989563
1788861949643331800,0.590331787109375,0.45486149055063724,-0.530150248029828,0.9439194113440811
1788861949653374000,0.6003740234375,-0.2477285601556301,-0.5267176432326436,1.678722463390976
1788861949663415800,0.610415771484375,-1.496961728531122,-1.0790507892370222,1.9928399968639015
1788861949673458000,0.6204580078125,-3.4240023885339497,-1.7777005778849124,1.3448007437735796
1788861949683499800,0.630499755859375,-4.758626021686196,-3.001973200266063,-0.28156974721997974
1788861949693542000,0.6405419921875,-4.668847551083564,-4.360046390327811,-1.2726450236231088
1788861949703584000,0.650583984375,-3.3397640164017677,-5.0919718411117785,-1.2176429751083253
1788861949713625900,0.6606259765625,-1.5726584822893142,-5.127866161313652,-0.7364233467251062
1788861949723668000,0.67066796875,-0.8293740176230668,-4.546275941164791,0.058447805054485796
1788861949733709800,0.680709716796875,-1.0813818625330924,-3.9269966263517735,0.5373980272009968
1788861949743751700,0.690751708984375,-1.6871692430883645,-4.039886800211668,0.41529871096909043
1788861949753794000,0.7007939453125,-2.884280010038614,-4.901236795549094,-0.22693740880042312
1788861949763835000,0.7108349609375,-3.8298967268198725,-5.813971525686979,-1.0299018506646156
1788861949773877000,0.720876953125,-2.951770660987496,-5.801336500519514,-1.4886919128358362
1788861949783918800,0.7309189453125,-1.6915525727391243,-5.142115051418543,-1.3913731098562478
1788861949793960700,0.740960693359375,-1.681304734969139,-5.143456529155373,-0.8397142098516225
1788861949804002800,0.7510029296875,-1.7135791111081837,-5.416752076765895,-0.26720132238864897
1788861949814045000,0.761044921875,-0.43602001195847984,-5.5532572272300715,-0.12580255466401577
1788861949824086800,0.771086669921875,0.9139484898418188,-5.5453708578944205,-0.33286125077903267
1788861949834129000,0.78112890625,1.288448741954565,-5.19268028652966,-0.6825438724994659
1788861949844170800,0.791170654296875,1.5447168746575712,-4.360993608050048,-0.6054530340343713
1788861949854212900,0.801212890625,2.2279484371602534,-3.5195264170512557,-0.22734569734036922
1788861949864255000,0.8112548828125,2.9779011275440452,-2.636609609811008,0.8453916709661483
1788861949874296800,0.821296875,3.0929964102327823,-1.5916376157864927,2.541189626190066
1788861949884339000,0.8313388671875,3.055183689188957,-0.41725305990725753,3.9797687238574024
1788861949894379800,0.8413798828125,2.729486923211813,0.1406682614929974,4.705406472674012
1788861949904422000,0.851421875,2.777644512659311,0.9555189559839665,5.004451378569007
1788861949914463700,0.861463623046875,2.475190675103664,2.5194112173631784,5.333647677099704
1788861949924505900,0.871505859375,0.2933233133777976,4.194762889146805,5.276147674289345
1788861949934548000,0.8815478515625,-2.038356131891906,5.529215841907263,5.222308532074093
1788861949944589800,0.89158984375,-4.027162635456025,6.217635912963748,5.656147692862152
1788861949954631700,0.901631591796875,-5.1672337105840445,6.222580968150496,5.553750563704967
1788861949964673800,0.911673828125,-5.143021060347556,5.811689552229643,4.758965628904104
1788861949974715100,0.921715087890625,-4.680300088468194,5.57978049249649,4.13264925506115
1788861949984757200,0.93175732421875,-5.73593843793571,6.103562374538183,3.9888235524505373
1788861949994799400,0.94179931640625,-10.193970570719241,6.589735533675551,3.680186642345786
1788861950004841200,0.95184130859375,-17.353795564103127,7.19862497189939,1.9763731384485959
1788861950014882300,0.96188232421875,-15.606149932742118,3.1390225406095382,-1.0882195995986461
1788861950024924200,0.971924072265625,-7.310523504373431,0.5266723427861929,-1.3395511526823043
1788861950034966300,0.98196630859375,0.2092842632099986,1.6777327217012643,-0.7781254764229059
1788861950045008100,0.992008056640625,2.716315891471505,3.933286374145746,-1.4695102425038813
1788861950055050500,1.002050537109375,0.8418465457051992,0.5884467349801212,-2.349745847836137
1788861950065092400,1.01209228515625,1.874746993663907,-0.6338539297409356,-3.659822484230995
1788861950075134200,1.02213427734375,1.6378770966529845,1.826236060734093,-4.13721846267283
1788861950085176300,1.03217626953125,-1.7585235837280748,1.8367893111914395,-3.385336265531182
1788861950095218200,1.04221826171875,-1.2042395959168672,0.2576902744606137,-4.806621698570251
1788861950105260300,1.05226025390625,1.494084127268195,-0.9469003268510102,-4.498307444548606
1788861950115302400,1.062302490234375,0.6563987928956747,-0.6029203006863594,0.9540227260768412
1788861950125344300,1.07234423828125,-1.8126169929653404,3.1184310034796594,1.9353274268329141
1788861950135385300,1.08238525390625,0.47695641798079014,3.741878836148977,-0.34672727904617784
1788861950145427200,1.09242724609375,1.0798410628318786,2.521817693983018,-2.6483716515362263
1788861950155469000,1.102468994140625,0.7615466820657253,3.150422178763151,-3.495759464755654
1788861950165511400,1.112511474609375,0.8270429443269968,4.4356624800652265,-0.9416852225512266
1788861950175553300,1.12255322265625,0.7967483438283205,3.6679777336359023,2.740506914398074
1788861950185595400,1.132595458984375,-0.5829343282341957,3.832038707284629,6.386365755206346
1788861950195637200,1.14263720703125,0.24355682742893695,3.778503808712959,9.678387192702292
1788861950205679000,1.15267919921875,1.0273691173166035,5.147668593892455,11.317369035726784
1788861950215721500,1.162721435546875,0.2045242092013359,4.954010062098503,12.431657142561674
1788861950225763300,1.172763427734375,-1.9520912223681806,1.1932283725589512,11.194964306807517
1788861950235805200,1.18280517578125,-3.9074548905357718,-4.625429265117645,5.948625495326518
1788861950245847300,1.192847412109375,-3.1055884730413554,-11.292916146993637,-2.3183020773023366
1788861950255888100,1.20288818359375,-5.97264408429563,-10.883732119512556,-4.715809793266653
1788861950265930200,1.21293017578125,6.042576283177733,-8.042977947467564,-6.4811015559554095
1788861950275972400,1.222972412109375,8.467975630152225,-5.441816375395655,-6.494056314596533
1788861950286014200,1.23301416015625,2.828287489181757,-1.709076538991928,-0.7614221789032221
1788861950296056300,1.243056396484375,0.5339779896244407,-0.844952110505104,-1.7569821995049715
1788861950306098200,1.25309814453125,-2.623178173568845,0.7787655278921127,-3.3194816913515326
1788861950316140300,1.263140380859375,-3.833099906775355,0.11113339332044124,-4.259121671810746
1788861950326182400,1.273182373046875,-1.4508745156168936,-2.2788012570410965,-4.047420702847838
1788861950336224300,1.283224365234375,3.6019372814953323,-2.383391512328386,-3.3635429513961075
1788861950346266400,1.293266357421875,11.090801337021588,-0.6358312211632728,-2.4877888753920794
1788861950356308200,1.30330810546875,-4.821397242897748,0.5223047952264547,-1.4731126509100199
1788861950366349300,1.313349365234375,-5.177605466994643,3.764391112208366,1.2011854690432548
1788861950376391200,1.32339111328125,-2.6006775879472492,1.7333774520337581,0.05884089602530002
1788861950386433300,1.333433349609375,1.786276683050394,-1.0435703105330467,-2.6293647532492876
1788861950396475400,1.343475341796875,0.4985743755489587,-1.3575287079215048,-1.6530606372594832
1788861950406517200,1.353517333984375,-0.43778292997777457,0.653679012542963,0.8626338976681232
1788861950416559000,1.36355908203125,-2.2706956919968126,1.7991309039264916,1.4297446338266133
1788861950426601200,1.373601318359375,1.219915303954482,2.3522306503891945,0.14138824633061886
1788861950436643300,1.383643310546875,1.1301602142274378,1.5145049840062856,-0.41794425704181193
1788861950446685400,1.393685546875,3.58358066381067,4.7184085775882005,-0.09620996495485305
1788861950456727300,1.403727294921875,2.3875889640182257,7.0477464281678195,-2.4093735103249547
1788861950466769200,1.41376904296875,-0.5861325397536158,6.696585550588369,-3.700404669988155
1788861950476811300,1.423811279296875,-1.4496464351266622,7.74917328031361,-3.1280472653478384
1788861950486852000,1.43385205078125,-1.346844232299924,7.5303592644751065,-2.973260023739934
1788861950496894500,1.44389453125,-4.660973456707596,1.673415735284984,-1.2520453031867742
1788861950506936300,1.453936279296875,-4.609782490913569,-0.17588614373803138,0.8290607138901949
1788861950516978200,1.463978271484375,-2.4784312644600868,4.519006825967133,3.1442543037831783
1788861950527020300,1.474020263671875,-1.0286381143391132,4.039493709240854,3.290135185357928
1788861950537062100,1.484062255859375,-0.21008125880658626,-4.367752434660494,0.9657985040664673
1788861950547104300,1.494104248046875,1.2037263856977223,-5.6984010267019265,1.5303759223550557
1788861950557146400,1.504146484375,0.4387888921499252,-4.0009354305267335,1.941683517861366
1788861950567188200,1.514188232421875,-1.496197173899412,-8.871752830153703,0.8621616039812564
1788861950577230300,1.524230224609375,-0.005081248787045478,-3.3243779389604926,2.7818641761809584
1788861950587272200,1.534272216796875,-2.3848756134063005,2.5077345158338544,1.4714660527467727
1788861950597313300,1.544313232421875,-4.571590122902393,1.2045371175587176,-2.8936826291561126
1788861950607355400,1.55435546875,-3.8417899937093254,0.5681947320029139,-5.52961331679225
1788861950617397200,1.564397216796875,-2.9001234758585688,1.085830658635497,-6.583178367117047
1788861950627439400,1.574439453125,0.7686392706751823,-6.097497959932684,-1.2576356705397367
1788861950637481200,1.584481201171875,8.99878404982984,-2.8907334239616986,5.304551346474885
1788861950647523000,1.594523193359375,-0.9124164579689502,4.797012743225693,2.8357880740702153
1788861950657565400,1.6045654296875,-2.547743285617232,6.36804333205223,-0.9438666582435369
1788861950667607300,1.614607177734375,0.6216723474293947,5.51730270127356,-1.2888339418798684
1788861950677649200,1.624649169921875,0.5019096574515104,2.934838523148,5.808445455741882
1788861950687691300,1.634691162109375,-2.9871026711314914,-1.5101266227915882,-1.9837492201745508
1788861950697733000,1.644733154296875,0.7436936299890279,-3.6538466246917842,-1.150266598188877
1788861950707774200,1.654774169921875,4.335928432637453,0.06003302841931581,-1.934484838528931
1788861950717816300,1.66481640625,-1.4927426495313643,-0.883753550325334,4.585625077995657
1788861950727858400,1.6748583984375,-0.8805605995029211,3.471482809372246,4.692081419415771
1788861950737900300,1.684900390625,1.9470330621957779,1.2261527370393275,2.1316554700970647
1788861950747942100,1.694942138671875,1.3849918843865394,2.441115971544385,-2.772010890686512
1788861950757984300,1.704984375,0.1053226612150669,4.756227728372812,-4.773880581702292
1788861950768026400,1.7150263671875,-1.825404578346014,-0.15190291834324599,-2.793687884965539
1788861950778068200,1.725068115234375,4.185790478140116,-3.0054236329808828,-4.064124877150356
1788861950788110300,1.7351103515625,-0.10256605598330497,8.642534324678778,-3.4849031396985053
1788861950798152200,1.745152099609375,-1.7585913882672786,10.521213981616496,5.0361727970004075
1788861950808193300,1.755193359375,-7.178316927886009,11.447457889407872,14.74602363398075
1788861950818235100,1.765235107421875,-5.636329478192329,3.574110240153968,18.760889390182495
1788861950828277200,1.77527734375,1.5921026029497385,-8.345618832027911,17.436476185399293
1788861950838319400,1.7853193359375,6.988240930753946,-10.77965799705386,6.538443153333664
1788861950848361200,1.795361328125,5.996297931605577,-13.966092569440603,-3.316054931773245
1788861950858403300,1.8054033203125,2.407251111343503,-13.349255971604585,-7.829094373768568
1788861950868445200,1.815445068359375,-1.342946055817604,-11.799198612701892,-8.715401407968997
1788861950878487300,1.8254873046875,-3.552099776136875,-11.764629988145828,-10.385939249730109
1788861950888529400,1.835529296875,-2.312542783123255,-8.5102459151268,-7.475986453774571
1788861950898571300,1.8455712890625,-2.1077765818595884,-6.439404102432728,-4.687470418488979
1788861950908613000,1.855613037109375,-1.9483879839360714,-5.86328062325716,-3.4525744030237195
1788861950918654200,1.865654296875,-0.606333908522129,-5.741233621734381,-2.2394553350806237
1788861950928696000,1.875696044921875,0.3535200079262256,-4.530875542937219,-1.1378402473360298
1788861950938738400,1.885738525390625,1.2914894248247146,-3.417617948193848,-0.7247980831220746
1788861950948780300,1.8957802734375,2.2533903369307517,-2.656061329255998,-1.036590534648299
1788861950958822100,1.905822265625,2.79239842967689,-0.9397785121470689,-1.830324206830561
1788861950968864300,1.9158642578125,2.3779893610239027,-0.9809028419569135,-4.343850165547431
1788861950978906000,1.925906005859375,3.085769381588697,-0.5036489023342728,-6.032629474180936
1788861950988948200,1.9359482421875,0.5961573824226856,2.2777248599812387,-3.1952880331888793
1788861950998990300,1.945990234375,-0.9941349562346935,2.5627760195761917,1.7804849479064344
1788861951009032200,1.9560322265625,-1.6207541124165057,2.507698275476694,4.944372465181351
1788861951019073300,1.9660732421875,0.8750865520060062,3.5554403187364336,5.192569811892509
1788861951029115100,1.976115234375,0.22528175054788588,6.008525545015931,3.070930124375224
1788861951039157200,1.9861572265625,-0.30136253518760203,9.186122730952501,1.020318906544149
1788861951049199400,1.996199462890625,-1.3839093498468398,9.75047393926978,0.2489262455075979
1788861951059241200,2.0062412109375,-2.3548808726370334,6.755433460876345,0.33175153597146273
1788861951069283300,2.016283447265625,-1.837165158766508,1.3307646196365355,0.5136912806600332
1788861951079325200,2.0263251953125,-0.41382630032896994,-2.367262799826264,0.99337683134377
1788861951089367000,2.036366943359375,0.507962381619215,-3.4136271249920127,1.7965929098814726
1788861951099409400,2.046409423828125,0.08925356994569301,-3.7071740179926156,1.9455936770424245
1788861951109451300,2.056451171875,-0.5212555784344672,-0.9582774609118699,1.5764289407387375
1788861951119492400,2.066492431640625,0.019282208096981047,3.232045984482765,1.5331328198477625
1788861951129534200,2.0765341796875,1.0545289269208908,4.973789698323607,2.197445454607904
1788861951139576300,2.086576416015625,1.3457237038373946,3.1413585823416708,2.393102759003639
1788861951149618200,2.0966181640625,0.34431612625122066,0.35950668112039563,2.9196830395922064
1788861951159660300,2.106660400390625,-0.24516776975691318,-0.7279477793246507,3.8498262929096816
1788861951169702400,2.116702392578125,-0.6702355950683355,-1.0826128656327725,3.3384421201482413
1788861951179744300,2.126744140625,-0.5667565158933401,-1.3461544964700936,1.5716045893222093
1788861951189786000,2.1367861328125,-0.7758990325450896,-0.78531684923172,0.21135990044027567
1788861951199828200,2.146828125,-0.6389414621382952,-0.4783727145195007,-0.2717678996518254
1788861951209870300,2.156870361328125,0.505799066105485,0.33309330596923825,0.7975225430712103
1788861951219912200,2.166912109375,0.295385214343667,1.7052333075672388,3.0943925407662984
1788861951229953300,2.176953369140625,-1.424946878156066,1.5273831702798604,4.944773447197675
1788861951239995100,2.1869951171875,0.016788053193688392,3.546769521024823,6.647599109101295
1788861951250037200,2.197037353515625,-0.20028701002299784,4.561994027039408,6.304273162931204
1788861951260079000,2.2070791015625,-0.2796726814270019,3.498524253293872,4.716950487734377
1788861951270121200,2.217121337890625,-2.0625854410022497,2.7289649451643228,3.9656735630095
1788861951280163300,2.227163330078125,-1.776252132642269,1.284418463525176,3.0644863550633192
1788861951290205200,2.237205078125,0.27008535339236256,0.043881227302551264,2.5947335848510265
1788861951300247300,2.247247314453125,2.4353777201533315,0.7139438038915396,3.8604917715698477
1788861951310289200,2.2572890625,7.609052277439832,1.2679916448593138,4.888841716617345
1788861951320331300,2.267331298828125,6.317283451151847,-3.3157296453416345,-0.16887158880084752
1788861951330372400,2.277372314453125,-1.3415093010127543,-5.434051586613059,-5.707148981302976
1788861951340414200,2.287414306640625,-0.7758844194978475,-2.0315198561310766,-5.509215256407857
1788861951350456300,2.297456298828125,3.331602337256074,1.4470488198488949,-3.565957036575675
1788861951360498200,2.307498291015625,7.110940258705615,2.8001848457694054,-2.974162233276665
1788861951370540000,2.3175400390625,0.6819108352929353,-1.4867027848452328,-8.145584919983149
1788861951380582400,2.32758251953125,0.9596586861371993,-1.8369886331558227,-9.757928931450843
1788861951390624300,2.337624267578125,3.2651725935369726,-2.6825807951301335,-8.07092510805726
1788861951400666000,2.347666015625,2.3105758669644594,-4.176872427669167,-6.625631022921204
1788861951410708200,2.357708251953125,2.869617862957716,-2.2324317200541497,-4.445653420464694
1788861951420750000,2.36775,1.577894044855237,-1.1729366951584814,-1.2896968423195183
1788861951430791200,2.377791259765625,-2.6871406503915787,-1.1463269206523894,0.8315862868450582
1788861951440833300,2.387833251953125,-3.9601656132429834,0.08803776441514491,1.7842913544520735
1788861951450875400,2.39787548828125,-4.5749815189063545,-0.10094050060808658,0.9279583104938268
1788861951460917200,2.407917236328125,-4.170940115010738,-1.448281576514244,-0.9563410129565745
1788861951470959000,2.417958984375,-3.01625570037961,-3.387034886142611,-1.9423323371589183
1788861951481001200,2.428001220703125,-2.203531204262376,-3.6380361843585964,-3.8021813291594384
1788861951491043300,2.438043212890625,2.5781273179650306,2.0555267546623943,-1.8818650089755653
1788861951501085200,2.448085205078125,11.69388647288084,9.519657350948453,5.7965463436335325
1788861951511127300,2.458127197265625,-0.7736544684886932,-2.311423423704505,-1.1861344687752424
1788861951521169200,2.468169189453125,4.253583326905965,-4.259325669950247,0.5385134410969913
1788861951531210200,2.478210205078125,2.227314815431833,-0.5799474213778972,2.585732532271743
1788861951541252000,2.488252197265625,-3.8482729259878394,1.3612415909647941,2.025513601453602
1788861951551294200,2.498294189453125,-2.075354321682453,-1.5031436320364475,0.5473878716219216
1788861951561336300,2.50833642578125,-0.79281392698884,0.5694879866838455,1.1733526555482297
1788861951571378200,2.518378173828125,-1.216951777973771,0.8402437866836786,0.6347201181162149
1788861951581420300,2.528420166015625,-1.2906915524452924,0.5778688615381717,-0.1622812506251037
1788861951591462100,2.538462158203125,-0.9536012857943773,-0.08789397203028201,-1.4935494358696042
1788861951601504300,2.548504150390625,0.19809914458990097,-0.5257569815069437,-1.9404655203737318
1788861951611546400,2.55854638671875,1.1710814226806163,-0.9083815033644437,-0.6796680248022079
1788861951621587200,2.568587158203125,1.9130869534522295,-0.9218255068272352,1.4723815601564942
1788861951631629300,2.57862939453125,1.1561024647355078,-1.341732003852725,2.177689491519332
1788861951641671200,2.588671142578125,-0.08608253869414328,-1.181184883543849,1.4635374517045914
1788861951651713000,2.598713134765625,-0.8966822977423667,0.7912146750986576,1.5848557005614041
1788861951661755400,2.60875537109375,-1.0550807155847548,1.7879080836445091,1.631695485408604
1788861951671797200,2.61879736328125,-1.273398472338915,0.28346798205673696,-0.5110850436843931
1788861951681839000,2.628839111328125,-1.494796659451723,-1.4977596009105443,-2.626771521885693
1788861951691881200,2.638881103515625,-0.6565314793646335,-1.4797119030445813,-2.4743270440116523
1788861951701923000,2.648923095703125,-0.2933101616352796,-1.7331828062444925,-1.3604834660738705
1788861951711965400,2.65896533203125,0.880950475603342,-2.524819506147504,-0.4100936166066676
1788861951722007300,2.66900732421875,0.6416115581303835,-2.1919629315435887,0.032303309972584245
1788861951732048400,2.67904833984375,-0.5800140568733215,-1.585855817514658,-0.5817288979671895
1788861951742090200,2.68909033203125,-0.7255927406311035,-1.0691121635466814,-1.0969551331095397
1788861951752132000,2.699132080078125,-0.32245793018639085,-0.6415823320358991,-1.2423022000685333
1788861951762174200,2.70917431640625,0.003939093014597893,-0.10028700513541698,-0.62597515918985
1788861951772216300,2.71921630859375,0.006050970602035522,0.28924890354573723,0.03246522253602743
1788861951782258200,2.729258056640625,-0.22302432700991628,0.09854045372903346,1.1022883108310402
1788861951792300300,2.73930029296875,-0.1605705011844635,-0.5980576630860567,1.8032284023731946
1788861951802342100,2.749342041015625,-0.12764029148519038,-1.6885796944081781,1.5810387726217507
1788861951812384300,2.75938427734375,0.4947206227302551,-2.996294277846813,0.6502502071380615
1788861951822425000,2.769425048828125,0.06402385162115097,-4.115509904211759,-0.0849120336100459
1788861951832467200,2.77946728515625,0.6153297004044056,-4.606647407758236,-2.172291139607131
1788861951842509300,2.78950927734375,1.5788725344985723,-4.676797633305192,-4.6091941696316
1788861951852551200,2.79955126953125,1.4380869302362203,-3.7715029900401826,-6.0768374492198225
1788861951862593300,2.80959326171875,-0.8553636144042015,-3.0475252833902835,-6.566563916924595
1788861951872635100,2.81963525390625,-1.1043880595892668,-3.3229940833866594,-5.152962608647346
1788861951882677200,2.82967724609375,-0.8814905738294124,0.6531243012696504,-3.1433810280799865
1788861951892719400,2.83971923828125,-0.09117197078764439,9.9533497967422,1.2428186251580715
1788861951902761200,2.84976123046875,-0.9100696025818585,13.984475782871245,2.783252415668964
1788861951912802300,2.85980224609375,-0.9778490073442458,13.9302508562088,3.6208825127229094
1788861951922844200,2.86984423828125,-1.1177917310416698,10.141073677790164,3.789206696774065
1788861951932886000,2.879885986328125,-0.4120458466529846,4.843780924141407,2.967429710151255
1788861951942928400,2.889928466796875,0.4491764306515455,-0.45354806986451146,2.3946271920919417
1788861951952970200,2.89997021484375,1.1987877602517605,-4.74869791738987,2.2647606028594076
1788861951963012000,2.91001220703125,1.0008394223093986,-6.741276925230026,2.1923091146327556
1788861951973054000,2.920053955078125,0.34795477501451966,-4.809261399424075,2.685319280183315
1788861951983096000,2.930095947265625,0.8533376615345477,-1.1634212633162737,2.153316243893653
1788861951993138200,2.94013818359375,1.8576012130737303,1.457573136472702,0.6303554201006889
1788861952003179000,2.950178955078125,2.138018575388193,4.49667955108583,-0.11880422020927071
1788861952013221000,2.96022119140625,0.4472761499881744,6.178053259637951,-0.5749634954854845
1788861952023263000,2.970262939453125,-2.541915602377057,6.292893690782785,-0.9476239649504422
1788861952033304800,2.980304931640625,-2.526442723435163,5.585104902389645,-1.339392016597837
1788861952043347200,2.99034716796875,0.9291045579195022,4.216562633022666,0.013876695791631937
1788861952053389000,3.00038916015625,1.7164473600208758,3.1363276024371385,0.966377180737257
1788861952063431000,3.010430908203125,-0.21478958262801168,1.429156020283699,-0.24534780249893665
1788861952073473000,3.02047314453125,-1.2767191411942242,-0.3581166880667209,-0.785085378563404
1788861952083515000,3.030514892578125,-1.9662334372282027,-1.7813795586585996,-0.4317361971594393
1788861952093557000,3.040556884765625,-3.1789749040305613,-2.126687034034729,-1.6722437688961624
1788861952103598000,3.05059814453125,-0.1902016693383455,-1.547069283002615,-1.4975851211264728
1788861952113640200,3.06064013671875,3.535726733484864,-2.1552707389622925,-0.7896084089457989
1788861952123682000,3.07068212890625,1.997261028176546,-3.7091204758852716,0.9222574685037136
1788861952133724000,3.080723876953125,-0.7657961562037467,-3.58159475069046,1.1673363909333945
1788861952143766000,3.09076611328125,-0.8369710486233234,-3.012446955746412,0.8099567849695682
1788861952153808100,3.10080810546875,-0.9035387395083904,-3.1380858442813158,-0.17091186245679854
1788861952163850000,3.11085009765625,-0.6229395908862352,-3.3010143067687747,-0.8570444070979952
1788861952173892000,3.12089208984375,-0.2670341491281986,-2.5136352643102406,-1.1399757980599998
1788861952183934000,3.130933837890625,-0.15856734466850755,-0.9414017294347286,-0.8889724540174007
1788861952193975000,3.14097509765625,-0.17494915514886378,-0.09535071777701377,-0.48956572418510913
1788861952204017000,3.151016845703125,-0.18691840988397598,0.16994330968558788,0.11898059968948363
1788861952214059000,3.16105908203125,-0.1823947949796915,0.11775953346192836,0.22172639615386724
1788861952224101000,3.17110107421875,-0.4059580511718988,1.3631541465878485,-0.20348405249863863
1788861952234143000,3.18114306640625,-0.8506026836127042,1.2797592395424842,-0.5431263417199254
1788861952244185000,3.19118505859375,-0.33541151978373523,0.6943412777990102,-0.2765083721771836
1788861952254227000,3.20122705078125,-0.26055881563425065,0.769738171827793,0.7783294745624065
1788861952264269000,3.21126904296875,0.1297702892512083,0.2879951040923595,1.4753089919105171
1788861952274311200,3.221311279296875,1.142312424314022,0.13171966975331306,1.192270341181755
1788861952284352000,3.23135205078125,1.6710680031150578,0.3666419398277998,0.7608350266650319
1788861952294394000,3.24139404296875,1.0191612609416245,0.5185515801727771,0.380662574134767
1788861952304436000,3.25143603515625,0.6386456940621137,0.49123804131150245,0.14788812974393367
1788861952314477800,3.261477783203125,0.13898819945156574,0.5848457148134708,-0.055767187668383116
1788861952324520200,3.271520263671875,-0.5648503900110722,0.20934885287880897,-0.45358840187489985
1788861952334562000,3.28156201171875,-0.7780401362270116,-0.045963878795504565,-0.8507546593040227
1788861952344604000,3.29160400390625,-0.8233797456443309,-0.5775690018087625,-0.7127949261173605
1788861952354646000,3.30164599609375,-0.8442834174633026,-0.9228174404740332,-0.0039010990917682647
1788861952364688000,3.31168798828125,-0.7647878559440374,-0.9212503372877836,0.0624538258254528
1788861952374729000,3.32172900390625,-0.8127958077877759,-1.2921931891798972,-0.08013736655414104
1788861952384771000,3.33177099609375,-0.494288076531887,-1.5050339758276938,-0.016331833858788013
1788861952394813200,3.341813232421875,-0.37745968644022937,-1.316334527745843,0.046915188170969485
1788861952404855000,3.35185498046875,0.05662146641016006,-1.207412380734086,0.016665303596854208
1788861952414897000,3.36189697265625,-0.1805032821446657,-0.7702788545757532,0.32934652065634723
1788861952424939000,3.37193896484375,-0.2866325835675001,-0.6062479838043451,0.3849517957612872
1788861952434981000,3.381981201171875,0.17687164764404295,-0.27092472682595253,-0.10497253260314464
1788861952445023000,3.39202294921875,0.6234124690949916,-0.03398644075393677,-0.055202539522945876
1788861952455065000,3.402065185546875,0.8371744622409343,0.09677285953462124,0.50196635607481
1788861952465106000,3.41210595703125,1.1411761137604712,0.056817281243205064,-0.48753714096695183
1788861952475148000,3.42214794921875,0.7212006431519985,-0.06999415820240974,-1.5340496424317358
1788861952485190000,3.43218994140625,0.20097148515582083,-0.6287596753418445,-1.0425652251437305
1788861952495232000,3.44223193359375,0.3291688260018825,-1.1252356173068285,-1.0157081978783011
1788861952505274000,3.452274169921875,-0.7754138793766499,-1.5609376493573188,-1.9116873157873748
1788861952515316000,3.46231591796875,-1.8840707023262977,-1.6401958949893711,-1.7715528689101336
1788861952525358000,3.472358154296875,0.4511427622884512,-0.037383681976795195,0.0951692237302661
1788861952535400000,3.48239990234375,0.4637783719778061,-2.2105384526759386,-2.002386116105318
1788861952545442000,3.492442138671875,1.6020692856907843,1.1596785696566103,0.530060816180706
1788861952555483100,3.502483154296875,0.4792939210176468,0.48241760599613187,1.1021399884015322
1788861952565525000,3.51252490234375,-0.589810059222579,-0.8916203381776809,-0.4311602969676256
1788861952575567000,3.522567138671875,0.5140215355277061,-1.3011053944319486,-0.8096987185552715
1788861952585609000,3.53260888671875,0.8568073834717274,-1.0340367585122585,-0.05027063607871532
1788861952595650800,3.54265087890625,0.2861059293448925,-0.924530089610815,0.664251844483614
1788861952605693200,3.552693115234375,0.2624292856812477,-0.9375748646229505,1.2333873644679785
1788861952615735000,3.562735107421875,0.7353449038386345,-1.2375924149423836,1.2957882910624146
1788861952625777000,3.57277685546875,0.44699265687167644,-0.711736649236083,1.4124521382421253
1788861952635818000,3.58281787109375,-0.10692483571469784,-0.06585048252642155,1.669029190763831
1788861952645859800,3.59285986328125,0.32108605731129647,-0.4738888471037149,0.7800269261300563
1788861952655902000,3.60290185546875,0.5244505750834941,-0.8486328448444604,0.09961012878715991
1788861952665944000,3.612944091796875,-1.1088111367285252,-0.21530220832526684,-0.5787900680363178
1788861952675986200,3.622986083984375,-1.876786975058913,1.6573621338456868,-0.04771481411606073
1788861952686028000,3.633028076171875,-1.526742534288764,3.628793139716983,1.4631255099028349
1788861952696070000,3.64306982421875,-0.29821546933352944,4.189696837928891,1.6562340065985917
1788861952706112000,3.653112060546875,0.4271522303700447,3.6741222277402876,1.9243162034749983
1788861952716154000,3.663154052734375,-0.17799626775979996,2.0792904920876025,1.8790671949505804
1788861952726195200,3.6731953125,-0.5430266807377339,-0.2356505843490362,0.7997545399069785
1788861952736237000,3.683237060546875,-0.6068932959705591,-1.8768267225474118,-0.14528700733482836
1788861952746279000,3.69327880859375,-0.4871814593970775,-2.39890121614933,-0.882740866151452
1788861952756321000,3.703321044921875,-0.9488310026526451,-2.527743284639716,-2.110397870273888
1788861952766363000,3.71336279296875,-1.3621359094560146,-0.5259229857236146,-1.316205640669167
1788861952776405000,3.723405029296875,0.2747492535501718,1.0224626405745745,-0.8992299363985657
1788861952786447000,3.733447021484375,0.10959200909733771,1.2434306195765732,-0.47069589628130193
1788861952796489000,3.743489013671875,0.03364800257980823,1.6472592575043439,0.8318304708644747
1788861952806531000,3.753531005859375,0.8491630061984061,1.0420762725830077,0.6645005585476755
1788861952816572000,3.763572021484375,0.6725479636639357,0.029060090267658233,-0.5102314955949783
1788861952826614000,3.773614013671875,-0.12481412814855575,-0.7026976027339696,-1.1301833028420805
1788861952836656000,3.78365625,0.03513327270150184,-1.3828648092299698,-1.1116606809407472
1788861952846698000,3.793697998046875,0.4002677305757999,-1.7159651294618845,-1.3949106363326311
1788861952856740000,3.803739990234375,-0.12596329818367957,-0.8110019101083278,-1.4199810724422335
1788861952866782000,3.813781982421875,-1.231661271327734,-0.032713352078199386,-1.6633938152253627
1788861952876823800,3.82382373046875,-1.135389347052574,0.16861819856166838,-1.766323151563108
1788861952886866200,3.8338662109375,-1.106840128916502,0.5689239230602979,-1.6143854541674256
1788861952896907000,3.843906982421875,-0.8305956683725119,0.6291472133547067,-1.6521271558016537
1788861952906949000,3.85394921875,0.06303542510569095,0.5545692344933748,-1.3799749330073594
1788861952916991000,3.863990966796875,1.023479708662629,0.6390341088578104,-0.8982587532788514
1788861952927032800,3.87403271484375,1.7743243794500827,0.82478026009202,-0.39210868177860975
1788861952937075000,3.884074951171875,1.35365858848989,1.1655571063011885,0.13623597813397645
1788861952947117000,3.894116943359375,0.8404092063784598,1.5017173986256123,0.5236266914799809
1788861952957159200,3.9041591796875,0.43747664050757884,1.7767153662398456,0.6792804867893457
1788861952967201000,3.914200927734375,-0.12137830848097801,1.7972063656046986,0.6276239493101835
1788861952977243600,3.92424365234375,-0.6106827513813972,1.498722600723803,0.3690887484580278
1788861952987284700,3.93428466796875,-0.7963608058154582,1.1630983149722218,0.22533903369307517
1788861952997326600,3.94432666015625,-1.1654957315027714,0.9341901906207203,0.2595668819874525
1788861953007368400,3.954368408203125,-1.5075409902125596,0.8518263801887631,0.39235271966755386
1788861953017410800,3.964410888671875,-1.312630412530899,0.5542199826642871,0.43998686976283785
1788861953027452700,3.97445263671875,-0.17381810529232025,0.5708128055468201,0.5009697462528944
1788861953037494800,3.984494873046875,0.4955833770394325,0.8636158944427966,0.5423097646400332
1788861953047536600,3.99453662109375,0.5058323838531971,1.2682327601388097,0.37200726625323294
1788861953057578500,4.00457861328125,0.5219681106179952,1.5843965586170554,-0.14054419672191143
1788861953067619600,4.01461962890625,0.43106735798716544,1.7672607246741652,-0.6684305914729833
1788861953077661700,4.02466162109375,0.4335410546243191,1.6861162269040941,-1.0405717132389545
1788861953087703800,4.034703857421875,0.4846171618670225,1.7074737799704074,-1.010147056619823
1788861953097745700,4.04474560546875,0.7009118883609772,1.9427625452697277,-0.5559858232930303
1788861953107787500,4.05478759765625,0.6116179864048957,2.1890610726222395,-0.24768852040618658
1788861953117829600,4.06482958984375,0.17762684992551803,2.2724562719285486,-0.09957330390810966
1788861953127871700,4.074871826171875,-0.20592823078036307,2.191370810869336,0.2830477108180523
1788861953137913600,4.08491357421875,-0.20831191104650496,2.035667331199348,0.4022156497731805
1788861953147954700,4.09495458984375,-0.49233460437655446,1.977105836637318,0.6545467352882027
1788861953157996500,4.10499658203125,-0.713704149916768,1.8612042060017584,0.7894505880355834
1788861953168038700,4.11503857421875,-0.7088146243095398,1.8228294671609997,0.6608847061380744
1788861953178080500,4.12508056640625,-0.856063871628046,1.774832621233165,0.6328963367551564
1788861953188122600,4.13512255859375,-0.9095563923627138,1.5921414736554025,0.685102324810624
1788861953198164700,4.145164794921875,-0.7696914100766181,1.5743752230793238,0.7576917602032422
1788861953208206600,4.15520654296875,-0.6002846914857626,1.739674214090407,1.0439148861870169
1788861953218248700,4.165248779296875,-0.5937322011023759,1.8553566490173339,1.1825228541493416
1788861953228289500,4.17528955078125,-0.7317302204728127,1.7601427093625068,0.8168094273433089
1788861953238331600,4.18533154296875,-0.9452794476509093,1.6686054123938083,-0.08628156839758157
1788861953248373800,4.195373779296875,-1.4637000949203967,1.668382125031948,-0.6049909694805741
1788861953258415600,4.20541552734375,-2.0651737039297817,1.402051740258932,0.10310060125142335
1788861953268457700,4.215457763671875,-1.9257132107913493,0.8075602452218532,1.3670663515955208
1788861953278499600,4.22549951171875,-1.6306500680088996,0.40287995890080924,2.1829346986964344
1788861953288541400,4.23554150390625,-1.1756325101137162,0.36268121950328347,2.126623028887808
1788861953298583800,4.245583740234375,-1.2146680509507655,0.5916834518790245,1.5510922549083828
1788861953308625700,4.255625732421875,-1.496842486065626,0.852337544581294,0.7749176202923059
1788861953318666800,4.265666748046875,-1.5357383261710404,1.1150006390184164,-0.04511924466490745
1788861953328708600,4.27570849609375,-1.8651380383193492,1.2205828279525042,-0.6109530927553772
1788861953338750700,4.285750732421875,-2.0093939490407706,1.128979480010271,-0.5367290418982505
1788861953348792600,4.29579248046875,-1.636324606513977,0.8621762170284986,-0.16295681179910898
1788861953358834700,4.305834716796875,-1.1788631625980137,0.5140051689147949,0.021240064166486262
1788861953368876800,4.315876708984375,-1.0903338152736424,0.280485751375556,-0.1066390045106411
1788861953378918700,4.325918701171875,-1.1349673222482204,0.2547778941452503,-0.4554638403579592
1788861953388960500,4.33596044921875,-1.280781568327546,0.4878367084354162,-0.5158712550476193
1788861953399001600,4.346001708984375,-1.2597305969923733,0.951070890533924,-0.25131284838318824
1788861953409043500,4.35604345703125,-1.1501701520770788,1.3863555739551783,0.01142243450731039
1788861953419085800,4.3660859375,-0.9474731583029031,1.5827707109808922,0.07111205631643533
1788861953429127700,4.376127685546875,-0.6159510471731424,1.5822452258020638,0.0683075202897191
1788861953439169500,4.38616943359375,-0.3296341054260731,1.5041285514205693,0.039112697726488115
1788861953449211600,4.396211669921875,-0.4762339489251375,1.23756201980412,-0.15686784727424383
1788861953459253500,4.40625341796875,-0.7760761426776647,0.8582523215830326,-0.5355024227127433
1788861953469295600,4.416295654296875,-0.5926520046502352,0.7991115658283233,-0.7843713850751519
1788861953479336700,4.426336669921875,0.24658932699263095,1.2383511243551968,-0.7666510194674134
1788861953489378800,4.43637890625,1.473108559256792,1.9463637846320867,-0.70093439245373
1788861953499420700,4.446420654296875,2.2735592647343874,2.6391093176722524,-0.7065531091183423
1788861953509462500,4.456462646484375,2.157296691831946,2.7175977479755877,-0.8027294640645384
1788861953519504600,4.466504638671875,1.443876619553566,2.29114051413238,-0.5657955619066953
1788861953529546800,4.476546630859375,0.9282160846471786,1.8630846129208802,0.308839446939528
1788861953539588600,4.486588623046875,0.8168675872713327,1.532553850916028,0.9818658417701721
1788861953549630700,4.496630615234375,0.5624778156608343,1.3944851043969393,1.2802291951417921
1788861953559671600,4.506671630859375,0.5742331353843212,1.327020756933093,1.264531859794259
1788861953569713700,4.516713623046875,0.5662088188827038,1.214711890092492,0.8596452372461557
1788861953579755500,4.526755615234375,0.07311199796199798,1.1577233439356087,0.2509165425419807
1788861953589797600,4.536797607421875,-0.7946125008434056,1.0252595778167246,-0.1083577911272645
1788861953599839700,4.54683984375,-1.4428694883376358,0.8602069627821445,0.17924305295050144
1788861953609881600,4.556881591796875,-1.1565595608532429,0.8419488370358943,0.8811024512946605
1788861953619923700,4.566923828125,-0.7195330022007227,0.7584171518683434,1.6671517064541577
1788861953629965600,4.576965576171875,-0.4722369882434606,0.531841854378581,2.206502913549542
1788861953640006700,4.587006591796875,0.13167583061158655,0.08545651575028895,2.087400148785114
1788861953650048800,4.597048828125,0.7243640756189823,-0.5946884789139032,1.303257019507885
1788861953660090600,4.607090576171875,1.0249760847002267,-1.3651035270899534,0.031280104404687877
1788861953670132700,4.6171328125,0.6915466786444187,-1.9374971720874308,-1.324582277739793
1788861953680174600,4.627174560546875,-0.20100304933786392,-2.2563222987294194,-2.2279519442915916
1788861953690216400,4.637216552734375,-1.1418360389739275,-2.1818881122529503,-2.438521863397956
1788861953700258800,4.6472587890625,-1.6609019984096287,-1.6378683288246392,-1.956261347659677
1788861953710300700,4.65730078125,-1.891399437779188,-0.8911971443295478,-1.211338029745221
1788861953720341800,4.667341796875,-2.190297044157982,-0.3154723090827465,-0.37164939272627234
1788861953730383600,4.677383544921875,-2.4241437939554453,-0.09233341578245162,0.5445831163994967
1788861953740425500,4.687425537109375,-2.550866970595717,-0.18074468968510626,1.1846285942569375
1788861953750467600,4.697467529296875,-3.1804514063239098,-0.3736778298139572,1.4805838635735213
1788861953760509700,4.707509765625,-3.7468408424705264,-0.5689186623632908,1.83695648445189
1788861953770551800,4.7175517578125,-3.456365612000227,-0.5284644868999719,2.210816685095429
1788861953780593700,4.72759375,-2.392027238726616,-0.07212123335897921,2.4484416382573544
1788861953790634800,4.737634765625,-1.1488485480844974,0.4674398170948028,2.33275394263342
1788861953800676600,4.747676513671875,-0.08315291498303413,0.9343383669197559,1.803803864173591
1788861953810718500,4.757718505859375,0.5788888522356749,1.19483463871181,0.9218883429303765
1788861953820760800,4.7677607421875,0.7504115400671959,1.2730839995622634,0.1637833257511258
1788861953830802700,4.777802734375,0.776825499740243,1.1526058547914027,-0.28953385796695946
1788861953840844500,4.787844482421875,0.8772831852674484,0.9207318663716315,-0.6247539468318224
1788861953850886700,4.79788671875,0.6663175448417663,0.5515379039734601,-1.0548064286880194
1788861953860928500,4.807928466796875,0.21727613874673843,0.07735679592490195,-1.6014502770096062
1788861953870969600,4.817969482421875,-0.5083855754673481,-0.36225627208948136,-1.7530870917625725
1788861953881011700,4.82801171875,-0.9620534723192453,-0.541213493835926,-1.4009659908488392
1788861953891053600,4.838053466796875,-1.0371668732315302,-0.5979711538463831,-0.9479561195142566
1788861953901095700,4.848095703125,-1.1829460479974745,-0.4287292704284191,-0.5027123521365225
1788861953911137500,4.858137451171875,-1.424586812672019,-0.23413258100152015,-0.15390373677164315
1788861953921179600,4.8681796875,-1.6022586707830428,-0.048857262149453164,0.15474018759578465
1788861953931221800,4.8782216796875,-1.7294173162311315,0.10702946513295172,0.18550503595471382
1788861953941262800,4.888262939453125,-1.800976824054122,0.09915361719131469,0.10365611624233424
1788861953951304700,4.8983046875,-1.8915183879837392,0.0175502697378397,-0.07816058658845722
1788861953961346600,4.9083466796875,-2.340681666892767,-0.024417232897877693,-0.15196787333823739
1788861953971388700,4.918388671875,-2.8690923777788875,0.2535077280789614,0.06606178718954324
1788861953981430500,4.928430419921875,-3.1395471490055322,0.8774521120935678,0.6580684796735644
1788861953991472400,4.938472412109375,-3.055300593566894,1.4974650018781424,1.4906255112469196
1788861954001514800,4.9485146484375,-2.592397543118894,1.8787457079112528,2.13307264341861
1788861954011556600,4.958556640625,-1.8075708154916763,1.9036703058093785,2.4859528921365737
1788861954021597700,4.96859765625,-0.9818331085443496,1.5088094027131795,2.5172668988108633
1788861954031639600,4.9786396484375,-0.28384909032881256,0.8317161968350409,2.3269036091700195
1788861954041681400,4.988681396484375,0.08805530007183551,0.20193945340514183,2.064998055101931
1788861954051723800,4.998723876953125,0.28023499148488046,-0.06493219863772393,1.6851840606205164
1788861954061765600,5.008765625,0.4007584367021918,-0.06577157207131386,1.0539775766484438
1788861954071807700,5.018807861328125,0.20668226401805875,0.018411270481348038,0.19567403633482752
1788861954081849600,5.028849609375,-0.3614741818010807,0.11017536194324493,-0.550857885820046
1788861954091891500,5.038891357421875,-0.6321013869851827,0.2612391991138458,-0.9329727045897394
1788861954101932500,5.0489326171875,-0.39830432154834267,0.36839024479985233,-1.3171332769080997
1788861954111974700,5.058974609375,-0.003324468247592449,0.46545536527931686,-1.695782757654786
1788861954122016800,5.069016845703125,0.5741343511849641,0.5720522842139005,-1.7127660411596297
1788861954132058600,5.07905859375,1.1319482666879892,0.6891185747146606,-1.8966174646884202
1788861954142100500,5.0891005859375,0.6069011870160699,0.3539356029897928,-1.950671126437187
1788861954152142600,5.099142578125,-0.33700784906446934,-0.698129564166069,-1.8259291867420075
1788861954162184700,5.109184814453125,-0.9384726902455091,-1.602428182131052,-1.563756067778915
1788861954172225800,5.119225830078125,-1.6040046376675365,-2.0120617069453,-1.048493884540349
1788861954182267600,5.129267578125,-2.1629823362529277,-2.4415081857323644,-0.7090780244860798
1788861954192309500,5.1393095703125,-2.035790373057127,-2.689683320611715,-0.28387254426963626
1788861954202351600,5.1493515625,-1.6533412077665328,-2.666102538537979,0.17764204749464987
1788861954212393500,5.1593935546875,-1.028108537507057,-2.088202697339654,0.71495458836928
1788861954222435800,5.169435791015625,-0.21687807933986186,-1.1108587169080972,1.0093057834900916
1788861954232477700,5.179477783203125,0.05907587382495403,0.1376426300615072,1.0049801753759384
1788861954242519600,5.18951953125,0.1550619668960571,1.382290224212408,1.1188237775031478
1788861954252560600,5.199560546875,0.8241291027069091,2.4136089559376237,0.7171352934092283
1788861954262602500,5.2096025390625,0.6496136628001928,3.3898563733041285,0.426080728681013
1788861954272644600,5.21964453125,0.1250730713456869,3.327622327709198,0.30879290438406165
1788861954282686700,5.229686767578125,-0.45656186472773547,2.316512855798006,0.7953432993359864
1788861954292728600,5.239728515625,-0.1269762746185064,1.2881938904106616,1.1441413933068514
1788861954302770700,5.249770751953125,-0.19558453142046928,0.9160410782068967,1.1683935718361287
1788861954312812500,5.2598125,-0.677177961552143,1.1396148557931185,0.7866556966200471
1788861954322853600,5.269853515625,-0.11234744528532027,1.0317840111494063,0.16137133270595222
1788861954332895500,5.2798955078125,0.6801935099810361,0.3758504976779222,-0.1209631518088281
1788861954342937600,5.2899375,0.9328466670572757,-0.4047358159005642,0.13751034545134752
1788861954352979700,5.299979736328125,0.791422764891386,-1.03362350153625,0.4728949772281572
1788861954363021600,5.310021484375,0.8409200785100459,-1.215616729977727,0.7555053560748696
1788861954373063700,5.320063720703125,0.891163242059946,-1.1996107670724392,0.7428915198259055
1788861954383105500,5.33010546875,0.7781260609447955,-1.3027490699857474,0.29182213330091905
1788861954393146600,5.340146728515625,0.24469722963571547,-1.160634262946248,0.12897544907908887
1788861954403188700,5.350188720703125,-0.23087328694462775,-0.6634878743737935,0.383744611928612
1788861954413230600,5.360230712890625,-0.4790671265244484,-0.18801263486146927,0.4176740252656862
1788861954423272700,5.370272705078125,-1.000621980166435,-0.0790191761791706,0.34102957886122165
1788861954433314600,5.380314453125,-1.393004510450363,-0.3315560133993625,-0.04830743711381219
1788861954443356400,5.3903564453125,-1.4607190332829951,-0.5850158106833696,-0.3671148180365562
1788861954453398800,5.400398681640625,-1.3270850543409585,-0.39373160680532454,-0.4235713762085885
1788861954463440600,5.410440673828125,-0.9912205300927162,0.2398164718568325,-0.5841229900294914
1788861954473481700,5.420481689453125,-0.5730822117835283,0.9106751672595739,-1.0756340395960957
1788861954483523600,5.430523681640625,-0.4029840037971735,1.2398650360494852,-1.5985061863817274
1788861954493565400,5.4405654296875,-0.2525344991326332,1.2821101865828037,-1.8863399624325334
1788861954503607600,5.450607666015625,-0.19180793549120426,1.1676508637100458,-1.6344805860824883
1788861954513649700,5.460649658203125,-0.07815700639188289,0.8524556180030107,-1.0756249795068056
1788861954523691800,5.47069189453125,0.045991935846209524,0.49496787548959253,-0.6143376936923712
1788861954533733600,5.480733642578125,0.24197569571733474,0.22222762367427348,-0.3644162996675819
1788861954543774700,5.490774658203125,0.4623702587455511,0.12589841625392437,-0.0719488450672943
1788861954553816600,5.500816650390625,0.7147212180048227,0.09951718980669974,0.11788245658869854
1788861954563858400,5.5108583984375,0.7562713720113039,0.027072715842723846,0.2821736679298803
1788861954573900800,5.52090087890625,0.6599795739918947,-0.24054244804382321,0.35986320294048635
1788861954583942700,5.530942626953125,0.49061552549898624,-0.4660550847381353,0.32558271114341913
1788861954593984500,5.540984619140625,0.19335867206454277,-0.5048164848089218,0.29809805349893864
1788861954604026600,5.551026611328125,-0.13841186086833476,-0.3614619068413973,0.28584726014239714
1788861954614067500,5.5610673828125,-0.37918285697102544,-0.058414195045828815,0.3499829198412597
1788861954624109600,5.571109619140625,-0.499706009927392,0.3571586566895246,0.3969678487801924
1788861954634151700,5.581151611328125,-0.5713321532458067,0.7754998040944338,0.25581651647798714
1788861954644193500,5.591193603515625,-0.7144079142719507,1.1012930161833763,-0.040056801043031734
1788861954654235600,5.601235595703125,-0.9201011672526598,1.1257499965697526,-0.4746661516191438
1788861954664277500,5.611277587890625,-1.277210139581561,0.9561077156573533,-0.7675332821946591
1788861954674319600,5.621319580078125,-1.604417894643545,0.7792325608819722,-0.8713752033326775
1788861954684361700,5.63136181640625,-1.7197393873035907,0.6097784960180521,-0.9211316793441772
1788861954694402800,5.64140283203125,-1.7186007386624813,0.5256038367718457,-0.87961615825966
1788861954704444700,5.651444580078125,-1.7058529007703065,0.609853314819932,-0.5984889306427911
1788861954714486500,5.661486572265625,-1.6738737081855535,0.8011088771253824,-0.20652298180311918
1788861954724528600,5.671528564453125,-1.5116905111074446,1.0355272893309593,0.07251450699288398
1788861954734570500,5.681570556640625,-1.3957283824563025,1.2540034515172243,0.34615689527969806
1788861954744612600,5.691612548828125,-1.3237871818393467,1.2720131554603575,0.5560897951241582
1788861954754654700,5.70165478515625,-1.2128688925743103,1.046882211560011,0.7034183182239532
1788861954764695600,5.711695556640625,-0.9553934299081563,0.7621855644911527,0.6597250877741724
1788861954774737700,5.721737548828125,-0.7639496515542268,0.5027063607871533,0.5533264313580468
1788861954784779500,5.731779541015625,-0.8888111259758472,0.2237123092740774,0.5769739585250616
1788861954794821400,5.7418212890625,-1.102621634438634,0.03789806123971939,0.6273023892056196
1788861954804863700,5.75186376953125,-1.2351345003962515,-0.024493805265426636,0.7001884694572538
1788861954814905600,5.761905517578125,-1.098434119620919,0.04378302762508392,0.6497453263558447
1788861954824947700,5.77194775390625,-0.7890233025342226,0.22547522729337213,0.4984331039147451
1788861954834988500,5.781988525390625,-0.572674215504527,0.400181805858016,0.4553739335848018
1788861954845030700,5.79203076171875,-0.309178761896491,0.5931827505260706,0.47268838527277107
1788861954855072500,5.802072509765625,-0.08274082705080509,0.7769909194350242,0.6042542161712423
1788861954865114600,5.812114501953125,-0.10339198541343211,0.9061521368771791,0.653804465553537
1788861954875156700,5.82215673828125,-0.36462533930838104,1.0454226604014634,0.43760728114992375
1788861954885198600,5.832198486328125,-0.9772960496366023,1.1629162364035843,0.18421678624246268
1788861954895240400,5.842240478515625,-1.5635229896754026,1.1497159785687923,-0.09001206016279756
1788861954905281500,5.852281494140625,-2.0151590884387494,0.8111170609205961,-0.3602635639023036
1788861954915323400,5.862323486328125,-2.202722810488939,0.3252326555967331,-0.6458119324296713
1788861954925365800,5.87236572265625,-2.236127651962638,0.10577917281091212,-0.8102960268612951
1788861954935407600,5.88240771484375,-1.9929332281053065,0.14233224918246268,-0.787913733857125
1788861954945449500,5.892449462890625,-1.7596154706180094,0.4731400745630264,-0.6616285102427005
1788861954955491600,5.90249169921875,-1.7564362560600042,0.8820996456384659,-0.41837665710970756
1788861954965533400,5.912533447265625,-2.0105799439549443,1.063702413457632,-0.17508368651503697
1788861954975574300,5.92257421875,-2.242653254339099,0.7445148832440376,-0.19480828635096548
1788861954985616100,5.9326162109375,-2.5512808120936152,0.5091419467926025,-0.2759001040857285
1788861954995658200,5.942658203125,-2.7809751183867455,0.5119838922202586,-0.22640841649025678
1788861955005700400,5.952700439453125,-2.547810505634546,0.7254296590238809,-0.2538499656453729
1788861955015742200,5.9627421875,-2.103245368170738,1.0858376728981733,-0.3425547426018864
1788861955025784300,5.972784423828125,-1.4234084165424108,1.502251067110896,-0.3419615624817088
1788861955035826200,5.982826171875,-0.6147831724375487,1.8802508517771959,-0.2952546285002492
1788861955045867300,5.9928671875,0.05162964947223663,2.101001973158121,-0.12259038768447934
1788861955055909000,6.0029091796875,0.31449732657074925,2.1972557772547003,0.23853709957078098
1788861955065951200,6.012951171875,-0.11799158865213394,2.1707126382440327,0.5361669875686987
1788861955075993300,6.022993408203125,-0.5083259542346,2.076395355167985,0.8165972458973526
1788861955086035200,6.03303515625,-0.9196089998215436,1.7782921140372752,0.8383151567086576
1788861955096077300,6.043077392578125,-1.0056734183371066,1.420459503608942,0.7883766751937568
1788861955106119200,6.053119140625,-1.0063035329341887,0.9771949273496866,0.6858253783881664
1788861955116160300,6.06316015625,-0.7033183649808168,0.7837924161434173,0.45029484022222455
1788861955126202400,6.073202392578125,-0.48022214177846906,0.7404004336625337,0.2207419151611626
1788861955136244200,6.083244140625,-0.41867432488203044,0.8467848788902163,0.03564261046312749
1788861955146286300,6.093286376953125,-0.41385669546723364,0.9860919350326061,-0.22494660030938685
1788861955156328200,6.103328125,-0.470408603772521,1.0837424541845917,-0.46000038780905306
1788861955166370000,6.1133701171875,-0.5334405217468738,1.10918435395509,-0.6441282171264291
1788861955176412400,6.123412353515625,-0.8337070783913135,0.9766092364162207,-0.6624534167595207
1788861955186453200,6.133453369140625,-0.7967676330506801,0.8586255388095975,-0.5420883039090783
1788861955196495400,6.143495361328125,-0.7223994975477457,0.6189461373358964,-0.3225324567273259
1788861955206537200,6.153537109375,-0.6468968050569296,0.25011954694539307,-0.0668101944040507
1788861955216579000,6.1635791015625,-0.5393558832705021,-0.15240765299499034,0.06533603019826113
1788861955226621200,6.17362109375,-0.083707041734457,-0.49197278532683847,0.1367541567891836
1788861955236663300,6.183663330078125,0.3837117325723171,-0.5445856006175279,0.1975513014487922
1788861955246705400,6.193705322265625,0.6700806967675685,-0.2318193356230855,0.385891633894667
1788861955256746200,6.203746337890625,0.33759529356360435,0.24178046540617942,0.6997814960915595
1788861955266788400,6.213788330078125,-0.3720657184422016,0.37654929359704253,0.7154734246116131
1788861955276830200,6.223830322265625,-0.729629448801279,0.05044716168940067,0.39573461719080805
1788861955286872000,6.2338720703125,-0.3530371928453445,-0.4770657235741615,0.03624225685670972
1788861955296914400,6.24391455078125,0.6064852996915578,-0.8849825075984,-0.17795907755456863
1788861955306956300,6.253956298828125,1.275349021884799,-1.1300488628074525,-0.1937261902026832
1788861955316997400,6.263997314453125,1.5165981568932532,-1.1389175211787224,-0.09110738111883401
1788861955327039200,6.274039306640625,1.3504706061035394,-1.0128484245330094,-0.1426759480535984
1788861955337081000,6.2840810546875,1.3751613952457904,-0.7553568875148892,-0.4546317734479904
1788861955347123500,6.29412353515625,1.4776117158949373,-0.4176227700024843,-0.7264663085952401
1788861955357165300,6.304165283203125,1.3321762400001287,-0.15523644668012856,-0.8515436177246272
1788861955367207200,6.314207275390625,1.1116261941492558,0.02260346147418022,-0.8075682823978364
1788861955377249300,6.324249267578125,1.0137211157143116,-0.10799334172904491,-0.726048667705059
1788861955387291100,6.334291015625,1.472375568807125,-0.2609212192058563,-0.9161655813694
1788861955397332200,6.344332275390625,2.302183886194229,-0.23775427863001822,-0.8447903440721333
1788861955407374300,6.354374267578125,2.3731518578648565,-0.4721577855274081,-0.5775714860267936
1788861955417416400,6.36441650390625,1.9568173741072414,-0.47937546182125806,-0.6785794989131391
1788861955427458300,6.374458251953125,1.6286504186242818,-0.33286578082367774,-0.8611367909781634
1788861955437500200,6.384500244140625,1.2541501665115355,-0.31141324295029044,-0.7891660720057785
1788861955447542300,6.394542236328125,0.9016285219728947,-0.22567469538822768,-0.6727696435905992
1788861955457583000,6.4045830078125,0.2640297066152096,0.1697489561572671,-0.5185593250878155
1788861955467625500,6.41462548828125,-0.6896434753715992,0.6174341253377497,-0.4498744959183037
1788861955477667300,6.424667236328125,-0.8570797706723212,0.24951982748657464,-0.6904668475184589
1788861955487709200,6.434709228515625,0.014685527956485747,-0.26475115275755523,-0.7320967887628823
1788861955497751300,6.444751220703125,1.1170762762486934,-0.11144158248677849,-0.2867239151127636
1788861955507793200,6.454793212890625,1.1410194618940352,0.1509121537402272,0.29119638435170053
1788861955517835300,6.464835205078125,0.5701712927728891,-0.3210673526108265,0.5461633713282644
1788861955527876400,6.47487646484375,-0.23317630318999288,-0.7199990122772753,0.7318742320533841
1788861955537918200,6.484918212890625,-0.6422136156767606,-0.8709715179026126,0.9862216988921165
1788861955547960300,6.494960205078125,-0.8308230473875999,-1.1011898480698465,0.700900051792711
1788861955558002200,6.505002197265625,0.04909282447099685,-1.2190472889482975,0.21608890172354875
1788861955568044300,6.515044189453125,0.8752572323977946,-1.0324784962195903,-0.09887246216237544
1788861955578086400,6.52508642578125,1.0403928495407104,-0.4114421816714108,-0.2022829330805689
1788861955588128300,6.535128173828125,0.9084428781628608,0.4180418721973896,0.44478477156385776
1788861955598169300,6.54516943359375,1.653303798365593,0.8003583510190247,1.068611593613401
1788861955608211200,6.555211181640625,2.245618533885479,0.9591334201540798,0.8124338426075876
1788861955618253300,6.56525341796875,2.351321718850732,1.3906816204607486,0.1210353402622044
1788861955628295200,6.575295166015625,1.483024388593435,1.884942516724765,-0.3940411842111498
1788861955638337300,6.585337158203125,0.32359131813049313,1.9847278559483588,-0.23446349345631895
1788861955648379400,6.59537939453125,-0.4016974711179733,1.5421695282623171,0.3433778955530375
1788861955658421200,6.605421142578125,0.5136112011611461,1.0683026737947017,1.065813341196999
1788861955668462300,6.61546240234375,0.5680132379561662,0.8099995281327516,1.109002786843106
1788861955678504200,6.625504150390625,-0.16394962222874163,0.6026914603665471,0.30815672537237404
1788861955688546300,6.63554638671875,0.06870002673864364,0.3746382723439485,-0.49836986595280464
1788861955698588400,6.64558837890625,0.2665454888284206,0.350094271261245,-0.9127011931944637
1788861955708630300,6.65563037109375,0.3131026573419571,0.5194125809162855,-0.9749906222384422
1788861955718672400,6.66567236328125,-0.10137304680645465,0.5841594130497425,-0.9541727290067821
1788861955728714200,6.67571435546875,-0.13895605074763298,0.5456411740850657,-0.7320635440804064
1788861955738755300,6.68575537109375,0.37941198955178257,0.6592959756419062,-0.20395598085932432
1788861955748797200,6.695797119140625,0.8895242426812648,0.8226486548908054,0.018342004637420178
1788861955758839300,6.70583935546875,1.1058476107478141,0.7451349148385227,-0.13414163620322941
1788861955768881400,6.71588134765625,1.236278994256258,0.5710352161258458,-0.3033541108636185
1788861955778923300,6.72592333984375,1.2837924405813217,0.45416897824183106,-0.20157829194255172
1788861955788965000,6.735965087890625,1.4928800121754406,0.401067648781836,-0.015526472292654215
1788861955799007200,6.74600732421875,1.6987936299085615,0.37616672402024265,-0.02532631056681275
1788861955809048000,6.756048095703125,1.6931284437537193,0.40621304884627457,-0.10258636811897158
1788861955819090400,6.76609033203125,1.518258199059963,0.5826373911142348,-0.13720427517686037
1788861955829132300,6.77613232421875,1.6376304284155367,0.9503506134353578,-0.2081022868838161
1788861955839174100,6.786174072265625,1.88699448081851,1.4373501403942703,-0.29626426220051943
1788861955849216300,6.79621630859375,1.7499486476063728,1.8952271793738007,-0.3455941102977842
1788861955859258000,6.806258056640625,1.3073632857829331,2.0399016077682375,-0.4503680515889078
1788861955869299200,6.81629931640625,0.7599474301755428,1.9253376554772257,-0.49952341990210114
1788861955879341300,6.82634130859375,0.3878817117333412,1.6649357839703558,-0.3095681996054947
1788861955889383400,6.836383544921875,-0.045375849774479865,1.2054796591058372,-0.07002334776427596
1788861955899425300,6.84642529296875,-0.44507717863917345,0.6884510507166385,-0.0719205962203443
1788861955909467100,6.856467041015625,-0.5710410613447428,0.28591069903373717,-0.17245331974513828
1788861955919509200,6.86650927734375,-1.0372060361981392,0.06852846956402063,-0.13078682761630042
1788861955929551400,6.87655126953125,-1.6380904471427202,-0.02061930191963911,0.03882625003450084
1788861955939592400,6.886592529296875,-1.6843717213243246,-0.07110065813958645,0.16395057207681238
1788861955949634300,6.89663427734375,-1.199551145839691,-0.06978636067062616,0.13588343836925923
1788861955959676200,6.90667626953125,-0.5681126066774129,0.11424918725341558,0.06854169437177479
1788861955969718300,6.91671826171875,-0.014912322449684143,0.4445326964989304,0.14414382864907382
1788861955979759900,6.926759765625,0.22702362577915192,0.826259100472927,0.1588566099386662
1788861955989802000,6.936802001953125,0.39262101521492004,1.0464441124036907,0.14447376385633834
1788861955999842800,6.9468427734375,0.5300993946254253,1.1729741045594215,0.021301441248191985
1788861956009885000,6.956885009765625,0.5162660995841026,1.1414341801747678,0.02232523362126667
1788861956019926800,6.9669267578125,0.43366380422115325,1.0305468705698848,0.29150296608284115
1788861956029969000,6.976968994140625,0.26081016004681584,0.6644201867878436,0.6888412921432405
1788861956040011000,6.987010986328125,0.19741525397896764,0.22416560599952934,0.923746830278635
1788861956050052900,6.997052978515625,0.3351607598930597,-0.15001929655373095,0.9540729218941182
1788861956060094700,7.0070947265625,0.20808453203141689,-0.3230401139885187,0.8428500236593186
1788861956070135800,7.0171357421875,-0.1264496203958988,-0.35972236969769,0.7205049890380353
1788861956080177700,7.027177734375,-0.3744505677521229,-0.29669921955168244,0.5442288230691105
1788861956090220000,7.037219970703125,-0.3304296397179365,-0.05079787482321262,0.3372602163903415
1788861956100262000,7.047261962890625,-0.15213175866305828,0.23894378067553043,0.11219886712748557
1788861956110304000,7.057303955078125,-0.20370704759955405,0.4914367787539959,-0.07417610179586336
1788861956120345900,7.067345947265625,-0.5316320110201835,0.6612737054556608,-0.2134598318615928
1788861956130387000,7.077386962890625,-0.5785550902366637,0.7591016270011663,-0.31782541154753413
1788861956140428800,7.0874287109375,-0.46467502855658527,0.6851590234339237,-0.36026086048856376
1788861956150471000,7.097470947265625,-0.26189152554273604,0.5650877058982848,-0.3224633735464886
1788861956160513000,7.107512939453125,-0.017672434812784195,0.4038946889013052,-0.20153481812700627
1788861956170555000,7.117554931640625,0.06282265913784503,0.1625572910875082,-0.2193112613035366
1788861956180596700,7.1275966796875,-0.057310033196210856,-0.12714403240084649,-0.33960780242979527
1788861956190638800,7.137638916015625,-0.45823651994168757,-0.47222705137133597,-0.38674240550510586
1788861956200679700,7.1476796875,-1.0838748483926057,-0.8114981691926717,-0.34828422616459426
1788861956210722000,7.15772216796875,-1.4565133982867002,-1.0396119282960892,-0.16863595341406762
1788861956220764000,7.167763916015625,-1.2058014384061098,-1.1760586265712976,0.10700520747452974
1788861956230805800,7.1778056640625,-0.7623574139267206,-1.0577034653037787,0.26108879432510584
1788861956240848000,7.187847900390625,-0.6273363645404577,-0.7519856575161218,0.4410168338650837
1788861956250889700,7.1978896484375,-0.654303866443038,-0.43332828865647316,0.6623762598700821
1788861956260930800,7.207930908203125,-0.5595616359531879,-0.12135492760539054,0.742037387214601
1788861956270973000,7.217972900390625,-0.5155255103498697,0.06617606121897697,0.6079227486161515
1788861956281015000,7.22801513671875,-0.7195441081166267,0.029538813695311545,0.3001458894068375
1788861956291057000,7.238056884765625,-0.7653992658406495,-0.07800619974434375,0.06433587671238929
1788861956301098800,7.2480986328125,-0.47705520218014713,-0.19921382783353328,-0.008488390349410473
1788861956311140900,7.258140869140625,-0.27949907842576505,-0.313746215942502,-0.06532035770509392
1788861956321183000,7.268182861328125,-0.3813274677842855,-0.3642939153969288,-0.1218137407561764
1788861956331224000,7.27822412109375,-0.8470803547054528,-0.31348610370159147,-0.18356380222644655
1788861956341266000,7.288265869140625,-1.3689911821782588,-0.38210312833189963,-0.43504502944648266
1788861956351307800,7.298307861328125,-1.92576757132709,-0.6445066950500011,-0.6531386951211839
1788861956361350000,7.308349853515625,-1.944518449026346,-0.7921937492638826,-0.715772480623424
1788861956371391700,7.318391845703125,-2.060914877441525,-0.7472539528191089,-0.6251151082944124
1788861956381433900,7.328433837890625,-2.1300334218531844,-0.4983271227896213,-0.2455420829620212
1788861956391475000,7.338474853515625,-1.906679424497485,-0.2242570836752653,0.23229714573528618
1788861956401516800,7.348516845703125,-1.5506792901933193,-0.17995441609025,0.4849353609707206
1788861956411559000,7.358558837890625,-1.2326508668869733,-0.2707762582659721,0.4849998775742948
1788861956421600800,7.368600830078125,-0.892612271824479,-0.48963762037754055,0.12715053520686923
1788861956431643100,7.37864306640625,-0.9440992979556322,-0.909005772742629,-0.3426777479270473
1788861956441685000,7.38868505859375,-1.159373449230194,-1.2627987523913382,-0.42577677729837593
1788861956451726800,7.398726806640625,-1.2604518970042466,-1.3650731319516896,0.07050592538313939
1788861956461768000,7.408767822265625,-1.1783213108062744,-1.266234572058916,0.7497150822356343
1788861956471809800,7.418809814453125,-1.1554238348215817,-0.9731669870078563,1.1187679556626826
1788861956481852000,7.428851806640625,-1.1664853270620108,-0.6712333739340305,1.1866473867334424
1788861956491894000,7.43889404296875,-0.7779226473271846,-0.3322159386128187,1.04864388747029
1788861956501935900,7.448935791015625,-0.07676759786009787,0.101031101500988,0.6660223612874746
1788861956511978000,7.45897802734375,0.4696761978447437,0.6026426527887583,0.15290210371473803
1788861956522018800,7.469018798828125,0.6346697761684655,0.916174933719635,-0.3587219970161095
1788861956532061000,7.47906103515625,0.6443190635234117,0.8604477858006954,-0.7271950612612068
1788861956542102800,7.489102783203125,0.8054109582334756,0.5371767856657504,-0.9856099236693233
1788861956552145000,7.499144775390625,0.9429103804320096,0.11620879688858986,-1.1597096954472361
1788861956562187000,7.50918701171875,0.8795084601014852,-0.20669570802152157,-1.164035522757098
1788861956572228900,7.519228759765625,0.6191366914719343,-0.3818868552327156,-1.1318903990209102
1788861956582271000,7.52927099609375,0.07250409519672393,-0.35519290957450866,-1.0854631404973565
1788861956592311800,7.539311767578125,-0.5831628762930632,-0.3216723327666521,-0.8334099951408803
1788861956602354000,7.54935400390625,-0.9571388122707605,-0.453397847738862,-0.5415345424838364
1788861956612396000,7.55939599609375,-1.031167340555787,-0.346534971344471,-0.23158258599145337
1788861956622438000,7.56943798828125,-0.6856494372993708,-0.30337270596623417,-0.1911932376589626
1788861956632480000,7.57947998046875,-0.43092707273364067,-0.28141514118015765,-0.18129556503351776
1788861956642521900,7.58952197265625,-0.22508242858350275,-0.18362638260126113,-0.011160185108240694
1788861956652563000,7.59956298828125,0.22142624416351317,0.017772972577810287,0.21668527844781055
1788861956662604800,7.609604736328125,0.49549102258086203,0.10741466505825518,0.44340391166470944
1788861956672647000,7.61964697265625,0.45465223171412944,-0.10238777680695056,0.5674642257712781
1788861956682689000,7.62968896484375,0.2700508666008711,-0.36814649917185305,0.5263471659524366
1788861956692731000,7.63973095703125,-0.17854396477043627,-0.4349854082137346,0.3967019278530031
1788861956702772700,7.649772705078125,-0.7832002954691648,-0.45047348472476,-0.009264343157969415
1788861956712814800,7.65981494140625,-1.3562982893437145,-0.49849078891873355,-0.5370842120114714
1788861956722855700,7.669855712890625,-1.7615017227560281,-0.61056584700346,-1.019298623585701
1788861956732898000,7.67989794921875,-1.793825783255696,-0.7188567103743553,-1.1924580457735805
1788861956742940000,7.68993994140625,-1.5393465797960757,-0.750267747682333,-1.0494584917888046
1788861956752982000,7.69998193359375,-1.2046873396843671,-0.6732096424430608,-0.7742259847663342
1788861956763024000,7.71002392578125,-0.914099296489358,-0.5481815792828798,-0.5686490516416728
1788861956773065700,7.720065673828125,-0.6854208892405033,-0.3256336376130581,-0.38892095512058583
1788861956783106800,7.73010693359375,-0.39756431683599947,-0.1482318286150694,-0.2897201925856061
1788861956793149000,7.74014892578125,-0.034542321071028705,0.09625964931547641,-0.31396669029276814
1788861956803191000,7.75019091796875,0.05831774893403053,0.3473743447780609,-0.3160110921345651
1788861956813233000,7.76023291015625,-0.03261573692262173,0.5426408962905407,-0.2973433992067352
1788861956823274800,7.770274658203125,-0.2979097643852234,0.6340893459320068,-0.21077747917613013
1788861956833316900,7.78031689453125,-0.622736761790514,0.6202689103722572,-0.10901886711819096
1788861956843359000,7.79035888671875,-1.018095677536726,0.4529623789310455,-0.023505543146748093
1788861956853400000,7.800400146484375,-1.3470558292239903,0.02173895359933376,-0.0579300647906959
1788861956863442000,7.81044189453125,-1.4764087698459625,-0.44885961978733535,-0.1309290856312029
1788861956873483800,7.82048388671875,-1.3412100258052349,-0.6973544881403446,-0.10683231685934588
1788861956883526000,7.83052587890625,-1.367165135794878,-0.8031547037392854,0.033437921759393065
1788861956893567700,7.840567626953125,-1.3184054888010024,-0.6992816568106413,0.3061658986150287
1788861956903610000,7.850610107421875,-1.2399123823225497,-0.5792442415446043,0.5996844240376725
1788861956913651000,7.86065087890625,-1.0598778867334127,-0.4506710531234741,0.8100607568006962
1788861956923693000,7.870693115234375,-0.8927771069973707,-0.2858259433597326,0.8400646307244897
1788861956933735000,7.88073486328125,-0.8285884202033281,0.08925532351136208,0.7634112338285893
1788861956943776800,7.89077685546875,-0.6508820753008127,0.4843202247470617,0.5978012041069567
1788861956953819000,7.90081884765625,-0.36892800493836403,0.561885110464692,0.4297454617336392
1788861956963861000,7.910861083984375,0.15115969876050947,0.5125824426352977,0.2772311334937811
1788861956973903400,7.9209033203125,0.6305903979003429,0.5395841390684246,0.23195927381673825
1788861956983944400,7.9309443359375,0.7874445089101791,0.5109335063844919,0.2729107860766351
1788861956993986300,7.940986328125,0.8376490940153598,0.3262769039526582,0.24192539030220359
1788861957004028400,7.9510283203125,0.7445721663892269,0.19666852726489303,0.19432947159176692
1788861957014070300,7.9610703125,0.6791279265761375,0.0014665654212236404,0.21567946240613237
1788861957024112400,7.9711123046875,0.47039632881283755,-0.19451222601383925,0.32899204466287046
1788861957034154500,7.981154541015625,0.03860533272624016,-0.3839946411669254,0.4913649190941825
1788861957044195300,7.9911953125,-0.0737953040510416,-0.6305047654435039,0.47765605415012685
1788861957054237400,8.001237548828126,0.07633154453039169,-0.7408806183949113,0.3965594141097739
1788861957064279300,8.011279296875,0.28277415457367894,-0.5465948946133256,0.32362302844300866
1788861957074321400,8.0213212890625,0.15198621271252633,-0.3540644900664687,0.2066810949742794
1788861957084363500,8.031363525390624,0.22357845376133917,-0.18609686436802148,0.0512399195022881
1788861957094405400,8.0414052734375,0.33346272380352016,-0.1252721010491252,0.08415325113199651
1788861957104447500,8.051447509765625,0.23984335986375807,-0.10331862791627645,0.06516966065540909
1788861957114488300,8.06148828125,0.10918167473077774,-0.18617022186517715,0.04950768888220191
1788861957124530400,8.071530517578125,0.16951368609666823,-0.3416092053800821,0.1975363961406052
1788861957134572500,8.081572509765625,0.3200111215561628,-0.470824491097033,0.46405170902647075
1788861957144614400,8.091614501953124,0.42592122727036474,-0.5758244962289929,0.4220345950953662
1788861957154656500,8.101656494140625,0.3814502173811197,-0.7096189264297484,0.14683547888584433
1788861957164698400,8.111698486328125,0.34041327359378337,-0.7716466357976198,-0.25199279347136616
1788861957174740200,8.121740234375,0.4282973087519407,-0.919134660308063,-0.583945404972881
1788861957184781300,8.13178125,0.9491419682979583,-0.9968073903143405,-0.774838636771962
1788861957194823400,8.141823486328125,1.1409709465771913,-0.8626682383291423,-0.7310311322927474
1788861957204865500,8.151865478515624,0.9984779538750648,-0.7269128833189606,-0.68422408067137
1788861957214907400,8.161907470703126,0.9503519286096096,-0.6602101678773761,-0.6418829954829066
1788861957224949200,8.17194921875,1.111148055243492,-0.5449104486577212,-0.5177105262387544
1788861957234991400,8.181991455078125,1.6272621791362762,-0.4701547751419246,-0.41494492909535763
1788861957245033500,8.192033447265626,2.061626240581274,-0.34412557211518285,-0.20260595448985694
1788861957255074600,8.202074462890625,1.9917431415379045,-0.36172245747372506,-0.1735011482976377
1788861957265116400,8.212116455078124,1.8760230049490927,-0.5054201497904957,-0.26612477919831873
1788861957275158500,8.222158447265626,1.9420114346414803,-0.6849503491193055,-0.19989158096462487
1788861957285200400,8.232200439453125,1.9566198057085276,-0.942588528066501,-0.1261788406305015
1788861957295242200,8.2422421875,1.6043781471550465,-0.9840282805010676,-0.16310907975137232
1788861957305284600,8.25228466796875,1.4150304642975329,-0.7210807430993765,-0.12514701336473225
1788861957315325400,8.262325439453125,1.1987585341572762,-0.4468547097057104,-0.040661534603685136
1788861957325367600,8.272367431640625,1.2309025619149208,-0.1126776636203751,0.08489946638941764
1788861957335409400,8.282409423828126,1.3360592189133167,0.12433164186123757,0.08655746272951365
1788861957345451300,8.292451171875,1.4958230798900127,0.07663871078342199,-0.23433584848865865
1788861957355493400,8.302493408203125,1.4318366376698017,0.16508260831404475,-0.5731238589681684
1788861957365535500,8.312535400390624,1.4890741901516913,0.4407010459141806,-0.7731212383948266
1788861957375577300,8.322577392578125,1.7778940546303987,0.47078993124030527,-0.6778751500360667
1788861957385618400,8.332618408203125,1.953386815136671,0.4218299393687397,-0.3392870460428297
1788861957395660300,8.342660400390624,1.7502420775949954,0.3611063348693773,-0.1906862379848957
1788861957405702400,8.352702392578125,1.2302607568800448,0.35249519492313264,-0.35715266534015533
1788861957415744300,8.362744140625,0.4501385536819696,0.3582366611845791,-0.3188959999211132
1788861957425786400,8.372786376953124,0.24048984107375143,0.27150057221883905,0.12110913615077733
1788861957435828500,8.382828369140626,0.18409633820056914,0.24246035569543017,0.554071660234779
1788861957445870300,8.392870361328125,0.1767921526670456,0.429917968756333,0.5433203299220651
1788861957455911400,8.402911376953124,0.3411865960538387,0.4643343253601342,0.0546079346306622
1788861957465953300,8.412953369140626,0.6088929453551769,0.3126512237800285,-0.27550416357070207
1788861957475995400,8.422995361328125,0.9572259060323238,0.18008162266649305,-0.08565269590951502
1788861957486037500,8.43303759765625,1.091039333194494,0.06629961453340948,0.27417620290257033
1788861957496079400,8.443079345703126,1.0016180054664612,-0.005934796876460313,0.31151465749815105
1788861957506121500,8.45312158203125,0.969500865715742,0.1838489393107593,0.03671294310837984
1788861957516163300,8.463163330078125,1.1112123526513575,0.5681986775256693,-0.31259200440607965
1788861957526204400,8.473204345703126,1.3501216465353965,0.9025981707226485,-0.48746042246893045
1788861957536246300,8.483246337890625,1.523445246309042,1.0480199834182857,-0.3203129540469497
1788861957546288400,8.493288330078125,1.4178139575362205,0.9832551041714847,-0.04931304309293628
1788861957556330500,8.50333056640625,1.0611176576614378,0.7694789363697171,0.1851855216767639
1788861957566372400,8.513372314453125,1.020473512583971,0.5320755170039833,0.21318821184597908
1788861957576414500,8.52341455078125,1.3676128795623779,0.40618922957926984,0.18445275042280554
1788861957586456300,8.533456298828124,1.4355273088812828,0.4119683975026011,0.13920038089752196
1788861957596497400,8.543497314453125,1.5795336287558077,0.37817572575509545,0.19741203910857438
1788861957606539500,8.55353955078125,2.1760241886556146,0.40658611994236704,0.225779470936954
1788861957616581400,8.563581298828124,2.3389421297490594,0.46225057788863777,0.03191113231722265
1788861957626623500,8.57362353515625,1.7298294041633604,0.41532895997688174,-0.33968620142824946
1788861957636665300,8.583665283203125,1.1224503705024718,0.38165480004251,-0.5637899577053264
1788861957646707200,8.593707275390624,0.7969172706544398,0.3679422087714076,-0.5847564290948212
1788861957656748300,8.603748291015625,0.699382779097557,0.35571342631727454,-0.4374265908207744
1788861957666790400,8.613790283203125,0.6269698693156242,0.2834717814490199,-0.2401905293336138
1788861957676832500,8.62383251953125,0.40973756971061226,0.2515294137433171,-0.08552790048606693
1788861957686874400,8.633874267578125,0.12579320231378077,0.2992275689855218,0.031012795238010583
1788861957696916200,8.643916259765625,0.10998130067586898,0.2481301266938448,0.04859552420703694
1788861957706958300,8.653958251953124,0.18394085537791252,0.15169336724579333,0.0831232048313599
1788861957717000400,8.66400048828125,0.14316694644093514,0.06663023472726344,0.10138201556419953
1788861957727041500,8.67404150390625,-0.14576105458736419,0.011239186894893645,0.08254672011765651
1788861957737083400,8.68408349609375,-0.407039416667819,-0.1534720673561096,0.040248601854662405
1788861957747125500,8.69412548828125,-0.5784358477711677,-0.4472752732053399,-0.1501985255781561
1788861957757167400,8.70416748046875,-0.6463046843826771,-0.6626414866775274,-0.3554835996167734
1788861957767209200,8.714209228515625,-0.35623920375704765,-0.9000751550510525,-0.4108714325787499
1788861957777251600,8.72425146484375,-0.12576046908795832,-1.0101379965305328,-0.3712942226130515
1788861957787293400,8.73429345703125,-0.1898544633358717,-0.9868903919339179,-0.34785409111902116
1788861957797334500,8.74433447265625,-0.3787736916482448,-0.9756026897221803,-0.3401820586537942
1788861957807376400,8.75437646484375,-0.8007634246885776,-1.0031897848278284,-0.3065688351264223
1788861957817418200,8.764418212890625,-1.0862082597762346,-1.0738842002540827,-0.2759554510021582
1788861957827460400,8.77446044921875,-0.9775649297058582,-1.073445224314928,-0.1524035156759899
1788861957837502500,8.78450244140625,-0.5400771832823753,-1.0346014066576956,-0.027394951800722628
1788861957847544300,8.79454443359375,0.1521650764107704,-0.8890554561257362,0.03912480828939006
1788861957857585400,8.80458544921875,0.6896119111895561,-0.6849819133013486,-0.11341408813614398
1788861957867627300,8.814627197265626,0.6251017373561859,-0.49525370669364926,-0.37364535231646145
1788861957877669400,8.82466943359375,0.14684066651761532,-0.426310518848896,-0.6467459984093904
1788861957887711200,8.834711181640625,-0.09860942731201648,-0.4500999752372503,-0.8104550168152898
1788861957897753600,8.844753662109374,-0.047933717563748354,-0.5313409191191196,-0.8000874251231551
1788861957907795500,8.85479541015625,-0.05696224267184734,-0.7147539512306451,-0.7875418318048119
1788861957917837300,8.86483740234375,-0.31076807691454883,-0.9563947159051894,-0.6797475197792053
1788861957927878400,8.87487841796875,-0.6403916609466076,-0.9925725292235612,-0.3434481112450361
1788861957937920300,8.884920166015625,-0.6839940713077783,-0.8854512941539288,0.03047006666343659
1788861957947962400,8.89496240234375,-0.8293401153534651,-0.823851454809308,0.3388738255994394
1788861957958004500,8.90500439453125,-0.8631699042409658,-0.7499912688285112,0.2977778451012447
1788861957968046300,8.91504638671875,-0.6590700579315424,-0.660173050737381,0.1235582098033279
1788861957978087700,8.925087646484375,-0.484718868675828,-0.7049766535818577,-0.10410115659609437
1788861957988129500,8.935129638671874,-0.5824217025369406,-0.8648328690171241,-0.34584392034038897
1788861957998170600,8.945170654296875,-0.777386640754342,-1.005873909345269,-0.46191250504069026
1788861958008212700,8.955212646484375,-0.8713473654776811,-1.050524367454648,-0.42113092425391074
1788861958018254800,8.9652548828125,-0.9391559963345527,-1.1456816084861754,-0.2991796747231856
1788861958028296700,8.975296630859376,-1.235049744722247,-1.1549638160943985,-0.13381591138020157
1788861958038338600,8.985338623046875,-1.5608020402789116,-1.0435597891390322,0.06266808963064104
1788861958048380700,8.995380615234374,-2.0084072760909795,-0.9066127401262521,0.24773893541917202
1788861958058421500,9.00542138671875,-2.181697558116913,-0.801881615063548,0.3109325467612594
1788861958068463900,9.0154638671875,-1.8708108232587575,-0.4938526077240705,0.2204853831168264
1788861958078505700,9.025505615234374,-1.253332420387864,0.019879589468240737,-0.01254274377413094
1788861958088547600,9.035547607421876,-0.5932002861827611,0.3854927707701921,-0.360126822312735
1788861958098589700,9.045589599609375,-0.30371406674981116,0.36955811953544615,-0.7428219617210328
1788861958108631600,9.055631591796875,-0.11572013658881186,0.32730420117378234,-0.8093661986652761
1788861958118674000,9.065673828125,-0.13238193305432797,0.21525836918354033,-0.597416625236161
1788861958128714800,9.07571484375,-0.4853367083132267,-0.179025610807538,-0.2477812401909381
1788861958138756900,9.0857568359375,-0.9649152914911509,-0.6274976925820112,0.23786533778905866
1788861958148798700,9.095798828125,-1.169255960819125,-0.7162772152751684,0.7208463498216122
1788861958158840600,9.105840576171875,-1.1100824718385933,-0.6425175670593977,0.8883912931285798
1788861958168882700,9.115882568359375,-0.9995195718824863,-0.5167646967560052,0.721383452372998
1788861958178924800,9.1259248046875,-0.9244254601925611,-0.3562713524609804,0.330593050118722
1788861958188966700,9.135966552734375,-0.768445793929696,-0.29292145457863805,-0.005976188332773745
1788861958199007700,9.1460078125,-0.53747606087327,-0.29069910235404967,-0.21172321732733398
1788861958209049600,9.156049560546874,-0.43067280571162697,-0.3658493281453848,-0.22846279173679648
1788861958219091700,9.166091796875,-0.5300584780931472,-0.5177139603048563,-0.07828118076082319
1788861958229133600,9.176133544921875,-0.5433008215039968,-0.5697761559754609,0.11800726114530116
1788861958239175700,9.18617578125,-0.5644149212032556,-0.5391553922623396,0.19030724860467016
1788861958249217800,9.1962177734375,-0.5988619652062654,-0.35751872217357156,0.12737696437388657
1788861958259258600,9.206258544921875,-0.6487129145681858,-0.12040098788142203,0.06315938027892261
1788861958269300700,9.21630078125,-0.5977244856089353,0.07270809333622455,0.00701707568783313
1788861958279342600,9.226342529296875,-0.6183136846512556,0.15970599330961704,-0.1193786225637421
1788861958289385000,9.236385009765625,-0.7655716997981071,0.21357085448801516,-0.12422036350648849
1788861958299426800,9.2464267578125,-0.8916554094910621,0.27368016301393505,-0.010139518557302654
1788861958309468700,9.25646875,-0.90534841927886,0.3421276762962341,0.12609196606464684
1788861958319510800,9.2665107421875,-0.9070125530987977,0.2362088027536869,0.2659375860631466
1788861958329551600,9.276551513671874,-0.7845879504352807,-0.051315761217474935,0.32084822996743023
1788861958339593700,9.28659375,-0.5874141039967536,-0.06082125618755817,0.329736323691532
1788861958349635800,9.2966357421875,-0.42931963753700253,-0.11329904692173004,0.19003367409398778
1788861958359677700,9.306677734375,-0.3651385495275259,-0.19689269140958784,-0.06938017275622115
1788861958369719800,9.3167197265625,-0.41265316489636894,-0.3057213149189949,-0.19637500594472512
1788861958379761700,9.32676171875,-0.5642062468886375,-0.38823651652038094,-0.09903046573568135
1788861958389803500,9.336803466796875,-0.6692687958627939,-0.402705186855793,0.20345248831659554
1788861958399844600,9.3468447265625,-0.6588076076030731,-0.2936117749303579,0.4653481785777956
1788861958409886700,9.35688671875,-0.5006874221801757,-0.16223112787306307,0.5263002946034073
1788861958419928800,9.3669287109375,-0.4342974259495735,-0.03539455398619175,0.39982506484221664
1788861958429970700,9.376970703125,-0.5998164894521236,-0.06686462800502777,0.21722159554790704
1788861958440012800,9.3870126953125,-0.6603332097351551,-0.19740356354117392,-0.04976363640464842
1788861958450054700,9.3970546875,-0.5208405678927898,-0.26529695007205006,-0.2490776914759539
1788861958460095700,9.407095703125,-0.43373453136980533,-0.28230887514948844,-0.27400312962429596
1788861958470137900,9.417137939453125,-0.393754987680912,-0.3235200064599514,-0.04971337208871264
1788861958480179700,9.4271796875,-0.2069078894674778,-0.48750353095829485,0.3536345376839861
1788861958490221800,9.437221923828124,0.3775765908181667,-0.6017278760313988,0.7072086504176258
1788861958500263700,9.447263671875,0.857091461110115,-0.5727583866566419,0.879056113224104
1788861958510305500,9.457305419921875,0.883613557332754,-0.4343640614449978,0.9032824266597628
1788861958520348000,9.467347900390624,0.6461392646878957,-0.2451367900967598,0.9299987302802503
1788861958530388700,9.477388671875,0.2803366982936859,-0.2237041259676218,0.7141925910208374
1788861958540430800,9.487430908203125,0.005341361027956008,-0.36055765147805213,0.27785481835007664
1788861958550472700,9.49747265625,0.02749824777841568,-0.4951625212788582,-0.10718661018973216
1788861958560514800,9.507514892578126,0.06700783586800098,-0.7619827353954315,-0.35955530603509395
1788861958570556700,9.517556640625,0.2012871269762516,-1.0664859066963195,-0.4570328797729686
1788861958580598800,9.527598876953125,0.4474807326495647,-1.155087734735012,-0.3559581217933446
1788861958590641000,9.537640869140626,0.4976175132155418,-1.067462350513041,-0.268232382469438
1788861958600681700,9.547681640625,0.12829261791408061,-0.9957722020477056,-0.2395545695176348
1788861958610723800,9.557723876953125,-0.32786534218788144,-0.9909040114894508,-0.22196657985160126
1788861958620765700,9.567765625,-0.5114660058259963,-1.08506990339607,-0.3412115112993866
1788861958630807600,9.5778076171875,-0.5716249987125397,-1.1944210894748568,-0.4603564712377265
1788861958640850000,9.587849853515625,-0.568220743227005,-1.264129124212265,-0.5220866954963654
1788861958650891800,9.597891845703124,-0.30481998216509815,-1.200856675480306,-0.39020840111523863
1788861958660932900,9.607932861328125,-0.10828209554255008,-1.0683356262162327,-0.17076686449553816
1788861958670974700,9.617974609375,0.2508709498345852,-0.8811404452174901,-0.03128959375224076
1788861958681016600,9.6280166015625,0.25257541566491126,-0.7002087085276841,0.06544421241362579
1788861958691058700,9.63805859375,-0.108054716527462,-0.658257572504878,-0.09362367478869855
1788861958701100800,9.648100830078125,-0.1821288375198841,-0.7246086980298161,-0.4659516243636608
1788861958711142700,9.658142578125,-0.1833493192255497,-0.8457178341805934,-0.8776157051574438
1788861958721184800,9.668184814453125,0.06848609172701835,-1.148567685316503,-1.216770503122732
1788861958731225900,9.678225830078125,0.3113280488848686,-1.2887538623809813,-1.2083042150072754
1788861958741267700,9.688267822265624,0.6929086146473884,-1.3818196840912103,-0.9846031577795743
1788861958751309600,9.6983095703125,1.2223872470259667,-1.3930362207628786,-0.7322037562686949
1788861958761352000,9.70835205078125,1.5387094509363173,-1.131749967636913,-0.44312586190830916
1788861958771393800,9.718393798828124,1.7582722393155097,-0.6560933802083134,-0.24849654885344205
1788861958781435600,9.728435546875,1.5961106695473193,-0.08217559438347816,-0.33519941140301523
1788861958791477800,9.738477783203125,1.4616472540438175,0.5721845322914422,-0.4556546502223238
1788861958801518600,9.7485185546875,1.363186879813671,0.9462309031568467,-0.5483422497373074
1788861958811560700,9.758560791015626,1.4948200403273104,0.9991980848431586,-0.5983651216000319
1788861958821602800,9.768602783203125,1.5702408997535704,0.6462536848478019,-0.7469361190415919
1788861958831644700,9.778644775390624,1.645580510637164,0.07913805331848561,-0.8408985973306
1788861958841686800,9.788686767578126,1.9410358676075934,-0.37871955030821264,-0.6493379145987331
1788861958851728600,9.798728759765625,1.8384891008466482,-0.6338253612335771,-0.18370193205550311
1788861958861769700,9.808769775390624,1.237488954567909,-0.7303034025400876,0.18181962544023988
1788861958871811600,9.8188115234375,0.8743453782498836,-0.6592159692082554,0.3368675638109445
1788861958881853700,9.828853759765625,1.0325579181313513,-0.28166641252748664,0.26334910393990574
1788861958891895800,9.838895751953125,0.835052647781372,-0.12388868386670947,-0.14425269585102796
1788861958901937700,9.848937744140626,0.28406477890610693,-0.19471023280397057,-0.5269513058580458
1788861958911979800,9.858979736328125,0.5495546212017536,-0.13121131837237626,-0.6087691728450357
1788861958922021600,9.869021728515625,0.3791495392233133,-0.0012733444040641188,-0.6091353758089244
1788861958932062700,9.879062744140626,0.703843850159645,0.04835672874879092,-0.6794353850901127
1788861958942104800,9.889104736328125,1.431159176799655,0.18516440582349894,-0.5643402485318482
1788861958952146700,9.899146728515625,1.3028116138279437,0.3064537573793903,-0.06460252829194069
1788861958962188800,9.909188720703124,1.4707868383109568,0.06927231020126491,0.2548891724999994
1788861958972230700,9.919230712890625,1.4207517645537853,-0.26910101853013035,0.2317897442024201
1788861958982273800,9.929273681640625,1.286296532356739,-0.39561457100771363,-0.1486573605507612
1788861958992315000,9.93931494140625,1.1033891116797923,-0.10912855630405247,-0.19260354284830392
1788861959002356700,9.949356689453126,0.9471814818799495,0.11598076028637587,0.12640154347047208
1788861959012398800,9.95939892578125,1.2671885117828845,0.4051701156646013,0.3818605517476797
1788861959022441000,9.96944091796875,1.5733260062873362,0.5152439169295132,0.43224356215968723
1788861959032482800,9.97948291015625,1.3873533528208732,0.2598863232001662,0.26728965825922785
1788861959042525000,9.98952490234375,1.2925228595256804,-0.10760470773763954,-0.02921696132980287
1788861959052566800,9.99956689453125,1.3505454249054192,-0.2469287150148302,-0.2059824451856315
1788861959062608000,10.00960791015625,1.2876760040163993,-0.11156572032310068,0.005821034303680062
1788861959072650000,10.01964990234375,1.5533470480978488,0.35356406626366077,0.3401644864644855
1788861959082691800,10.02969189453125,1.860632543593645,0.8359993540469557,0.6015722470782697
1788861959092734000,10.03973388671875,2.096652545776963,0.9249358939327299,0.5601793294601142
1788861959102775800,10.04977587890625,2.132212519457936,0.9346743208758532,0.34389680486060675
1788861959112817700,10.059817626953125,1.9346411981344223,0.9656140874102711,0.31770613254942
1788861959122860000,10.069860107421874,1.5585446167409418,0.8137519394688307,0.3322057825449854
1788861959132900900,10.07990087890625,1.2967483682662249,0.355278980422765,0.1922280971320346
1788861959142943000,10.08994287109375,1.084247188836336,-0.23889511922821402,0.20274704346098005
1788861959152984800,10.09998486328125,0.7482569923818111,-0.6469828759051859,0.3433502038285136
1788861959163026700,10.110026611328125,0.8650982419550418,-0.6935523193784058,0.3619491423690691
1788861959173068800,10.12006884765625,1.242573125964403,-0.37453064725100993,0.22454711613040415
1788861959183111000,10.13011083984375,1.1998504210472105,0.11834858539626002,0.15767145527470855
1788861959193152000,10.140152099609375,0.8547124570190906,0.5224605703100562,0.19423501650765537
1788861959203193900,10.15019384765625,0.8021803057491779,0.8734870078548789,0.14009802385699002
1788861959213236000,10.160236083984374,1.0968985806167124,1.0346303404912351,-0.028234745359420773
1788861959223277800,10.17027783203125,1.0565700773596762,0.9859276843816042,-0.13107919815899804
1788861959233319700,10.180319580078125,0.7194026538193226,0.8852160240933299,-0.11715820656791329
1788861959243362000,10.190362060546875,0.3470809147894382,0.6032669221669436,-0.0007936711283400654
1788861959253403000,10.20040283203125,-0.02431318800151348,0.10021277085542678,0.11697852088576181
1788861959263445000,10.210445068359375,-0.30767011089921,-0.4224482904627919,0.1996971361047588
1788861959273486800,10.22048681640625,-0.5620090291053056,-0.8564709911242127,0.2882365846980363
1788861959283528700,10.23052880859375,-0.716539081081748,-1.0552551953688263,0.40925329332500693
1788861959293570800,10.24057080078125,-0.6900456264317035,-1.03418288898468,0.47694768668506293
1788861959303613000,10.250613037109375,-0.7523790407478809,-0.9913409416019916,0.48752117621283975
1788861959313654800,10.26065478515625,-1.0152303512334824,-0.8106488588869571,0.5174562592167407
1788861959323695900,10.27069580078125,-1.275132748785615,-0.5850824461787939,0.735238374724239
1788861959333737700,10.28073779296875,-0.9156114546179771,-0.4398837016493082,1.0024896737344562
1788861959343779800,10.29077978515625,-0.32817864592075346,-0.38372283848822114,1.059404277872294
1788861959353821700,10.30082177734375,-0.1629313850969076,-0.4144026389122009,0.9485354537721723
1788861959363864000,10.310864013671875,-0.2750602191954851,-0.4198310937017202,0.8619326905962079
1788861959373906000,10.320906005859374,-0.1784954494535923,-0.3870440918654203,0.8047780671574175
1788861959383947000,10.330947021484375,0.09191840524077415,-0.47463995773196216,0.7138828674845397
1788861959393988900,10.34098876953125,0.2321557279706001,-0.5321832151621579,0.567420532760024
1788861959404030700,10.35103076171875,0.3467243564367294,-0.5420125352591276,0.3891044584613293
1788861959414072800,10.36107275390625,0.32525720551609993,-0.5430927317112684,0.27924272904451936
1788861959424115000,10.371114990234375,0.09860124400556088,-0.4725947156399488,0.22905315884537994
1788861959434156800,10.38115673828125,-0.0927139395326376,-0.41578620222508905,0.3056682695575058
1788861959444199000,10.391198974609376,0.048102059867978095,-0.3293506123095751,0.47773193239793177
1788861959454239700,10.40123974609375,0.3670943597704172,-0.17830021914243696,0.6677504271890967
1788861959464281900,10.41128173828125,0.6324509310752153,-0.11043956583738326,0.7304669225387275
1788861959474323700,10.42132373046875,0.5440554392635822,-0.2327443415135145,0.6256427123650908
1788861959484365800,10.43136572265625,0.12390168947875499,-0.46609717031419273,0.4054761128738522
1788861959494408000,10.441407958984374,-0.3129313924282789,-0.6931231341809034,0.2173038304712623
1788861959504449800,10.45144970703125,-0.7009463751524686,-0.9953367332398891,0.09173486536741256
1788861959514491000,10.461490966796875,-1.117646185091138,-1.3050591004937886,0.07917538965418934
1788861959524532700,10.47153271484375,-1.3345008835554122,-1.5327332991361617,0.19347068107165394
1788861959534574800,10.481574951171876,-1.2283756737858056,-1.6014222199589012,0.33846104354746637
1788861959544617000,10.491616943359375,-1.0476859291583298,-1.5412152962774037,0.5037359960958361
1788861959554658800,10.501658935546875,-0.9608587095767259,-1.4299661676228046,0.6030065176650882
1788861959564701000,10.511700927734376,-1.0483581293314694,-1.2587006694227456,0.6147034582648426
1788861959574741800,10.52174169921875,-1.2451771709829569,-1.1097428646206855,0.3753548961807042
1788861959584784000,10.531783935546875,-1.472853123190999,-1.103951421737671,0.015319441945850849
1788861959594825700,10.54182568359375,-1.4108710065305232,-1.117134728437662,-0.28499394951499996
1788861959604867800,10.551867919921875,-1.1698106720924377,-1.0113912114620207,-0.35846674361340697
1788861959614910000,10.561909912109375,-0.9608218846976756,-0.8259808680534362,-0.23262363774329423
1788861959624951800,10.571951904296874,-0.8412287060678004,-0.5602081171631813,-0.030108064950630068
1788861959634993000,10.581992919921875,-0.5521422996073961,-0.19500527022778988,0.24330584834255276
1788861959645034800,10.59203466796875,-0.2783715357005596,0.0599181698679924,0.32615598098672927
1788861959655076900,10.602076904296876,-0.11013502993285655,0.15006372021734712,0.20170527932308613
1788861959665119000,10.612118896484375,-0.25709669248163697,0.076086629858613,0.0332987507507205
1788861959675160800,10.622160888671875,-0.45608138773441315,-0.19456278715729713,-0.0898529240783304
1788861959685203000,10.632202880859374,-0.3341068669259548,-0.5069505742281675,-0.07297821551449596
1788861959695243800,10.642243896484375,-0.09866437236964702,-0.5824895070761442,0.05030409995689988
1788861959705286000,10.652285888671875,-0.05957037934362888,-0.6177554662466049,0.21493454405665396
1788861959715327700,10.66232763671875,0.04519347894489765,-0.6578793868422508,0.3919200273387134
1788861959725369900,10.672369873046875,0.37937516467273236,-0.5857131452977657,0.44084103890676046
1788861959735412000,10.682411865234375,0.6894944222897291,-0.4172644580841064,0.3672862290807068
1788861959745453800,10.692453857421874,0.6656810005038977,-0.37010230941474437,0.28094785246197135
1788861959755495000,10.702494873046875,0.6179770000427961,-0.5018997205793857,0.19491887058597057
1788861959765536800,10.712536865234375,0.6134685827076435,-0.716802115932107,-0.014382745617628097
1788861959775578600,10.72257861328125,0.4491775996953249,-0.8997732494950293,-0.22931433053221553
1788861959785621000,10.73262109375,0.12791969294846056,-0.9897007731795311,-0.4070860322885215
1788861959795662800,10.742662841796875,-0.3894721957951784,-1.1294903521418571,-0.4849029565384611
1788861959805705000,10.752705078125,-0.849430132701993,-1.151502861985564,-0.46230789756644514
1788861959815745800,10.762745849609376,-1.2313660877734423,-0.9912380657494068,-0.5046167975183576
1788861959825788000,10.772787841796875,-1.701004876217246,-0.8659861307054758,-0.5742063935078681
1788861959835829800,10.782829833984374,-2.060896757262945,-0.6462783808976411,-0.4249730597000569
1788861959845871900,10.792871826171876,-1.9367858089476824,-0.5454419251859188,-0.4039429850224405
1788861959855914000,10.8029140625,-1.686213549798727,-0.3689069621503353,-0.42806671486645936
1788861959865955800,10.812955810546875,-1.5948668069660663,-0.2614315068155527,-0.41726405622530727
1788861959875997000,10.822996826171876,-1.1949439443051815,-0.22299568543732165,-0.42503516515083606
1788861959886038800,10.833038818359375,-0.7598416317135095,-0.14363690204024315,-0.4444622250786051
1788861959896080600,10.84308056640625,-0.4453711931496858,-0.18962533075511454,-0.4900147831268608
1788861959906123000,10.853123046875,-0.13681728515326977,-0.2728852132439613,-0.548214568237029
1788861959916164900,10.863164794921875,-0.0849187556117773,-0.3495797458678484,-0.3447044679816812
1788861959926206700,10.873206787109375,-0.1694797838270664,-0.4866290862113237,-0.09029812882887199
1788861959936247800,10.883247802734376,-0.2608066529154777,-0.7381663910001516,0.23668105990793556
1788861959946289700,10.89328955078125,-0.24376959339678286,-0.9539221883118152,0.33444300354514267
1788861959956332000,10.90333203125,-0.13519289882183075,-0.9061433690488337,0.2810330647937022
1788861959966374000,10.913373779296874,-0.053992286950349806,-0.5739964040189981,0.35171449287422
1788861959976415000,10.9234150390625,-0.18731822285652158,-0.263993466258049,0.32682142262551933
1788861959986457000,10.93345703125,-0.30832828254699707,-0.07334814480543136,0.13787514190943911
1788861959996498200,10.943498291015626,-0.32986557609438893,0.02015431475639343,-0.15271701120510697
1788861960006540000,10.9535400390625,-0.5984165595263242,0.08411912966668605,-0.2645692933846265
1788861960016582000,10.963581787109375,-0.8546639417022466,0.18667407973408698,-0.14771837180075234
1788861960026624000,10.9736240234375,-0.883181011134386,0.4054869265288114,0.11699256767742335
1788861960036665900,10.983665771484375,-0.9255530029177665,0.6338683966577052,0.4929567183302715
1788861960046708200,10.993708251953125,-1.2157944246321917,0.6402806017875671,0.7809753128960728
1788861960056749000,11.0037490234375,-1.27676473390162,0.5271797077864409,0.9894515476588159
1788861960066791200,11.013791259765625,-0.8873819699555635,0.36037352708280085,1.1639294320341198
1788861960076833000,11.0238330078125,-0.5064397020965814,0.11721943523585795,1.2473594834581017
1788861960086875000,11.033875,-0.3022480858504772,-0.041617374023795124,1.3423475054025649
1788861960096917000,11.0439169921875,-0.19503624988794327,-0.1146577680543065,1.4205878061637283
1788861960106959000,11.053958984375,-0.008718143984675407,-0.17792729417681694,1.2119785196058452
1788861960117000200,11.064000244140624,0.14929682749807835,-0.3765414025515318,0.8182314229704439
1788861960127042000,11.0740419921875,0.2604384041249752,-0.6041670858770608,0.4334376307824626
1788861960137084000,11.084083984375,0.5600117178082465,-0.6640031304195523,0.11625387813933193
1788861960147126000,11.0941259765625,0.8890238919436931,-0.6339446767643093,-0.00788530988972634
1788861960157167900,11.10416796875,1.000185926836729,-0.5799214101538062,0.13940609607007354
1788861960167209000,11.114208984375,0.9695862059116362,-0.4646197912380099,0.4665924064852297
1788861960177251000,11.1242509765625,0.9765262343078851,-0.35150837584286926,0.7577385219544172
1788861960187293000,11.13429296875,0.9301625425398349,-0.3787754452139139,0.895190378684178
1788861960197335000,11.1443349609375,0.8922714955627917,-0.4710381338477134,0.8700423472937197
1788861960207377000,11.154376953125,0.6281085179567336,-0.5524421593368053,0.7025845708135515
1788861960217419000,11.1644189453125,0.4967027364581823,-0.7821943332970142,0.5763577993880957
1788861960227459800,11.1744599609375,0.8837363069295883,-1.0989061210468412,0.3986580303568393
1788861960237502200,11.184502197265624,1.2050105802893638,-1.347720138351619,0.04007942386679351
1788861960247544000,11.1945439453125,0.8630664438664912,-1.317344143179804,-0.18348090971596537
1788861960257586000,11.2045859375,0.5261158779472113,-1.1851692770048976,-0.4577447909019887
1788861960267628000,11.2146279296875,0.4971650932729244,-0.9168480106756091,-0.7279851887255907
1788861960277670000,11.224669921875,0.2904886744737625,-0.7166254441909492,-1.1066293357100336
1788861960287711000,11.2347109375,0.22665128533542156,-0.7193458090655506,-1.3293344407029448
1788861960297753000,11.244753173828125,0.6279565422654152,-0.9055981562562286,-1.1728834306012839
1788861960307795000,11.254794921875,1.193824000364542,-1.092951304295659,-0.7378528680715709
1788861960317837000,11.264837158203125,1.5362217257738113,-1.1437567779034374,-0.2528987293351441
1788861960327879000,11.27487890625,1.4367033669233322,-0.8273828438058495,0.2555278357297182
1788861960337920000,11.284919921875,1.3978496123939752,-0.3163428083069622,0.49714463500678535
1788861960347961900,11.2949619140625,1.2353507734954357,0.013780468875542282,0.5731044236153364
1788861960358004000,11.30500390625,1.2626479457437991,0.12906710941791533,0.3741159289702773
1788861960368046000,11.315046142578124,1.1645669262200593,-0.15822284207977352,0.09058423402756452
1788861960378088000,11.325087890625,1.3368132521510123,-0.462723383032158,-0.03289396934211254
1788861960388130000,11.335130126953125,1.6265934860944746,-0.7137774343486875,-0.08392163433320819
1788861960398171000,11.3451708984375,1.2514929300010205,-0.8101429551914334,-0.22263722738847136
1788861960408213000,11.355212890625,1.0389712923049925,-0.8119646176606417,-0.35423896985054015
1788861960418255000,11.365255126953125,1.400356626778841,-0.5325958510836586,-0.25866803345158695
1788861960428297000,11.375296875,1.397493638563156,-0.2510725368212908,-0.3074198624651879
1788861960438339000,11.385339111328125,1.1656178965777158,0.1008359442550689,-0.42833354910910126
1788861960448381000,11.395380859375,1.1740087083041668,0.3494944056719541,-0.5109901319425553
1788861960458422000,11.405422119140624,1.443538765901327,0.29497045953031625,-0.12573241203725338
1788861960468463900,11.4154638671875,2.0334762508958577,-0.004343691760115325,0.19606844247989355
1788861960478506000,11.425506103515625,2.594832953572273,-0.32319179741889237,0.17800328202247617
1788861960488548000,11.435548095703124,2.549640059149265,-0.19907569800447672,0.020413842475414275
1788861960498590000,11.44558984375,2.1388082644611597,0.3959153440525755,-0.14258856203109024
1788861960508631000,11.455631103515625,2.15029587315917,1.0071709634184838,-0.47610381973944604
1788861960518673000,11.4656728515625,2.387416530060768,1.1343982901886105,-0.4880835958685726
1788861960528715000,11.475715087890626,2.122971812903881,0.7451356454908847,-0.2837020100083202
1788861960538757000,11.485757080078125,1.361144560331106,0.35152872451115397,-0.21315883962102233
1788861960548799000,11.495799072265624,0.963560954272747,0.24627149321511385,-0.10042875169366597
1788861960558841000,11.505841064453126,0.8185515948355198,0.2338562482781708,0.08417787411659955
1788861960568882000,11.5158818359375,0.5594564220130444,0.16954298525638878,0.27595972531847657
1788861960578924000,11.525924072265624,0.6979121220231056,0.18948877182863652,0.41403439012169835
1788861960588966100,11.535966064453126,1.4618062439978121,0.40427908510901034,0.45491972354389726
1788861960599008000,11.546008056640625,2.089099938440323,0.7023015160884708,0.2691957841414958
1788861960609050000,11.556050048828125,1.8869266762793062,0.916596374002099,-0.15823782045319676
1788861960619091000,11.566091064453126,1.517812793380022,0.9184348414756357,-0.7653269312568008
1788861960629133000,11.576133056640625,1.509000541371107,0.8738749842591583,-1.1996340018175542
1788861960639175000,11.5861748046875,1.606652521827817,0.8968357347384095,-1.1082588366080075
1788861960649217000,11.596217041015626,1.5025766458034515,0.8116979295484721,-0.4633168919458985
1788861960659259100,11.606259033203125,0.8492553606569766,0.31525267498269677,0.4811465996796265
1788861960669301000,11.616301025390625,0.20911972029805181,-0.621941081368178,0.7050858861099928
1788861960679342000,11.626342041015626,-0.682910952246189,-1.3473913447886705,0.07608363418392837
1788861960689384000,11.636384033203125,-1.8040905721604823,-1.8789839005813,-0.10284370388090609
1788861960699426000,11.646426025390625,-2.073224323916435,-2.3973536944463847,0.03319982042089104
1788861960709468200,11.65646826171875,-0.8491828799426555,-2.6109178269326687,0.2624402819992974
1788861960719510000,11.666510009765625,0.9420318440318107,-2.336276709932089,0.5620702943058684
1788861960729551000,11.676551025390625,1.4103297392606735,-1.6662231934323906,0.4576514500627294
1788861960739593000,11.686593017578126,0.8215478540420532,-0.7586550522774458,-0.15642846947629005
1788861960749635000,11.696635009765625,0.374396207216382,0.18598200581669808,-0.8908682046361267
1788861960759677000,11.706677001953125,0.33234862508177754,0.9519590715453028,-1.3045702940635382
1788861960769719000,11.716718994140624,0.9979214890360831,1.364949213311076,-1.1551465522501616
1788861960779761200,11.72676123046875,2.097451587200165,1.6301894647598265,-0.7632838080566376
1788861960789802000,11.736802001953125,2.41462368593812,1.8106757957696913,-0.35219365469329056
1788861960799844000,11.746843994140624,1.5567103870511054,1.899402419231832,-0.06939996886865701
1788861960809886000,11.756885986328125,0.7577905444025993,1.9819021310031413,0.12557727627446874
1788861960819927800,11.766927734375,0.6127730016589165,1.9899194332420824,0.43381914091333745
1788861960829970200,11.77697021484375,0.5184112949192524,1.7728963924735783,0.8672546162713318
1788861960840011000,11.787010986328125,0.2505307580947876,1.32825760525167,1.1931659748472272
1788861960850053000,11.79705322265625,-0.036601591688394546,0.6756985366493463,1.3392277659468352
1788861960860095000,11.807094970703124,-0.45833764222860335,-0.22156302228569982,1.3668303508825599
1788861960870137000,11.81713720703125,-0.948829249086976,-1.2444225532233715,1.3622453611798584
1788861960880179000,11.827178955078125,-1.1248977636545896,-2.2823761929184196,1.1631569132916628
1788861960890220000,11.837219970703124,-1.1175602603733539,-2.988995937532186,0.7967205059733241
1788861960900262100,11.84726220703125,-1.3303952018022536,-3.3205314926654097,0.5584609812349081
1788861960910304000,11.857303955078125,-1.3210796764463186,-3.2722084835231304,0.383095500370115
1788861960920346000,11.86734619140625,-0.8408353228360415,-2.839233246088028,0.20006306507401167
1788861960930388000,11.877387939453126,-0.447332848611474,-2.1554145313471555,0.017229257622547445
1788861960940429800,11.887429931640625,-0.540976762470603,-1.6940590026021003,-0.22902221571784465
1788861960950471000,11.897470947265624,-0.8572942902058363,-1.4029273540496825,-0.4958821042576804
1788861960960513000,11.907512939453126,-0.8216659274637699,-1.0471680427640675,-0.6059054174443707
1788861960970555100,11.91755517578125,-0.1682996341317892,-0.46742052787244315,-0.631874154100567
1788861960980596500,11.927596435546874,0.42896600179374217,0.12867021905481815,-0.8314778580345213
1788861960990638600,11.937638671875,0.19519465532004832,0.3576403027266264,-1.137244911791384
1788861961000679400,11.947679443359375,-0.4862842182964086,0.2639718389481306,-1.4778994467951356
1788861961010721800,11.9577216796875,-1.1961463058322668,0.1560387029737234,-1.6163088234454392
1788861961020763600,11.967763671875,-1.8856231924653053,-0.23250527206063268,-1.4189360934339463
1788861961030805500,11.977805419921875,-2.6383880176603793,-1.3346218795865774,-0.7881126174300909
1788861961040847600,11.98784765625,-3.0109114167422053,-2.786861838337779,-0.00601125964615494
1788861961050888400,11.997888427734376,-2.9611943228930233,-3.8808378095060583,0.5139645081108436
1788861961060930600,12.0079306640625,-3.035793344542384,-4.474375364819169,0.5616227332014591
1788861961070972700,12.01797265625,-3.403217959180474,-4.724195928817987,0.26360212885290385
1788861961081014500,12.0280146484375,-3.4061095889687536,-4.538143195852637,-0.23144626452699302
1788861961091056600,12.038056640625,-2.500079032644629,-3.8132963051527735,-0.7738187191396951
1788861961101097500,12.048097412109374,-1.37089146284163,-2.671319396403432,-1.0350505386646836
1788861961111139600,12.0581396484375,-0.5636199714332819,-1.6192326019376515,-1.106897996583581
1788861961121181400,12.068181396484375,0.16277181062102317,-0.6143073716193437,-0.9494377363741398
1788861961131223600,12.0782236328125,0.8117804932653904,0.2633995920181274,-0.711954310574755
1788861961141265700,12.088265625,1.4028478590726852,0.9855980140358209,-0.5381313099116086
1788861961151307500,12.0983076171875,1.7005512872308493,1.6662380987405776,-0.3537884861366823
1788861961161348600,12.1083486328125,1.9404215351015328,2.347294363030791,-0.24017114877970888
1788861961171390500,12.118390380859376,2.1509809328138827,3.0227035613447426,-0.2786410916232504
1788861961181432600,12.1284326171875,2.302998709708452,3.5889252397090194,-0.2833004069374874
1788861961191474700,12.138474609375,2.1999504231661557,3.8603468101412055,-0.24946674559246748
1788861961201516500,12.1485166015625,1.9410960733622311,3.695876378908753,-0.3264038913331926
1788861961211557600,12.1585576171875,1.3214508478462694,3.3370728776216505,-0.31955322172082956
1788861961221599500,12.168599609375,0.5715566096514463,2.982105593496561,-0.18541779606267808
1788861961231641600,12.1786416015625,-0.15316402432024478,2.56647195148468,0.04554403224850539
1788861961241683500,12.188683349609375,-0.7036860292494297,2.011268510740995,0.13896109224893152
1788861961251725600,12.1987255859375,-1.088687801632285,1.377241708651185,0.08136738327313214
1788861961261766700,12.2087666015625,-1.2737719818264246,0.7201222002655268,-0.0778885555808898
1788861961271808500,12.21880859375,-1.310970370364189,0.043915714094042775,-0.40021987284608185
1788861961281850600,12.2288505859375,-1.5072779553622007,-0.6474526853740215,-0.7345539726566523
1788861961291892500,12.238892578125,-2.007172181338072,-1.2857418210834264,-0.742532988711819
1788861961301934600,12.2489345703125,-2.2662550792008638,-2.234455919358134,-0.7090905186414718
1788861961311975700,12.2589755859375,-2.1172230401188132,-3.4176673402935265,-0.7640447824917733
1788861961322017800,12.269017822265624,-1.9001035532385109,-4.102814673289656,-0.5396330562440678
1788861961332059600,12.2790595703125,-1.2612246349424123,-4.0969478270828725,-0.08118724093325436
1788861961342101500,12.2891015625,-0.944427799257636,-3.374703812357783,0.4755718682872131
1788861961352143600,12.2991435546875,-1.2904717722147703,-2.2354040138632056,0.8217435227446258
1788861961362184400,12.309184326171875,-1.8319781115174292,-1.186091360285878,0.9124208418831229
1788861961372226800,12.319226806640625,-2.1126403885036704,-0.5603454798072576,0.6381424937803298
1788861961382268700,12.3292685546875,-2.263924005904794,-0.3562093931406736,0.14715133990198373
1788861961392310500,12.339310546875,-2.2602672369629144,-0.5747708955228329,-0.5811644690174609
1788861961402352600,12.3493525390625,-1.9073446104079483,-0.9208552004903554,-1.3447666953735053
1788861961412394500,12.35939453125,-1.427621065801382,-1.083965449285507,-1.7775404188871382
1788861961422435600,12.369435546875,-1.4060767579913138,-0.9054308368653059,-1.6829412501297891
1788861961432477700,12.379477783203125,-1.9627298130214212,-0.5211988798111676,-0.9794139185734093
1788861961442519600,12.38951953125,-2.523293904015422,-0.31297347800433634,-0.05140183206573128
1788861961452561700,12.399561767578126,-2.4869237829953432,-0.31414895152449607,0.5973454962287098
1788861961462603500,12.409603515625,-2.178798329544067,-0.3487871341854334,0.9111859663259237
1788861961472644600,12.41964453125,-1.9992998405277729,-0.480895510995388,1.0106756836038082
1788861961482686500,12.4296865234375,-1.3494319107055663,-0.7458353181928395,0.585099835705012
1788861961492728800,12.439728759765625,-0.4774222819268703,-0.9233908564478158,0.04943834997303784
1788861961502770700,12.449770751953125,-0.04006371484100819,-0.8574100255399942,-0.16092245642729103
1788861961512812500,12.4598125,-0.09693594114184378,-0.827900437939167,-0.19955595580209046
1788861961522853600,12.469853515625,-0.08145195628404617,-0.8185270449161529,-0.19416655438132582
1788861961532895500,12.4798955078125,0.37349078280925746,-0.37409342487752434,-0.13729703149423003
1788861961542937600,12.4899375,1.3729080633610486,0.7281354108512401,-0.015693572487868367
1788861961552979700,12.499979736328125,2.678765620756149,1.5559341419816015,0.08908893570220097
1788861961563021600,12.510021484375,3.873550575107336,2.184339889319241,0.13434036451256834
1788861961573062700,12.520062744140626,4.961013218858838,2.6501515206903217,0.11579210584647953
1788861961583104500,12.5301044921875,5.47161004063487,2.9769591705188154,-0.17840462936498225
1788861961593146600,12.540146728515625,5.018420867210627,2.875289478853345,-0.8574914202131331
1788861961603188500,12.5501884765625,4.198019845116138,2.6955171413317323,-1.5787062380209564
1788861961613230600,12.560230712890625,3.295963453119993,2.4646862322241065,-2.0754247565701602
1788861961623271700,12.570271728515625,1.7816800029098987,1.678290940105915,-2.163642261466384
1788861961633313500,12.5803134765625,0.37517420585155487,0.8116752793252467,-1.7198073379732668
1788861961643355600,12.590355712890625,-0.6255506501674651,0.012384557537734507,-0.8107550957404076
1788861961653397500,12.6003974609375,-1.8683435563623905,-0.7554106635287403,0.1404617426028475
