time,seconds_elapsed,z,y,x
1788861949111109600,0.058109619140625,-0.037980347871780396,0.04744981229305267,0.520583987236023
1788861949121152000,0.068152099609375,-0.04455234855413437,0.04045891761779785,0.594537615776062
1788861949131193900,0.07819384765625,-0.09014300256967545,0.05491083115339279,0.6367679238319397
1788861949141235700,0.088235595703125,-0.15294179320335388,0.06190497800707817,0.6388883590698242
1788861949151277800,0.09827783203125,-0.20288005471229553,0.04321917146444321,0.5916053056716919
1788861949161319700,0.108319580078125,-0.22255082428455353,0.04554798826575279,0.540553629398346
1788861949171362000,0.118362060546875,-0.2286582589149475,0.06498480588197708,0.4966851770877838
1788861949181404000,0.12840380859375,-0.23645173013210297,0.09291232377290726,0.4635361433029175
1788861949191445800,0.13844580078125,-0.2468401938676834,0.1237083226442337,0.4323284327983856
1788861949201488000,0.14848779296875,-0.2523655593395233,0.15344157814979553,0.3923138380050659
1788861949211528700,0.15852880859375,-0.20089492201805115,0.13392087817192078,0.3757990598678589
1788861949221571000,0.168571044921875,-0.09727641195058823,0.20777881145477295,0.3676780164241791
1788861949231613000,0.178613037109375,-0.0836612656712532,0.34823471307754517,0.3453700542449951
1788861949241654800,0.18865478515625,-0.14306823909282684,0.459859699010849,0.3102288544178009
1788861949251697000,0.19869677734375,-0.19859354197978973,0.45841121673583984,0.27301225066185
1788861949261738800,0.20873876953125,-0.21805472671985626,0.37398943305015564,0.2789279818534851
1788861949271780900,0.21878076171875,-0.24092036485671997,0.1981227993965149,0.3181683421134949
1788861949281823000,0.228822998046875,-0.28693196177482605,0.0536239817738533,0.38723355531692505
1788861949291864800,0.23886474609375,-0.3344893455505371,-0.07421627640724182,0.4703744947910309
1788861949301907000,0.248906982421875,-0.38395318388938904,-0.2875678241252899,0.540421724319458
1788861949311948800,0.25894873046875,-0.43673092126846313,-0.5446553230285645,0.6235962510108948
1788861949321991000,0.268990966796875,-0.4984210133552551,-0.8119829297065735,0.7012380957603455
1788861949332033000,0.279032958984375,-0.5977819561958313,-1.067865252494812,0.7551966309547424
1788861949342075000,0.289074951171875,-0.7278367877006531,-1.2224763631820679,0.8096595406532288
1788861949352116700,0.29911669921875,-0.8765008449554443,-1.1424212455749512,0.8307752013206482
1788861949362157800,0.30915771484375,-0.9933684468269348,-0.9439257979393005,0.7442656755447388
1788861949372199700,0.31919970703125,-1.0267322063446045,-0.7111737728118896,0.5623810887336731
1788861949382242000,0.329241943359375,-0.9799347519874573,-0.3912731409072876,0.35027584433555603
1788861949392284000,0.339283935546875,-0.8854977488517761,-0.05436301231384277,0.1702466756105423
1788861949402325800,0.34932568359375,-0.7769372463226318,0.12258407473564148,0.024374287575483322
1788861949412368000,0.359367919921875,-0.7198430299758911,0.04896232485771179,-0.10432936251163483
1788861949422409700,0.36940966796875,-0.7468417286872864,-0.2678285539150238,-0.15879294276237488
1788861949432451800,0.379451904296875,-0.8733227252960205,-0.6104183793067932,-0.11822127550840378
1788861949442494000,0.389493896484375,-1.0254206657409668,-0.9468337297439575,0.025547636672854424
1788861949452535800,0.399535888671875,-1.138608455657959,-1.265898585319519,0.22263434529304504
1788861949462578000,0.409577880859375,-1.2136491537094116,-1.6016706228256226,0.3912229835987091
1788861949472619800,0.419619873046875,-1.2597284317016602,-1.9421144723892212,0.4869076907634735
1788861949482662000,0.429661865234375,-1.2309714555740356,-2.2554049491882324,0.5178438425064087
1788861949492704000,0.4397041015625,-1.1184978485107422,-2.2365143299102783,0.45609045028686523
1788861949502744800,0.449744873046875,-0.9072467088699341,-1.7760902643203735,0.3723087012767792
1788861949512787000,0.459786865234375,-0.6148004531860352,-1.2920080423355103,0.31359824538230896
1788861949522828800,0.469828857421875,-0.3383122682571411,-0.9376819729804993,0.19648297131061554
1788861949532870700,0.47987060546875,-0.11064476519823074,-0.7940411567687988,-0.004565443843603134
1788861949542913000,0.4899130859375,0.3296493887901306,-0.9725817441940308,-0.08056959509849548
1788861949552955000,0.499954833984375,0.856834352016449,-1.2526414394378662,0.035017989575862885
1788861949562997000,0.5099970703125,1.2206271886825562,-1.5961716175079346,0.18938468396663666
1788861949573038800,0.520038818359375,1.3396515846252441,-2.049022674560547,0.34001147747039795
1788861949583080700,0.530080810546875,1.3927613496780396,-2.287015676498413,0.4784430265426636
1788861949593123000,0.540123046875,1.4286417961120605,-2.271890878677368,0.504788875579834
1788861949603165000,0.5501650390625,1.440708875656128,-2.1435184478759766,0.4116184413433075
1788861949613206800,0.560206787109375,1.4218436479568481,-1.8862745761871338,0.23167771100997925
1788861949623249000,0.570248779296875,1.377611756324768,-1.435996651649475,0.00574630219489336
1788861949633289700,0.580289794921875,1.3509470224380493,-0.8850163221359253,-0.17674307525157928
1788861949643331800,0.590331787109375,1.2670502662658691,-0.4399834871292114,-0.30237409472465515
1788861949653374000,0.6003740234375,1.0776385068893433,-0.26010534167289734,-0.4229726791381836
1788861949663415800,0.610415771484375,0.8060192465782166,-0.39502906799316406,-0.5822913646697998
1788861949673458000,0.6204580078125,0.5762723088264465,-1.0279873609542847,-0.6866942048072815
1788861949683499800,0.630499755859375,0.6268835663795471,-1.9067208766937256,-0.630027174949646
1788861949693542000,0.6405419921875,1.0428999662399292,-2.7505650520324707,-0.4185117483139038
1788861949703584000,0.650583984375,1.6034939289093018,-3.160261631011963,-0.17380288243293762
1788861949713625900,0.6606259765625,2.0199153423309326,-3.1718873977661133,0.02766578458249569
1788861949723668000,0.67066796875,2.1577186584472656,-3.0415546894073486,0.18638530373573303
1788861949733709800,0.680709716796875,2.105036973953247,-3.015211820602417,0.3189350962638855
1788861949743751700,0.690751708984375,2.0160586833953857,-3.217660427093506,0.4946683645248413
1788861949753794000,0.7007939453125,2.0421440601348877,-3.9489548206329346,0.8130759000778198
1788861949763835000,0.7108349609375,2.1919338703155518,-4.9855122566223145,1.3750722408294678
1788861949773877000,0.720876953125,2.3748881816864014,-5.825408458709717,2.165372848510742
1788861949783918800,0.7309189453125,2.5704522132873535,-6.38905143737793,2.9680495262145996
1788861949793960700,0.740960693359375,2.7594900131225586,-6.8813323974609375,3.488236665725708
1788861949804002800,0.7510029296875,2.886762857437134,-7.1566691398620605,3.722017526626587
1788861949814045000,0.761044921875,3.0282859802246094,-6.993483543395996,3.7985405921936035
1788861949824086800,0.771086669921875,3.1790060997009277,-6.62553071975708,3.824047327041626
1788861949834129000,0.78112890625,3.2788119316101074,-6.415178298950195,3.943187713623047
1788861949844170800,0.791170654296875,3.3316988945007324,-6.371215343475342,4.230676174163818
1788861949854212900,0.801212890625,3.4064221382141113,-6.277243137359619,4.619613170623779
1788861949864255000,0.8112548828125,3.519493579864502,-6.1073832511901855,4.951048374176025
1788861949874296800,0.821296875,3.4517452716827393,-5.778084754943848,5.1527581214904785
1788861949884339000,0.8313388671875,3.23547101020813,-5.397085189819336,5.208119869232178
1788861949894379800,0.8413798828125,3.0745882987976074,-5.0228352546691895,5.206650257110596
1788861949904422000,0.851421875,2.9259653091430664,-4.41794490814209,5.235052108764648
1788861949914463700,0.861463623046875,2.671935796737671,-3.9406023025512695,5.2814459800720215
1788861949924505900,0.871505859375,2.361379384994507,-3.7020208835601807,5.258997440338135
1788861949934548000,0.8815478515625,1.9573814868927002,-3.5305063724517822,5.013687610626221
1788861949944589800,0.89158984375,1.4984407424926758,-3.3039751052856445,4.49161434173584
1788861949954631700,0.901631591796875,1.1139864921569824,-2.8720905780792236,3.738448143005371
1788861949964673800,0.911673828125,0.9341094493865967,-2.173981189727783,2.8957719802856445
1788861949974715100,0.921715087890625,0.7964962124824524,-1.369036316871643,2.1125452518463135
1788861949984757200,0.93175732421875,0.5836455821990967,-0.8733096122741699,1.2818365097045898
1788861949994799400,0.94179931640625,0.3072017431259155,-1.302694320678711,0.1931307166814804
1788861950004841200,0.95184130859375,0.45870792865753174,-2.255657434463501,-1.0441583395004272
1788861950014882300,0.96188232421875,1.0893378257751465,-2.5966956615448,-1.9142194986343384
1788861950024924200,0.971924072265625,1.484565019607544,-1.8246732950210571,-2.0248897075653076
1788861950034966300,0.98196630859375,1.5323636531829834,-0.6762906908988953,-1.498828411102295
1788861950045008100,0.992008056640625,1.6905159950256348,-0.49310389161109924,-0.9516484141349792
1788861950055050500,1.002050537109375,2.1729769706726074,-0.9477986693382263,-0.45489829778671265
1788861950065092400,1.01209228515625,2.6465911865234375,-1.2910250425338745,0.17363572120666504
1788861950075134200,1.02213427734375,3.058519124984741,-1.939097285270691,0.7746214270591736
1788861950085176300,1.03217626953125,3.5919270515441895,-3.0921263694763184,1.0715062618255615
1788861950095218200,1.04221826171875,4.179683685302734,-3.237623929977417,1.2763373851776123
1788861950105260300,1.05226025390625,4.598178386688232,-1.9228957891464233,0.9470776319503784
1788861950115302400,1.062302490234375,4.737179279327393,0.623664379119873,-0.4701746702194214
1788861950125344300,1.07234423828125,4.627042770385742,2.1468892097473145,-1.6144245862960815
1788861950135385300,1.08238525390625,4.341712474822998,2.625732898712158,-1.9149614572525024
1788861950145427200,1.09242724609375,4.328558444976807,2.220700263977051,-1.5821658372879028
1788861950155469000,1.102468994140625,4.5962677001953125,1.5783346891403198,-0.8741404414176941
1788861950165511400,1.112511474609375,4.576501369476318,0.8477872610092163,0.0642843171954155
1788861950175553300,1.12255322265625,4.417988300323486,0.07835102081298828,0.9422531723976135
1788861950185595400,1.132595458984375,4.25174617767334,-0.4277552366256714,1.600858211517334
1788861950195637200,1.14263720703125,3.834016799926758,-0.5361464023590088,1.9302501678466797
1788861950205679000,1.15267919921875,3.0987913608551025,-0.6663051843643188,1.914647102355957
1788861950215721500,1.162721435546875,2.0393898487091064,-0.6069433093070984,1.67683744430542
1788861950225763300,1.172763427734375,1.124416708946228,-0.43438199162483215,1.2045549154281616
1788861950235805200,1.18280517578125,0.5678544044494629,0.363619327545166,0.547080397605896
1788861950245847300,1.192847412109375,0.09038729965686798,0.485865980386734,0.10644499212503433
1788861950255888100,1.20288818359375,-0.30584391951560974,-0.44442304968833923,-0.00500430166721344
1788861950265930200,1.21293017578125,-0.16613051295280457,-0.3841562569141388,0.6797210574150085
1788861950275972400,1.222972412109375,-0.3057326376438141,-0.07733587920665741,0.7616667747497559
1788861950286014200,1.23301416015625,-0.7337192296981812,-0.02528182789683342,0.40134644508361816
1788861950296056300,1.243056396484375,-0.7184990048408508,0.06173482537269592,-0.2509104311466217
1788861950306098200,1.25309814453125,-0.49853214621543884,-0.41309839487075806,-1.2284570932388306
1788861950316140300,1.263140380859375,-0.2461148053407669,-0.6574431657791138,-2.0691795349121094
1788861950326182400,1.273182373046875,-0.35196453332901,-1.0251859426498413,-2.3787810802459717
1788861950336224300,1.283224365234375,-0.4109484851360321,0.4553914964199066,-0.51630699634552
1788861950346266400,1.293266357421875,-0.6493423581123352,2.00262713432312,0.25621339678764343
1788861950356308200,1.30330810546875,-0.41504842042922974,0.9483194351196289,0.06413450837135315
1788861950366349300,1.313349365234375,-0.459189772605896,0.759045422077179,-0.15018230676651
1788861950376391200,1.32339111328125,-0.2901078164577484,0.5940577983856201,-0.32167497277259827
1788861950386433300,1.333433349609375,0.119168221950531,0.7356048822402954,-0.04917663708329201
1788861950396475400,1.343475341796875,0.15226253867149353,1.0023212432861328,-0.19700923562049866
1788861950406517200,1.353517333984375,0.03802106902003288,0.3252095580101013,-0.05608312413096428
1788861950416559000,1.36355908203125,0.034302495419979095,-0.1073857769370079,-0.07681849598884583
1788861950426601200,1.373601318359375,0.026141224429011345,0.26638534665107727,-0.03820330277085304
1788861950436643300,1.383643310546875,-0.12551994621753693,0.24441426992416382,0.07985489815473557
1788861950446685400,1.393685546875,-0.3893164396286011,0.3233139216899872,0.3892917037010193
1788861950456727300,1.403727294921875,-0.7036008834838867,0.5977281332015991,0.46027451753616333
1788861950466769200,1.41376904296875,-1.1106687784194946,0.7514317035675049,0.2364937663078308
1788861950476811300,1.423811279296875,-1.5868022441864014,0.667744517326355,0.20614197850227356
1788861950486852000,1.43385205078125,-1.9096932411193848,0.41349804401397705,-0.059493642300367355
1788861950496894500,1.44389453125,-1.9312254190444946,0.25297096371650696,-0.5565438866615295
1788861950506936300,1.453936279296875,-1.9856646060943604,0.03851032257080078,-0.9924979209899902
1788861950516978200,1.463978271484375,-2.4235482215881348,-0.17385946214199066,-1.0772171020507812
1788861950527020300,1.474020263671875,-2.3298046588897705,-0.31390222907066345,-1.163945198059082
1788861950537062100,1.484062255859375,-1.9897323846817017,0.034518592059612274,-1.333797574043274
1788861950547104300,1.494104248046875,-1.823945164680481,0.08592883497476578,-1.1214510202407837
1788861950557146400,1.504146484375,-1.411346435546875,-0.5483008623123169,-0.6446322202682495
1788861950567188200,1.514188232421875,-0.38531529903411865,-1.1494745016098022,-0.2807009220123291
1788861950577230300,1.524230224609375,-0.4669089615345001,-1.1040666103363037,-0.2332010269165039
1788861950587272200,1.534272216796875,-0.5031135678291321,-1.7288309335708618,-0.2708872854709625
1788861950597313300,1.544313232421875,-0.07528393715620041,-2.4190075397491455,-0.4707886874675751
1788861950607355400,1.55435546875,0.5807834267616272,-3.3566737174987793,-0.6327468752861023
1788861950617397200,1.564397216796875,1.0214697122573853,-5.181522846221924,-1.0219929218292236
1788861950627439400,1.574439453125,1.387940526008606,-4.036543846130371,-0.2559298574924469
1788861950637481200,1.584481201171875,1.1881909370422363,-2.6233103275299072,-0.12932558357715607
1788861950647523000,1.594523193359375,1.1782540082931519,-2.269594192504883,-0.1879599243402481
1788861950657565400,1.6045654296875,1.3890560865402222,-2.626213550567627,0.022521410137414932
1788861950667607300,1.614607177734375,1.411902666091919,-2.5954339504241943,0.10515172779560089
1788861950677649200,1.624649169921875,1.0031588077545166,-1.7917286157608032,0.08849845081567764
1788861950687691300,1.634691162109375,1.4062248468399048,-3.5779800415039062,0.30532142519950867
1788861950697733000,1.644733154296875,1.2683792114257812,-2.602970838546753,0.4233170449733734
1788861950707774200,1.654774169921875,1.0948233604431152,-2.267016649246216,0.36950284242630005
1788861950717816300,1.66481640625,0.1503480076789856,-1.7995891571044922,-0.025546714663505554
1788861950727858400,1.6748583984375,-0.35629457235336304,-1.3463839292526245,-0.388012558221817
1788861950737900300,1.684900390625,-0.5457693934440613,-0.9904322028160095,-0.2948501408100128
1788861950747942100,1.694942138671875,-0.3953514099121094,-0.996220052242279,-0.1963645964860916
1788861950757984300,1.704984375,-0.12164050340652466,-1.42433762550354,-0.30845117568969727
1788861950768026400,1.7150263671875,0.1953543722629547,-0.969817578792572,-0.13228902220726013
1788861950778068200,1.725068115234375,1.3033058643341064,-1.1147875785827637,0.06104183942079544
1788861950788110300,1.7351103515625,1.7268383502960205,-0.3342050015926361,-0.25340020656585693
1788861950798152200,1.745152099609375,1.8830593824386597,-1.0896590948104858,-0.41572946310043335
1788861950808193300,1.755193359375,1.3231581449508667,-1.5410324335098267,-0.40870243310928345
1788861950818235100,1.765235107421875,0.9037984609603882,-1.6493685245513916,-0.5555214285850525
1788861950828277200,1.77527734375,0.34698501229286194,-0.007470924407243729,-0.4554182291030884
1788861950838319400,1.7853193359375,0.2759273648262024,0.7440603375434875,0.21955831348896027
1788861950848361200,1.795361328125,0.40889686346054077,0.3156924843788147,0.9535175561904907
1788861950858403300,1.8054033203125,0.5066604614257812,0.03874954581260681,1.0868366956710815
1788861950868445200,1.815445068359375,0.20463865995407104,-0.1294129639863968,0.7069015502929688
1788861950878487300,1.8254873046875,0.24664656817913055,-0.8226596117019653,0.5416542887687683
1788861950888529400,1.835529296875,0.1840219348669052,-0.7494571208953857,0.2974211871623993
1788861950898571300,1.8455712890625,-0.1291133463382721,-0.3169938921928406,-0.16708312928676605
1788861950908613000,1.855613037109375,-0.24918167293071747,-0.15048259496688843,-0.3500818908214569
1788861950918654200,1.865654296875,-0.2994488477706909,-0.21107883751392365,-0.25624459981918335
1788861950928696000,1.875696044921875,-0.33227747678756714,-0.26154714822769165,-0.07783938199281693
1788861950938738400,1.885738525390625,-0.32354655861854553,-0.20163536071777344,0.13567103445529938
1788861950948780300,1.8957802734375,-0.25474488735198975,0.04980560764670372,0.384034126996994
1788861950958822100,1.905822265625,0.0012616001768037677,0.5574434995651245,0.6099926829338074
1788861950968864300,1.9158642578125,0.650068461894989,0.901881992816925,0.8623870611190796
1788861950978906000,1.925906005859375,1.4658405780792236,1.1851481199264526,1.1032886505126953
1788861950988948200,1.9359482421875,1.7678775787353516,0.9029302000999451,1.0607050657272339
1788861950998990300,1.945990234375,1.7316337823867798,0.8067852854728699,0.6193622946739197
1788861951009032200,1.9560322265625,1.5013833045959473,1.1229523420333862,0.19116154313087463
1788861951019073300,1.9660732421875,1.308832049369812,1.5289030075073242,0.03303183242678642
1788861951029115100,1.976115234375,1.2821437120437622,1.752974510192871,-0.09117653220891953
1788861951039157200,1.9861572265625,1.4093348979949951,1.9287241697311401,-0.06418886035680771
1788861951049199400,1.996199462890625,1.426336646080017,1.415155291557312,0.10804981738328934
1788861951059241200,2.0062412109375,1.323667287826538,0.7049418687820435,0.17994770407676697
1788861951069283300,2.016283447265625,1.1762431859970093,0.16105379164218903,0.2176225334405899
1788861951079325200,2.0263251953125,0.9896277785301208,-0.03556978702545166,0.2567819058895111
1788861951089367000,2.036366943359375,0.77853924036026,0.11064662039279938,0.3487239181995392
1788861951099409400,2.046409423828125,0.6335737705230713,0.10428539663553238,0.3790099322795868
1788861951109451300,2.056451171875,0.5245186686515808,0.1306745707988739,0.25948500633239746
1788861951119492400,2.066492431640625,0.4490814507007599,0.30548954010009766,0.05432361364364624
1788861951129534200,2.0765341796875,0.3523554503917694,0.6141949892044067,-0.05499996617436409
1788861951139576300,2.086576416015625,0.29963818192481995,0.6776871681213379,-0.05221909284591675
1788861951149618200,2.0966181640625,0.1308947056531906,0.44744381308555603,0.029730230569839478
1788861951159660300,2.106660400390625,-0.11723814159631729,0.2612779438495636,0.015140901319682598
1788861951169702400,2.116702392578125,-0.24696657061576843,0.030258784070611,0.005560063757002354
1788861951179744300,2.126744140625,-0.19978521764278412,-0.15132246911525726,0.087163046002388
1788861951189786000,2.1367861328125,-0.09030306339263916,-0.3066985607147217,0.20730789005756378
1788861951199828200,2.146828125,0.09992013871669769,-0.23287734389305115,0.2239672839641571
1788861951209870300,2.156870361328125,0.3261619210243225,0.1385703980922699,0.12176588177680969
1788861951219912200,2.166912109375,0.638812780380249,0.07306702435016632,0.1119244396686554
1788861951229953300,2.176953369140625,1.0757319927215576,-0.2615208327770233,0.23953045904636383
1788861951239995100,2.1869951171875,1.1662260293960571,-0.3603406250476837,0.3714427053928375
1788861951250037200,2.197037353515625,1.1207269430160522,-0.6485359072685242,0.3397623896598816
1788861951260079000,2.2070791015625,1.0255506038665771,-1.135483741760254,0.1634688526391983
1788861951270121200,2.217121337890625,0.6967097520828247,-2.57489013671875,-0.11354296654462814
1788861951280163300,2.227163330078125,0.26826146245002747,-4.090974807739258,-0.16832658648490906
1788861951290205200,2.237205078125,-0.13062332570552826,-5.52761697769165,0.24173350632190704
1788861951300247300,2.247247314453125,-0.5663942098617554,-5.986501216888428,0.8983758091926575
1788861951310289200,2.2572890625,-1.9130241870880127,-4.519018173217773,2.1354122161865234
1788861951320331300,2.267331298828125,-2.746583938598633,-3.4303464889526367,2.1845104694366455
1788861951330372400,2.277372314453125,-2.067084312438965,-3.4327709674835205,1.0234817266464233
1788861951340414200,2.287414306640625,-0.9361998438835144,-3.8140103816986084,-0.2384997457265854
1788861951350456300,2.297456298828125,-1.3526127338409424,-2.2621445655822754,-0.31270015239715576
1788861951360498200,2.307498291015625,-1.8394625186920166,-0.637825608253479,-0.5258057117462158
1788861951370540000,2.3175400390625,-0.9809585213661194,-0.03526393324136734,-1.5097079277038574
1788861951380582400,2.32758251953125,-0.21274468302726746,0.4696868360042572,-2.257896661758423
1788861951390624300,2.337624267578125,0.20629757642745972,0.49036622047424316,-2.1463959217071533
1788861951400666000,2.347666015625,0.666388213634491,-0.34475767612457275,-1.4846296310424805
1788861951410708200,2.357708251953125,0.9703514575958252,-0.388021320104599,-1.048032522201538
1788861951420750000,2.36775,0.9491302967071533,-0.4356759190559387,-0.7674016356468201
1788861951430791200,2.377791259765625,0.8086034059524536,-0.9782242774963379,-0.6431029438972473
1788861951440833300,2.387833251953125,0.6502915620803833,-1.6073065996170044,-0.585982084274292
1788861951450875400,2.39787548828125,0.5962992906570435,-2.3804774284362793,-0.6311471462249756
1788861951460917200,2.407917236328125,0.5359302163124084,-3.051985263824463,-0.6175104379653931
1788861951470959000,2.417958984375,0.42354920506477356,-3.4226791858673096,-0.4481828212738037
1788861951481001200,2.428001220703125,0.7030991315841675,-4.248523712158203,-0.18149760365486145
1788861951491043300,2.438043212890625,0.9441595673561096,-1.4500670433044434,-0.5635534524917603
1788861951501085200,2.448085205078125,0.7894740700721741,0.4027537703514099,-0.635521650314331
1788861951511127300,2.458127197265625,1.0078753232955933,0.729263186454773,-0.3379836976528168
1788861951521169200,2.468169189453125,0.9201812148094177,0.827148973941803,0.0838698148727417
1788861951531210200,2.478210205078125,0.784293532371521,0.0680120661854744,0.2711528241634369
1788861951541252000,2.488252197265625,0.8010397553443909,-0.522211492061615,0.15257799625396729
1788861951551294200,2.498294189453125,0.9454118609428406,-0.37952521443367004,0.16108225286006927
1788861951561336300,2.50833642578125,1.014256477355957,-0.3707655370235443,0.30025985836982727
1788861951571378200,2.518378173828125,0.9193464517593384,-0.28549858927726746,0.4652552008628845
1788861951581420300,2.528420166015625,0.7972500920295715,-0.10440947860479355,0.5040023326873779
1788861951591462100,2.538462158203125,0.8230761289596558,0.08135300874710083,0.4637964367866516
1788861951601504300,2.548504150390625,0.867666482925415,0.3223613500595093,0.49059581756591797
1788861951611546400,2.55854638671875,0.8793195486068726,0.4228963255882263,0.5413190126419067
1788861951621587200,2.568587158203125,0.6913637518882751,0.47808289527893066,0.6422804594039917
1788861951631629300,2.57862939453125,0.4472457468509674,0.22032701969146729,0.6899322271347046
1788861951641671200,2.588671142578125,0.32363033294677734,0.03926375135779381,0.7394987344741821
1788861951651713000,2.598713134765625,0.3445470929145813,0.01906486228108406,0.7451697587966919
1788861951661755400,2.60875537109375,0.24342845380306244,0.36061498522758484,0.6746881604194641
1788861951671797200,2.61879736328125,0.17647871375083923,0.649638831615448,0.45536819100379944
1788861951681839000,2.628839111328125,0.20384696125984192,0.7619930505752563,0.2189154475927353
1788861951691881200,2.638881103515625,0.22075028717517853,0.7853832244873047,0.003789573907852173
1788861951701923000,2.648923095703125,0.18407189846038818,0.3886236548423767,-0.17382942140102386
1788861951711965400,2.65896533203125,0.06420489400625229,0.16481587290763855,-0.12391605973243713
1788861951722007300,2.66900732421875,-0.016276635229587555,0.14400513470172882,-0.08052384853363037
1788861951732048400,2.67904833984375,-0.06803729385137558,0.13175836205482483,-0.14883700013160706
1788861951742090200,2.68909033203125,-0.020653799176216125,0.20848456025123596,-0.2041010558605194
1788861951752132000,2.699132080078125,0.07676036655902863,0.26027265191078186,-0.18094752728939056
1788861951762174200,2.70917431640625,0.1368093192577362,0.3125547766685486,-0.07822620868682861
1788861951772216300,2.71921630859375,0.16115061938762665,0.37121886014938354,-0.004928822163492441
1788861951782258200,2.729258056640625,0.04779289662837982,0.3669005334377289,0.023059668019413948
1788861951792300300,2.73930029296875,-0.13250988721847534,0.3871394097805023,0.0050433119758963585
1788861951802342100,2.749342041015625,-0.28819960355758667,0.38064903020858765,0.03214284032583237
1788861951812384300,2.75938427734375,-0.3624115288257599,0.6453619003295898,0.06540212780237198
1788861951822425000,2.769425048828125,-0.37449854612350464,0.6622066497802734,0.08694976568222046
1788861951832467200,2.77946728515625,-0.2286517322063446,0.6436533331871033,0.1773887723684311
1788861951842509300,2.78950927734375,0.0728045180439949,0.43158796429634094,0.41628819704055786
1788861951852551200,2.79955126953125,0.459410160779953,-0.09934734553098679,0.6064378023147583
1788861951862593300,2.80959326171875,0.691438615322113,-0.4724293053150177,0.6212852001190186
1788861951872635100,2.81963525390625,0.7224659323692322,-0.8980059027671814,0.4183221757411957
1788861951882677200,2.82967724609375,0.41342440247535706,-1.1110789775848389,0.09170544147491455
1788861951892719400,2.83971923828125,0.10803134739398956,-1.3877546787261963,-0.011372948996722698
1788861951902761200,2.84976123046875,-0.21819843351840973,-1.6932661533355713,0.12144768238067627
1788861951912802300,2.85980224609375,-0.5316634178161621,-1.9878852367401123,0.43904948234558105
1788861951922844200,2.86984423828125,-0.8226419687271118,-2.0922014713287354,0.6384110450744629
1788861951932886000,2.879885986328125,-0.9188607931137085,-1.7009683847427368,0.58612060546875
1788861951942928400,2.889928466796875,-0.7996870279312134,-0.7963892221450806,0.23094628751277924
1788861951952970200,2.89997021484375,-0.3779926002025604,0.011598838493227959,-0.21968914568424225
1788861951963012000,2.91001220703125,0.0247348640114069,0.25417444109916687,-0.4911361038684845
1788861951973054000,2.920053955078125,-0.08395207673311234,0.10983870923519135,-0.5818767547607422
1788861951983096000,2.930095947265625,-0.31514960527420044,0.0901440978050232,-0.5361955165863037
1788861951993138200,2.94013818359375,-0.4824523329734802,0.3726721405982971,-0.2981095612049103
1788861952003179000,2.950178955078125,-0.49654629826545715,0.6097416877746582,-0.08950016647577286
1788861952013221000,2.96022119140625,-0.42590194940567017,0.3950994610786438,-0.08477319777011871
1788861952023263000,2.970262939453125,-0.0023874377366155386,-0.6599839329719543,-0.3768974542617798
1788861952033304800,2.980304931640625,0.4744451642036438,-1.2730401754379272,-0.4833071231842041
1788861952043347200,2.99034716796875,0.653297483921051,-0.9345337748527527,-0.3601185977458954
1788861952053389000,3.00038916015625,0.9757680892944336,-0.7016023397445679,-0.28972962498664856
1788861952063431000,3.010430908203125,1.5608283281326294,-0.9974846243858337,-0.36191272735595703
1788861952073473000,3.02047314453125,1.7517257928848267,-1.4608129262924194,-0.3720475137233734
1788861952083515000,3.030514892578125,1.921531319618225,-2.2484593391418457,-0.4713940918445587
1788861952093557000,3.040556884765625,1.9095462560653687,-2.7545273303985596,-0.5292168259620667
1788861952103598000,3.05059814453125,1.8025052547454834,-2.2401912212371826,-0.49659523367881775
1788861952113640200,3.06064013671875,1.419150948524475,-0.9691098928451538,-0.06471119821071625
1788861952123682000,3.07068212890625,1.274503469467163,-0.5520759224891663,0.27908557653427124
1788861952133724000,3.080723876953125,0.9613139033317566,-0.43390554189682007,0.5766605734825134
1788861952143766000,3.09076611328125,0.6581097841262817,-0.25430354475975037,0.6002468466758728
1788861952153808100,3.10080810546875,0.3845670819282532,0.02181844413280487,0.4238108694553375
1788861952163850000,3.11085009765625,0.2074868381023407,0.2641775608062744,0.22274114191532135
1788861952173892000,3.12089208984375,0.10304844379425049,0.43645918369293213,0.056167542934417725
1788861952183934000,3.130933837890625,0.01978444494307041,0.45852214097976685,-0.03375249356031418
1788861952193975000,3.14097509765625,-0.036563239991664886,0.4131126403808594,-0.0711563304066658
1788861952204017000,3.151016845703125,-0.07759828865528107,0.2917289435863495,-0.0881052240729332
1788861952214059000,3.16105908203125,-0.06608079373836517,0.22967709600925446,-0.09014485776424408
1788861952224101000,3.17110107421875,-0.07197809964418411,0.10023096203804016,-0.0985332801938057
1788861952234143000,3.18114306640625,0.03396085649728775,-0.009627053514122963,-0.14485286176204681
1788861952244185000,3.19118505859375,0.13925984501838684,-0.056632380932569504,-0.15598326921463013
1788861952254227000,3.20122705078125,0.16559410095214844,-0.14371180534362793,-0.146204873919487
1788861952264269000,3.21126904296875,0.1378844529390335,-0.18001815676689148,-0.13782230019569397
1788861952274311200,3.221311279296875,0.1263500452041626,-0.06412079185247421,-0.11367835104465485
1788861952284352000,3.23135205078125,0.07350999861955643,0.0662771612405777,-0.11067643761634827
1788861952294394000,3.24139404296875,0.036882348358631134,0.06616683304309845,-0.04548965021967888
1788861952304436000,3.25143603515625,0.003990181256085634,0.054412439465522766,0.019956467673182487
1788861952314477800,3.261477783203125,0.0005035628564655781,0.026742661371827126,0.0472344309091568
1788861952324520200,3.271520263671875,0.03673506900668144,-0.04955504089593887,0.0631265789270401
1788861952334562000,3.28156201171875,0.0924900695681572,-0.0419393815100193,0.0761236771941185
1788861952344604000,3.29160400390625,0.12197818607091904,-0.027276013046503067,0.07141334563493729
1788861952354646000,3.30164599609375,0.10916253179311752,-0.0010094475001096725,0.056552495807409286
1788861952364688000,3.31168798828125,0.07273661345243454,-0.06691203266382217,0.02919331006705761
1788861952374729000,3.32172900390625,0.050808414816856384,-0.11893422156572342,0.006459768395870924
1788861952384771000,3.33177099609375,0.005155975930392742,-0.15991200506687164,-0.053884800523519516
1788861952394813200,3.341813232421875,-0.0329248383641243,-0.1451253741979599,-0.10859344899654388
1788861952404855000,3.35185498046875,-0.04279877245426178,-0.04356812685728073,-0.11088137328624725
1788861952414897000,3.36189697265625,-0.06878376752138138,-0.003322436474263668,-0.12342432886362076
1788861952424939000,3.37193896484375,-0.07692904770374298,0.03708783909678459,-0.1477762758731842
1788861952434981000,3.381981201171875,-0.05020608380436897,0.1256992369890213,-0.16612373292446136
1788861952445023000,3.39202294921875,-0.05282050743699074,0.1656104326248169,-0.15110082924365997
1788861952455065000,3.402065185546875,-0.11395256966352463,0.1915040761232376,-0.12846316397190094
1788861952465106000,3.41210595703125,-0.09556929767131805,0.2818012535572052,-0.08475576341152191
1788861952475148000,3.42214794921875,-0.058302901685237885,0.24980299174785614,-0.024663783609867096
1788861952485190000,3.43218994140625,-0.07048633694648743,0.11173991113901138,0.011274242773652077
1788861952495232000,3.44223193359375,-0.061156608164310455,0.11045271158218384,0.012400819920003414
1788861952505274000,3.452274169921875,0.017558176070451736,-0.27166882157325745,-0.030427072197198868
1788861952515316000,3.46231591796875,0.010251399129629135,-0.5358531475067139,-0.04925675690174103
1788861952525358000,3.472358154296875,-0.668978214263916,-0.24709193408489227,0.11500781774520874
1788861952535400000,3.48239990234375,0.004711894318461418,-0.22095711529254913,0.03870232775807381
1788861952545442000,3.492442138671875,-0.26002442836761475,0.11335747689008713,0.05450419336557388
1788861952555483100,3.502483154296875,-0.3715052902698517,-0.009577669203281403,-0.004143471829593182
1788861952565525000,3.51252490234375,-0.3360769748687744,-0.2212291955947876,-0.058360371738672256
1788861952575567000,3.522567138671875,-0.27070021629333496,-0.1632125973701477,-0.07452303171157837
1788861952585609000,3.53260888671875,-0.2515036463737488,-0.08042184263467789,-0.10040629655122757
1788861952595650800,3.54265087890625,-0.3065778315067291,0.002763081341981888,-0.14934533834457397
1788861952605693200,3.552693115234375,-0.5664793848991394,0.2036764770746231,-0.19319003820419312
1788861952615735000,3.562735107421875,-0.547598659992218,0.4393566846847534,-0.17090535163879395
1788861952625777000,3.57277685546875,-0.7024250030517578,0.5512933731079102,-0.11633799225091934
1788861952635818000,3.58281787109375,-0.9389315843582153,0.5766790509223938,-0.06619572639465332
1788861952645859800,3.59285986328125,-1.1278321743011475,0.6669796705245972,0.008088355883955956
1788861952655902000,3.60290185546875,-1.0988603830337524,0.672778844833374,0.07509662210941315
1788861952665944000,3.612944091796875,-0.6647952198982239,0.28527748584747314,0.047744087874889374
1788861952675986200,3.622986083984375,-0.21316982805728912,-0.0785980299115181,0.014382204040884972
1788861952686028000,3.633028076171875,0.052725233137607574,-0.29317134618759155,-0.022442122921347618
1788861952696070000,3.64306982421875,0.17900700867176056,-0.17505399882793427,0.011968049220740795
1788861952706112000,3.653112060546875,0.11312758922576904,-0.04088287800550461,0.06516016274690628
1788861952716154000,3.663154052734375,0.0038538265507668257,-0.04482760652899742,0.12257058918476105
1788861952726195200,3.6731953125,-0.01855747401714325,-0.030838821083307266,0.16280296444892883
1788861952736237000,3.683237060546875,0.0046362560242414474,0.03601658344268799,0.01812101900577545
1788861952746279000,3.69327880859375,-0.19579032063484192,0.07024939358234406,-0.07120832800865173
1788861952756321000,3.703321044921875,-0.1967831254005432,-0.1100556030869484,-0.2203112542629242
1788861952766363000,3.71336279296875,-0.11064665019512177,-0.2561315894126892,-0.3571609854698181
1788861952776405000,3.723405029296875,-0.07507574558258057,-0.2142556756734848,-0.3417566418647766
1788861952786447000,3.733447021484375,0.10843336582183838,-0.33238205313682556,-0.21795962750911713
1788861952796489000,3.743489013671875,0.279560923576355,-0.3550742566585541,-0.02009860798716545
1788861952806531000,3.753531005859375,0.22115273773670197,-0.20258989930152893,0.11628399789333344
1788861952816572000,3.763572021484375,0.11113620549440384,-0.12368661910295486,0.08258210122585297
1788861952826614000,3.773614013671875,0.1304883360862732,-0.2023923546075821,-0.024437561631202698
1788861952836656000,3.78365625,0.19192826747894287,-0.17546959221363068,-0.060670800507068634
1788861952846698000,3.793697998046875,0.2110433727502823,-0.01533239521086216,-0.06771432608366013
1788861952856740000,3.803739990234375,0.10035586357116699,0.0024781115353107452,-0.12380016595125198
1788861952866782000,3.813781982421875,0.10772722959518433,-0.18490776419639587,-0.21724463999271393
1788861952876823800,3.82382373046875,0.11712059378623962,-0.32477280497550964,-0.2886640429496765
1788861952886866200,3.8338662109375,0.14150211215019226,-0.40399226546287537,-0.3946349024772644
1788861952896907000,3.843906982421875,0.206472709774971,-0.5055257081985474,-0.4854619801044464
1788861952906949000,3.85394921875,0.2752557694911957,-0.5437708497047424,-0.531480073928833
1788861952916991000,3.863990966796875,0.3318936228752136,-0.45337358117103577,-0.5150343179702759
1788861952927032800,3.87403271484375,0.3646118938922882,-0.3145214319229126,-0.45911404490470886
1788861952937075000,3.884074951171875,0.3709218204021454,-0.2642422616481781,-0.3813299834728241
1788861952947117000,3.894116943359375,0.3301565647125244,-0.25055256485939026,-0.29376497864723206
1788861952957159200,3.9041591796875,0.27654021978378296,-0.2006770819425583,-0.23454253375530243
1788861952967201000,3.914200927734375,0.24120913445949554,-0.17847883701324463,-0.23672260344028473
1788861952977243600,3.92424365234375,0.2545800507068634,-0.23210160434246063,-0.2553005516529083
1788861952987284700,3.93428466796875,0.271088182926178,-0.3138587772846222,-0.25435033440589905
1788861952997326600,3.94432666015625,0.26808643341064453,-0.3670442998409271,-0.24706824123859406
1788861953007368400,3.954368408203125,0.23788483440876007,-0.4013247787952423,-0.2444911003112793
1788861953017410800,3.964410888671875,0.20226052403450012,-0.3890613317489624,-0.2019345760345459
1788861953027452700,3.97445263671875,0.1511898785829544,-0.30938515067100525,-0.1125655546784401
1788861953037494800,3.984494873046875,0.08191227912902832,-0.2191571742296219,-0.02300078794360161
1788861953047536600,3.99453662109375,0.02811562642455101,-0.12314515560865402,0.03101930394768715
1788861953057578500,4.00457861328125,-0.0010369291994720697,-0.022736193612217903,0.08156503736972809
1788861953067619600,4.01461962890625,0.005893681198358536,0.06736999750137329,0.1458260416984558
1788861953077661700,4.02466162109375,0.06510253995656967,0.1370410919189453,0.19363892078399658
1788861953087703800,4.034703857421875,0.13151085376739502,0.18546295166015625,0.22983819246292114
1788861953097745700,4.04474560546875,0.18164406716823578,0.2593400478363037,0.25031962990760803
1788861953107787500,4.05478759765625,0.22029133141040802,0.3248642086982727,0.25154656171798706
1788861953117829600,4.06482958984375,0.23777523636817932,0.3185218274593353,0.24233347177505493
1788861953127871700,4.074871826171875,0.22176671028137207,0.3501191735267639,0.23570486903190613
1788861953137913600,4.08491357421875,0.2124364674091339,0.4032566547393799,0.2674294412136078
1788861953147954700,4.09495458984375,0.18416914343833923,0.3999689817428589,0.32231026887893677
1788861953157996500,4.10499658203125,0.1690201461315155,0.37288421392440796,0.390828937292099
1788861953168038700,4.11503857421875,0.161880761384964,0.35132884979248047,0.457211434841156
1788861953178080500,4.12508056640625,0.13509361445903778,0.2838352918624878,0.5194640159606934
1788861953188122600,4.13512255859375,0.11754630506038666,0.2602418065071106,0.5695056319236755
1788861953198164700,4.145164794921875,0.08646907657384872,0.24919258058071136,0.611474871635437
1788861953208206600,4.15520654296875,0.024623289704322815,0.20031186938285828,0.6556016206741333
1788861953218248700,4.165248779296875,-0.06618423759937286,0.09002469480037689,0.6898234486579895
1788861953228289500,4.17528955078125,-0.14950284361839294,0.05469440296292305,0.7085055112838745
1788861953238331600,4.18533154296875,-0.18373803794384003,0.08372125029563904,0.7053772211074829
1788861953248373800,4.195373779296875,-0.189717635512352,0.00872317235916853,0.6657914519309998
1788861953258415600,4.20541552734375,-0.2270868420600891,-0.12217835336923599,0.6239174008369446
1788861953268457700,4.215457763671875,-0.3038311302661896,-0.19750826060771942,0.6297428011894226
1788861953278499600,4.22549951171875,-0.3998391628265381,-0.19699139893054962,0.6804237961769104
1788861953288541400,4.23554150390625,-0.4828437864780426,-0.12088359147310257,0.7212585806846619
1788861953298583800,4.245583740234375,-0.5528018474578857,-0.07535122334957123,0.7089892625808716
1788861953308625700,4.255625732421875,-0.5870596766471863,-0.058554135262966156,0.6757415533065796
1788861953318666800,4.265666748046875,-0.5878090858459473,-0.07749908417463303,0.6677789688110352
1788861953328708600,4.27570849609375,-0.5575153231620789,-0.16239319741725922,0.6653304696083069
1788861953338750700,4.285750732421875,-0.5343585014343262,-0.27293500304222107,0.6510882377624512
1788861953348792600,4.29579248046875,-0.5204349160194397,-0.3535262644290924,0.6274934411048889
1788861953358834700,4.305834716796875,-0.49970293045043945,-0.40308353304862976,0.5613486766815186
1788861953368876800,4.315876708984375,-0.45897600054740906,-0.4193418622016907,0.4462684392929077
1788861953378918700,4.325918701171875,-0.3801622688770294,-0.4688245952129364,0.3424646258354187
1788861953388960500,4.33596044921875,-0.2920883595943451,-0.5730282664299011,0.30642643570899963
1788861953399001600,4.346001708984375,-0.219978466629982,-0.6421599388122559,0.3161664307117462
1788861953409043500,4.35604345703125,-0.18035276234149933,-0.6570267677307129,0.3451400101184845
1788861953419085800,4.3660859375,-0.1565939038991928,-0.6415510773658752,0.37259092926979065
1788861953429127700,4.376127685546875,-0.13587717711925507,-0.6124328970909119,0.39017340540885925
1788861953439169500,4.38616943359375,-0.11314468830823898,-0.5741973519325256,0.3775634765625
1788861953449211600,4.396211669921875,-0.08181259781122208,-0.5455712676048279,0.32847049832344055
1788861953459253500,4.40625341796875,-0.040732014924287796,-0.5080098509788513,0.2431780993938446
1788861953469295600,4.416295654296875,-0.00751121062785387,-0.5023317337036133,0.20911414921283722
1788861953479336700,4.426336669921875,0.011526660993695259,-0.48179054260253906,0.26408523321151733
1788861953489378800,4.43637890625,-0.0072238571010529995,-0.3696344494819641,0.37906455993652344
1788861953499420700,4.446420654296875,-0.060352448374032974,-0.2203667014837265,0.48554727435112
1788861953509462500,4.456462646484375,-0.14042198657989502,-0.10835681110620499,0.5155379176139832
1788861953519504600,4.466504638671875,-0.23974910378456116,-0.030282292515039444,0.50150066614151
1788861953529546800,4.476546630859375,-0.36613473296165466,0.08755219727754593,0.5012021064758301
1788861953539588600,4.486588623046875,-0.48375269770622253,0.2414000779390335,0.542557954788208
1788861953549630700,4.496630615234375,-0.5793639421463013,0.35952460765838623,0.6059576869010925
1788861953559671600,4.506671630859375,-0.6420567631721497,0.45536550879478455,0.680370569229126
1788861953569713700,4.516713623046875,-0.6696569323539734,0.5402114391326904,0.7439501285552979
1788861953579755500,4.526755615234375,-0.6667476892471313,0.5956659317016602,0.7608178853988647
1788861953589797600,4.536797607421875,-0.6393682360649109,0.563250720500946,0.7540857195854187
1788861953599839700,4.54683984375,-0.6114010810852051,0.49619102478027344,0.768136203289032
1788861953609881600,4.556881591796875,-0.6422423720359802,0.5299162268638611,0.8312802910804749
1788861953619923700,4.566923828125,-0.6923375129699707,0.5682651996612549,0.9552121758460999
1788861953629965600,4.576965576171875,-0.7383031249046326,0.6363539695739746,1.1095117330551147
1788861953640006700,4.587006591796875,-0.7356284856796265,0.772840678691864,1.2583531141281128
1788861953650048800,4.597048828125,-0.6829010844230652,0.937142550945282,1.365028977394104
1788861953660090600,4.607090576171875,-0.5697363615036011,1.0574126243591309,1.4019684791564941
1788861953670132700,4.6171328125,-0.4046475291252136,1.0655497312545776,1.355575442314148
1788861953680174600,4.627174560546875,-0.21471339464187622,0.9463896155357361,1.2302266359329224
1788861953690216400,4.637216552734375,-0.04827248305082321,0.7617515921592712,1.0748244524002075
1788861953700258800,4.6472587890625,0.05561250075697899,0.594372570514679,0.9590017795562744
1788861953710300700,4.65730078125,0.08860986679792404,0.4639655351638794,0.9017829895019531
1788861953720341800,4.667341796875,0.0627933144569397,0.3511661887168884,0.8761688470840454
1788861953730383600,4.677383544921875,-0.015377385541796684,0.25499650835990906,0.8820776343345642
1788861953740425500,4.687425537109375,-0.13519594073295593,0.15218842029571533,0.8615114092826843
1788861953750467600,4.697467529296875,-0.2689361572265625,-0.01980305090546608,0.7645808458328247
1788861953760509700,4.707509765625,-0.3867100775241852,-0.2507708966732025,0.6084679961204529
1788861953770551800,4.7175517578125,-0.49566105008125305,-0.3792271316051483,0.44180577993392944
1788861953780593700,4.72759375,-0.6138976812362671,-0.3352535665035248,0.3142154812812805
1788861953790634800,4.737634765625,-0.7103821635246277,-0.1850494146347046,0.272007554769516
1788861953800676600,4.747676513671875,-0.745822548866272,-0.007829468697309494,0.33323758840560913
1788861953810718500,4.757718505859375,-0.7238778471946716,0.12805218994617462,0.4484054446220398
1788861953820760800,4.7677607421875,-0.6787199378013611,0.17428192496299744,0.5649667978286743
1788861953830802700,4.777802734375,-0.6265659332275391,0.18645842373371124,0.6621074676513672
1788861953840844500,4.787844482421875,-0.5838803648948669,0.184630885720253,0.7407224178314209
1788861953850886700,4.79788671875,-0.5397797226905823,0.2218104749917984,0.7963878512382507
1788861953860928500,4.807928466796875,-0.4702100157737732,0.31186342239379883,0.8310961723327637
1788861953870969600,4.817969482421875,-0.36324575543403625,0.3624056875705719,0.8433749079704285
1788861953881011700,4.82801171875,-0.265502005815506,0.40493300557136536,0.8426610827445984
1788861953891053600,4.838053466796875,-0.18967010080814362,0.4876081943511963,0.8314641118049622
1788861953901095700,4.848095703125,-0.14165422320365906,0.5893850326538086,0.8037561178207397
1788861953911137500,4.858137451171875,-0.11604740470647812,0.6982806324958801,0.7585425972938538
1788861953921179600,4.8681796875,-0.1114698275923729,0.8015938401222229,0.6973589062690735
1788861953931221800,4.8782216796875,-0.12473983317613602,0.8724530935287476,0.6129806637763977
1788861953941262800,4.888262939453125,-0.15805718302726746,0.867903470993042,0.5093362331390381
1788861953951304700,4.8983046875,-0.18342138826847076,0.7295717000961304,0.383638471364975
1788861953961346600,4.9083466796875,-0.17423614859580994,0.4117380380630493,0.26453498005867004
1788861953971388700,4.918388671875,-0.14922720193862915,-0.02678099274635315,0.18784527480602264
1788861953981430500,4.928430419921875,-0.12234924733638763,-0.40752723813056946,0.13792619109153748
1788861953991472400,4.938472412109375,-0.13042448461055756,-0.574062705039978,0.052886925637722015
1788861954001514800,4.9485146484375,-0.1654069721698761,-0.5187618732452393,-0.027863306924700737
1788861954011556600,4.958556640625,-0.202530637383461,-0.31324994564056396,-0.0930284634232521
1788861954021597700,4.96859765625,-0.22011788189411163,-0.05561424046754837,-0.12363111972808838
1788861954031639600,4.9786396484375,-0.22301407158374786,0.149483785033226,-0.12604980170726776
1788861954041681400,4.988681396484375,-0.2250516563653946,0.24187661707401276,-0.12719814479351044
1788861954051723800,4.998723876953125,-0.2671210765838623,0.2613834738731384,-0.1694028526544571
1788861954061765600,5.008765625,-0.3202837407588959,0.26685693860054016,-0.25351154804229736
1788861954071807700,5.018807861328125,-0.33083999156951904,0.21676874160766602,-0.3286569118499756
1788861954081849600,5.028849609375,-0.2611764967441559,0.12179215997457504,-0.3764481246471405
1788861954091891500,5.038891357421875,-0.17548343539237976,0.12300442904233932,-0.42034581303596497
1788861954101932500,5.0489326171875,-0.10149296373128891,0.2581069767475128,-0.43647971749305725
1788861954111974700,5.058974609375,-0.03582500293850899,0.4480865001678467,-0.4482404887676239
1788861954122016800,5.069016845703125,0.01783529669046402,0.6542676687240601,-0.41911575198173523
1788861954132058600,5.07905859375,0.04120586812496185,0.7837119102478027,-0.3709133267402649
1788861954142100500,5.0891005859375,0.0742354542016983,0.6344435811042786,-0.3278367221355438
1788861954152142600,5.099142578125,0.12457558512687683,0.3364963233470917,-0.3566949963569641
1788861954162184700,5.109184814453125,0.15023288130760193,0.09962935745716095,-0.4837743043899536
1788861954172225800,5.119225830078125,0.1582665741443634,-0.06881238520145416,-0.6022000312805176
1788861954182267600,5.129267578125,0.17163030803203583,-0.1342872828245163,-0.6894944310188293
1788861954192309500,5.1393095703125,0.1855916678905487,0.0050120167434215546,-0.7806895971298218
1788861954202351600,5.1493515625,0.20090924203395844,0.30312877893447876,-0.8765562772750854
1788861954212393500,5.1593935546875,0.1678469032049179,0.6508172750473022,-0.9385594725608826
1788861954222435800,5.169435791015625,0.11158335953950882,0.8649742603302002,-1.001952886581421
1788861954232477700,5.179477783203125,0.08495893329381943,0.7990565299987793,-1.0595672130584717
1788861954242519600,5.18951953125,0.098271943628788,0.5654130578041077,-1.0514096021652222
1788861954252560600,5.199560546875,0.11992450803518295,0.4466738700866699,-0.9112765192985535
1788861954262602500,5.2096025390625,0.0738598108291626,0.31219151616096497,-0.7332137823104858
1788861954272644600,5.21964453125,0.06959103047847748,0.1406562179327011,-0.5599019527435303
1788861954282686700,5.229686767578125,0.0342576801776886,0.015288205817341805,-0.5041329264640808
1788861954292728600,5.239728515625,-0.09300733357667923,0.02056819014251232,-0.4741329252719879
1788861954302770700,5.249770751953125,-0.2766995429992676,-0.06372252851724625,-0.41686612367630005
1788861954312812500,5.2598125,-0.4610009491443634,-0.20783762633800507,-0.36440610885620117
1788861954322853600,5.269853515625,-0.5609047412872314,-0.1683143675327301,-0.29449141025543213
1788861954332895500,5.2798955078125,-0.6073151230812073,-0.022464754059910774,-0.19084011018276215
1788861954342937600,5.2899375,-0.6157652139663696,0.07633200287818909,-0.10937514901161194
1788861954352979700,5.299979736328125,-0.5763291120529175,0.06242603808641434,-0.06565456092357635
1788861954363021600,5.310021484375,-0.5485072135925293,0.024418611079454422,-0.0741349309682846
1788861954373063700,5.320063720703125,-0.5213600397109985,0.00346272811293602,-0.1172131597995758
1788861954383105500,5.33010546875,-0.4756166338920593,0.011087284423410892,-0.18006713688373566
1788861954393146600,5.340146728515625,-0.4142315685749054,0.01293099019676447,-0.2558647096157074
1788861954403188700,5.350188720703125,-0.3758464753627777,0.06104112043976784,-0.3287079632282257
1788861954413230600,5.360230712890625,-0.3644936978816986,0.10399284958839417,-0.38266468048095703
1788861954423272700,5.370272705078125,-0.34118741750717163,0.05313563719391823,-0.42603179812431335
1788861954433314600,5.380314453125,-0.2944486737251282,-0.01634703390300274,-0.4651850461959839
1788861954443356400,5.3903564453125,-0.2604008615016937,-0.08225983381271362,-0.4797511100769043
1788861954453398800,5.400398681640625,-0.23968413472175598,-0.14639808237552643,-0.46543529629707336
1788861954463440600,5.410440673828125,-0.23117105662822723,-0.1564674973487854,-0.4190985858440399
1788861954473481700,5.420481689453125,-0.190503790974617,-0.08821334689855576,-0.34005436301231384
1788861954483523600,5.430523681640625,-0.10692527145147324,0.016774283722043037,-0.2529903054237366
1788861954493565400,5.4405654296875,0.004292589146643877,0.14566461741924286,-0.18310202658176422
1788861954503607600,5.450607666015625,0.08848083764314651,0.20277920365333557,-0.147516667842865
1788861954513649700,5.460649658203125,0.13227252662181854,0.14229056239128113,-0.15367522835731506
1788861954523691800,5.47069189453125,0.14491748809814453,0.002763020806014538,-0.19640164077281952
1788861954533733600,5.480733642578125,0.14265672862529755,-0.1521139144897461,-0.2658883035182953
1788861954543774700,5.490774658203125,0.12722450494766235,-0.224651500582695,-0.330570250749588
1788861954553816600,5.500816650390625,0.11998842656612396,-0.14017418026924133,-0.3785231411457062
1788861954563858400,5.5108583984375,0.10420161485671997,0.04012621194124222,-0.40751996636390686
1788861954573900800,5.52090087890625,0.09528614580631256,0.25623854994773865,-0.42137637734413147
1788861954583942700,5.530942626953125,0.0835193619132042,0.45188409090042114,-0.435253381729126
1788861954593984500,5.540984619140625,0.0876869484782219,0.5604779124259949,-0.4352605640888214
1788861954604026600,5.551026611328125,0.09939020872116089,0.5964963436126709,-0.42605069279670715
1788861954614067500,5.5610673828125,0.11198723316192627,0.6017294526100159,-0.40059566497802734
1788861954624109600,5.571109619140625,0.1225953996181488,0.5850338935852051,-0.3534349501132965
1788861954634151700,5.581151611328125,0.129813089966774,0.5499041080474854,-0.2974688708782196
1788861954644193500,5.591193603515625,0.12111880630254745,0.4943629801273346,-0.24406524002552032
1788861954654235600,5.601235595703125,0.1112334206700325,0.42085200548171997,-0.19530969858169556
1788861954664277500,5.611277587890625,0.1015835851430893,0.3216119110584259,-0.16605530679225922
1788861954674319600,5.621319580078125,0.09199460595846176,0.247506782412529,-0.17018374800682068
1788861954684361700,5.63136181640625,0.08102332055568695,0.24254244565963745,-0.2105731964111328
1788861954694402800,5.64140283203125,0.07442880421876907,0.2771470546722412,-0.27786698937416077
1788861954704444700,5.651444580078125,0.06179702654480934,0.2905138432979584,-0.35607677698135376
1788861954714486500,5.661486572265625,0.05491461604833603,0.2754369080066681,-0.4210752248764038
1788861954724528600,5.671528564453125,0.05410301685333252,0.2662307620048523,-0.46179622411727905
1788861954734570500,5.681570556640625,0.052039600908756256,0.260017067193985,-0.492990642786026
1788861954744612600,5.691612548828125,0.04836471006274223,0.25072744488716125,-0.535013735294342
1788861954754654700,5.70165478515625,0.03179611638188362,0.25524789094924927,-0.5914279818534851
1788861954764695600,5.711695556640625,0.011403760872781277,0.282622754573822,-0.6141409277915955
1788861954774737700,5.721737548828125,-0.020528873428702354,0.307428240776062,-0.5997313261032104
1788861954784779500,5.731779541015625,-0.0447511225938797,0.2905653715133667,-0.5513172149658203
1788861954794821400,5.7418212890625,-0.058205679059028625,0.2471236288547516,-0.5122771263122559
1788861954804863700,5.75186376953125,-0.07768470048904419,0.1920575648546219,-0.5114268660545349
1788861954814905600,5.761905517578125,-0.07994066923856735,0.17702029645442963,-0.5469747185707092
1788861954824947700,5.77194775390625,-0.06565666943788528,0.1677864044904709,-0.5920891165733337
1788861954834988500,5.781988525390625,-0.03714433312416077,0.10954040288925171,-0.6413858532905579
1788861954845030700,5.79203076171875,-0.0022145784460008144,0.03298547863960266,-0.6626076698303223
1788861954855072500,5.802072509765625,0.028212036937475204,-0.06136658787727356,-0.6466920375823975
1788861954865114600,5.812114501953125,0.050502959638834,-0.11398660391569138,-0.5788726210594177
1788861954875156700,5.82215673828125,0.09060697257518768,-0.11353626847267151,-0.47481974959373474
1788861954885198600,5.832198486328125,0.14249692857265472,-0.06112749129533768,-0.38926443457603455
1788861954895240400,5.842240478515625,0.18613655865192413,0.00423447135835886,-0.36979514360427856
1788861954905281500,5.852281494140625,0.22789105772972107,0.04151448234915733,-0.4284064471721649
1788861954915323400,5.862323486328125,0.2737749218940735,0.018484532833099365,-0.5493009090423584
1788861954925365800,5.87236572265625,0.34163159132003784,-0.05776578187942505,-0.6701059341430664
1788861954935407600,5.88240771484375,0.4072345793247223,-0.12192666530609131,-0.7407159209251404
1788861954945449500,5.892449462890625,0.45240312814712524,-0.12309132516384125,-0.7631301879882812
1788861954955491600,5.90249169921875,0.4552817642688751,-0.12070353329181671,-0.7710430026054382
1788861954965533400,5.912533447265625,0.4396078288555145,-0.15597902238368988,-0.7883152365684509
1788861954975574300,5.92257421875,0.43739446997642517,-0.23105113208293915,-0.8121992349624634
1788861954985616100,5.9326162109375,0.43711352348327637,-0.32282930612564087,-0.8379553556442261
1788861954995658200,5.942658203125,0.4443008601665497,-0.40490207076072693,-0.8708586692810059
1788861955005700400,5.952700439453125,0.44540339708328247,-0.379619300365448,-0.9032570719718933
1788861955015742200,5.9627421875,0.43247267603874207,-0.34888163208961487,-0.9703229665756226
1788861955025784300,5.972784423828125,0.40917375683784485,-0.28835436701774597,-1.022312879562378
1788861955035826200,5.982826171875,0.39687418937683105,-0.24860723316669464,-1.044318675994873
1788861955045867300,5.9928671875,0.40130653977394104,-0.1620047390460968,-0.9884865283966064
1788861955055909000,6.0029091796875,0.41415733098983765,-0.08543752133846283,-0.8989635705947876
1788861955065951200,6.012951171875,0.4239625334739685,-0.04995246231555939,-0.8309734463691711
1788861955075993300,6.022993408203125,0.39327946305274963,-0.1142110824584961,-0.8020808100700378
1788861955086035200,6.03303515625,0.35610494017601013,-0.21208223700523376,-0.8157763481140137
1788861955096077300,6.043077392578125,0.2971833050251007,-0.4006231129169464,-0.8559746742248535
1788861955106119200,6.053119140625,0.23897844552993774,-0.5643849968910217,-0.8849232792854309
1788861955116160300,6.06316015625,0.17534354329109192,-0.643484890460968,-0.8775079846382141
1788861955126202400,6.073202392578125,0.10662335902452469,-0.6330435276031494,-0.8674654960632324
1788861955136244200,6.083244140625,0.028465168550610542,-0.5627440810203552,-0.8664721250534058
1788861955146286300,6.093286376953125,-0.03883317857980728,-0.49247652292251587,-0.8642968535423279
1788861955156328200,6.103328125,-0.08008821308612823,-0.4171609878540039,-0.8344870209693909
1788861955166370000,6.1133701171875,-0.09090570360422134,-0.37372562289237976,-0.8114815950393677
1788861955176412400,6.123412353515625,-0.08089861273765564,-0.34886500239372253,-0.8131892085075378
1788861955186453200,6.133453369140625,-0.07269367575645447,-0.32854190468788147,-0.8062211871147156
1788861955196495400,6.143495361328125,-0.058707814663648605,-0.3102070987224579,-0.791837215423584
1788861955206537200,6.153537109375,-0.06029028072953224,-0.32116514444351196,-0.8117075562477112
1788861955216579000,6.1635791015625,-0.07025555521249771,-0.37773680686950684,-0.8822541832923889
1788861955226621200,6.17362109375,-0.08863189816474915,-0.41129612922668457,-0.9676262736320496
1788861955236663300,6.183663330078125,-0.09651938080787659,-0.44377952814102173,-1.0031057596206665
1788861955246705400,6.193705322265625,-0.110629603266716,-0.4381067752838135,-0.9152287840843201
1788861955256746200,6.203746337890625,-0.13188694417476654,-0.36132490634918213,-0.7870950698852539
1788861955266788400,6.213788330078125,-0.13393813371658325,-0.3483337163925171,-0.7420476675033569
1788861955276830200,6.223830322265625,-0.09904778748750687,-0.4625612199306488,-0.8199840188026428
1788861955286872000,6.2338720703125,-0.05382144823670387,-0.5879521369934082,-0.9275197982788086
1788861955296914400,6.24391455078125,0.005123625043779612,-0.6390063166618347,-0.9392920136451721
1788861955306956300,6.253956298828125,0.05169658362865448,-0.5787651538848877,-0.9499953389167786
1788861955316997400,6.263997314453125,0.07717184722423553,-0.39417481422424316,-1.0054888725280762
1788861955327039200,6.274039306640625,0.09172681719064713,-0.2236403226852417,-1.0883839130401611
1788861955337081000,6.2840810546875,0.09911362826824188,-0.12314407527446747,-1.1438472270965576
1788861955347123500,6.29412353515625,0.13356707990169525,-0.0407225638628006,-1.1905089616775513
1788861955357165300,6.304165283203125,0.18013565242290497,-0.017471570521593094,-1.1827006340026855
1788861955367207200,6.314207275390625,0.248110830783844,0.07312265038490295,-1.1614614725112915
1788861955377249300,6.324249267578125,0.3337474465370178,0.12050162255764008,-1.1947877407073975
1788861955387291100,6.334291015625,0.42774394154548645,0.08147463202476501,-1.1713628768920898
1788861955397332200,6.344332275390625,0.4920438528060913,0.15842506289482117,-1.0987008810043335
1788861955407374300,6.354374267578125,0.5243237614631653,0.3179982006549835,-1.048633337020874
1788861955417416400,6.36441650390625,0.5779603719711304,0.44135767221450806,-1.0099607706069946
1788861955427458300,6.374458251953125,0.6226893663406372,0.39623844623565674,-0.9908219575881958
1788861955437500200,6.384500244140625,0.6410473585128784,0.308052659034729,-0.9817813038825989
1788861955447542300,6.394542236328125,0.6151995062828064,0.3016970753669739,-0.9369131326675415
1788861955457583000,6.4045830078125,0.5859540104866028,0.2867237329483032,-0.8023707270622253
1788861955467625500,6.41462548828125,0.586467444896698,0.26818180084228516,-0.6827054619789124
1788861955477667300,6.424667236328125,0.5941495895385742,0.23930594325065613,-0.6730690598487854
1788861955487709200,6.434709228515625,0.5983314514160156,0.19696438312530518,-0.656557559967041
1788861955497751300,6.444751220703125,0.5632597804069519,0.2658396065235138,-0.5462350845336914
1788861955507793200,6.454793212890625,0.49968916177749634,0.4220196604728699,-0.49946314096450806
1788861955517835300,6.464835205078125,0.4290996789932251,0.575922966003418,-0.6163356900215149
1788861955527876400,6.47487646484375,0.336534321308136,0.6662572026252747,-0.819419801235199
1788861955537918200,6.484918212890625,0.2567255198955536,0.6276898384094238,-1.02792489528656
1788861955547960300,6.494960205078125,0.22094565629959106,0.5252729058265686,-1.20179283618927
1788861955558002200,6.505002197265625,0.22570286691188812,0.4187222719192505,-1.266060709953308
1788861955568044300,6.515044189453125,0.25932952761650085,0.3546907603740692,-1.2265994548797607
1788861955578086400,6.52508642578125,0.2680966556072235,0.29420292377471924,-1.1017192602157593
1788861955588128300,6.535128173828125,0.19350524246692657,0.22907163202762604,-0.936428427696228
1788861955598169300,6.54516943359375,0.1115826815366745,0.20451276004314423,-0.7233870029449463
1788861955608211200,6.555211181640625,0.05853131785988808,0.22580486536026,-0.48656558990478516
1788861955618253300,6.56525341796875,0.03350266069173813,0.2795200049877167,-0.2916046380996704
1788861955628295200,6.575295166015625,0.009716110303997993,0.26699674129486084,-0.14720071852207184
1788861955638337300,6.585337158203125,-0.00862880889326334,0.13921454548835754,-0.05315864458680153
1788861955648379400,6.59537939453125,-0.04944787919521332,-0.03762650117278099,0.07620827853679657
1788861955658421200,6.605421142578125,-0.16304980218410492,-0.02589287981390953,0.26398617029190063
1788861955668462300,6.61546240234375,-0.27975961565971375,0.09200546890497208,0.37712016701698303
1788861955678504200,6.625504150390625,-0.33591052889823914,0.17928044497966766,0.46950122714042664
1788861955688546300,6.63554638671875,-0.33149874210357666,0.28373876214027405,0.5546916723251343
1788861955698588400,6.64558837890625,-0.28442418575286865,0.3391042649745941,0.6336751580238342
1788861955708630300,6.65563037109375,-0.23288893699645996,0.3157518804073334,0.6938894391059875
1788861955718672400,6.66567236328125,-0.17335397005081177,0.25492846965789795,0.7229562401771545
1788861955728714200,6.67571435546875,-0.11873108148574829,0.2100282609462738,0.7666885852813721
1788861955738755300,6.68575537109375,-0.11725408583879471,0.19132408499717712,0.8434782028198242
1788861955748797200,6.695797119140625,-0.11822627484798431,0.20952560007572174,0.9218193292617798
1788861955758839300,6.70583935546875,-0.10638133436441422,0.20269271731376648,0.9927939176559448
1788861955768881400,6.71588134765625,-0.08841591328382492,0.17142024636268616,1.0527909994125366
1788861955778923300,6.72592333984375,-0.09231318533420563,0.17616572976112366,1.084725022315979
1788861955788965000,6.735965087890625,-0.1196725144982338,0.205552875995636,1.1345659494400024
1788861955799007200,6.74600732421875,-0.15161019563674927,0.26093196868896484,1.1879740953445435
1788861955809048000,6.756048095703125,-0.15587939321994781,0.2714516222476959,1.2452448606491089
1788861955819090400,6.76609033203125,-0.1283862441778183,0.23043785989284515,1.2965182065963745
1788861955829132300,6.77613232421875,-0.06868469715118408,0.22166474163532257,1.3511592149734497
1788861955839174100,6.786174072265625,-0.0036218049935996532,0.24459189176559448,1.4101130962371826
1788861955849216300,6.79621630859375,0.04590220004320145,0.29601794481277466,1.4558985233306885
1788861955859258000,6.806258056640625,0.09876595437526703,0.36465853452682495,1.4723856449127197
1788861955869299200,6.81629931640625,0.14341025054454803,0.438555508852005,1.4729810953140259
1788861955879341300,6.82634130859375,0.17084026336669922,0.5067947506904602,1.4764426946640015
1788861955889383400,6.836383544921875,0.18405422568321228,0.49186089634895325,1.4745477437973022
1788861955899425300,6.84642529296875,0.18394316732883453,0.44972169399261475,1.459476113319397
1788861955909467100,6.856467041015625,0.1580127626657486,0.4345302879810333,1.4245975017547607
1788861955919509200,6.86650927734375,0.11108466982841492,0.36336901783943176,1.3659179210662842
1788861955929551400,6.87655126953125,0.05595724284648895,0.21551714837551117,1.3177679777145386
1788861955939592400,6.886592529296875,0.008899454027414322,0.06781691312789917,1.2966680526733398
1788861955949634300,6.89663427734375,-0.013532486744225025,-0.02987540140748024,1.3276509046554565
1788861955959676200,6.90667626953125,-0.012631806544959545,-0.07110778987407684,1.3921798467636108
1788861955969718300,6.91671826171875,-0.0014563859440386295,-0.05292690545320511,1.4475600719451904
1788861955979759900,6.926759765625,0.00890783779323101,-0.0350072905421257,1.4845311641693115
1788861955989802000,6.936802001953125,0.01589343324303627,-0.03242836147546768,1.5037212371826172
1788861955999842800,6.9468427734375,0.023615537211298943,-0.03898319974541664,1.513679027557373
1788861956009885000,6.956885009765625,0.0307895727455616,-0.05675245076417923,1.5217256546020508
1788861956019926800,6.9669267578125,0.019267939031124115,-0.10537324845790863,1.532893180847168
1788861956029969000,6.976968994140625,0.0015672347508370876,-0.15812456607818604,1.525454044342041
1788861956040011000,6.987010986328125,-0.01873404160141945,-0.1721399873495102,1.525438904762268
1788861956050052900,6.997052978515625,-0.03899924084544182,-0.17530257999897003,1.5581705570220947
1788861956060094700,7.0070947265625,-0.05488472804427147,-0.2178468406200409,1.6143078804016113
1788861956070135800,7.0171357421875,-0.04712161421775818,-0.2795834243297577,1.6468974351882935
1788861956080177700,7.027177734375,-0.03919418156147003,-0.3390004336833954,1.6523393392562866
1788861956090220000,7.037219970703125,-0.04160887002944946,-0.3488735556602478,1.6433972120285034
1788861956100262000,7.047261962890625,-0.06128537282347679,-0.34226465225219727,1.6470814943313599
1788861956110304000,7.057303955078125,-0.06682620942592621,-0.36780962347984314,1.6313738822937012
1788861956120345900,7.067345947265625,-0.06575987488031387,-0.42960962653160095,1.5963791608810425
1788861956130387000,7.077386962890625,-0.05658808723092079,-0.45783093571662903,1.570180892944336
1788861956140428800,7.0874287109375,-0.04913549870252609,-0.44263148307800293,1.5619051456451416
1788861956150471000,7.097470947265625,-0.048093535006046295,-0.3817349672317505,1.5650784969329834
1788861956160513000,7.107512939453125,-0.05799596756696701,-0.29333239793777466,1.5803688764572144
1788861956170555000,7.117554931640625,-0.05521763488650322,-0.1987188756465912,1.5807826519012451
1788861956180596700,7.1275966796875,-0.05409618094563484,-0.10822013020515442,1.553498387336731
1788861956190638800,7.137638916015625,-0.053063005208969116,-0.07498643547296524,1.489624261856079
1788861956200679700,7.1476796875,-0.05587104335427284,-0.1367504596710205,1.4081664085388184
1788861956210722000,7.15772216796875,-0.06019160896539688,-0.21681460738182068,1.3272851705551147
1788861956220764000,7.167763916015625,-0.05279574170708656,-0.209339901804924,1.2750427722930908
1788861956230805800,7.1778056640625,-0.03528892248868942,-0.12693451344966888,1.2585313320159912
1788861956240848000,7.187847900390625,-0.017721381038427353,-0.049245040863752365,1.2627689838409424
1788861956250889700,7.1978896484375,-0.008382070809602737,-0.020565353333950043,1.2734678983688354
1788861956260930800,7.207930908203125,-0.014534239657223225,-0.01578817516565323,1.2830864191055298
1788861956270973000,7.217972900390625,-0.01719554327428341,-0.04294119030237198,1.2739742994308472
1788861956281015000,7.22801513671875,-0.01328522339463234,-0.12309914827346802,1.2383712530136108
1788861956291057000,7.238056884765625,-0.014223460108041763,-0.19910173118114471,1.2113898992538452
1788861956301098800,7.2480986328125,-0.027529945597052574,-0.215724915266037,1.1950976848602295
1788861956311140900,7.258140869140625,-0.04644438251852989,-0.13947288691997528,1.1801424026489258
1788861956321183000,7.268182861328125,-0.07342539727687836,-0.022088734433054924,1.1834421157836914
1788861956331224000,7.27822412109375,-0.12043564766645432,0.13219016790390015,1.1503645181655884
1788861956341266000,7.288265869140625,-0.16240572929382324,0.2728939950466156,1.0245845317840576
1788861956351307800,7.298307861328125,-0.14146369695663452,0.2951015830039978,0.8576486110687256
1788861956361350000,7.308349853515625,-0.06561047583818436,0.2714577615261078,0.7106046080589294
1788861956371391700,7.318391845703125,0.03751443326473236,0.23038053512573242,0.5682744383811951
1788861956381433900,7.328433837890625,0.12268339097499847,0.24149417877197266,0.40073391795158386
1788861956391475000,7.338474853515625,0.1629280149936676,0.3239347040653229,0.22492735087871552
1788861956401516800,7.348516845703125,0.16008535027503967,0.40850603580474854,0.04215353727340698
1788861956411559000,7.358558837890625,0.1103925034403801,0.4526453912258148,-0.14730355143547058
1788861956421600800,7.368600830078125,0.04573468863964081,0.43201708793640137,-0.318336546421051
1788861956431643100,7.37864306640625,0.000191965838894248,0.2809562087059021,-0.44998446106910706
1788861956441685000,7.38868505859375,-0.04969889670610428,0.04018247872591019,-0.5172439217567444
1788861956451726800,7.398726806640625,-0.11052802205085754,-0.1671556830406189,-0.5259525179862976
1788861956461768000,7.408767822265625,-0.18684250116348267,-0.2405119240283966,-0.5112683773040771
1788861956471809800,7.418809814453125,-0.25976091623306274,-0.17420634627342224,-0.5200238823890686
1788861956481852000,7.428851806640625,-0.31269070506095886,-0.04010606184601784,-0.559226930141449
1788861956491894000,7.43889404296875,-0.35108616948127747,0.17187736928462982,-0.625074028968811
1788861956501935900,7.448935791015625,-0.3743691146373749,0.40952640771865845,-0.6931949853897095
1788861956511978000,7.45897802734375,-0.38583508133888245,0.5949180126190186,-0.7348510026931763
1788861956522018800,7.469018798828125,-0.36167487502098083,0.6459380984306335,-0.7580457925796509
1788861956532061000,7.47906103515625,-0.32053637504577637,0.5843441486358643,-0.7797712087631226
1788861956542102800,7.489102783203125,-0.2617844045162201,0.4808556139469147,-0.7852802276611328
1788861956552145000,7.499144775390625,-0.19232209026813507,0.36842480301856995,-0.7754464745521545
1788861956562187000,7.50918701171875,-0.12634146213531494,0.24313825368881226,-0.7518578171730042
1788861956572228900,7.519228759765625,-0.06888072192668915,0.1423039436340332,-0.7149112224578857
1788861956582271000,7.52927099609375,-0.02472017891705036,0.07649484276771545,-0.6728119850158691
1788861956592311800,7.539311767578125,0.04121704399585724,0.04154260829091072,-0.6183322668075562
1788861956602354000,7.54935400390625,0.0783068835735321,0.0575583279132843,-0.5676137208938599
1788861956612396000,7.55939599609375,0.07677650451660156,0.11960373818874359,-0.540203869342804
1788861956622438000,7.56943798828125,0.06975507736206055,0.1864277720451355,-0.5376115441322327
1788861956632480000,7.57947998046875,0.06444445997476578,0.17213913798332214,-0.5453911423683167
1788861956642521900,7.58952197265625,0.06199515238404274,0.13651616871356964,-0.5646561980247498
1788861956652563000,7.59956298828125,0.05094156786799431,0.15742690861225128,-0.5786378383636475
1788861956662604800,7.609604736328125,0.04360669106245041,0.20269052684307098,-0.5934860706329346
1788861956672647000,7.61964697265625,0.06675674766302109,0.2328694760799408,-0.5911077260971069
1788861956682689000,7.62968896484375,0.08485505729913712,0.26571398973464966,-0.5865715146064758
1788861956692731000,7.63973095703125,0.0882609635591507,0.29165560007095337,-0.5907632112503052
1788861956702772700,7.649772705078125,0.08575306832790375,0.320750892162323,-0.612137496471405
1788861956712814800,7.65981494140625,0.10433368384838104,0.33247625827789307,-0.6851556301116943
1788861956722855700,7.669855712890625,0.15147989988327026,0.3095927834510803,-0.7884987592697144
1788861956732898000,7.67989794921875,0.21282275021076202,0.2685125768184662,-0.886451005935669
1788861956742940000,7.68993994140625,0.26608356833457947,0.2289811372756958,-0.9483780264854431
1788861956752982000,7.69998193359375,0.29628247022628784,0.20471705496311188,-0.9801393747329712
1788861956763024000,7.71002392578125,0.3090110719203949,0.19837500154972076,-1.0201038122177124
1788861956773065700,7.720065673828125,0.31464725732803345,0.19676604866981506,-1.0784887075424194
1788861956783106800,7.73010693359375,0.32230305671691895,0.23632118105888367,-1.1183372735977173
1788861956793149000,7.74014892578125,0.326453298330307,0.26588818430900574,-1.123368501663208
1788861956803191000,7.75019091796875,0.33413970470428467,0.26209932565689087,-1.0988703966140747
1788861956813233000,7.76023291015625,0.35581544041633606,0.22462619841098785,-1.044346570968628
1788861956823274800,7.770274658203125,0.36762815713882446,0.18268327414989471,-0.9614498019218445
1788861956833316900,7.78031689453125,0.3453272581100464,0.15479929745197296,-0.9090114235877991
1788861956843359000,7.79035888671875,0.29355353116989136,0.12291219830513,-0.942638099193573
1788861956853400000,7.800400146484375,0.2636145353317261,0.04234863072633743,-1.0437331199645996
1788861956863442000,7.81044189453125,0.25597554445266724,-0.0504542775452137,-1.151528239250183
1788861956873483800,7.82048388671875,0.2433546930551529,-0.10840722173452377,-1.2190957069396973
1788861956883526000,7.83052587890625,0.22718212008476257,-0.13986420631408691,-1.2327079772949219
1788861956893567700,7.840567626953125,0.1873936802148819,-0.1581195890903473,-1.2104636430740356
1788861956903610000,7.850610107421875,0.1267431229352951,-0.1907358467578888,-1.1859556436538696
1788861956913651000,7.86065087890625,0.06493568420410156,-0.18408408761024475,-1.1604779958724976
1788861956923693000,7.870693115234375,0.020001498982310295,-0.15034636855125427,-1.1363569498062134
1788861956933735000,7.88073486328125,-0.010005936957895756,-0.15530118346214294,-1.1069977283477783
1788861956943776800,7.89077685546875,-0.02757907100021839,-0.21293304860591888,-1.1173793077468872
1788861956953819000,7.90081884765625,-0.018317395821213722,-0.34119194746017456,-1.191075325012207
1788861956963861000,7.910861083984375,0.014622176997363567,-0.49140408635139465,-1.2493727207183838
1788861956973903400,7.9209033203125,0.04459046572446823,-0.6110782623291016,-1.2618567943572998
1788861956983944400,7.9309443359375,0.06161179393529892,-0.6526672840118408,-1.2456655502319336
1788861956993986300,7.940986328125,0.07792897522449493,-0.6489273905754089,-1.2075324058532715
1788861957004028400,7.9510283203125,0.07891914248466492,-0.6363176107406616,-1.195460557937622
1788861957014070300,7.9610703125,0.07801499962806702,-0.540358304977417,-1.2019801139831543
1788861957024112400,7.9711123046875,0.0644507184624672,-0.4331921935081482,-1.2111201286315918
1788861957034154500,7.981154541015625,0.045577168464660645,-0.42217734456062317,-1.234089970588684
1788861957044195300,7.9911953125,0.026793092489242554,-0.5129200220108032,-1.2590672969818115
1788861957054237400,8.001237548828126,0.008766822516918182,-0.5517944097518921,-1.2892121076583862
1788861957064279300,8.011279296875,-0.017047196626663208,-0.5018504858016968,-1.3440208435058594
1788861957074321400,8.0213212890625,-0.019428078085184097,-0.486956387758255,-1.3869197368621826
1788861957084363500,8.031363525390624,-0.0053836326114833355,-0.49363240599632263,-1.3879975080490112
1788861957094405400,8.0414052734375,0.014607938937842846,-0.4782714545726776,-1.376475214958191
1788861957104447500,8.051447509765625,0.015345101244747639,-0.4833415746688843,-1.3826292753219604
1788861957114488300,8.06148828125,0.025927424430847168,-0.53264319896698,-1.414451003074646
1788861957124530400,8.071530517578125,-0.0032277973368763924,-0.5911917686462402,-1.4531347751617432
1788861957134572500,8.081572509765625,-0.052369505167007446,-0.6318065524101257,-1.460138201713562
1788861957144614400,8.091614501953124,-0.09416835010051727,-0.6227360963821411,-1.4402660131454468
1788861957154656500,8.101656494140625,-0.11623130738735199,-0.5757564306259155,-1.4133355617523193
1788861957164698400,8.111698486328125,-0.11373858898878098,-0.544940710067749,-1.4450825452804565
1788861957174740200,8.121740234375,-0.08441611379384995,-0.5302730798721313,-1.5104115009307861
1788861957184781300,8.13178125,-0.05971823260188103,-0.4988648295402527,-1.5501844882965088
1788861957194823400,8.141823486328125,-0.037030234932899475,-0.4649851322174072,-1.533743143081665
1788861957204865500,8.151865478515624,-0.012345658615231514,-0.3779953718185425,-1.5247695446014404
1788861957214907400,8.161907470703126,0.016551107168197632,-0.3084942102432251,-1.5092616081237793
1788861957224949200,8.17194921875,0.05594698339700699,-0.2965962588787079,-1.4520784616470337
1788861957234991400,8.181991455078125,0.08374092727899551,-0.2254287153482437,-1.367134928703308
1788861957245033500,8.192033447265626,0.09034662693738937,-0.12028845399618149,-1.2784544229507446
1788861957255074600,8.202074462890625,0.09854158014059067,-0.12696541845798492,-1.201675534248352
1788861957265116400,8.212116455078124,0.08889507502317429,-0.163364976644516,-1.151902198791504
1788861957275158500,8.222158447265626,0.08438275754451752,-0.15990914404392242,-1.1046321392059326
1788861957285200400,8.232200439453125,0.08600222319364548,-0.08647487312555313,-1.0941438674926758
1788861957295242200,8.2422421875,0.08668971806764603,0.011098118498921394,-1.0830457210540771
1788861957305284600,8.25228466796875,0.0701320469379425,0.00914309173822403,-1.0276837348937988
1788861957315325400,8.262325439453125,0.06609562039375305,-0.019297178834676743,-0.9482989311218262
1788861957325367600,8.272367431640625,0.04402521252632141,-0.026059210300445557,-0.8498836755752563
1788861957335409400,8.282409423828126,0.03662947937846184,-0.011525125242769718,-0.7445443868637085
1788861957345451300,8.292451171875,0.062134042382240295,-0.013445264659821987,-0.6420398950576782
1788861957355493400,8.302493408203125,0.09600850939750671,-0.010931048542261124,-0.5511929988861084
1788861957365535500,8.312535400390624,0.14272569119930267,0.020818891003727913,-0.4483928382396698
1788861957375577300,8.322577392578125,0.18254020810127258,0.08825966715812683,-0.3460780382156372
1788861957385618400,8.332618408203125,0.20443059504032135,0.18142502009868622,-0.22863025963306427
1788861957395660300,8.342660400390624,0.22236646711826324,0.2696174085140228,-0.10365984588861465
1788861957405702400,8.352702392578125,0.24386855959892273,0.255740225315094,0.010163393802940845
1788861957415744300,8.362744140625,0.24398933351039886,0.16018353402614594,0.09625136852264404
1788861957425786400,8.372786376953124,0.1932063102722168,0.16492262482643127,0.18405792117118835
1788861957435828500,8.382828369140626,0.11363492161035538,0.21999205648899078,0.2797679603099823
1788861957445870300,8.392870361328125,0.03968958929181099,0.2637171745300293,0.37347686290740967
1788861957455911400,8.402911376953124,-0.005346328020095825,0.26541203260421753,0.4768468141555786
1788861957465953300,8.412953369140626,-0.03608347102999687,0.25583794713020325,0.5917566418647766
1788861957475995400,8.422995361328125,-0.08518671244382858,0.29247793555259705,0.7133315801620483
1788861957486037500,8.43303759765625,-0.14670945703983307,0.36550846695899963,0.8146854043006897
1788861957496079400,8.443079345703126,-0.18620799481868744,0.3884013593196869,0.902145504951477
1788861957506121500,8.45312158203125,-0.1944134533405304,0.4031720757484436,0.9890135526657104
1788861957516163300,8.463163330078125,-0.16312384605407715,0.43712297081947327,1.0572892427444458
1788861957526204400,8.473204345703126,-0.12397325038909912,0.44400671124458313,1.1477570533752441
1788861957536246300,8.483246337890625,-0.10820399969816208,0.43412891030311584,1.2536587715148926
1788861957546288400,8.493288330078125,-0.11934267729520798,0.441587895154953,1.3350692987442017
1788861957556330500,8.50333056640625,-0.14845529198646545,0.4132567048072815,1.398619294166565
1788861957566372400,8.513372314453125,-0.18597497045993805,0.3762286603450775,1.4746443033218384
1788861957576414500,8.52341455078125,-0.20283649861812592,0.395169734954834,1.5543864965438843
1788861957586456300,8.533456298828124,-0.20051021873950958,0.40709245204925537,1.6096519231796265
1788861957596497400,8.543497314453125,-0.1979820877313614,0.4188487231731415,1.6562607288360596
1788861957606539500,8.55353955078125,-0.21384388208389282,0.4856418967247009,1.714997410774231
1788861957616581400,8.563581298828124,-0.22422528266906738,0.5341134667396545,1.7566134929656982
1788861957626623500,8.57362353515625,-0.19410093128681183,0.5190197229385376,1.7535953521728516
1788861957636665300,8.583665283203125,-0.148677796125412,0.49627605080604553,1.7171400785446167
1788861957646707200,8.593707275390624,-0.10784327983856201,0.4858231246471405,1.6911780834197998
1788861957656748300,8.603748291015625,-0.08911234140396118,0.48075637221336365,1.6966954469680786
1788861957666790400,8.613790283203125,-0.08346004784107208,0.4554896354675293,1.730682611465454
1788861957676832500,8.62383251953125,-0.09198243170976639,0.4209843873977661,1.7716193199157715
1788861957686874400,8.633874267578125,-0.11232072860002518,0.3925846815109253,1.8091423511505127
1788861957696916200,8.643916259765625,-0.12053084373474121,0.3803674876689911,1.8675750494003296
1788861957706958300,8.653958251953124,-0.1287195235490799,0.37475913763046265,1.9286937713623047
1788861957717000400,8.66400048828125,-0.12414222210645676,0.33880048990249634,1.9644490480422974
1788861957727041500,8.67404150390625,-0.12698274850845337,0.2577804625034332,1.95803701877594
1788861957737083400,8.68408349609375,-0.1300315260887146,0.14291274547576904,1.926570177078247
1788861957747125500,8.69412548828125,-0.11372233927249908,0.042371224611997604,1.8759799003601074
1788861957757167400,8.70416748046875,-0.0833139717578888,-0.026398058980703354,1.8395564556121826
1788861957767209200,8.714209228515625,-0.04340890049934387,-0.07135115563869476,1.8292231559753418
1788861957777251600,8.72425146484375,-0.013686821796000004,-0.11081615090370178,1.8256911039352417
1788861957787293400,8.73429345703125,-0.0032443010713905096,-0.13448366522789001,1.8105050325393677
1788861957797334500,8.74433447265625,0.0069313631393015385,-0.18203434348106384,1.785191535949707
1788861957807376400,8.75437646484375,0.030284356325864792,-0.271492600440979,1.7334266901016235
1788861957817418200,8.764418212890625,0.05583047494292259,-0.37168267369270325,1.6591726541519165
1788861957827460400,8.77446044921875,0.07583427429199219,-0.43257689476013184,1.599739909172058
1788861957837502500,8.78450244140625,0.10026291012763977,-0.42567870020866394,1.577059268951416
1788861957847544300,8.79454443359375,0.11944592744112015,-0.34653860330581665,1.605759620666504
1788861957857585400,8.80458544921875,0.13663050532341003,-0.2356872707605362,1.640199065208435
1788861957867627300,8.814627197265626,0.1631273627281189,-0.17768041789531708,1.6315264701843262
1788861957877669400,8.82466943359375,0.195379838347435,-0.20706866681575775,1.590014100074768
1788861957887711200,8.834711181640625,0.20545485615730286,-0.22939102351665497,1.525243878364563
1788861957897753600,8.844753662109374,0.1860317587852478,-0.21574537456035614,1.4739164113998413
1788861957907795500,8.85479541015625,0.17160433530807495,-0.17619183659553528,1.4359875917434692
1788861957917837300,8.86483740234375,0.1847783327102661,-0.1638556569814682,1.3935590982437134
1788861957927878400,8.87487841796875,0.198776975274086,-0.14930787682533264,1.3309626579284668
1788861957937920300,8.884920166015625,0.19997446238994598,-0.12220177054405212,1.271426796913147
1788861957947962400,8.89496240234375,0.19877763092517853,-0.14462505280971527,1.224150538444519
1788861957958004500,8.90500439453125,0.2034299075603485,-0.13840366899967194,1.1818758249282837
1788861957968046300,8.91504638671875,0.20002985000610352,-0.09185028076171875,1.1544228792190552
1788861957978087700,8.925087646484375,0.20894956588745117,-0.03839320316910744,1.1242274045944214
1788861957988129500,8.935129638671874,0.2203252613544464,-0.023998286575078964,1.0882747173309326
1788861957998170600,8.945170654296875,0.22174380719661713,-0.01987634040415287,1.0295110940933228
1788861958008212700,8.955212646484375,0.21167945861816406,-0.0013793553225696087,0.9600287079811096
1788861958018254800,8.9652548828125,0.20506443083286285,0.021075086668133736,0.8785857558250427
1788861958028296700,8.975296630859376,0.192576065659523,0.050683312118053436,0.7756556272506714
1788861958038338600,8.985338623046875,0.17303724586963654,0.08965278416872025,0.6414077281951904
1788861958048380700,8.995380615234374,0.15961304306983948,0.09881645441055298,0.48726633191108704
1788861958058421500,9.00542138671875,0.15628370642662048,0.09525991976261139,0.3239779770374298
1788861958068463900,9.0154638671875,0.14570669829845428,0.1356656700372696,0.18257346749305725
1788861958078505700,9.025505615234374,0.10567126423120499,0.24379409849643707,0.06627901643514633
1788861958088547600,9.035547607421876,0.09031787514686584,0.37041038274765015,-0.012218724936246872
1788861958098589700,9.045589599609375,0.11286473274230957,0.4214748740196228,-0.04591517895460129
1788861958108631600,9.055631591796875,0.12154583632946014,0.4199824333190918,-0.05352915823459625
1788861958118674000,9.065673828125,0.11303076893091202,0.3472977876663208,-0.061071403324604034
1788861958128714800,9.07571484375,0.12787602841854095,0.1781950294971466,-0.08341719210147858
1788861958138756900,9.0857568359375,0.12676109373569489,-0.050666242837905884,-0.13794267177581787
1788861958148798700,9.095798828125,0.0859159305691719,-0.20729127526283264,-0.23455975949764252
1788861958158840600,9.105840576171875,0.044396184384822845,-0.23846092820167542,-0.35019436478614807
1788861958168882700,9.115882568359375,0.01842397451400757,-0.15608376264572144,-0.44867512583732605
1788861958178924800,9.1259248046875,0.0013138343347236514,-0.02308059111237526,-0.5257464051246643
1788861958188966700,9.135966552734375,-0.020229540765285492,0.1395203024148941,-0.5716686248779297
1788861958199007700,9.1460078125,-0.04336576163768768,0.28465867042541504,-0.5917585492134094
1788861958209049600,9.156049560546874,-0.05616012215614319,0.33795517683029175,-0.5984532237052917
1788861958219091700,9.166091796875,-0.06779945641756058,0.28826847672462463,-0.600257158279419
1788861958229133600,9.176133544921875,-0.0782928392291069,0.1962037980556488,-0.6055895686149597
1788861958239175700,9.18617578125,-0.08904416114091873,0.11157458275556564,-0.6201419830322266
1788861958249217800,9.1962177734375,-0.1044582724571228,0.06272581964731216,-0.6362099051475525
1788861958259258600,9.206258544921875,-0.11714331060647964,0.04741756245493889,-0.6422245502471924
1788861958269300700,9.21630078125,-0.13993144035339355,0.06903098523616791,-0.6497160196304321
1788861958279342600,9.226342529296875,-0.1462446004152298,0.11249921470880508,-0.6547691822052002
1788861958289385000,9.236385009765625,-0.14755992591381073,0.1294720619916916,-0.6834178566932678
1788861958299426800,9.2464267578125,-0.14748497307300568,0.1419568806886673,-0.7318632006645203
1788861958309468700,9.25646875,-0.15485979616641998,0.15962322056293488,-0.7945423126220703
1788861958319510800,9.2665107421875,-0.14489610493183136,0.15916991233825684,-0.8410576581954956
1788861958329551600,9.276551513671874,-0.1452724039554596,0.18105897307395935,-0.8968322277069092
1788861958339593700,9.28659375,-0.17897790670394897,0.21874429285526276,-0.946832001209259
1788861958349635800,9.2966357421875,-0.20589208602905273,0.24459399282932281,-0.9703344106674194
1788861958359677700,9.306677734375,-0.20880025625228882,0.23839683830738068,-0.9717241525650024
1788861958369719800,9.3167197265625,-0.194200798869133,0.19912080466747284,-0.9668058156967163
1788861958379761700,9.32676171875,-0.17581793665885925,0.1315583884716034,-0.9654708504676819
1788861958389803500,9.336803466796875,-0.18192696571350098,0.0922946110367775,-0.9812141060829163
1788861958399844600,9.3468447265625,-0.22512251138687134,0.11902467906475067,-0.9946067929267883
1788861958409886700,9.35688671875,-0.2944621741771698,0.19806064665317535,-1.002078652381897
1788861958419928800,9.3669287109375,-0.35960841178894043,0.2285396307706833,-1.0036035776138306
1788861958429970700,9.376970703125,-0.3892507255077362,0.18637140095233917,-1.0288668870925903
1788861958440012800,9.3870126953125,-0.3919760584831238,0.13678084313869476,-1.092578649520874
1788861958450054700,9.3970546875,-0.37415552139282227,0.10541678965091705,-1.1533653736114502
1788861958460095700,9.407095703125,-0.3504370450973511,0.037063490599393845,-1.199232816696167
1788861958470137900,9.417137939453125,-0.32753464579582214,-0.11706136167049408,-1.2063006162643433
1788861958480179700,9.4271796875,-0.31668901443481445,-0.24375107884407043,-1.227249264717102
1788861958490221800,9.437221923828124,-0.3262260854244232,-0.21771948039531708,-1.2453702688217163
1788861958500263700,9.447263671875,-0.34988853335380554,-0.1120283454656601,-1.221441626548767
1788861958510305500,9.457305419921875,-0.3920748829841614,-0.043377649039030075,-1.1636667251586914
1788861958520348000,9.467347900390624,-0.4477323889732361,-0.03208230063319206,-1.125686526298523
1788861958530388700,9.477388671875,-0.4885863661766052,-0.07739625126123428,-1.136148452758789
1788861958540430800,9.487430908203125,-0.5005537867546082,-0.17257048189640045,-1.161464810371399
1788861958550472700,9.49747265625,-0.4856177270412445,-0.24597012996673584,-1.2121418714523315
1788861958560514800,9.507514892578126,-0.44355082511901855,-0.2769548296928406,-1.3026317358016968
1788861958570556700,9.517556640625,-0.4026696979999542,-0.2972598373889923,-1.3745355606079102
1788861958580598800,9.527598876953125,-0.36278995871543884,-0.298196405172348,-1.3878000974655151
1788861958590641000,9.537640869140626,-0.31423866748809814,-0.24938732385635376,-1.3705015182495117
1788861958600681700,9.547681640625,-0.2819485068321228,-0.18864555656909943,-1.3830690383911133
1788861958610723800,9.557723876953125,-0.25409555435180664,-0.144144669175148,-1.423130750656128
1788861958620765700,9.567765625,-0.21941456198692322,-0.10326194763183594,-1.4494810104370117
1788861958630807600,9.5778076171875,-0.17481939494609833,-0.07697868347167969,-1.4506230354309082
1788861958640850000,9.587849853515625,-0.12316405773162842,-0.08229366689920425,-1.4395122528076172
1788861958650891800,9.597891845703124,-0.08657435327768326,-0.15027937293052673,-1.4394038915634155
1788861958660932900,9.607932861328125,-0.06868789345026016,-0.2802039384841919,-1.44272780418396
1788861958670974700,9.617974609375,-0.07230766117572784,-0.3630484938621521,-1.432417869567871
1788861958681016600,9.6280166015625,-0.08176467567682266,-0.38750073313713074,-1.4584351778030396
1788861958691058700,9.63805859375,-0.08053509891033173,-0.382072389125824,-1.4842004776000977
1788861958701100800,9.648100830078125,-0.06791078299283981,-0.38481906056404114,-1.5033549070358276
1788861958711142700,9.658142578125,-0.03670172765851021,-0.425285279750824,-1.5295487642288208
1788861958721184800,9.668184814453125,0.008671343326568604,-0.47390124201774597,-1.558979868888855
1788861958731225900,9.678225830078125,0.03886972740292549,-0.5045214891433716,-1.6053838729858398
1788861958741267700,9.688267822265624,0.06887422502040863,-0.5002502799034119,-1.6380976438522339
1788861958751309600,9.6983095703125,0.08172531425952911,-0.46925854682922363,-1.6493338346481323
1788861958761352000,9.70835205078125,0.07919969409704208,-0.4465378522872925,-1.6115940809249878
1788861958771393800,9.718393798828124,0.07424622029066086,-0.42533963918685913,-1.5734355449676514
1788861958781435600,9.728435546875,0.07382264733314514,-0.39109745621681213,-1.5397676229476929
1788861958791477800,9.738477783203125,0.09619506448507309,-0.34829941391944885,-1.488374948501587
1788861958801518600,9.7485185546875,0.12104794383049011,-0.3041987419128418,-1.4307360649108887
1788861958811560700,9.758560791015626,0.15917110443115234,-0.2699108123779297,-1.3627647161483765
1788861958821602800,9.768602783203125,0.20279209315776825,-0.28657403588294983,-1.3016678094863892
1788861958831644700,9.778644775390624,0.24675795435905457,-0.28441742062568665,-1.2403168678283691
1788861958841686800,9.788686767578126,0.2514913082122803,-0.21074001491069794,-1.164598822593689
1788861958851728600,9.798728759765625,0.24229221045970917,-0.09173533320426941,-1.0873825550079346
1788861958861769700,9.808769775390624,0.2212240844964981,-0.0431613065302372,-1.0256167650222778
1788861958871811600,9.8188115234375,0.18510949611663818,-0.01226917002350092,-0.9332373738288879
1788861958881853700,9.828853759765625,0.15934062004089355,-0.046097081154584885,-0.7985517978668213
1788861958891895800,9.838895751953125,0.1566244661808014,-0.1640346348285675,-0.6729757785797119
1788861958901937700,9.848937744140626,0.15145792067050934,-0.28316783905029297,-0.5495319366455078
1788861958911979800,9.858979736328125,0.14859607815742493,-0.31836313009262085,-0.42938634753227234
1788861958922021600,9.869021728515625,0.15663550794124603,-0.4164040982723236,-0.32334959506988525
1788861958932062700,9.879062744140626,0.193342387676239,-0.3805007040500641,-0.1705973595380783
1788861958942104800,9.889104736328125,0.21234045922756195,-0.33837342262268066,0.00038495054468512535
1788861958952146700,9.899146728515625,0.20665939152240753,-0.24064341187477112,0.18264663219451904
1788861958962188800,9.909188720703124,0.17617684602737427,-0.16613930463790894,0.3082300126552582
1788861958972230700,9.919230712890625,0.14731749892234802,-0.12015371024608612,0.38957279920578003
1788861958982273800,9.929273681640625,0.138016015291214,-0.04771212488412857,0.4252588450908661
1788861958992315000,9.93931494140625,0.13586631417274475,-0.05417082458734512,0.44741687178611755
1788861959002356700,9.949356689453126,0.12731023132801056,-0.07126465439796448,0.4723040759563446
1788861959012398800,9.95939892578125,0.11280665546655655,0.014566896483302116,0.5019423365592957
1788861959022441000,9.96944091796875,0.09346213191747665,0.11415481567382812,0.5247722268104553
1788861959032482800,9.97948291015625,0.08037162572145462,0.18436719477176666,0.5360243320465088
1788861959042525000,9.98952490234375,0.07801832258701324,0.2593885660171509,0.5549355745315552
1788861959052566800,9.99956689453125,0.08759238570928574,0.3075172007083893,0.5797322392463684
1788861959062608000,10.00960791015625,0.07663601636886597,0.2778516113758087,0.6413440108299255
1788861959072650000,10.01964990234375,0.038098204880952835,0.2841864824295044,0.752863347530365
1788861959082691800,10.02969189453125,-0.0047155749052762985,0.30305391550064087,0.8986559510231018
1788861959092734000,10.03973388671875,0.0009849213529378176,0.3259967863559723,1.0614629983901978
1788861959102775800,10.04977587890625,0.0234200581908226,0.3696173429489136,1.2070648670196533
1788861959112817700,10.059817626953125,0.022188613191246986,0.36929136514663696,1.3220553398132324
1788861959122860000,10.069860107421874,-0.000637218588963151,0.3402319550514221,1.398773431777954
1788861959132900900,10.07990087890625,-0.02803821675479412,0.3632802963256836,1.4686592817306519
1788861959142943000,10.08994287109375,-0.025868259370326996,0.3850371837615967,1.52264404296875
1788861959152984800,10.09998486328125,-0.027494385838508606,0.3644898235797882,1.5577995777130127
1788861959163026700,10.110026611328125,-0.04243592172861099,0.3357717990875244,1.6340688467025757
1788861959173068800,10.12006884765625,-0.052792951464653015,0.33621546626091003,1.7324135303497314
1788861959183111000,10.13011083984375,-0.02626732550561428,0.3326408863067627,1.8149455785751343
1788861959193152000,10.140152099609375,0.018300941213965416,0.3114684820175171,1.879970908164978
1788861959203193900,10.15019384765625,0.05993558466434479,0.3234689235687256,1.9472407102584839
1788861959213236000,10.160236083984374,0.10895052552223206,0.3580136001110077,2.02121901512146
1788861959223277800,10.17027783203125,0.15042421221733093,0.36706778407096863,2.083529233932495
1788861959233319700,10.180319580078125,0.16045022010803223,0.34842753410339355,2.0937020778656006
1788861959243362000,10.190362060546875,0.1487530618906021,0.3002912402153015,2.059838056564331
1788861959253403000,10.20040283203125,0.12544400990009308,0.22881677746772766,2.0093190670013428
1788861959263445000,10.210445068359375,0.11324062943458557,0.12946535646915436,1.9527068138122559
1788861959273486800,10.22048681640625,0.10828182101249695,0.0031383130699396133,1.8825842142105103
1788861959283528700,10.23052880859375,0.0912005677819252,-0.12021642178297043,1.8210722208023071
1788861959293570800,10.24057080078125,0.05829056352376938,-0.2257833331823349,1.7797892093658447
1788861959303613000,10.250613037109375,0.023273048922419548,-0.3159298300743103,1.740117073059082
1788861959313654800,10.26065478515625,-0.01504477858543396,-0.41301482915878296,1.6831355094909668
1788861959323695900,10.27069580078125,-0.06072784960269928,-0.4989699423313141,1.6404818296432495
1788861959333737700,10.28073779296875,-0.11586567014455795,-0.5116021037101746,1.6632076501846313
1788861959343779800,10.29077978515625,-0.14123107492923737,-0.47104284167289734,1.7333366870880127
1788861959353821700,10.30082177734375,-0.13707546889781952,-0.4528143107891083,1.790468692779541
1788861959363864000,10.310864013671875,-0.11697553843259811,-0.4825766980648041,1.7978644371032715
1788861959373906000,10.320906005859374,-0.10947128385305405,-0.4865567982196808,1.7655500173568726
1788861959383947000,10.330947021484375,-0.11101232469081879,-0.48510390520095825,1.7156832218170166
1788861959393988900,10.34098876953125,-0.12288202345371246,-0.4846780598163605,1.6729719638824463
1788861959404030700,10.35103076171875,-0.1396825760602951,-0.48312973976135254,1.6246905326843262
1788861959414072800,10.36107275390625,-0.144807830452919,-0.4854711890220642,1.5687092542648315
1788861959424115000,10.371114990234375,-0.14010882377624512,-0.5110102295875549,1.5155854225158691
1788861959434156800,10.38115673828125,-0.1272532045841217,-0.5557723641395569,1.470467448234558
1788861959444199000,10.391198974609376,-0.1337839514017105,-0.542436420917511,1.4312725067138672
1788861959454239700,10.40123974609375,-0.17152760922908783,-0.4797341525554657,1.406631588935852
1788861959464281900,10.41128173828125,-0.21829643845558167,-0.4098277688026428,1.4041005373001099
1788861959474323700,10.42132373046875,-0.23492468893527985,-0.38942182064056396,1.4060907363891602
1788861959484365800,10.43136572265625,-0.22853083908557892,-0.41116082668304443,1.382648229598999
1788861959494408000,10.441407958984374,-0.22763441503047943,-0.44267961382865906,1.328094482421875
1788861959504449800,10.45144970703125,-0.2226489782333374,-0.46654391288757324,1.2587532997131348
1788861959514491000,10.461490966796875,-0.2107883244752884,-0.496746301651001,1.177079200744629
1788861959524532700,10.47153271484375,-0.20274996757507324,-0.5161882638931274,1.0915131568908691
1788861959534574800,10.481574951171876,-0.20710237324237823,-0.4764869511127472,1.0204328298568726
1788861959544617000,10.491616943359375,-0.21150538325309753,-0.3955766558647156,0.965770423412323
1788861959554658800,10.501658935546875,-0.2146199494600296,-0.30252739787101746,0.8991460800170898
1788861959564701000,10.511700927734376,-0.23357726633548737,-0.21440403163433075,0.8037621378898621
1788861959574741800,10.52174169921875,-0.24721956253051758,-0.15229032933712006,0.6749958992004395
1788861959584784000,10.531783935546875,-0.23942716419696808,-0.11480505764484406,0.5421048402786255
1788861959594825700,10.54182568359375,-0.21290181577205658,-0.06195808947086334,0.4273907244205475
1788861959604867800,10.551867919921875,-0.18440000712871552,0.020053349435329437,0.32768499851226807
1788861959614910000,10.561909912109375,-0.15624426305294037,0.10392694175243378,0.22352850437164307
1788861959624951800,10.571951904296874,-0.1336025893688202,0.1593855768442154,0.11649961024522781
1788861959634993000,10.581992919921875,-0.13811957836151123,0.20900186896324158,0.010729772038757801
1788861959645034800,10.59203466796875,-0.16456331312656403,0.22394481301307678,-0.06562814861536026
1788861959655076900,10.602076904296876,-0.19674894213676453,0.18487729132175446,-0.11096926033496857
1788861959665119000,10.612118896484375,-0.21159805357456207,0.06890285760164261,-0.1490129977464676
1788861959675160800,10.622160888671875,-0.2019938975572586,-0.05821967124938965,-0.1982892006635666
1788861959685203000,10.632202880859374,-0.18345896899700165,-0.07487202435731888,-0.26112881302833557
1788861959695243800,10.642243896484375,-0.1632612943649292,0.012870345264673233,-0.331434428691864
1788861959705286000,10.652285888671875,-0.13852065801620483,0.12702105939388275,-0.3990003168582916
1788861959715327700,10.66232763671875,-0.1336393505334854,0.2425742745399475,-0.46702811121940613
1788861959725369900,10.672369873046875,-0.1468385010957718,0.38534286618232727,-0.5175979733467102
1788861959735412000,10.682411865234375,-0.147459015250206,0.5022516250610352,-0.5535868406295776
1788861959745453800,10.692453857421874,-0.13072465360164642,0.5301284790039062,-0.5716153979301453
1788861959755495000,10.702494873046875,-0.11442052572965622,0.4951382577419281,-0.5835292935371399
1788861959765536800,10.712536865234375,-0.09918790310621262,0.456814169883728,-0.5951233506202698
1788861959775578600,10.72257861328125,-0.08903034031391144,0.42011499404907227,-0.6150014400482178
1788861959785621000,10.73262109375,-0.05531260371208191,0.3875024914741516,-0.6285683512687683
1788861959795662800,10.742662841796875,0.002686783904209733,0.3564170002937317,-0.6411773562431335
1788861959805705000,10.752705078125,0.038859035819768906,0.3734586834907532,-0.6661729216575623
1788861959815745800,10.762745849609376,0.05169760435819626,0.47054317593574524,-0.716996431350708
1788861959825788000,10.772787841796875,0.08010631799697876,0.5539934039115906,-0.7943217754364014
1788861959835829800,10.782829833984374,0.10611261427402496,0.6048906445503235,-0.8609766960144043
1788861959845871900,10.792871826171876,0.127358540892601,0.6539891958236694,-0.877048671245575
1788861959855914000,10.8029140625,0.13175354897975922,0.6971331834793091,-0.8814319372177124
1788861959865955800,10.812955810546875,0.13945263624191284,0.6984115839004517,-0.8887644410133362
1788861959875997000,10.822996826171876,0.1392827332019806,0.7132467031478882,-0.928381085395813
1788861959886038800,10.833038818359375,0.13908137381076813,0.6877419948577881,-0.9812286496162415
1788861959896080600,10.84308056640625,0.16533055901527405,0.593987762928009,-1.0280613899230957
1788861959906123000,10.853123046875,0.2035132199525833,0.46409332752227783,-1.0401370525360107
1788861959916164900,10.863164794921875,0.23525117337703705,0.34842267632484436,-1.0387388467788696
1788861959926206700,10.873206787109375,0.2406676560640335,0.235385924577713,-1.0606015920639038
1788861959936247800,10.883247802734376,0.22653985023498535,0.1425105780363083,-1.1313819885253906
1788861959946289700,10.89328955078125,0.21414683759212494,0.09378085285425186,-1.2150349617004395
1788861959956332000,10.90333203125,0.19172275066375732,0.08727901428937912,-1.2774720191955566
1788861959966374000,10.913373779296874,0.13515841960906982,0.07227357476949692,-1.2932696342468262
1788861959976415000,10.9234150390625,0.060994964092969894,0.04609575867652893,-1.2994731664657593
1788861959986457000,10.93345703125,0.002939932281151414,0.012589148245751858,-1.305201530456543
1788861959996498200,10.943498291015626,-0.024772923439741135,-0.011283161118626595,-1.325072169303894
1788861960006540000,10.9535400390625,-0.012170983478426933,-0.056798290461301804,-1.360952377319336
1788861960016582000,10.963581787109375,0.03137143328785896,-0.128873810172081,-1.3713326454162598
1788861960026624000,10.9736240234375,0.05242438241839409,-0.21718700230121613,-1.352982997894287
1788861960036665900,10.983665771484375,0.02926899492740631,-0.2796304225921631,-1.358071208000183
1788861960046708200,10.993708251953125,0.005091755650937557,-0.3694135546684265,-1.3736859560012817
1788861960056749000,11.0037490234375,-0.022617369890213013,-0.43674734234809875,-1.3896942138671875
1788861960066791200,11.013791259765625,-0.05856379494071007,-0.46718522906303406,-1.4055540561676025
1788861960076833000,11.0238330078125,-0.09551036357879639,-0.49677640199661255,-1.4165531396865845
1788861960086875000,11.033875,-0.14431585371494293,-0.5997076630592346,-1.4290177822113037
1788861960096917000,11.0439169921875,-0.19901852309703827,-0.7251548171043396,-1.4467458724975586
1788861960106959000,11.053958984375,-0.23983265459537506,-0.7898886799812317,-1.4809595346450806
1788861960117000200,11.064000244140624,-0.25676584243774414,-0.7736154198646545,-1.5519295930862427
1788861960127042000,11.0740419921875,-0.2609541714191437,-0.7214316725730896,-1.6361526250839233
1788861960137084000,11.084083984375,-0.2419099062681198,-0.5789687633514404,-1.6810895204544067
1788861960147126000,11.0941259765625,-0.19333171844482422,-0.430155873298645,-1.6769354343414307
1788861960157167900,11.10416796875,-0.1391395926475525,-0.3507971167564392,-1.6811081171035767
1788861960167209000,11.114208984375,-0.102518729865551,-0.35745877027511597,-1.6914411783218384
1788861960177251000,11.1242509765625,-0.07760927081108093,-0.40517762303352356,-1.687968373298645
1788861960187293000,11.13429296875,-0.06416922062635422,-0.4254513382911682,-1.6733070611953735
1788861960197335000,11.1443349609375,-0.07280052453279495,-0.3470636010169983,-1.6559698581695557
1788861960207377000,11.154376953125,-0.08213599026203156,-0.31064534187316895,-1.6130980253219604
1788861960217419000,11.1644189453125,-0.10640031844377518,-0.3050537705421448,-1.5713236331939697
1788861960227459800,11.1744599609375,-0.14615504443645477,-0.31882646679878235,-1.5286284685134888
1788861960237502200,11.184502197265624,-0.18959705531597137,-0.3467308282852173,-1.4977704286575317
1788861960247544000,11.1945439453125,-0.22931747138500214,-0.3656068444252014,-1.4789936542510986
1788861960257586000,11.2045859375,-0.2615824341773987,-0.3186449110507965,-1.4348280429840088
1788861960267628000,11.2146279296875,-0.2777850925922394,-0.20898081362247467,-1.3843809366226196
1788861960277670000,11.224669921875,-0.24920913577079773,-0.1310540735721588,-1.3751262426376343
1788861960287711000,11.2347109375,-0.18655066192150116,-0.11309941858053207,-1.3710577487945557
1788861960297753000,11.244753173828125,-0.12114156782627106,-0.17723925411701202,-1.3420093059539795
1788861960307795000,11.254794921875,-0.0759275034070015,-0.2111913114786148,-1.2839317321777344
1788861960317837000,11.264837158203125,-0.06620589643716812,-0.20279303193092346,-1.2401429414749146
1788861960327879000,11.27487890625,-0.07291251420974731,-0.17922517657279968,-1.2246259450912476
1788861960337920000,11.284919921875,-0.12406118214130402,-0.15624183416366577,-1.2126209735870361
1788861960347961900,11.2949619140625,-0.15588437020778656,-0.1485881805419922,-1.1791434288024902
1788861960358004000,11.30500390625,-0.13070045411586761,-0.1798371821641922,-1.1238319873809814
1788861960368046000,11.315046142578124,-0.08350098133087158,-0.2396743893623352,-1.078159213066101
1788861960378088000,11.325087890625,-0.05167407914996147,-0.22168686985969543,-1.0026061534881592
1788861960388130000,11.335130126953125,-0.038917552679777145,-0.13310103118419647,-0.9287636280059814
1788861960398171000,11.3451708984375,-0.012632953003048897,-0.0692586749792099,-0.8842477798461914
1788861960408213000,11.355212890625,0.017566246911883354,-0.05354820936918259,-0.8096994161605835
1788861960418255000,11.365255126953125,0.04389585554599762,-0.022060856223106384,-0.6778255701065063
1788861960428297000,11.375296875,0.0641728863120079,0.038178812712430954,-0.5573311448097229
1788861960438339000,11.385339111328125,0.08739511668682098,0.09151500463485718,-0.4394911229610443
1788861960448381000,11.395380859375,0.10029852390289307,0.10856950283050537,-0.3197489082813263
1788861960458422000,11.405422119140624,0.08003613352775574,0.13125085830688477,-0.17877449095249176
1788861960468463900,11.4154638671875,0.05487991124391556,0.17636346817016602,-0.027105871587991714
1788861960478506000,11.425506103515625,0.042471446096897125,0.22696459293365479,0.11676235496997833
1788861960488548000,11.435548095703124,0.032802850008010864,0.23835410177707672,0.2237328439950943
1788861960498590000,11.44558984375,0.031050225719809532,0.2429291307926178,0.3070051074028015
1788861960508631000,11.455631103515625,0.06283427774906158,0.270379900932312,0.42304885387420654
1788861960518673000,11.4656728515625,0.09011383354663849,0.3060486614704132,0.5511775016784668
1788861960528715000,11.475715087890626,0.09690765291452408,0.31340906023979187,0.6628220081329346
1788861960538757000,11.485757080078125,0.08555673062801361,0.2736677825450897,0.7431008815765381
1788861960548799000,11.495799072265624,0.06583523750305176,0.26740238070487976,0.8172098398208618
1788861960558841000,11.505841064453126,0.04718512296676636,0.28522825241088867,0.8770484328269958
1788861960568882000,11.5158818359375,0.03935234621167183,0.2410798966884613,0.9505006670951843
1788861960578924000,11.525924072265624,0.018191667273640633,0.2030177265405655,1.067219853401184
1788861960588966100,11.535966064453126,-0.016702942550182343,0.23687878251075745,1.2127450704574585
1788861960599008000,11.546008056640625,-0.03413466364145279,0.28100496530532837,1.3657718896865845
1788861960609050000,11.556050048828125,-0.028154002502560616,0.28412991762161255,1.4822511672973633
1788861960619091000,11.566091064453126,0.007251393049955368,0.3038887083530426,1.5748438835144043
1788861960629133000,11.576133056640625,0.056786734610795975,0.37380754947662354,1.6706316471099854
1788861960639175000,11.5861748046875,0.09267895668745041,0.41673770546913147,1.7742533683776855
1788861960649217000,11.596217041015626,0.08872547745704651,0.32912030816078186,1.8659173250198364
1788861960659259100,11.606259033203125,0.03243131563067436,0.1465102732181549,1.8953441381454468
1788861960669301000,11.616301025390625,-0.0034181522205471992,0.14887766540050507,1.8854968547821045
1788861960679342000,11.626342041015626,-0.017871394753456116,0.2714563012123108,1.872827172279358
1788861960689384000,11.636384033203125,-0.03417528048157692,0.27531686425209045,1.8557246923446655
1788861960699426000,11.646426025390625,-0.04029868543148041,0.1733904927968979,1.8549387454986572
1788861960709468200,11.65646826171875,-0.05693410336971283,0.17174221575260162,1.8954439163208008
1788861960719510000,11.666510009765625,-0.08713860809803009,0.29503750801086426,1.9668701887130737
1788861960729551000,11.676551025390625,-0.09287641942501068,0.3644574284553528,1.993458867073059
1788861960739593000,11.686593017578126,-0.06099545210599899,0.3579409420490265,1.9701530933380127
1788861960749635000,11.696635009765625,-0.01209527999162674,0.37969332933425903,1.90395188331604
1788861960759677000,11.706677001953125,0.027648938819766045,0.42789629101753235,1.853764295578003
1788861960769719000,11.716718994140624,0.060570791363716125,0.46238866448402405,1.904740571975708
1788861960779761200,11.72676123046875,0.08352750539779663,0.5255393385887146,2.0287094116210938
1788861960789802000,11.736802001953125,0.11856633424758911,0.5580800771713257,2.1118671894073486
1788861960799844000,11.746843994140624,0.16236945986747742,0.4470524191856384,2.1251115798950195
1788861960809886000,11.756885986328125,0.20684680342674255,0.24025724828243256,2.1097187995910645
1788861960819927800,11.766927734375,0.2229706346988678,0.04081284627318382,2.0954771041870117
1788861960829970200,11.77697021484375,0.22172531485557556,-0.1481548547744751,2.064246654510498
1788861960840011000,11.787010986328125,0.17931127548217773,-0.31786373257637024,1.9945425987243652
1788861960850053000,11.79705322265625,0.08854051679372787,-0.47873616218566895,1.9199750423431396
1788861960860095000,11.807094970703124,-0.026133067905902863,-0.6101495623588562,1.8480286598205566
1788861960870137000,11.81713720703125,-0.11668603122234344,-0.6949010491371155,1.7618411779403687
1788861960880179000,11.827178955078125,-0.16658326983451843,-0.6777740120887756,1.6903249025344849
1788861960890220000,11.837219970703124,-0.20296242833137512,-0.6066805124282837,1.6400221586227417
1788861960900262100,11.84726220703125,-0.23358586430549622,-0.5558179020881653,1.6118254661560059
1788861960910304000,11.857303955078125,-0.2328242063522339,-0.5076168179512024,1.6150052547454834
1788861960920346000,11.86734619140625,-0.22996875643730164,-0.3904736340045929,1.6342633962631226
1788861960930388000,11.877387939453126,-0.24816451966762543,-0.24100087583065033,1.6457313299179077
1788861960940429800,11.887429931640625,-0.22925260663032532,-0.14234887063503265,1.6163268089294434
1788861960950471000,11.897470947265624,-0.16997665166854858,-0.14168421924114227,1.5482208728790283
1788861960960513000,11.907512939453126,-0.11333867907524109,-0.17127621173858643,1.4733184576034546
1788861960970555100,11.91755517578125,-0.11688601970672607,-0.08072949945926666,1.429331660270691
1788861960980596500,11.927596435546874,-0.14117324352264404,0.10593385994434357,1.4172859191894531
1788861960990638600,11.937638671875,-0.11078725755214691,0.21635904908180237,1.4147855043411255
1788861961000679400,11.947679443359375,-0.01625116355717182,0.2448788583278656,1.3703240156173706
1788861961010721800,11.9577216796875,0.044025905430316925,0.2274395078420639,1.2821462154388428
1788861961020763600,11.967763671875,0.08002731204032898,0.14724373817443848,1.1785521507263184
1788861961030805500,11.977805419921875,0.13338027894496918,-0.02382810227572918,1.0863349437713623
1788861961040847600,11.98784765625,0.19742077589035034,-0.19012439250946045,0.9970954656600952
1788861961050888400,11.997888427734376,0.2096329927444458,-0.25131672620773315,0.8855342864990234
1788861961060930600,12.0079306640625,0.1678016483783722,-0.2333076149225235,0.7275369167327881
1788861961070972700,12.01797265625,0.11162997037172318,-0.18966154754161835,0.49337390065193176
1788861961081014500,12.0280146484375,0.05689428746700287,-0.08124666661024094,0.22763091325759888
1788861961091056600,12.038056640625,0.007220348343253136,0.1475520133972168,0.003802789142355323
1788861961101097500,12.048097412109374,-0.011231895536184311,0.40005961060523987,-0.1612018644809723
1788861961111139600,12.0581396484375,-0.006291871890425682,0.5703753232955933,-0.2813577651977539
1788861961121181400,12.068181396484375,-0.021643131971359253,0.636803388595581,-0.36846470832824707
1788861961131223600,12.0782236328125,-0.04142281785607338,0.633206307888031,-0.4367872476577759
1788861961141265700,12.088265625,-0.04551689699292183,0.5881426930427551,-0.5038246512413025
1788861961151307500,12.0983076171875,-0.049597255885601044,0.5018987655639648,-0.5714035630226135
1788861961161348600,12.1083486328125,-0.059583310037851334,0.40979331731796265,-0.6178379058837891
1788861961171390500,12.118390380859376,-0.06612619757652283,0.3605974018573761,-0.6254613995552063
1788861961181432600,12.1284326171875,-0.0693771168589592,0.36476418375968933,-0.5717387795448303
1788861961191474700,12.138474609375,-0.07191441208124161,0.4079846441745758,-0.4999379813671112
1788861961201516500,12.1485166015625,-0.06757532805204391,0.4691199064254761,-0.4415804147720337
1788861961211557600,12.1585576171875,-0.051926467567682266,0.48777684569358826,-0.39425554871559143
1788861961221599500,12.168599609375,-0.03154716268181801,0.4565901458263397,-0.35134243965148926
1788861961231641600,12.1786416015625,-0.014473499730229378,0.4172873795032501,-0.33805906772613525
1788861961241683500,12.188683349609375,0.0022466243244707584,0.41060468554496765,-0.36624249815940857
1788861961251725600,12.1987255859375,0.020734423771500587,0.43001365661621094,-0.4106013774871826
1788861961261766700,12.2087666015625,0.02706049755215645,0.4627535045146942,-0.43589022755622864
1788861961271808500,12.21880859375,0.02489694394171238,0.5443298816680908,-0.4384825527667999
1788861961281850600,12.2288505859375,0.024864453822374344,0.650499701499939,-0.4509621262550354
1788861961291892500,12.238892578125,0.008715455420315266,0.7249112129211426,-0.5211797952651978
1788861961301934600,12.2489345703125,0.009495495818555355,0.7223207354545593,-0.6658509969711304
1788861961311975700,12.2589755859375,0.0427723228931427,0.5783307552337646,-0.8624139428138733
1788861961322017800,12.269017822265624,0.07388630509376526,0.3904798924922943,-1.0353124141693115
1788861961332059600,12.2790595703125,0.06724730879068375,0.32541969418525696,-1.0899615287780762
1788861961342101500,12.2891015625,0.014229891821742058,0.40495872497558594,-1.035740852355957
1788861961352143600,12.2991435546875,-0.030182309448719025,0.5313917398452759,-0.9528892040252686
1788861961362184400,12.309184326171875,-0.06006377562880516,0.5965089797973633,-0.8694702386856079
1788861961372226800,12.319226806640625,-0.07801229506731033,0.5902804732322693,-0.8241785764694214
1788861961382268700,12.3292685546875,-0.11511971056461334,0.4634210765361786,-0.8622745871543884
1788861961392310500,12.339310546875,-0.13053232431411743,0.2635701298713684,-1.0303524732589722
1788861961402352600,12.3493525390625,-0.08329851180315018,0.10151197016239166,-1.2366987466812134
1788861961412394500,12.35939453125,0.03507312387228012,0.07450941205024719,-1.3553330898284912
1788861961422435600,12.369435546875,0.14484569430351257,0.16738370060920715,-1.3781816959381104
1788861961432477700,12.379477783203125,0.189806267619133,0.21217191219329834,-1.3448288440704346
1788861961442519600,12.38951953125,0.1849989891052246,0.22042451798915863,-1.2846171855926514
1788861961452561700,12.399561767578126,0.1528976410627365,0.2867051362991333,-1.2076269388198853
1788861961462603500,12.409603515625,0.09948661923408508,0.3026138246059418,-1.1840475797653198
1788861961472644600,12.41964453125,0.05931134894490242,0.1437324434518814,-1.2551687955856323
1788861961482686500,12.4296865234375,0.07451347261667252,-0.0933179259300232,-1.3432787656784058
1788861961492728800,12.439728759765625,0.1291174292564392,-0.3278127908706665,-1.3739659786224365
1788861961502770700,12.449770751953125,0.1778348982334137,-0.5103671550750732,-1.3697642087936401
1788861961512812500,12.4598125,0.19919121265411377,-0.6657065749168396,-1.4165698289871216
1788861961522853600,12.469853515625,0.2005677968263626,-0.7732479572296143,-1.487596035003662
