time,seconds_elapsed,z,y,x
1788860705266562000,0.04356201171875,-0.03583060731589794,0.06639730275422334,-0.4510498598406091
1788860705276568800,0.05356884765625,-0.10358078598380088,0.16183949820697308,-0.5857903387198224
1788860705286575900,0.063575927734375,-0.13550327994525432,0.22320947431847452,-0.5793939522136002
1788860705296582000,0.073581787109375,-0.12756313459575175,0.18716653942614792,-0.6590884703710674
1788860705306589000,0.0835888671875,-0.1704302164196968,0.12524170591086148,-0.8599533533472568
1788860705316595000,0.093594970703125,-0.086073770865798,0.19721593201458454,-0.9528011483926325
1788860705326602000,0.10360205078125,-0.013469137904047966,0.24924174119755624,-0.8120293534599244
1788860705336608000,0.11360791015625,-0.09273147518932819,0.34927491770237684,-0.30367662081625313
1788860705346614800,0.12361474609375,-0.4208037381261587,0.39455052197277546,0.46937885886598374
1788860705356620800,0.133620849609375,-0.5873176578849554,0.277831729735434,1.309101653882861
1788860705366627800,0.1436279296875,-0.2610071439236402,-0.3090162648111582,1.4407519116617737
1788860705376633900,0.1536337890625,0.7207540684282779,-1.2670190004348754,0.9804247030511498
1788860705386641000,0.163640869140625,1.0260235479265452,-1.498961085654795,0.5478518358718604
1788860705396648000,0.17364794921875,0.3635433892905712,-1.1620903069734572,0.2804286143608391
1788860705406654000,0.183654052734375,-0.21773615747392178,-0.6606051585443318,0.19420257554277776
1788860705416660700,0.19366064453125,0.06960311305820942,-0.5518003543019294,0.30023758627828206
1788860705426667000,0.2036669921875,0.5463029259294271,-0.7913282184757292,0.44476774736382063
1788860705436673800,0.213673828125,0.4113227930754423,-1.0433492151282726,0.6436684906601905
1788860705446679800,0.2236796875,-0.40696459786593914,-1.3815620560683308,0.7952507987469434
1788860705456686800,0.233686767578125,-0.7481260594785213,-1.3975595434062182,0.3027712329417467
1788860705466692900,0.24369287109375,-0.38015842400491234,-0.6437814495153725,-0.47412115802224725
1788860705476700000,0.253699951171875,-0.42218671691715715,0.07822919484525918,-1.3263146544903517
1788860705486707000,0.26370703125,-0.8025210820108651,-0.21636253103315828,-1.1145869436509908
1788860705496713000,0.273712890625,-1.0301812521278857,-0.7465829216897487,-0.5811198261581361
1788860705506719700,0.2837197265625,-1.4980635522931813,-0.8994697365038097,-0.07323942373394966
1788860705516725800,0.293725830078125,-1.1105348917812108,-1.1989011574983597,1.142286120828986
1788860705526732800,0.30373291015625,-0.5626613555341958,-1.3018274250961839,1.0400018774617463
1788860705536738800,0.31373876953125,-0.7206658056229353,-0.9479352228567004,0.5122600057478994
1788860705546745900,0.323745849609375,-1.243242988049984,-0.4909744219392538,-0.09058642598465085
1788860705556752000,0.333751953125,-1.9846710111945867,-0.2759985229589045,-0.7439999194592237
1788860705566759000,0.343759033203125,-2.5594495055019855,-0.5333034513637424,-0.8132726315192877
1788860705576765000,0.353764892578125,-3.014257804560661,-1.4062103212431072,-0.3071066317975521
1788860705586772000,0.36377197265625,-3.4685599076628684,-2.453486208295822,0.13959595608636735
1788860705596778800,0.37377880859375,-3.9245214684098957,-3.0336981258288023,0.20605638720467687
1788860705606784800,0.38378466796875,-4.318638275140524,-3.3925796607881784,0.026689269483089445
1788860705616792000,0.3937919921875,-4.649060900595784,-3.7835266053110357,-0.21856296368688344
1788860705626797800,0.4037978515625,-4.894293552282452,-3.9965757740125056,-0.44660862599015233
1788860705636804900,0.413804931640625,-4.375834911090135,-4.2361090450137855,-0.6646481503248214
1788860705646811000,0.423810791015625,-3.6086528534859417,-5.201563850209117,-0.5837862688884139
1788860705656818200,0.433818115234375,-2.8816660281479356,-6.215573135215044,-0.17424188366234303
1788860705666824400,0.443824462890625,-2.311741988134384,-7.293352589341998,-0.5717872035369277
1788860705676831200,0.453831298828125,-2.0838649603962898,-8.069102568805217,-0.8189812184244394
1788860705686838300,0.46383837890625,-1.6673030976235865,-8.562687465503812,-0.8279466151684522
1788860705696844300,0.47384423828125,-1.0763736789822578,-8.348522736775875,-0.5467646982222795
1788860705706851300,0.483851318359375,0.630681583315134,-6.66433747793436,-1.091972230130434
1788860705716857000,0.493857177734375,2.501224695548415,-5.261638671943545,-1.9440899944812058
1788860705726864400,0.503864501953125,4.403637110251188,-4.828739714615047,-1.2844015123903751
1788860705736870400,0.513870361328125,5.440865358281135,-5.479313454619049,1.8486469222456217
1788860705746877200,0.523877197265625,6.24886984013915,-5.698512085860967,4.540817383497953
1788860705756883200,0.53388330078125,8.076473389834165,-5.147635860666632,5.641464502993226
1788860705766890200,0.54389013671875,7.005609414184093,-3.743499715349078,6.265387259697913
1788860705776896300,0.553896240234375,4.691118711863458,-1.5661309802167116,6.382960915198922
1788860705786903000,0.563903076171875,4.217474487170577,-0.11934095743447541,7.166776712217927
1788860705796910300,0.573910400390625,4.244147974562645,0.9672843587100505,8.3822888127774
1788860705806916400,0.583916259765625,3.1975095086306333,2.082948722334206,8.9272444157511
1788860705816923100,0.593923095703125,1.65116927055493,3.2224212470471856,8.647018776616454
1788860705826929400,0.603929443359375,0.49202729199305173,4.662911146771908,7.065398989236354
1788860705836936200,0.613936279296875,-0.6371463954150677,5.559193631541729,6.093306937983631
1788860705846942200,0.623942138671875,-2.0960167320914564,5.688549494773149,4.403931124761701
1788860705856949200,0.63394921875,-2.6015251446872947,5.526158207902312,2.6961212447047234
1788860705866955300,0.643955322265625,-2.7480250349432227,5.550519911220669,1.9762953970372676
1788860705876962300,0.65396240234375,-3.030288317385316,5.843303418633341,1.4354267711162567
1788860705886969300,0.66396923828125,-5.403366525492072,6.650742667824029,1.6241560298144817
1788860705896975400,0.673975341796875,-9.711857500627636,8.211391563367844,1.4914198764950035
1788860705906982100,0.683982177734375,-11.152315251648425,9.813816238367558,0.6829723270446062
1788860705916988400,0.693988525390625,-9.574906944483518,8.765553970625996,-0.15184885006844998
1788860705926995200,0.7039951171875,-7.092546523880958,6.472662228912115,-0.21512802080214022
1788860705937001200,0.714001220703125,-5.483986707127094,5.9788066985785955,-1.0256757574021815
1788860705947008300,0.72400830078125,-2.8363375246465203,6.107323772898316,-3.065916680127382
1788860705957014300,0.73401416015625,-1.3945371268451212,4.845437459176779,-4.534366015401482
1788860705967021300,0.744021240234375,0.2552759067952633,3.603208616605401,-4.55693674364984
1788860705977028400,0.7540283203125,3.279726604068279,3.200121152433753,-3.9392777235150334
1788860705987034400,0.764034423828125,5.464155048453808,2.366832591715455,-1.0914490830391645
1788860705997041200,0.774041259765625,3.928590325284004,1.413990015333891,0.7131254732459783
1788860706007047200,0.784047119140625,-2.013453453564644,0.8264782961815595,2.9072534738689657
1788860706017054200,0.79405419921875,-6.583146218413114,1.5392220766335725,4.3356858560532325
1788860706027060200,0.804060302734375,-7.022777991127968,1.4389695582896471,3.883979614663124
1788860706037067300,0.8140673828125,-6.411780766969919,0.42300972373783585,1.510679288238287
1788860706047073300,0.8240732421875,2.615215231865644,1.6349848823428152,1.0182108283489941
1788860706057080300,0.834080322265625,2.733554026520252,1.7895909221649169,1.2272364406228065
1788860706067087000,0.844087158203125,-0.6806955412190407,2.242822765687108,2.1841765154510737
1788860706077093400,0.85409326171875,0.00566284806728363,6.026651568815112,2.042234142369032
1788860706087100200,0.86410009765625,4.587418975675106,-1.14488958132565,3.818832311969995
1788860706097106200,0.874106201171875,9.121673347395658,-5.039627905890345,3.8845378330677747
1788860706107113500,0.884113525390625,7.960468006563186,-10.425912363678217,1.0507131680250168
1788860706117119200,0.894119140625,-0.8649555455487221,-5.655782366681098,-2.483435940879583
1788860706127126300,0.904126220703125,-0.8617454243957996,-5.543415632173419,-2.3046055603832003
1788860706137132300,0.91413232421875,-3.961129489839077,-3.6493992898941037,-0.8454729195088148
1788860706147139300,0.924139404296875,-3.5496015295803547,-2.726258608815074,1.4133724679574369
1788860706157146000,0.93414599609375,-1.379156894622743,-2.3028414733201266,2.1922011242136357
1788860706167152000,0.944152099609375,0.5744073229074478,-1.4945745411336422,1.08097620434165
1788860706177159400,0.954159423828125,1.5324958371184765,-0.8194061658382416,-0.24433044214993713
1788860706187165200,0.964165283203125,1.95633514354825,-0.46395665115416046,-0.6119660691902041
1788860706197172200,0.974172119140625,1.493197553692013,-0.2105769333690405,-0.7352735921680927
1788860706207178200,0.98417822265625,0.3900150705002248,-0.21783201906383037,-1.0551996657893061
1788860706217185300,0.994185302734375,-0.7604604942642151,-0.675247870272398,-1.6058005811735987
1788860706227191300,1.00419140625,-0.2502899350762367,-2.9877701951295137,-2.489692078664899
1788860706237198300,1.0141982421875,-1.4545277774274348,-3.4798388420462607,-3.4560490933969614
1788860706247205400,1.024205322265625,-1.2413421228647232,-2.6464158412933347,-2.473537354938686
1788860706257211100,1.034211181640625,0.5183236166357994,-1.5548972001492976,-2.1891838222190736
1788860706267218400,1.044218505859375,1.1505028180975467,-0.0829576846718788,-1.788715892896056
1788860706277224200,1.05422412109375,1.0955658707082272,3.011512889766693,-0.05553717830479145
1788860706287231200,1.064231201171875,1.1708956908501684,2.973421351781487,-0.1329641168564558
1788860706297237200,1.0742373046875,0.7645204371795058,2.9567367589622733,0.8400164076685905
1788860706307244300,1.084244384765625,0.0956837491236627,2.6628192790836094,1.1552724436521529
1788860706317250300,1.094250244140625,-0.7680547487854957,2.3837813884288073,1.1366104132801294
1788860706327257000,1.104257080078125,-0.7646646679557859,1.6095377218753097,1.3272341074228287
1788860706337264400,1.114264404296875,-0.38926001434922214,-0.16702596093416214,1.3451017725467682
1788860706347270100,1.124270263671875,-0.2337596560359001,-1.7087720030874012,0.516990906727314
1788860706357277200,1.134277099609375,-0.39868133816719054,-2.670652456927299,-0.475690343567729
1788860706367283500,1.144283447265625,-0.8142715794287622,-2.772975936326384,-0.2518386258229613
1788860706377290200,1.154290283203125,-0.9210324567534028,-1.8234201265305279,0.48973026709705586
1788860706387296300,1.164296142578125,-0.4792097498655319,-0.48978784250319,0.8969710515558719
1788860706397303300,1.17430322265625,0.32133170263543726,0.06973112335205078,1.0961138599798084
1788860706407310300,1.184310302734375,0.037147681263834234,-0.2693774973839521,1.1405346009865402
1788860706417316000,1.194316162109375,-0.5984625906251371,0.09230652777552605,1.2660451869666576
1788860706427323400,1.204323486328125,-0.3103400607608259,0.8679758432179688,0.498113187777996
1788860706437329400,1.214329345703125,0.034071927080303425,1.5576245792865753,-0.7942252550914883
1788860706447336200,1.224336181640625,0.26701559055820107,1.4876380198687313,-1.187056113664806
1788860706457342200,1.23434228515625,0.31206688455343246,1.7552870860248804,-0.7204620997443795
1788860706467349200,1.244349365234375,0.2945839809633791,1.619703726580739,-0.09758914435356855
1788860706477355300,1.254355224609375,-0.2026744896814227,0.8042629572421311,0.3097369803011417
1788860706487362000,1.264362060546875,-0.22328955381736157,2.0241209780514238,-0.012526304095983504
1788860706497369300,1.274369384765625,0.5023861889220774,3.708333124899864,-0.6389020069107413
1788860706507375400,1.284375244140625,0.9615363165773451,5.123852249497175,-0.8774357454806566
1788860706517382100,1.294382080078125,1.042289184681326,6.783992615884542,-0.9017164925172925
1788860706527388400,1.304388427734375,0.9095758277155458,9.499728661641479,-1.022970590096712
1788860706537395200,1.314395263671875,2.629011117506027,12.005607320475578,-1.558329804946482
1788860706547401200,1.324401123046875,2.747836234372854,11.483769558238983,-1.855630497522652
1788860706557408300,1.334408203125,0.08731354179382324,6.701441173925995,-1.3633318412423132
1788860706567414300,1.344414306640625,-3.5473391376063224,0.49802960114777084,0.0584782001927495
1788860706577421300,1.35442138671875,-4.458637112939358,-1.6593898402810097,0.8758806249931455
1788860706587428400,1.364428466796875,-3.0379087292611597,-4.546169265919923,0.4360238113507628
1788860706597434400,1.374434326171875,2.295688825086504,-3.545678218656778,-0.2670394098252058
1788860706607441200,1.384441162109375,3.8307378538191315,-1.8193869254916906,-0.8801322910882532
1788860706617447200,1.394447265625,4.275050477826595,-1.5427730471134184,-2.1698845168568193
1788860706627454200,1.4044541015625,1.9262300742723046,-0.8043342689126729,-1.4173675289429724
1788860706637460200,1.414460205078125,-3.8343069444775577,-3.4122195962816475,1.086043424603343
1788860706647467500,1.424467529296875,-5.8176469993293285,1.1317542054206131,2.7869442559242246
1788860706657474600,1.434474609375,-3.2255005083620545,0.11261457178890705,1.2542492429718375
1788860706667480600,1.44448046875,4.0963481076240535,0.6259276667863131,-1.9499900123052298
1788860706677487600,1.454487548828125,6.071417177736759,3.5104514224529266,-2.8928011701464653
1788860706687493600,1.46449365234375,-0.383683967782557,7.061739882206917,-3.287112622666359
1788860706697500400,1.47450048828125,-3.836039467358589,7.3186828454315656,-1.7673624314829706
1788860706707506700,1.484506591796875,-3.600845686866343,1.023408981513977,1.1779271969221532
1788860706717513500,1.494513427734375,-1.5987012705624102,-2.847405446627736,2.0203074111126362
1788860706727520500,1.5045205078125,1.6643322651192545,-4.165942452853918,2.2474153541743753
1788860706737526500,1.514526611328125,2.489422321812808,-6.71139207457602,1.904391021299362
1788860706747533600,1.524533447265625,1.2149275786697864,-11.540206315732002,2.146374023540318
1788860706757539600,1.53453955078125,-0.563865762887895,-10.261496877503394,3.592376841467619
1788860706767546600,1.544546630859375,-0.8613641699932515,-5.943687454402446,3.6768940305411815
1788860706777552600,1.554552734375,-1.3698083437800406,-6.711145990860461,1.1771635190732777
1788860706787559400,1.564559326171875,-1.0880991880893707,-4.404375361397862,-0.4823639761127531
1788860706797566700,1.574566650390625,-0.4584522085189819,-1.4523516024321317,-0.0014174655824899672
1788860706807572500,1.584572509765625,-0.9062181878507137,1.6106220099806785,0.47539910553619263
1788860706817579500,1.59457958984375,0.402312534276396,3.2586721256017683,1.0414473270297049
1788860706827585500,1.60458544921875,1.7053122180223463,4.962341837114096,0.8114195509985089
1788860706837592600,1.614592529296875,2.0986114247597754,5.050073312059045,0.24100860425084827
1788860706847598600,1.6245986328125,1.9849357996106147,4.252137219750881,-0.008331482754647731
1788860706857605400,1.63460546875,1.8853459829591213,4.007026733139157,-0.008916881427168845
1788860706867611600,1.644611572265625,0.20403335694447158,2.7846885859519244,-0.4180421644583344
1788860706877618400,1.654618408203125,0.31620646857619283,1.1388795272558927,-0.7314816525392234
1788860706887625500,1.66462548828125,0.4758594165243208,-1.3315344349652527,-1.1474994715631008
1788860706897631700,1.6746318359375,-0.10364712921828031,-2.55252175206542,0.08447839143313467
1788860706907638500,1.684638427734375,-0.9250492911793291,-4.760367312395572,0.6792633164588362
1788860706917644500,1.69464453125,-1.8946879579305647,-7.095678392165899,0.39604667881466443
1788860706927651600,1.704651611328125,-2.0253110646188257,-7.405905201810598,0.16099128387980163
1788860706937657600,1.71465771484375,-1.3742204611338673,-5.64164219764769,-1.169961186479032
1788860706947664400,1.724664306640625,-0.5670400090098381,-2.9027655147999525,-1.7423111384652554
1788860706957671700,1.734671630859375,-0.49791686148829756,-3.228375771537423,-2.160767144421488
1788860706967677700,1.744677734375,-0.6324808147568255,-2.5914690300971266,-1.7606410142734645
1788860706977684500,1.7546845703125,-0.06384498792290687,-1.8296031990796326,-1.1726513754110783
1788860706987690500,1.7646904296875,0.3455996632557362,-1.506292451456189,-1.2027768298879264
1788860706997697500,1.774697509765625,0.32271921147108074,-1.946723265594244,-1.4328295942299067
1788860707007703600,1.78470361328125,-0.37841939831785854,-2.396469020566344,-0.8706574835173785
1788860707017710300,1.79471044921875,-1.1851706652443856,-3.1268466573864218,-0.35827874676063654
1788860707027717600,1.804717529296875,-1.5898796662032604,-3.597449322426319,0.0042473917787894605
1788860707037723600,1.8147236328125,-1.3321733173906802,-4.879688688346743,-0.2575421712268144
1788860707047730400,1.82473046875,-1.0869453418791293,-5.96580050201118,-0.6721944740511476
1788860707057736700,1.83473681640625,-0.9233458482623099,-4.507341814875603,-0.416425267313607
1788860707067743500,1.844743408203125,-0.27937457526326176,-0.1857669017612934,0.6010556393256411
1788860707077749500,1.85474951171875,0.7640894984163343,3.4344553934872146,1.8647062227733433
1788860707087756500,1.864756591796875,1.0116717819690704,5.15765573489964,2.4312932273186743
1788860707097763600,1.874763671875,1.6736289396442472,6.412440692183375,2.536903911694884
1788860707107769600,1.88476953125,1.9210557403743267,7.423212310442328,2.6156530387610197
1788860707117776600,1.894776611328125,2.5334347742795944,7.381924022242426,2.3087252706617116
1788860707127782700,1.90478271484375,3.2272727787315842,4.810760113549232,1.2857521963469682
1788860707137789400,1.91478955078125,2.0778502301514146,1.3044330775499342,0.07974062232151627
1788860707147795500,1.92479541015625,0.6849018338024616,-0.9855413154125213,-0.2309081755949184
1788860707157802500,1.934802490234375,-0.18160393686294554,-1.3057143495321273,-0.648969446612522
1788860707167808500,1.94480859375,-0.2688521583355963,0.46886721954941746,-0.7230496320195495
1788860707177815600,1.954815673828125,0.2153155061982572,1.2272352715790271,-0.028447383463103323
1788860707187822600,1.964822509765625,2.0739771881103515,14.150317502456902,1.453154735508561
1788860707197828600,1.97482861328125,7.774521072059869,28.841226567459106,6.057018650028109
1788860707207835400,1.98483544921875,8.07254774082303,-0.5855027174174785,6.300964769035577
1788860707217841700,1.994841552734375,0.22882161511182783,-10.084996985781192,1.669060754945874
1788860707227848400,2.004848388671875,-3.087857293778658,-8.189453287804126,0.6392912254240364
1788860707237854500,2.0148544921875,-2.6309002922534943,-12.894382206094264,0.7544729442872107
1788860707247861500,2.024861572265625,-3.344248468339443,-9.20320830578804,-1.1617236656181513
1788860707257868500,2.03486865234375,-2.8633856905698774,-4.9354772110641,-3.7074873217254876
1788860707267874600,2.04487451171875,-1.2421335655033587,-2.120108824688196,-5.48162465417087
1788860707277881600,2.054881591796875,-4.4140918687701225,-4.767302664616704,-7.235116088950633
1788860707287887600,2.0648876953125,-1.4036346255362033,-4.082011539235711,-7.3934940485268825
1788860707297894400,2.074894287109375,1.48978979107514,-2.4356261419564484,-6.174912623524666
1788860707307900400,2.084900390625,2.2156441052518785,0.16062427719831465,-3.384709658065438
1788860707317907500,2.094907470703125,1.975789201080799,0.27434651796817777,0.009089899906516074
1788860707327914500,2.10491455078125,0.35519181359596547,0.19464812735319137,1.1041218098685144
1788860707337920500,2.11492041015625,0.25873276925086974,2.0426544136077163,1.230793110191077
1788860707347927600,2.124927490234375,0.9012368923068046,2.2873130647987128,1.2226492589630187
1788860707357933600,2.13493359375,1.6076093841612338,2.423545243540406,1.3340502171784638
1788860707367940600,2.144940673828125,1.385769444630295,2.4716490569740532,2.0904490149617194
1788860707377946600,2.154946533203125,0.5547606654122471,1.7561229523271322,2.739811041088402
1788860707387953400,2.164953369140625,-0.10982450267896056,1.1278092671871185,2.9086455127492545
1788860707397959400,2.17495947265625,-0.9260277808226645,0.507671289718151,2.255788630244136
1788860707407966700,2.184966796875,-0.7596750429749488,-0.36589433633089063,0.3873774154730141
1788860707417973500,2.194973388671875,-0.34177594024911523,-0.22849077572226523,-0.5649881910465657
1788860707427979500,2.2049794921875,-0.9725370185412466,0.17681845615208147,-0.49711540891230105
1788860707437986600,2.214986572265625,-0.7302583943545818,0.2794306893646717,-0.12845964504405855
1788860707447992600,2.22499267578125,-0.24110490423217415,0.4879810853421688,0.26416166243180633
1788860707457999400,2.234999267578125,-0.5608243493653834,0.48294718282818794,0.5849532668411731
1788860707468005600,2.245005615234375,-0.873052123568952,0.46953883520066736,0.6017008418940007
1788860707478012700,2.2550126953125,-0.7000947267591953,0.33852585241198535,0.5429800651170313
1788860707488019500,2.26501953125,-0.5140213893972337,0.10048398901224136,0.3763805129013955
1788860707498025700,2.275025634765625,-0.5927646712444722,-0.272436300432682,0.21112273068353532
1788860707508032500,2.285032470703125,-1.0334183343529701,-0.6111246499300003,0.23160013991445302
1788860707518038500,2.29503857421875,-1.2725826259113848,-0.7852630732178688,0.4339296155504882
1788860707528045600,2.305045654296875,-1.077085626643896,-0.5953004733324051,0.5518602677956224
1788860707538051600,2.315051513671875,-0.5796501919969916,-0.2271849538207054,0.5419913463406264
1788860707548058600,2.32505859375,-0.1885563863493502,-0.09349135364592075,0.4643038571566343
1788860707558065700,2.335065673828125,-0.2291549387194216,-0.32451018654108044,0.43231925774440166
1788860707568071700,2.34507177734375,-0.7743968112885952,-0.6542395690351724,0.41262671528086065
1788860707578078500,2.355078369140625,-1.5833483647383748,-1.0062386510044337,0.49405938234254715
1788860707588084500,2.36508447265625,-2.3631344678498802,-1.3589029188841582,0.5482561058238148
1788860707598091500,2.375091552734375,-3.1134663668096065,-1.726357928660512,0.6115193483360112
1788860707608097500,2.38509765625,-3.763867380595207,-2.0364532208800314,0.5758607365861534
1788860707618104600,2.3951044921875,-3.758563428968191,-2.283244792446494,0.1965845022432506
1788860707628110600,2.405110595703125,-3.0245503582552073,-2.205395829090476,-0.4858317983537912
1788860707638117600,2.41511767578125,-2.587805831414461,-1.7990093233734368,-1.0085942742198706
1788860707648124000,2.4251240234375,-2.88091199491024,-1.4565689278662204,-1.1137003700748085
1788860707658130000,2.4351298828125,-2.940341504478454,-1.384751645889878,-1.0401530494354665
1788860707668137000,2.445136962890625,-2.190091000191867,-1.2049421912282705,-0.9225593740597366
1788860707678142700,2.455142822265625,-1.039166522616148,-0.7585135979801416,-0.28009748271033164
1788860707688150000,2.46514990234375,-0.09482961651235819,-0.34314649794995783,0.8177630748063326
1788860707698155800,2.47515576171875,0.24674334851056337,-0.027026538613438605,2.1054782417893407
1788860707708162800,2.485162841796875,0.03457183942645788,0.3022375644564628,3.241208657364547
1788860707718169900,2.495169921875,-0.6652776804000139,0.02748889542818069,3.508325516340136
1788860707728175900,2.50517578125,-1.5552502513706683,-0.7791893062621355,3.099356008392572
1788860707738182700,2.5151826171875,-1.9891461107820272,-1.7472621850013732,2.522819856762886
1788860707748189000,2.52518896484375,-1.954147862637043,-2.439064299711585,2.027505359792709
1788860707758196000,2.535196044921875,-1.6038625988483428,-2.7900474826365707,1.8144852710552513
1788860707768201700,2.54520166015625,-1.2551479453772305,-2.9001556245625015,1.5775057761900126
1788860707778209000,2.555208984375,-0.7888555447518825,-2.697050634509325,0.9902136911377311
1788860707788215800,2.5652158203125,0.1799327887803316,-2.188200364139676,0.1543191857047379
1788860707798221800,2.575221923828125,1.3615630780041217,-1.4443676179409026,-0.6774740218892693
1788860707808228900,2.585228759765625,1.9243997901052234,-0.6441776092261076,-1.0449475902356207
1788860707818235000,2.59523486328125,1.938171710348129,0.15950141064822673,-1.130410827987641
1788860707828242000,2.605241943359375,1.5875848332643507,0.8373352057605982,-0.9345604852378367
1788860707838247700,2.61524755859375,0.4008008145391941,1.1295061342328787,-0.5329024693474174
1788860707848255000,2.6252548828125,-0.2033615951627493,1.1241595125079153,-0.45689577285721894
1788860707858261000,2.635260986328125,0.21211422593891618,1.1230763934463261,-0.7438046160828322
1788860707868267800,2.645267822265625,0.7669915034681558,1.2142127083986998,-0.8903569671783595
1788860707878274800,2.65527490234375,1.0301163701981306,1.44940795019567,-0.5764710505042224
1788860707888280800,2.66528076171875,0.9288204802811145,1.5131500622659921,-0.249504702982679
1788860707898287900,2.675287841796875,0.8278115906119347,1.4380506898790597,-0.055982876245677465
1788860707908294000,2.6852939453125,0.7938572985619307,1.493017374819517,-0.03962101257480681
1788860707918301000,2.695301025390625,0.7897305740207433,1.7676631679952144,-0.23328005582541225
1788860707928307000,2.705306884765625,0.6525456245988607,2.0394974108815194,-0.18744900962933897
1788860707938314000,2.71531396484375,0.7112725388556719,2.142878874900937,0.18675474375486373
1788860707948320800,2.72532080078125,0.8121265302240848,2.108732859671116,0.67884808672145
1788860707958326800,2.735326904296875,0.8297276533663273,1.956327544763684,1.1190244877070188
1788860707968334000,2.745333984375,0.6941390332251787,1.9173223990648984,1.192679652635008
1788860707978339800,2.75533984375,0.5443412704676389,1.9510808762818574,0.9302890184637158
1788860707988347000,2.765346923828125,0.15874387027919293,2.0431056645065544,0.6005365473549813
1788860707998352600,2.7753525390625,-0.43679742607176303,2.1927625574886798,0.5650928935300559
1788860708008360000,2.78535986328125,-0.7136328382462263,2.3262580047428605,0.4317432114221155
1788860708018366700,2.79536669921875,-0.8005114957541227,2.296415239664912,-0.0369962170291692
1788860708028372700,2.805372802734375,-0.4739812015622854,2.120756474941969,-0.23137334542125462
1788860708038380000,2.815380126953125,-0.5296411294639111,1.87356625944674,-0.20240955513492226
1788860708048385800,2.8253857421875,-0.9631675710409879,1.5464116958767176,0.05866729302406311
1788860708058392800,2.835392822265625,-1.1503975310921668,1.3608242423355579,0.5699515856076032
1788860708068398800,2.84539892578125,-1.0743792902946472,1.6053788486301899,0.9535589810226112
1788860708078406000,2.855406005859375,-1.02345925039649,1.8828858764559029,0.9043101622723042
1788860708088412000,2.865411865234375,-1.190509761250019,1.7102438292056321,0.5901029046893119
1788860708098419000,2.8754189453125,-1.686810346648097,1.5270751272439955,0.6517016480553894
1788860708108425700,2.88542578125,-1.7684020036637782,1.4231325222104787,1.1523697810132056
1788860708118431700,2.895431640625,-1.439230839574337,1.34310270768404,1.8320536609716713
1788860708128439000,2.90543896484375,-1.6738076572120189,1.4160311657726763,1.9797154346138237
1788860708138444800,2.91544482421875,-1.4365379472285509,1.3020382913678883,1.0335084968544541
1788860708148451800,2.925451904296875,-0.2769499784648418,0.9387532607525586,-0.046951501593366265
1788860708158459000,2.935458984375,-0.14204641797840595,0.7285024905979632,-0.1921046534154564
1788860708168465000,2.94546484375,-0.39667467451989646,0.5544318718492984,0.015148834619298576
1788860708178471700,2.9554716796875,-1.3133330078423022,0.6553086595714092,0.3883043941248208
1788860708188478000,2.96547802734375,-2.3308371492266655,0.7071750404089688,0.8856992045003921
1788860708198485000,2.975485107421875,-2.8619027585357424,0.9011006987065077,1.073263291876763
1788860708208490800,2.98549072265625,-2.8655694643497465,1.2487117748498915,0.9890347104862331
1788860708218498000,2.995498046875,-2.585059747576713,1.5340584102600812,0.8444684917066245
1788860708228504000,3.005504150390625,-2.2108324671864508,1.6003256568938493,1.1991069092035294
1788860708238510800,3.0155107421875,-1.9064158051252365,1.4159510862737894,1.56382153423056
1788860708248518000,3.025517822265625,-1.8556869038850068,1.2729495595276354,1.3315718443661928
1788860708258524000,3.03552392578125,-1.0874228962630033,1.4637392578870057,0.8356305937997996
1788860708268531000,3.045531005859375,-0.7293880412608384,1.774613133263588,0.7044806867584585
1788860708278536700,3.05553662109375,-0.8476596158981323,1.8750035987734794,0.41645504139736295
1788860708288544000,3.0655439453125,-0.876940655440092,1.8393886800348758,-0.15316504723355173
1788860708298550000,3.075550048828125,-0.8587561794519424,1.9427567000508308,-0.3854017314858734
1788860708308556800,3.085556884765625,-0.7698451393336058,2.226333403179049,-0.318081468667835
1788860708318563800,3.095563720703125,-1.066322825089097,2.2941022865474223,-0.1474455005429685
1788860708328569900,3.10556982421875,-1.6485042891293764,2.185454864823818,0.20111060136556624
1788860708338577000,3.115576904296875,-1.9723586421102284,2.037037742769718,0.6602402707546949
1788860708348583000,3.1255830078125,-2.267891740491986,1.5531033024698495,0.596677753034979
1788860708358590000,3.13558984375,-0.5883475854545831,1.127140574145317,-0.0928463337406516
1788860708368595700,3.145595703125,1.370298173123598,1.1462181995809078,-0.36803587840422985
1788860708378603000,3.15560302734375,1.055643610164523,1.458177532106638,0.07416413736343383
1788860708388609800,3.16560986328125,-0.3209147923976183,1.8995313063085077,0.6302711028181016
1788860708398615800,3.17561572265625,-1.593759722507,2.4210125101923943,1.0541431424736976
1788860708408623000,3.185623046875,-1.8706594320893286,2.8028134407073257,1.1924842761933803
1788860708418628900,3.19562890625,-1.253487318688631,3.054364774021506,1.1509515117131173
1788860708428636000,3.205635986328125,-0.7794488339811563,2.9981378598868846,0.8745492302589118
1788860708438641700,3.2156416015625,-0.5196469741940498,2.7021652010440826,0.5972536532267928
1788860708448649000,3.22564892578125,-0.35666064403951164,2.3189105645895003,0.5395978753328323
1788860708458655700,3.23565576171875,-0.6678887396812438,1.9490233592301607,0.7765744475886225
1788860708468661800,3.245661865234375,-1.5951941392242908,1.7507991269558667,1.3148264612704514
1788860708478669000,3.2556689453125,-2.043511907219887,1.60711312507689,1.5239599178329108
1788860708488674800,3.2656748046875,-1.4459382282584905,1.3596142820239066,1.5823329040855167
1788860708498681900,3.275681884765625,-1.0725514903455973,1.0763123041838407,1.9203300564482808
1788860708508688000,3.28568798828125,-0.6597463497579097,0.8906564615815877,1.965992321948707
1788860708518695000,3.29569482421875,-0.4317249451130628,0.7792664631515741,1.6993369430050254
1788860708528701700,3.30570166015625,-1.0450807150959969,0.6057230831474065,1.2989523080512881
1788860708538708000,3.3157080078125,-0.5842962642371654,0.4242322512701153,0.4382306737452745
1788860708548714800,3.32571484375,0.06237608441412448,0.43560178654640913,-0.2102618760704994
1788860708558720800,3.335720703125,-0.3631798166751861,0.3274389334693551,0.2143932767868042
1788860708568728000,3.34572802734375,-1.0272428605884314,0.2466100775197148,0.5077358793869614
1788860708578733800,3.35573388671875,-1.1251865174680948,0.22233225309252738,0.28731764322221276
1788860708588740900,3.365740966796875,-1.3232377312630415,0.1439005214124918,-0.016180150428414343
1788860708598748000,3.375747802734375,-1.7319629090607165,0.043050913958251474,-0.17087123818546532
1788860708608754000,3.38575390625,-1.7007108617067337,-0.2741375513926148,-0.11145838749110698
1788860708618760700,3.3957607421875,-1.2614718877017497,-0.7295248193830252,0.03669569971263408
1788860708628766700,3.4057666015625,-1.0367056854605674,-0.9199377933844923,0.7701087587058544
1788860708638774000,3.41577392578125,-0.8168664182275533,-0.6982163656666874,1.383955527076125
1788860708648779800,3.42577978515625,-0.32211481583714485,0.013511808001995087,1.0565656934455037
1788860708658787600,3.43578759765625,0.23569150088131427,0.7495180983588099,0.456866692893207
1788860708668794400,3.44579443359375,0.21908231138586998,1.2452917372733354,0.05208353071957826
1788860708678800600,3.455800537109375,-0.015347206735610961,1.3958739284068344,-0.11753390801250933
1788860708688807400,3.465807373046875,0.03350187210738659,1.1651079012289642,-0.06566548134833573
1788860708698813400,3.4758134765625,0.2635404617935419,0.4665343926876783,0.10244593673497437
1788860708708820500,3.485820556640625,-0.1251911447674036,-0.4839589902192354,0.258422680388391
1788860708718826500,3.495826416015625,-0.35978958971500397,-1.0295438310071825,0.1444751064300537
1788860708728833500,3.50583349609375,-0.28049159659445283,-0.8799640949144959,0.07562018139064311
1788860708738840600,3.515840576171875,-0.07132862167656422,-0.322804551666975,0.19734481909126042
1788860708748846600,3.5258466796875,0.045648236975073815,0.5204197121322155,0.35118133584558964
1788860708758853400,3.535853271484375,-0.21227847658991814,1.4489499772951007,0.37063276302963494
1788860708768859400,3.545859375,-0.2685901463985443,2.0169892264753577,0.4985597625017166
1788860708778866400,3.555866455078125,-1.2696487644165753,1.7222332499459385,0.9495917578920722
1788860708788872400,3.56587255859375,-1.7329776390612124,0.8491901864662766,1.2020265960425138
1788860708798879700,3.575879638671875,0.5448492199897765,0.09504296700209379,1.0563558500871062
1788860708808886500,3.585886474609375,1.2287468451857566,-0.5195359150350094,1.0806956338346003
1788860708818892500,3.595892578125,-0.9691162503123283,-1.1172510482937097,0.937448900155723
1788860708828899600,3.605899658203125,-0.9193447959274053,-1.4208479184046388,0.5149652461186051
1788860708838905600,3.615905517578125,1.350803199058771,-0.8818309116996824,0.48791649567335843
1788860708848912400,3.625912353515625,1.2897744376003741,-0.1908820528179407,0.7705851440459489
1788860708858918400,3.63591845703125,0.06868541369140148,-0.21714915136620402,0.45725013925284147
1788860708868925700,3.64592578125,1.092173305660486,-0.860364491431415,0.5294391771510243
1788860708878932500,3.655932373046875,1.3765022884607314,-0.8135759983800351,0.528292637464404
1788860708888938500,3.6659384765625,1.0137035800576208,-0.09340002210065722,-0.3357634019613266
1788860708898945500,3.675945556640625,0.4244014703571796,0.6958870459362864,-1.2510343725785613
1788860708908951600,3.68595166015625,-0.6057610770702362,0.7896804512687027,-1.7159402872815728
1788860708918958300,3.695958251953125,-0.4908510878205299,0.15350143958106635,-1.4021794582918286
1788860708928965600,3.705965576171875,-0.0961339771091938,-0.6095718675300479,-0.9819503051832318
1788860708938971400,3.715971435546875,-0.19529694665074349,-0.7971610162824392,-0.8920166440188885
1788860708948978400,3.725978515625,-0.2286053420126438,-0.023884733456373212,-1.3360887372687458
1788860708958984700,3.735984619140625,0.447968808427453,1.0148002892531454,-1.3335520583979785
1788860708968991500,3.745991455078125,0.950112274634838,0.9272954626709222,-0.37329862123802304
1788860708978997500,3.75599755859375,1.6463427271813154,0.6548126927480101,0.06365297248214483
1788860708989004500,3.766004638671875,1.7233517325818537,0.7898252665668726,-0.0633874534137547
1788860708999011600,3.776011474609375,1.3999708423316477,1.1846223106466234,-0.25053689557462927
1788860709009017300,3.786017333984375,1.376516316986084,1.4451529230996965,-0.03028349458277225
1788860709019024600,3.796024658203125,1.626744292742014,1.0996534322828053,0.7178184533677995
1788860709029030700,3.80603076171875,1.5735042854636907,0.3871811622485518,1.2225390765868127
1788860709039037400,3.816037353515625,1.1743231810808181,0.09006824732944368,1.0089021711252628
1788860709049043500,3.82604345703125,0.42570670773684977,0.08743921400010585,0.438362191170454
1788860709059050500,3.836050537109375,0.13833295041322707,0.28849969261363145,0.2409716332413256
1788860709069057500,3.8460576171875,0.3445943586707115,0.7353223997458815,0.5469895930193365
1788860709079063300,3.856063232421875,0.11016600959300994,1.2438031061507762,0.8225694521747529
1788860709089070600,3.866070556640625,-0.16864625561237334,1.6567063002854585,0.9664319796644151
1788860709099076600,3.87607666015625,0.40153965020775795,1.9418734874755144,0.9269115779198706
1788860709109083400,3.88608349609375,0.4691828613698482,1.9999423762150108,0.7676305320240556
1788860709119089700,3.896089599609375,0.5624626180917024,1.9693162056744098,0.5112368732452393
1788860709129096400,3.906096435546875,0.6750853731870651,1.9140376783058046,0.28776231824979187
1788860709139103500,3.916103515625,0.22277824329435825,1.8087151632212102,0.2939532818444073
1788860709149109500,3.926109619140625,0.6830465613245964,1.6151631605416534,0.655611149649322
1788860709159116500,3.936116455078125,0.9905915845394134,1.4987950814381241,0.8915674389466642
1788860709169122600,3.94612255859375,0.3782534671664238,1.4759437826827169,0.7392359199278056
1788860709179129600,3.956129638671875,0.24342063382863996,1.378162915149331,0.47691170205622907
1788860709189136400,3.966136474609375,0.35000703136920924,1.2371975704059004,0.44651437183544035
1788860709199142400,3.976142333984375,0.45615386844873423,1.2494471033871173,0.3783635034121573
1788860709209149700,3.986149658203125,0.21920798359215257,1.47373721254915,0.1329850135140121
1788860709219155500,3.996155517578125,0.37196167354583737,1.7389926615670321,-0.0015920914970338344
1788860709229162500,4.00616259765625,0.8187778048068285,1.8599875236883758,0.14720847691670058
1788860709239168500,4.01616845703125,0.9128384827733039,1.8343685137853025,0.4243668374352157
1788860709249175600,4.026175537109375,0.5834849478542804,1.9780074616521597,0.497676842187345
1788860709259182300,4.036182373046875,0.21232582286298274,2.1479522326424716,0.3679490769036114
1788860709269188400,4.046188232421875,0.2934077767908573,2.2467066213831304,0.33464053541123867
1788860709279195600,4.056195556640625,0.7472025148928165,2.254792312683165,0.41882352409437296
1788860709289201400,4.066201416015625,0.6821411369174718,2.302590128907561,0.476642383595556
1788860709299208400,4.07620849609375,0.1340788001000881,2.2932079680562016,0.5083122179701924
1788860709309214500,4.08621435546875,0.16722236028909682,2.177827146424353,0.5309152410529554
1788860709319221500,4.096221435546875,0.19960253489017485,2.053452286475897,0.5155693494915962
1788860709329228300,4.106228271484375,-0.08069090878367424,1.874580989447236,0.48502895753830666
1788860709339234600,4.116234619140625,-0.17341595423221587,1.5535487081497907,0.37313743932694193
1788860709349241600,4.12624169921875,0.0515612604111433,1.2278718159168958,0.22685426056161523
1788860709359247400,4.136247314453125,0.0887877059996128,1.1481523825138806,0.19104425764232874
1788860709369254700,4.146254638671875,-0.28481413596868516,1.2937439257532357,0.29440497113466263
1788860709379261400,4.156261474609375,-0.5218476991087198,1.657721614807844,0.4946612937584519
1788860709389267500,4.166267333984375,-0.8003829009383916,2.083334799042344,0.7960793585255742
1788860709399274500,4.1762744140625,-1.0835860945791005,2.2876906659394503,1.040391680496931
1788860709409280500,4.186280517578125,-1.2393828054904936,2.123024419873953,1.2601160891786216
1788860709419287600,4.19628759765625,-1.2609428953915833,1.6401245833188294,1.4109361807212233
1788860709429293300,4.206293212890625,-1.294614278846979,1.097990467506647,1.3645948469154536
1788860709439300600,4.216300537109375,-1.238173429700732,0.5904845974832773,1.2008156128175556
1788860709449307400,4.226307373046875,-1.1819459310442209,0.23268588932454584,0.9951708751536905
1788860709459313400,4.2363134765625,-1.2869693170517682,0.130925304505229,0.6951324281767011
1788860709469320400,4.246320556640625,-1.5225784003466367,0.1502390767842531,0.5187535324856639
1788860709479326500,4.256326416015625,-1.7495985189944505,0.2182528748244047,0.27518793722838164
1788860709489333500,4.26633349609375,-1.9102648817688226,0.2506424017757177,0.03970905618444085
1788860709499340500,4.276340576171875,-1.7324240968316793,0.06442892529070376,0.09623977557122707
1788860709509346600,4.2863466796875,-1.4876888732731341,-0.2752349912405014,0.2124573402881622
1788860709519353300,4.296353271484375,-1.356424546071887,-0.6020189679324627,0.3251971458919346
1788860709529359600,4.306359619140625,-1.6524731927603482,-0.7723235121458768,0.21533801029101013
1788860709539366400,4.316366455078125,-2.054209242323041,-0.8720166430413723,-0.05201879492029547
1788860709549372400,4.326372314453125,-2.2552274892300366,-0.9505079959541559,-0.14055340294167398
1788860709559379500,4.33637939453125,-2.2274182758063077,-0.9956775095015764,-0.21465558098480103
1788860709569386500,4.346386474609375,-1.7580249865561723,-0.8218003674983978,-0.6034744274377822
1788860709579392500,4.356392578125,-1.4744091204613445,-0.32511224408745765,-1.1887874675020575
1788860709589399600,4.366399658203125,-1.3936042299091815,0.1500917772680521,-1.367508250144124
1788860709599405600,4.376405517578125,-1.4042191474258898,0.23724632910788057,-1.1001318634495139
1788860709609412400,4.386412353515625,-1.746039365208149,0.08070785991847515,-0.865682617714256
1788860709619419600,4.396419677734375,-1.9918810887038707,-0.24648762018382547,-0.7003118766412139
1788860709629425400,4.40642529296875,-2.0827818413347003,-0.6395218923747539,-0.6632153410427272
1788860709639432400,4.416432373046875,-1.8719407040715217,-0.9878162746071815,-0.6908230405449867
1788860709649438700,4.426438720703125,-1.6657430087000131,-1.1566986770629881,-0.47121641302406786
1788860709659444700,4.43644482421875,-1.8206874866962433,-1.1055302153617144,-0.03749327983111143
1788860709669451800,4.44645166015625,-2.250379464676976,-0.8688385975271463,0.012805121037364005
1788860709679457800,4.456457763671875,-2.137386707225442,-0.8404781799614429,0.009143529789894819
1788860709689464800,4.46646484375,-1.595417426586151,-1.0753963583827018,0.24322598803937434
1788860709699470800,4.476470947265625,-1.2867168035954237,-1.4671744930326938,0.37707872429862616
1788860709709478000,4.486477783203125,-0.9990379258453845,-1.7005045254796742,0.21103256818205116
1788860709719484000,4.49648388671875,-0.6618173108130693,-1.821152181598544,0.1193807049229741
1788860709729490700,4.50649072265625,-0.37612756105363365,-1.9897510909378529,0.3252813170440495
1788860709739498000,4.516498046875,-0.357090852150321,-2.1406085918813944,0.5796925698339939
1788860709749503700,4.526503662109375,-0.4750754265397787,-2.1132406924843785,0.7284433077566326
1788860709759510800,4.5365107421875,-0.5992816519230604,-1.843399669241905,0.7405740366637706
1788860709769516800,4.546516845703125,-0.6017424890786409,-1.439133808940649,0.7148720246523619
1788860709779523800,4.55652392578125,-0.29342180531620976,-1.0276678080022335,0.7137159864850342
1788860709789531000,4.56653076171875,-0.013178046002984046,-0.707314741140604,0.6845173645295203
1788860709799536600,4.57653662109375,-0.0962339303523302,-0.6212538297563791,0.6329764893192797
1788860709809544000,4.5865439453125,-0.598644523063302,-0.7924649674206972,0.43988538214974104
1788860709819549700,4.5965498046875,-1.1662152779489754,-0.92575174036026,0.06205174783058464
1788860709829556700,4.606556640625,-1.535735403561592,-0.7282254272222518,-0.5893798511117696
1788860709839563800,4.616563720703125,-1.0349117877811194,-0.2845440868556499,-1.457252233955264
1788860709849569800,4.62656982421875,0.3013847470194101,0.13199322599768637,-1.7678852863132952
1788860709859576600,4.63657666015625,1.557678939822316,0.46876492821872234,-1.1433020198732613
1788860709869582800,4.646582763671875,2.0192729534983633,0.7687631893157959,0.27070786920487877
1788860709879590000,4.65658984375,1.2803800017893314,0.8660369841098785,1.9257409755811095
1788860709889596700,4.6665966796875,-0.2565910810470581,0.8370826923042536,2.956873244823515
1788860709899603000,4.67660302734375,-1.4371423428624868,0.6898515651643276,2.9392893650770184
1788860709909609700,4.686609619140625,-1.5786971779316663,0.3173573921769857,1.998537039461732
1788860709919615700,4.69661572265625,-1.2301117037981748,-0.03288169438242912,1.1090654037505387
1788860709929622800,4.706622802734375,-1.1322604013770818,-0.2799620197623968,0.9094234136328101
1788860709939628800,4.71662890625,-1.3949281719893216,-0.4274228640049696,1.0304068775773048
1788860709949635800,4.7266357421875,-1.671561924111843,-0.45436113981306553,1.1595650262795387
1788860709959643000,4.736642822265625,-1.7417805387198924,-0.31727789719998833,1.1905313885599373
1788860709969649000,4.74664892578125,-1.6067144811481235,-0.0642488925486803,1.156305586092174
1788860709979655700,4.75665576171875,-1.320060854792595,0.1970557730168104,1.2177348911754786
1788860709989661700,4.76666162109375,-1.1023054080963135,0.3613210370659828,1.3103257888503372
1788860709999668700,4.776668701171875,-1.0555606080561877,0.41977322603464123,1.1986983284026385
1788860710009675800,4.78667578125,-0.8504857792347669,0.5903028111755848,0.865022400239855
1788860710019681800,4.796681884765625,-0.4228589170902967,0.826376589372754,0.6514496460556983
1788860710029688800,4.806688720703125,-0.09765490306615829,1.1264140134364367,0.6558854365460575
1788860710039694800,4.81669482421875,-0.16370938373208044,1.4517986447244882,0.6099873164631426
1788860710049701600,4.82670166015625,-0.36824236076176164,1.740281824594736,0.6272014861144125
1788860710059709000,4.836708984375,-0.455960391703248,1.8854308847635983,0.7239135553725063
1788860710069714700,4.846714599609375,-0.5399754764735698,1.7471861971557139,0.8165710885427891
1788860710079721700,4.8567216796875,-0.8466863869518041,1.372372056788206,0.8394720716588199
1788860710089728000,4.86672802734375,-1.3817799366027117,0.9263158039838075,0.9985302685841917
1788860710099734800,4.87673486328125,-1.8710966544628143,0.43746553459167475,1.3137693534329533
1788860710109741600,4.886741455078125,-2.0207529629230496,0.021447861698269843,1.5215145705074071
1788860710119747800,4.896747802734375,-1.7020973476290702,-0.10142039307951926,1.7594655407533049
1788860710129755000,4.9067548828125,-0.9037830696582794,0.05502864426076412,2.007802588196099
1788860710139760600,4.9167607421875,0.13327449797987936,0.2993804214596748,2.0855334781304
1788860710149768000,4.926767822265625,0.8573825530111789,0.4519190073579549,1.8973587845750153
1788860710159774700,4.936774658203125,1.050859883019328,0.6550850799486041,1.4313926932945846
1788860710169780700,4.94678076171875,1.0205547611266375,0.9593760698035358,1.0102120846800506
1788860710179787800,4.956787841796875,0.7935095080375671,1.1432324617683887,0.8835935374580323
1788860710189793800,4.966793701171875,0.39352585510015486,1.0180626520499587,0.8836050817653536
1788860710199800800,4.97680078125,-0.01633154159784317,0.6966302655190229,0.8023433873564004
1788860710209808000,4.986807861328125,-0.057664837983250616,0.23055150764435528,0.5760536288097501
1788860710219814000,4.99681396484375,-0.24904548797309398,-0.1669678010061383,0.3133645231485367
1788860710229820700,5.006820556640625,-0.5286392589449882,-0.4616071654185652,0.26517127786576744
1788860710239826700,5.01682666015625,0.20860066486001014,-0.601208820593357,0.27147651548981666
1788860710249833700,5.026833740234375,0.9257155000030994,-0.5871268114879727,0.2128279271662235
1788860710259840800,5.0368408203125,0.1166378359556198,-0.711190121269226,0.35436201170831916
1788860710269846800,5.0468466796875,-1.3863029669851064,-1.045227722351253,0.6334367272421717
1788860710279853800,5.056853759765625,-2.478292148250341,-1.5734055012643335,0.649374593347311
1788860710289859800,5.06685986328125,-1.2938204981207846,-1.610785091587901,-0.10718757830411195
1788860710299867000,5.076866943359375,1.0667524486780167,-0.8596154266297816,-1.1501105308443307
1788860710309874000,5.0868740234375,0.8609481365382671,0.16892361124902963,-1.2987217141658067
1788860710319879700,5.096879638671875,0.677657269501686,0.9851467631369829,-0.5925602347135543
1788860710329887000,5.106886962890625,1.4313187512755394,1.4108730523571371,0.24846534999758005
1788860710339893000,5.11689306640625,1.4738836352825164,1.4266726790353654,0.09516513207703828
1788860710349899800,5.126899658203125,0.6662462331712246,1.0236762541480362,-0.8502072545543312
1788860710359906800,5.13690673828125,1.8082956226348876,0.5576514184176922,-1.6247066494345663
1788860710369912800,5.146912841796875,2.26215874979794,0.42770738003477454,-1.8490946660131216
1788860710379920000,5.156919921875,1.6422586727380752,0.23030513166785238,-1.6978516728833317
1788860710389925600,5.166925537109375,1.9457015213310718,0.07473843012005091,-1.1329957299143076
1788860710399933000,5.176932861328125,2.1729379130780697,-0.19087723051235078,-0.23765447151735425
1788860710409939700,5.186939697265625,2.145157925748825,-0.18919059259966015,0.5782789036437869
1788860710419945700,5.19694580078125,2.7614614396214483,0.0024533845014870167,1.0453596781678498
1788860710429952800,5.206952880859375,3.4472575919151303,0.07654664858579635,1.4116246013768017
1788860710439958800,5.216958740234375,3.5220763937950132,0.2636823544822633,1.5607812897518276
1788860710449965800,5.2269658203125,3.3237101227015255,1.1993204058237372,0.9491272091202437
1788860710459972900,5.236972900390625,3.0106840377271173,2.225406935983896,0.16880626847967503
1788860710469979000,5.246978759765625,2.8821757312357423,2.826021297815442,-0.35118425845503803
1788860710479985700,5.256985595703125,2.506924368494749,3.0276410177469253,-0.2567079854249954
1788860710489992000,5.266991943359375,2.192622272235155,2.4583345251098274,0.5973930616974831
1788860710499998700,5.276998779296875,2.155185983288288,1.9593786028973756,1.2767333158500491
1788860710510005800,5.287005859375,1.9885855542898176,2.085907426009327,1.3527251070320605
1788860710520011800,5.29701171875,2.017707019355893,2.282564408966899,1.031199196998775
1788860710530018800,5.307018798828125,1.778792464774847,2.252968604387343,0.4064480266459286
1788860710540024800,5.31702490234375,1.3054115671932696,2.029086783765256,-0.19552111079543827
1788860710550032000,5.327031982421875,1.3937714031696318,1.557188818217814,-0.6185113991804421
1788860710560039000,5.337038818359375,1.476006618785858,1.0305766811862587,-0.714566758095473
1788860710570044700,5.347044677734375,0.6470744997113943,0.6930927390426397,-0.5979188391372561
1788860710580052000,5.357052001953125,-0.14805705657005308,0.6938371276691555,-0.3020356121435761
1788860710590057700,5.3670576171875,0.013947861331701278,0.7822969168886542,0.19384280231967568
1788860710600064800,5.377064697265625,0.8099439254879951,0.7400961900189519,0.7333097447492182
1788860710610071800,5.38707177734375,0.8699743235588073,0.6213663502201437,0.9646389587678015
1788860710620077800,5.397077880859375,0.9674339963138103,0.5289370728477836,0.6886807678192853
1788860710630084900,5.4070849609375,1.2991542603641748,0.6401406087949871,0.10559051837101578
1788860710640090600,5.417090576171875,1.25397422542274,0.9393342755109071,-0.4713005841761827
1788860710650098000,5.427097900390625,0.8783779947668313,1.472513223712146,-0.9986568175733089
1788860710660105000,5.43710498046875,0.37305180687010286,2.052348124626279,-1.2234211201183498
1788860710670111000,5.447111083984375,0.489161235037446,2.213229006934166,-0.9917097018491476
1788860710680118000,5.457117919921875,0.8979419424146413,1.9250959556758402,-0.4678534393969923
1788860710690124000,5.4671240234375,0.7357014621913432,1.4486130004256963,-0.17466580816283822
1788860710700130800,5.477130859375,0.4539303471803665,0.9742115276247263,-0.09575506079420447
1788860710710138000,5.48713818359375,-0.1581342139482498,0.49673196255266666,-0.09354184172414243
1788860710720144100,5.49714404296875,-0.3584229775369167,0.222301273432374,-0.2360861262220889
1788860710730151000,5.50715087890625,-0.21995734065473077,0.19836510204970836,-0.4323586399067193
1788860710740157200,5.5171572265625,-0.2163140157163143,0.1465700328826904,-0.5319278521616011
1788860710750164000,5.5271640625,-0.2555547237366438,0.09171031544804573,-0.6417145801134407
1788860710760171000,5.5371708984375,-0.7985048321068287,0.010362404060363768,-0.8315253504380583
1788860710770177000,5.547177001953125,-1.2429068879634142,-0.27512685469090936,-0.7935844729699194
1788860710780184000,5.55718408203125,-1.3819459408193826,-0.709388624805212,-0.5434262745145708
1788860710790190000,5.567190185546875,-1.6100491785287856,-1.1135668068230151,-0.48850277112871404
1788860710800197000,5.577197021484375,-1.897193803271651,-1.4946166267096996,-0.38442550686486066
1788860710810204000,5.587203857421875,-2.1493629762232302,-1.8609119450569152,0.06227167419157922
1788860710820210000,5.5972099609375,-2.3981039282917975,-2.1060592565476894,0.5733221580192447
1788860710830217200,5.60721728515625,-2.8375685277462006,-2.1424603572279213,0.8452628569547086
1788860710840224000,5.61722412109375,-3.3942519779145717,-1.9771271716862915,0.6567810702115296
1788860710850230000,5.62722998046875,-3.9494758769243954,-1.7406687780857084,0.2663992852907628
1788860710860237000,5.637237060546875,-4.114754701930284,-1.6894202368855475,0.20734430812336505
1788860710870243000,5.6472431640625,-3.618592648220062,-1.8197586814135311,0.46391346959955987
1788860710880249900,5.657249755859375,-2.9904455518186093,-1.9332535431683062,0.6967319723278284
1788860710890257200,5.667257080078125,-2.7108506118029356,-1.9080793544232844,0.7341038908015937
1788860710900263200,5.67726318359375,-2.59504338145256,-1.811521014422178,0.763463110146299
1788860710910270000,5.68727001953125,-2.323720595219731,-1.7805378471374511,0.8329252803638577
1788860710920276200,5.697276123046875,-1.9549539183229208,-1.68350370631814,0.7205880642116069
1788860710930283000,5.707282958984375,-1.5035533818811178,-1.649346000650525,0.5092939955491572
1788860710940290000,5.7172900390625,-1.1846487602621316,-1.781977524551749,0.15693579794391987
1788860710950296000,5.727296142578125,-1.0553536873072384,-1.9709388384401798,-0.43176016255691646
1788860710960303000,5.73730322265625,-1.1808534596323965,-2.2073510548114776,-1.054644808385521
1788860710970309000,5.74730908203125,-1.2732576025635003,-2.2927666540294886,-1.4946397153243423
1788860710980316200,5.757316162109375,-1.222255729600787,-2.119898396807909,-1.5443188152506946
1788860710990323000,5.767322998046875,-1.1578501851856708,-1.7038959214836358,-1.4437880644872785
1788860711000329000,5.777328857421875,-0.9769131877988576,-1.1624182237535714,-1.32835960432142
1788860711010336300,5.787336181640625,-0.7307441320449113,-0.8041226719886064,-1.1970692658960818
1788860711020343000,5.797343017578125,-0.21518355038166045,-0.7089642619132995,-0.9835316560905426
1788860711030349000,5.80734912109375,0.6259457869648933,-0.7591495577961206,-0.587373662388511
1788860711040356000,5.817356201171875,1.2617127107203006,-0.8126911783695221,-0.3043452773254365
1788860711050362000,5.827362060546875,1.2945423826545477,-0.7392308053612708,-0.29807310172077267
1788860711060369000,5.837368896484375,1.0540613094091416,-0.5875216560244559,-0.1899201489832252
1788860711070376200,5.847376220703125,0.8000695972055196,-0.520455952489376,0.16441351341344415
1788860711080382200,5.85738232421875,0.318999898687005,-0.4803904840826988,0.3735692183403298
1788860711090389000,5.867388916015625,-0.5131652109593152,-0.5050701673090457,0.44366822515670207
1788860711100395000,5.87739501953125,-1.5557552782833575,-0.8634913912802934,0.5350821514740586
1788860711110402000,5.887402099609375,-2.445000119501352,-1.3774112199991941,0.5840295030597596
1788860711120409000,5.8974091796875,-2.631935480520129,-1.7359703911364077,0.29246107052527365
1788860711130414800,5.907414794921875,-1.4920932457119225,-1.8434826713502406,0.09658237846381962
1788860711140422100,5.917422119140625,0.20362287644743918,-1.6213941638857126,0.16787764586005358
1788860711150428200,5.92742822265625,1.1020277601987123,-1.1234563326746225,0.1949508366268128
1788860711160435000,5.93743505859375,1.000191772055626,-0.4871218381643295,0.13648969716671852
1788860711170442000,5.94744189453125,0.5047311446130276,0.032603461962938306,0.14603570681028066
1788860711180448000,5.957447998046875,0.21089549779891967,0.2503302670866251,0.17003507962226866
1788860711190455000,5.967455078125,-0.13731588232517242,0.13505144452452658,0.09501359477713704
1788860711200461000,5.9774609375,-0.639963790923357,-0.24337270303368566,-0.046612698093056674
1788860711210468000,5.987468017578125,-0.7819938422888517,-0.642341625970602,0.028219840051233767
1788860711220475000,5.997474853515625,-0.5031400760293007,-0.8925982432991266,0.28050460220649837
1788860711230481200,6.007481201171875,-0.248155845656991,-0.880478766438365,0.4841048284307122
1788860711240488000,6.017488037109375,-0.33236966786980626,-0.6976362276911735,0.6746471279002726
1788860711250495000,6.027494873046875,-0.5264449637711048,-0.5041676655113697,0.8716670258861035
1788860711260501200,6.037501220703125,-0.5231885923236608,-0.5134273690268397,0.9709081021651625
1788860711270508000,6.047508056640625,-0.2529465870648622,-0.6455901063725352,0.8289885985020548
1788860711280514000,6.05751416015625,0.09429565576612949,-0.7041974859029054,0.39081805744618175
1788860711290521000,6.06752099609375,0.67750061763525,-0.3862622938379645,-0.18461641655191777
1788860711300528000,6.077528076171875,0.8842284743607044,0.32509266260415315,-0.2174151088260114
1788860711310534000,6.087533935546875,1.041146882778406,0.9783967043548821,0.492615174883604
1788860711320541200,6.097541259765625,0.9808394213318824,1.2543901127472519,1.1638399271197617
1788860711330547200,6.107547119140625,0.30154022984206674,1.1054442906439303,1.2007669513702393
1788860711340554000,6.117553955078125,0.638643355974555,0.8166694343507289,0.5632945388711988
1788860711350561000,6.12756103515625,1.5920540876328944,0.7512272403642535,0.03345248000770807
1788860711360567000,6.137567138671875,1.8204963480383156,0.7222068975850939,0.051395840716361996
1788860711370574000,6.147573974609375,1.7978706747323274,0.5061807588994502,0.5147692851550877
1788860711380581000,6.1575810546875,1.4795236869961021,0.05915770688951015,0.9657976272836327
1788860711390587100,6.167587158203125,1.554672743743658,-0.6248954011291266,0.7745143001884222
1788860711400594000,6.177593994140625,1.3694038546323775,-1.1148486633270978,0.11521832454651594
1788860711410600000,6.187599853515625,1.388040166041255,-1.0692851820260285,-0.595538227611035
1788860711420607000,6.19760693359375,2.1413673012942076,-0.6488527614302932,-0.936668417302519
1788860711430614000,6.207614013671875,2.490458386862278,-0.12676307025924324,-1.1019148013435303
1788860711440620000,6.2176201171875,1.8338941742718218,0.5666245600767433,-1.1405784401282668
1788860711450627000,6.227626953125,1.5394249057292937,0.8907897325724363,-0.8034373200729489
1788860711460633000,6.237633056640625,2.5586826127827167,0.8431570437818765,-0.34347149212062356
1788860711470639900,6.247639892578125,3.1090649169802664,0.6436112075150012,0.20457988491132853
1788860711480647200,6.257647216796875,1.8236989434719084,0.09869425605125724,0.8436826750911772
1788860711490653000,6.26765283203125,1.3289409113407133,-0.32789157260768115,1.0688958904474972
1788860711500660000,6.277659912109375,2.1762503986269235,-0.19398557179123163,0.7501664792649447
1788860711510667000,6.2876669921875,2.142625192400813,0.17552461694926022,0.018717852212488652
1788860711520673000,6.297673095703125,1.8033897304147481,0.3361848422437906,-0.7287329383529723
1788860711530680000,6.30768017578125,2.0492057349473236,0.3465122480560094,-1.0825190498694777
1788860711540686000,6.31768603515625,1.9639280828952788,0.2697986454054713,-0.8722264863997697
1788860711550693000,6.327693115234375,1.6624387064576147,0.15850648132674394,-0.5141461848206818
1788860711560700000,6.337699951171875,1.7831325398057698,0.4516566300947219,-0.21643515787795184
1788860711570706200,6.3477060546875,1.9877537796407936,0.9472966326922178,-0.07118482929170131
1788860711580713000,6.357712890625,2.4805507408320904,1.0128937249794603,0.07787249036207795
1788860711590719000,6.367718994140625,2.9931542262554167,0.9639473232418299,0.38181788164973257
1788860711600726000,6.37772607421875,3.0962697328150273,0.9596626316599547,0.593157616084814
1788860711610733000,6.387733154296875,3.347445803076029,1.2054109777837991,0.459098251337558
1788860711620739000,6.397739013671875,2.9690403602182864,1.8339245694100856,-0.11119652168452739
1788860711630746000,6.40774609375,1.9018349070757625,2.6126450891166924,-0.7478903510265051
1788860711640753200,6.417753173828125,1.803781944602728,2.8729554829478263,-0.6763197372876107
1788860711650759000,6.427759033203125,2.556039404797554,2.4340377037212253,0.15441139403283596
1788860711660765700,6.437765625,2.6850515691578387,1.6841203769117592,0.9989633993044496
1788860711670771700,6.447771728515625,1.9617817185163497,0.9467933593451976,0.9504540738098323
1788860711680778800,6.45777880859375,1.075766945260763,0.3557870760753751,-0.09392521501854062
1788860711690785500,6.46778564453125,0.6407534799963236,-0.1215334990426898,-1.1050462312370537
1788860711700791800,6.477791748046875,0.8787924207866191,-0.6742720109775662,-1.4570156487204133
1788860711710798800,6.487798828125,1.2374030298501253,-1.1069795373871922,-1.3583904393173754
1788860711720804600,6.4978046875,0.9683552028119563,-1.144781737037003,-1.0742366669535637
1788860711730812000,6.50781201171875,0.7104530391663313,-0.8655223125860094,-0.8230543861474842
1788860711740818700,6.517818603515625,0.8750824603527784,-0.4786866027742624,-0.7296843207936734
1788860711750824700,6.52782470703125,1.2245382875800133,-0.13250672847777603,-0.7288649672348052
1788860711760831700,6.537831787109375,1.4707272170782089,0.09665946228802204,-0.7572868326641619
1788860711770838800,6.5478388671875,1.411352652567625,0.3567202652722597,-0.9865646671108901
1788860711780844800,6.5578447265625,1.008140100711584,0.8036305045574903,-1.18995556143336
1788860711790851800,6.567851806640625,0.6326134281605482,1.1215408544421195,-0.8626788327883929
1788860711800857900,6.57785791015625,0.3482628180503845,1.0586398693710566,-0.20073818785659966
1788860711810864600,6.58786474609375,0.4841758478403091,0.6709212392449379,0.5944846999701112
1788860711820872000,6.597871826171875,0.5084276610434055,0.18858721987903118,1.0792986265182494
1788860711830877700,6.607877685546875,0.09175181650221348,-0.26585166134536264,1.0452361979186535
1788860711840884700,6.617884765625,-0.5659925457835198,-0.5192775563597679,0.5438727761730552
1788860711850891800,6.627891845703125,-0.8827303447574376,-0.671435618507862,-0.04695128239765763
1788860711860897800,6.637897705078125,-1.0741454815387725,-0.8030980051159858,-0.4552071621831506
1788860711870904600,6.647904541015625,-1.6715549098491669,-0.8534013744205236,-0.7192525047589093
1788860711880910800,6.657910888671875,-2.4037995095849034,-1.0045148959517478,-0.7602521852757781
1788860711890918000,6.66791796875,-3.008892478135228,-1.405302266487479,-0.5241621865961701
1788860711900924700,6.677924560546875,-3.373866777011752,-1.9179992754131554,-0.029803455980867144
1788860711910931000,6.687930908203125,-3.7301235164254902,-2.380689267632365,0.410960170308128
1788860711920937700,6.697937744140625,-4.232226650622487,-2.657325357842445,0.5799377037014812
1788860711930943700,6.70794384765625,-4.604683998730779,-2.766440397077799,0.6529004293859004
1788860711940950800,6.71795068359375,-4.450657804623246,-2.817279772955179,0.8313248594298959
1788860711950957800,6.727957763671875,-3.781256906813383,-2.8582155944556,1.1098847573094068
1788860711960963800,6.7379638671875,-3.2013416341394185,-2.629514390853047,1.197076280158758
1788860711970971000,6.747970947265625,-3.120095429560542,-2.0304478429853914,0.9571217880707233
1788860711980977700,6.757977783203125,-2.920364299854636,-1.6751310147702694,0.9509122659061103
1788860711990983700,6.767983642578125,-2.477509473440051,-1.8503946426957845,1.2945096494287252
1788860712000991000,6.777990966796875,-2.351556696650386,-1.9065309559375045,1.3144123275116084
1788860712010996700,6.787996826171875,-2.0820102724403142,-1.8881442353755236,1.0894586398743091
1788860712021003800,6.798003662109375,-1.7083464711517096,-1.778072333806753,0.5575927470330149
1788860712031010800,6.8080107421875,-1.3607991078943014,-1.4845733716011047,-0.09796323836296796
1788860712041016800,6.818016845703125,-0.9840127906709909,-1.316160924744606,-0.48703642490319904
1788860712051023600,6.828023681640625,-0.8001905932366847,-1.4513409640848636,-0.5504657446973026
1788860712061031000,6.838031005859375,-0.8560849144160747,-1.9578525623738765,-0.4403295457206666
1788860712071037000,6.848036865234375,-0.8577584005862474,-2.5356506967633963,-0.29332711277008056
1788860712081043700,6.858043701171875,-0.5747527753442525,-2.6957775458335873,-0.21750454067513345
1788860712091049700,6.8680498046875,0.04778641804754734,-2.384844633746147,0.09989764049164951
1788860712101056800,6.878056884765625,0.5419242724537849,-1.8205583073586225,0.6462455015413463
1788860712111063800,6.888063720703125,0.7405880651891231,-1.1378408318579196,1.1097151728961616
1788860712121069600,6.898069580078125,0.6098135673314332,-0.48525779785811896,1.5137679019033907
1788860712131076900,6.908076904296875,0.818303173032403,-0.21927929526269435,1.948632606346905
1788860712141083600,6.918083740234375,1.2514502599030732,-0.291823137947917,2.125455738674104
1788860712151089700,6.928089599609375,0.8327221590071916,-0.00021335048973560332,1.072773170272261
1788860712161096700,6.9380966796875,0.3917945012629032,0.4696621693193912,-0.5866248533152043
1788860712171102700,6.948102783203125,-0.006298807883262634,0.71998542214334,-1.3730264290437102
1788860712181109800,6.95810986328125,-0.16460720935463904,0.5773498061001301,-0.7209114509470761
1788860712191116800,6.96811669921875,-0.23326047434210775,-0.07119944233894347,0.45317872509546575
1788860712201122800,6.978122802734375,-1.0555576854467392,-0.6409849506646395,0.8397844986088574
1788860712211129600,6.988129638671875,-1.6279893243670462,-0.6084826109886169,0.41152021534368394
1788860712221137000,6.998136962890625,-1.0921358962595462,-0.7420832721829413,0.2651845757387578
1788860712231142700,7.008142578125,0.044860885989665984,-1.2247925546020269,0.8443990797322243
1788860712241149700,7.018149658203125,1.0197978052794934,-1.440330909770727,1.23283411449939
1788860712251156000,7.028156005859375,1.1274304970026015,-1.1278022529244423,0.8337802897579968
1788860712261162800,7.038162841796875,0.3361667220652103,-0.5366682516217232,-0.28294132783412934
1788860712271169500,7.04816943359375,-0.15286065745949745,0.06913023484945297,-1.0160638794481753
1788860712281175800,7.05817578125,0.09267068491280078,0.47778351645469663,-0.4295440939426422
1788860712291182800,7.068182861328125,-0.5192541754841804,0.5073196998015046,0.5485737934708595
1788860712301188600,7.078188720703125,-1.4802093311727047,-0.1829807781741023,1.0979708860233426
1788860712311196000,7.08819580078125,-1.2519926962167023,-1.2084931617081165,0.8178187505163251
1788860712321202700,7.09820263671875,-0.18597499155402183,-1.7010747265830635,0.15685630296692252
1788860712331208700,7.108208740234375,1.070966851502657,-1.6298706080690026,0.07754720393046736
1788860712341215700,7.1182158203125,1.887346947517991,-1.2437941921919584,0.4279617931872606
1788860712351222800,7.128222900390625,1.4612462720274924,-0.8728902110055089,0.5710594737842679
1788860712361228800,7.138228759765625,0.6953893255472183,-0.5056263398870825,0.47950654085502026
1788860712371235800,7.14823583984375,0.7970832748711109,-0.16226444562077522,0.44570071736499667
1788860712381241900,7.158241943359375,0.9896563495159149,-0.17089783393144606,0.4722681140340864
1788860712391248600,7.16824853515625,1.352118373310566,-0.6469187246277928,0.5384979512669146
1788860712401256000,7.178255859375,2.119237887072563,-1.0458481923371552,0.24023908118307588
1788860712411261700,7.18826171875,2.2393378461807965,-0.7271139588490128,-0.36431262009739873
1788860712421268700,7.198268798828125,1.8472142590939997,0.038218379235267635,-0.7700066135056316
1788860712431275800,7.20827587890625,0.9111334324210881,0.24433657962977884,-0.6897356836996972
1788860712441281800,7.21828173828125,0.8022878577768802,-0.1924529553964734,-0.525559559238702
1788860712451288600,7.22828857421875,1.6867548170685767,-0.5263035094738007,-0.4356850809156894
1788860712461294600,7.238294677734375,1.9471990664124488,-0.48702758400961754,-0.6348980319663882
1788860712471302000,7.248302001953125,1.5790940682947634,-0.15053031481578946,-0.8856044388890266
1788860712481308700,7.25830859375,1.8614204791009425,0.1818323387913406,-0.7981001968286932
1788860712491314700,7.268314697265625,2.1009382602721454,0.15375906760394573,-0.47393794694244856
1788860712501321700,7.27832177734375,2.310291204804182,0.00498728689327836,-0.4992030288413167
1788860712511328800,7.288328857421875,2.6618524798780676,0.05580605837404728,-0.6568764934100211
1788860712521334500,7.29833447265625,2.37432090164423,0.28636918339096007,-0.6510686839140951
1788860712531341800,7.308341796875,2.655499311459064,0.48427930821478365,-0.5086969795040786
1788860712541347800,7.318347900390625,3.110688718789816,0.6534087442342191,-0.27655717975497246
1788860712551354600,7.328354736328125,2.9719115317404268,0.7895864893749356,-0.1995185098685324
1788860712561361700,7.338361572265625,2.480072017404437,1.0896213561553507,-0.33144042419567704
1788860712571367700,7.34836767578125,2.01862647228837,1.6463611396208404,-0.5576251149326562
1788860712581374700,7.358374755859375,1.8528654167234897,1.5344919793717562,-0.547911676300317
1788860712591381800,7.3683818359375,1.7852280507802962,0.8593494691699742,-0.4188853372842073
1788860712601387800,7.3783876953125,2.0596447113752365,0.20204349830150603,-0.41620822702944277
1788860712611394600,7.38839453125,2.3398896397322413,0.0908500453568995,-0.8230829546548426
1788860712621400800,7.39840087890625,2.503268768596649,0.3383183471411466,-1.364920717868954
1788860712631407600,7.40840771484375,2.36139595361948,0.49211935419067737,-1.720734828081727
1788860712641414700,7.41841455078125,2.0284166294187305,0.4654163484431803,-1.9480998146444557
1788860712651421000,7.4284208984375,1.6954057410359382,0.5463207538470626,-2.073734173134714
1788860712661427700,7.438427734375,1.3255226273298262,0.7414877905078232,-2.056850842873007
1788860712671434800,7.448434814453125,1.5249001212924718,0.7459270881295204,-1.7372792817778884
1788860712681440500,7.4584404296875,1.866191931286454,0.7387234403610229,-1.3768454028099775
1788860712691447800,7.46844775390625,2.425485271692276,0.7204477789580822,-0.7943380678161979
1788860712701453600,7.47845361328125,2.737356925934553,0.3997396150484681,-0.10911810797527431
1788860712711460600,7.488460693359375,2.3874586156368256,0.24032968207597732,0.11192673565521835
1788860712721467600,7.498467529296875,2.2638567858874796,0.30455314792245625,-0.0442149162363261
1788860712731473700,7.5084736328125,2.2805752809762954,0.5496133656516671,-0.2876872802522033
1788860712741480700,7.518480712890625,2.114603213009238,1.0687401153638958,-0.4903030985489487
1788860712751487700,7.52848779296875,1.7772399746358394,1.7694515127167105,-0.6226704185560346
1788860712761493800,7.53849365234375,1.1536159086167812,2.323803012806177,-0.6452195194944739
1788860712771500500,7.54850048828125,0.5273766916632652,2.3742542661488053,-0.5167451883379369
1788860712781506800,7.5585068359375,0.37919045575559135,1.7910218317508697,-0.26102204923182726
1788860712791513600,7.568513671875,0.6298094766557216,0.7244646133840084,-0.05363251372724771
1788860712801520600,7.578520751953125,0.6944272025167941,-0.3119377052158117,-0.1356252258244902
1788860712811526700,7.588526611328125,0.3688765670120716,-0.9271388108044862,-0.5701073606912046
1788860712821533700,7.59853369140625,-0.068867199999094,-1.367765439775586,-0.8952362636525183
1788860712831540500,7.60854052734375,-0.47737493565380573,-1.7274346179813145,-1.0307335522484034
1788860712841546800,7.618546630859375,-0.9693366150647401,-1.9895961926370858,-1.1187697092283517
1788860712851553800,7.6285537109375,-1.534282282143831,-2.0475667355686427,-1.257931730876863
1788860712861559600,7.6385595703125,-2.004855136567354,-1.9580133058935403,-1.4121500865556298
1788860712871566800,7.64856689453125,-2.140118178015947,-1.948890088239312,-1.4324454172179102
1788860712881573600,7.65857373046875,-2.0839216590195893,-1.8853987360596656,-1.445812263791263
1788860712891579600,7.66857958984375,-1.9424165083110332,-1.8262351839512585,-1.45647657340765
1788860712901586700,7.678586669921875,-1.9145967734932898,-1.7558365366011857,-1.3078123447246848
1788860712911593700,7.68859375,-2.1162474730849263,-1.6846335871309042,-0.9671553255029022
1788860712921599700,7.698599853515625,-2.3204338286340236,-1.7084323958694934,-0.37396154212616384
1788860712931606800,7.708606689453125,-2.5478356400758027,-1.7832862690627573,0.1999815973356366
1788860712941612800,7.71861279296875,-2.619796714437008,-2.0004437498658896,0.7167462940916418
1788860712951619600,7.72861962890625,-2.7559482291579247,-2.0571973182231185,0.8227399133708327
1788860712961627000,7.738626953125,-2.855878091418743,-1.945818425709009,0.5075750628020614
1788860712971632600,7.748632568359375,-2.7759038064718244,-1.7356705314069985,0.009411679206788539
1788860712981639700,7.7586396484375,-2.199112803298235,-1.6219366001993416,-0.11012626210451125
1788860712991646700,7.768646728515625,-1.510391703468561,-1.7141741543918847,0.1620119321644306
1788860713001652700,7.77865283203125,-1.405209327507019,-1.5700181969135998,0.20965097763054072
1788860713011659500,7.788659423828125,-1.4649574015051126,-1.222089725384116,-0.03471080950573086
1788860713021665500,7.79866552734375,-1.0463146408051252,-0.9495207384824752,-0.2262458463396877
1788860713031672800,7.8086728515625,-0.3967863182008266,-0.7112380520641803,-0.41777978719510134
1788860713041679600,7.8186796875,-0.22795418462753295,-0.3803390412688255,-0.8576267370305954
1788860713051685600,7.828685546875,-0.5191086295336484,-0.3111760731935501,-1.2454210627414286
1788860713061692700,7.838692626953125,-0.9720353526294231,-0.5325105474203825,-1.390189599160105
1788860713071699700,7.84869970703125,-1.2859276990443467,-0.8947264874994755,-1.232420273001492
1788860713081705500,7.85870556640625,-1.571030588826537,-1.185702068707347,-0.9905362741556017
1788860713091712800,7.868712646484375,-1.8215321208268402,-1.376311149802804,-0.7893250619597733
1788860713101718800,7.87871875,-2.02304662681818,-1.4782172805726528,-0.6405566422499716
1788860713111725600,7.8887255859375,-2.133154768744111,-1.5017846186429262,-0.3945096785057336
1788860713121732600,7.898732666015625,-1.9905781894117593,-1.321726157656312,-0.2119454452432692
1788860713131738600,7.908738525390625,-1.2435258966445921,-1.1420277621537447,0.047241132189705964
1788860713141745700,7.91874560546875,-0.04352525347173214,-1.198869008794427,0.5147119289446622
1788860713151752700,7.928752685546875,0.8211965563863516,-1.2728677264630794,0.9006979631245136
1788860713161758700,7.9387587890625,0.673332392039895,-1.1545640031218527,0.8984704963333904
1788860713171765500,7.948765625,0.012115969729423522,-1.136637301287055,0.8119654213782399
1788860713181771800,7.958771728515625,-0.24768296744823454,-1.3132470831245182,0.7743125670712441
1788860713191778600,7.968778564453125,-0.2544160750955343,-1.5058733492612837,0.6314906346756964
1788860713201785600,7.97878564453125,-0.5099556012630463,-1.5711597681641578,0.5159120254494249
1788860713211792000,7.9887919921875,-0.7480921572089195,-1.5224346079617739,0.4873636110309511
1788860713221798700,7.998798583984375,-0.6983411610901356,-1.3398387374520302,0.5837871456712485
1788860713231805400,8.008805419921876,-0.1561649597018957,-1.1617051070481539,0.730073393176496
1788860713241811700,8.018811767578125,0.381067355543375,-0.9274550371468067,0.6115466016691178
1788860713251818800,8.02881884765625,0.32004385478198527,-0.3834510358095169,0.2510764823440462
1788860713261825500,8.038825439453126,0.47864451719820494,0.240839385163784,0.14456731475815177
1788860713271831800,8.048831787109375,0.6180366212755442,0.6326970147907733,0.4809060323894024
1788860713281838600,8.058838623046874,0.07524316477179527,0.7140501868754625,0.8350793896578251
1788860713291844600,8.0688447265625,-0.6698901426315307,0.4382961401969194,0.9793244867242872
1788860713301851600,8.0788515625,-1.032456211322546,-0.06064648414254188,0.9804081903077662
1788860713311858700,8.088858642578124,-0.9760065943479538,-0.6491951451271772,0.8939940815716981
1788860713321864700,8.09886474609375,-0.6484019489228725,-1.12076607067734,0.7151929271697998
1788860713331871700,8.108871826171875,-0.04314239163398743,-1.376488259935379,0.43349692322164773
1788860713341877800,8.118877685546876,0.45876901938319203,-1.3997992851570247,0.15189415051490068
1788860713351884500,8.128884521484375,0.4752478604972362,-1.2340078344538807,0.09535305586457252
1788860713361891800,8.138891845703125,0.24140754044055937,-1.0505199835404753,0.24775661720633504
1788860713371897600,8.148897705078125,0.24583646279871463,-1.0415168851345777,0.5541255823791027
1788860713381904600,8.158904541015625,0.8479314185768365,-1.3263085170105098,0.8003032598309219
1788860713391911700,8.16891162109375,1.4469710784375667,-1.5355001335009932,0.8055104730851947
1788860713401917700,8.178917724609375,1.9013275420755147,-1.2081120534360408,0.8379049684725701
1788860713411924500,8.188924560546875,2.6420190676391124,-0.4358502083495259,1.0479092165201902
1788860713421931800,8.198931884765624,3.0179759483009576,0.3175403475284576,1.0037412812307476
1788860713431937800,8.208937744140625,2.2349890033215285,0.6918278336733579,0.7050728074327111
1788860713441944600,8.218944580078125,1.9152572832286356,0.6816011848218738,0.39280966965481634
1788860713451950800,8.228950927734376,1.9155361001700162,0.4083627742260694,0.18499504060596225
1788860713461957600,8.23895751953125,1.1154548125267028,0.05141439928635955,0.0394987744346261
1788860713471964700,8.248964599609375,0.7366144853830338,-0.3648690849363804,-0.0075832947358489035
1788860713481970700,8.258970703125,1.0454454567551612,-0.7991350928343832,-0.20223668278604745
1788860713491977700,8.268977783203125,1.2995371222019194,-0.8333104802891611,-0.5547279321864247
1788860713501984500,8.278984619140624,1.6542103918164968,-0.39039164872765536,-0.6040867141172289
1788860713511990800,8.28899072265625,2.352569088563323,-0.08531191964782774,-0.15234920080602168
1788860713521997600,8.29899755859375,2.68107682030797,-0.023378172173723576,0.32444822722077366
1788860713532003600,8.309003662109374,2.7127392020285126,-0.21009199939630924,0.5551052410662174
1788860713542011000,8.319010986328125,2.8080191926568743,-0.6718279788263142,0.551894462326169
1788860713552017700,8.329017578125,2.893728221863508,-0.5738403366744518,0.47498891730010506
1788860713562023700,8.339023681640626,2.870705073672533,0.3830341255716979,0.282736745172739
1788860713572030700,8.34903076171875,2.900162638825178,1.0397932031471282,0.2954121023505926
1788860713582037800,8.359037841796875,2.7415035242199894,0.7381514856919645,0.5012859725952148
1788860713592043500,8.36904345703125,2.0979636283755303,0.6257258606038987,0.2591691148415208
1788860713602050800,8.37905078125,1.8136112646996974,0.8391227467644959,0.06658698010742664
1788860713612056800,8.389056884765624,2.0990695437908173,0.6359211644690483,0.642450785433501
1788860713622063600,8.399063720703126,2.1567641923904417,0.25261253280490636,1.2080299281105398
1788860713632070700,8.409070556640625,1.9882254888057707,0.013882541010528802,1.2212285785101353
1788860713642076700,8.41907666015625,1.8014345046937466,0.21370558678358792,0.8503323422387242
1788860713652083700,8.429083740234375,1.653710041078925,0.7450910026315599,0.48238253468275066
1788860713662091300,8.43909130859375,1.6512006886065005,1.3024969949208198,0.1556187239959836
1788860713672097300,8.44909716796875,1.84932146050632,1.5036330229885875,0.12360036844462155
1788860713682104300,8.459104248046875,2.36169405978322,1.2706306150607765,0.4163219165369868
1788860713692110300,8.4691103515625,2.9081460387945173,0.7337152568101882,0.7177002338156103
1788860713702117000,8.4791171875,2.9405004944324493,0.31199308866485953,0.6808573807172477
1788860713712124400,8.48912451171875,2.4416391186356545,0.1754568124100566,0.3988682390414178
1788860713722130200,8.499130126953125,1.8153689220219849,0.1633662693828344,0.048622576610744
1788860713732137200,8.50913720703125,1.621475412428379,0.0749281074732542,-0.16595584748461842
1788860713742144300,8.519144287109375,1.8245453311681747,0.07530687765777111,-0.17989888651072977
1788860713752150300,8.529150390625,1.8671183984816073,0.031281565709412096,-0.025915362501144408
1788860713762157300,8.5391572265625,1.991030024832487,-0.09949906962811947,0.20525749191194773
1788860713772163000,8.5491630859375,2.3442823217332363,-0.07921586779505015,0.3022076077096164
1788860713782170400,8.55917041015625,2.33138776884675,0.05569967539012432,0.32726182333678006
1788860713792177200,8.56917724609375,1.7694190717518328,0.3406520507857203,0.21301950421556828
1788860713802183200,8.57918310546875,1.2122902159035205,0.6173986156329512,0.15676087976843117
1788860713812190200,8.589190185546874,0.9397808502346277,0.6544371374338865,0.38648733476549385
1788860713822197200,8.599197265625,0.673537559223175,0.4557230758160352,0.7198707097224891
1788860713832203300,8.609203369140625,0.2813034974992275,0.04778875613510608,0.9411870637707411
1788860713842210300,8.619210205078126,0.059279871964454646,-0.5914461359918117,1.0571171898484228
1788860713852216300,8.62921630859375,0.28129882132411,-1.3166647826135158,1.0948271811701358
1788860713862223000,8.63922314453125,0.4611532841712236,-1.9665584313988684,0.9473189906544983
1788860713872230400,8.64923046875,0.03589198211431503,-2.4927900446802376,0.4828080666184425
1788860713882236200,8.659236083984375,-0.7772077770560979,-2.784780940410495,-0.1824542700819671
1788860713892243200,8.6692431640625,-1.3475503347426652,-3.1420220146864652,-0.6806827548027038
1788860713902250200,8.679250244140626,-1.76744747941792,-3.505608658596873,-0.7852814856573939
1788860713912256300,8.68925634765625,-2.374275893458724,-3.7502164563834666,-0.6381131946206092
1788860713922263000,8.699262939453124,-3.2225574406474826,-3.7932349293768404,-0.361049380517751
1788860713932270300,8.709270263671876,-3.7765614424735308,-3.676796999907493,-0.014344313303381203
1788860713942276400,8.7192763671875,-3.745613346502185,-3.4055911180526017,0.3530963756866753
1788860713952283100,8.729283203125,-3.3908670116513964,-2.9923633681386708,0.5465712214767933
1788860713962289400,8.739289306640625,-2.90401989877522,-2.4967267996072766,0.5808703814417123
1788860713972296200,8.749296142578125,-2.3781162022739646,-2.0033435629606244,0.6119293904416263
1788860713982303200,8.75930322265625,-1.8388304616302251,-1.6423720699846744,0.7627721322074532
1788860713992309200,8.769309326171875,-1.2484656911343335,-1.5268179376125335,0.8915070870615541
1788860714002316300,8.77931640625,-0.9368208313852548,-1.4011404706329107,0.6731599580824374
1788860714012323000,8.789322998046876,-0.3818313256531954,-1.4695856458276508,0.6808874835945665
1788860714022329300,8.799329345703125,0.6378858156055212,-2.0511516083180905,1.2905438145376742
1788860714032336100,8.809336181640624,1.155270690086484,-2.9905887596815823,1.6516259282812475
1788860714042342100,8.819342041015625,0.04632277523577213,-3.4055981323152777,0.45610973704606295
1788860714052349400,8.829349365234375,-2.353753329911828,-2.3027333367705345,-1.8446125521630048
1788860714062356200,8.839356201171874,-2.7482436461299655,-1.6173802520692349,-2.1590867901191113
1788860714072362200,8.8493623046875,-1.361527422168851,-1.978237763276696,-0.3340867009207606
1788860714082369300,8.859369384765625,-0.9285743965655565,-1.925278911027312,1.141244941212982
1788860714092376300,8.869376220703124,-1.6370716254889963,-1.4134779741585253,1.4179054352119564
1788860714102382000,8.879382080078125,-2.1602450202435253,-0.8045406051397324,1.152253826483339
1788860714112389400,8.889389404296875,-1.9072545940369368,-0.47678632211089134,1.0957596397146583
1788860714122395400,8.8993955078125,-1.1200766271084546,-0.3638753977239132,0.9651344871997832
1788860714132402200,8.909402099609375,0.033606501525640486,-0.17719781085848807,0.6821843915373087
1788860714142409200,8.9194091796875,1.844474020475149,-0.2431447394967079,1.0036926197834313
1788860714152415200,8.929415283203125,3.187173992577195,-0.3597165244787931,1.6939873986706138
1788860714162422300,8.93942236328125,2.6969319765657187,0.24897651439011095,1.6181716947078704
1788860714172429300,8.94942919921875,1.7541601278215646,0.9274971227228641,1.3117422315195202
1788860714182435300,8.959435302734375,1.4119985492557285,0.8225240055978298,1.6255254184715449
1788860714192442000,8.969442138671875,0.8229103745669126,0.3766740890204906,2.112691826429963
1788860714202449400,8.979449462890624,-0.5751034884780645,-0.05121931510567665,2.403987433372438
1788860714212455200,8.989455078125,-1.9161679683327675,-0.5476765523701906,2.416626550193131
1788860714222462200,8.999462158203125,-2.8938492178946733,-1.3069704870730638,2.117305457705259
1788860714232468500,9.009468505859376,-3.814727799260616,-2.2077613891780374,1.6337160314507782
1788860714242475300,9.019475341796875,-4.2535090926259755,-3.020807956856489,0.9256064866706728
1788860714252482000,9.02948193359375,-3.9348949783861635,-3.51005277852416,0.24595570526421068
1788860714262488300,9.03948828125,-3.047534635740518,-3.489125725829601,-0.2534099667929113
1788860714272495400,9.049495361328125,-1.6418576907217501,-2.954741785752773,-0.305619461979717
1788860714282502100,9.059502197265624,0.13978431826531887,-2.125568259137869,0.08895838639140129
1788860714292508400,9.06950830078125,1.4314707269668578,-1.0531488707393408,0.5693175985530019
1788860714302515200,9.07951513671875,0.956360229113698,0.21715397367179393,0.44678909712359305
1788860714312521200,9.089521240234374,-0.514613071680069,1.437578103931248,0.16801248775348065
1788860714322528300,9.0995283203125,-2.113695450514555,2.0271262973472477,0.6409544093959033
1788860714332535300,9.109535400390625,-3.2838281941682097,1.3924389855220913,2.0359842881940304
1788860714342541300,9.119541259765626,-3.514478778272867,-0.8343158579394221,3.165720870181918
1788860714352548400,9.12954833984375,-2.4214240136027336,-3.9647409583345055,2.6713942152053116
1788860714362555400,9.139555419921875,-0.17428981445729733,-5.745101987600326,1.1928420035898686
1788860714372561200,9.14956103515625,2.049255419307947,-5.463412705653906,0.684288524209708
1788860714382568400,9.159568359375,3.7888755651235577,-4.051451273538172,1.5103873195543884
1788860714392574200,9.16957421875,4.972669169861078,-2.2407471284568308,2.4465716066017746
1788860714402581200,9.179581298828126,5.336570286548137,-0.8632540753930806,2.8985408828422425
1788860714412588300,9.18958837890625,4.830106619054079,-0.03334229763150215,2.929051756440103
1788860714422594300,9.19959423828125,3.6805320947825906,1.224023908317089,2.302799387744069
1788860714432601000,9.20960107421875,2.865243885657191,3.13170900272578,1.062915646994114
1788860714442608400,9.2196083984375,2.6453087568342686,4.419319832551479,-0.09781447754204273
1788860714452614400,9.229614501953124,3.5284780775308606,4.395458187709749,-0.34478082115352154
1788860714462621200,9.23962109375,3.2497032217264175,3.003257687118649,0.36452889319658277
1788860714472627200,9.249627197265625,1.8454355589836835,0.6661386811435223,1.2049553429707884
1788860714482634200,9.25963427734375,0.883278041768074,-1.5023444444827734,1.426722363395989
1788860714492641300,9.269641357421875,1.1555120976269244,-2.596413208501041,0.9081836427047848
1788860714502647000,9.27964697265625,1.3657318881213665,-2.321548219616711,0.2199108711645007
1788860714512654300,9.289654296875,0.5259463665992021,-1.1824328377783297,-0.285916544252634
1788860714522661000,9.2996611328125,0.050425534379482266,-0.3332236543506384,-0.606611848680675
1788860714532667100,9.309667236328124,0.9050199179768562,-0.5117134777810425,-0.4938502696365118
1788860714542674200,9.319674072265625,2.4906454338669777,-1.0655918074008077,-0.10874649818390607
1788860714552680200,9.32968017578125,3.1057565230846405,-1.2538880084440112,0.23478666099607942
1788860714562687200,9.339687255859374,2.9293150835514066,-1.4237576683714985,0.33987522119432684
1788860714572694300,9.3496943359375,3.252934458732605,-1.3058065578602254,-0.18193068459928036
1788860714582700300,9.3597001953125,3.274618467274308,-0.5757485083833337,-1.0701450137257575
1788860714592707000,9.36970703125,2.301272032046318,0.3829112298443913,-1.4363994155406952
1788860714602714400,9.37971435546875,1.9273726684361696,0.8792334425523877,-0.863064982561767
1788860714612720000,9.38972021484375,2.167434054964781,0.503890163744241,0.24495763413757085
1788860714622727200,9.39972705078125,2.1213795752763747,0.06753909320048987,0.7861249507442116
1788860714632733400,9.4097333984375,2.893179940330982,0.1212669570609927,0.9647586396247148
1788860714642740200,9.419740234375,3.79897961050868,0.6742853088505566,1.1310983718603849
1788860714652747300,9.429747314453126,3.818161280840635,0.9779036601409316,0.9960478041186929
1788860714662752800,9.439752685546875,3.3581823011457916,0.8944611145615577,0.5168292864248156
1788860714672759800,9.449759765625,2.969975595241785,0.9405795993968844,-0.17563889097869395
1788860714682766800,9.459766845703125,2.907514755153656,1.3265952249974011,-0.6846271085143089
1788860714692772900,9.46977294921875,2.751037076240778,1.8307700509019196,-0.7498388547457754
1788860714702779600,9.479779541015626,2.2484224853903054,2.339236144259572,-0.42512467006519433
1788860714712787000,9.489786865234375,2.6232301960170266,2.627963069757819,0.19888576492294668
1788860714722793000,9.49979296875,3.179541890263557,2.532905489708483,1.05800829346925
1788860714732799700,9.5097998046875,2.461457333305478,2.172392261894047,1.4811317067146301
1788860714742806000,9.519805908203125,1.5814403391599654,1.693559820908308,1.2541536736428738
1788860714752812800,9.529812744140624,1.3331588212966918,1.1335440114468336,0.6909159795254468
1788860714762819800,9.53981982421875,1.2286007147133349,0.5876882447630166,0.20692250251471994
1788860714772825900,9.549825927734375,1.3500865752220153,0.16293167735785244,0.19007161321789026
1788860714782833000,9.5598330078125,1.434014566230774,-0.11711422129571437,0.4298005529217422
1788860714792839000,9.5698388671875,1.14725864854455,-0.3093792529046535,0.596088554970175
1788860714802846000,9.579845947265625,0.6886112097144127,-0.397652871902287,0.2640684311904013
1788860714812852700,9.589852783203124,-0.21218729117512702,-0.4138517270311713,-0.623993776114285
1788860714822858800,9.599858642578125,-0.9276245484948158,-0.5926645718708634,-1.5622892100967465
1788860714832866000,9.609865966796875,-0.7712269490808248,-1.2913292658269404,-1.586149393633753
1788860714842872800,9.619872802734376,-0.4273813629508018,-1.9309154556095598,-0.9524505083240568
1788860714852878800,9.62987890625,-0.5521317782133818,-1.888352325168252,-0.4277634941361844
1788860714862886000,9.639885986328125,-0.9234440479397773,-1.3769886106729508,-0.10018646737039089
1788860714872893000,9.649892822265626,-1.2544979570358992,-0.8498591717690229,0.021239771905541417
1788860714882898700,9.659898681640625,-1.6144897913247347,-0.5275444494456053,0.19673194788992404
1788860714892906000,9.669906005859374,-1.782660246118903,-0.44849487812817096,0.6257094939909875
1788860714902912000,9.679912109375,-1.3612830920189618,-0.5684849471211433,1.0598942533463238
1788860714912918800,9.689918701171875,-0.9634224225848913,-0.702993370810151,1.2259385097667574
1788860714922925800,9.69992578125,-1.2663415395647286,-0.5604162069559097,0.9127698745165019
1788860714932931800,9.709931884765625,-1.645649484220147,-0.4223761020094156,0.33903255982510744
1788860714942939000,9.71993896484375,-1.4935872836619615,-0.7302946347117424,0.05809818789921701
1788860714952946000,9.72994580078125,-1.5094979694992303,-1.3286363754361867,-0.14032624312229453
1788860714962952000,9.739951904296875,-2.206535646775365,-1.9046756834596394,-0.6973110143247991
1788860714972958700,9.749958740234375,-3.1273399938613173,-2.5254145494312046,-1.2874819427490234
1788860714982965000,9.759965087890626,-3.8250036940813064,-3.0557348933309316,-1.4503155665598808
1788860714992971800,9.7699716796875,-4.058448877340555,-3.3382185405254363,-1.1920112518541515
1788860715002978800,9.779978759765624,-4.085791057774425,-3.3748201322138307,-0.6257225726682693
1788860715012985000,9.789985107421876,-3.8981133539557455,-3.136196085011959,-0.0871324130732566
1788860715022992000,9.799991943359375,-3.26763986043334,-2.864210450956225,0.41277657208032903
1788860715032999000,9.8099990234375,-2.2524276293784378,-2.64935247926712,0.8203562331046909
1788860715043005000,9.8200048828125,-1.7613976778596638,-2.131843686145544,0.5866141857907176
1788860715053012000,9.830011962890625,-1.6883716046154498,-1.2618301996201275,-0.1583575013101101
1788860715063017700,9.840017822265626,-1.28704062872231,-0.6456207937717438,-0.7434042916536331
1788860715073025000,9.85002490234375,-0.8792343193352222,-0.39195056860744953,-0.9889853183865547
1788860715083031800,9.86003173828125,-0.10343056385815143,-0.8583195416003465,-0.5808174822106957
1788860715093037800,9.870037841796876,0.3058212681621313,-1.4608365221828221,-0.21014336425736546
1788860715103044900,9.880044921875,-0.28220366120934487,-1.351129946795106,-0.40693581016287206
1788860715113052000,9.890052001953125,-0.8700964886337518,-1.0790560499340296,-0.7450191795043647
1788860715123058000,9.900057861328126,-1.0980682089179754,-0.8989403058022261,-0.8294710482567548
1788860715133065000,9.91006494140625,-1.1818535765856504,-0.7521218511164188,-0.6070335812240839
1788860715143071000,9.920071044921874,-1.1842109533667564,-0.8122188846826552,-0.20585735750123857
1788860715153077800,9.930077880859375,-1.0834107380121947,-0.9253209477275609,-0.03218114489763975
1788860715163085000,9.9400849609375,-0.831322813603282,-1.0431137989372015,-0.04734115849807858
1788860715173090800,9.9500908203125,-0.2364478722065687,-1.2261550751268864,0.07408683434352278
1788860715183097900,9.960097900390625,0.634700755828619,-1.6779688685446976,0.7391138279180973
1788860715193105000,9.97010498046875,1.1297884583055973,-2.2089345246106387,1.8865150267384945
1788860715203111000,9.98011083984375,0.48185588046014305,-2.5166683483958243,2.848444142025709
1788860715213118000,9.990117919921875,-1.0622498765617607,-2.324959197103977,2.9879116494268176
1788860715223123700,10.000123779296874,-2.271871750038862,-1.5965917310625313,2.0970083734773097
1788860715233131000,10.010131103515626,-2.402337035816908,-0.8060930952787398,1.0054180553365497
1788860715243137800,10.0201376953125,-1.8394155680418014,-0.4418126238852739,0.5322689206842333
1788860715253143800,10.030143798828124,-1.0918670161902904,-0.5405027152180671,0.5630176216259598
1788860715263150800,10.04015087890625,-0.7800783640563488,-0.7905167559623718,0.6239915841571986
1788860715273158000,10.050157958984375,-0.7219207741200924,-0.939662776812911,0.4364972740814089
1788860715283164000,10.060163818359374,-0.6657166563391685,-1.0283861854046583,0.14098711818382142
1788860715293171000,10.0701708984375,-0.5619663590073585,-1.0438415286898612,0.046761020522564645
1788860715303177000,10.080177001953125,-0.08860650421380996,-1.1034282746464013,0.5828288220331073
1788860715313183700,10.090183837890624,0.5283621955692768,-1.1272183155566453,1.4032229759953916
1788860715323191000,10.10019091796875,0.7470406023293733,-1.1326523233041166,1.71618330225721
1788860715333196800,10.11019677734375,0.5562918205022812,-0.9956251947924494,1.2413564436510205
1788860715343203800,10.120203857421876,0.3193979580938816,-0.7794801059022546,0.43893297679573295
1788860715353211000,10.1302109375,0.5740986953496933,-0.5265308884888887,-0.06658361910656094
1788860715363217000,10.140216796875,1.149019228476286,-0.3162555684149265,0.027331220648437737
1788860715373223700,10.1502236328125,1.1227163279622792,-0.22081045035272837,0.4922606623575091
1788860715383230000,10.16022998046875,0.3456313005030155,-0.15318594389110804,0.7273182492494583
1788860715393237000,10.170237060546874,0.15765724408626555,0.001438216109573841,0.6006973639398813
1788860715403243800,10.180243896484376,1.4471779991865157,0.359160936422646,0.7344650522641837
1788860715413250000,10.19025,1.9790169309556482,0.7655863128453493,1.2111115275129676
1788860715423256800,10.2002568359375,1.3967851980328558,0.7186395604923367,1.406698543151468
1788860715433263900,10.210263916015625,1.0278986941486596,0.3668669807553291,1.0278080932557583
1788860715443270000,10.220269775390625,1.1554296800404786,-0.06212240191400051,0.632680940438807
1788860715453277000,10.23027685546875,0.5969160918354988,-0.44950098643079395,0.5635282014966011
1788860715463283000,10.240282958984375,0.0009679682493209838,-0.7439440976187587,0.40714229252040385
1788860715473290000,10.2502900390625,0.5991103870093822,-0.8955398497089743,0.43242227972745895
1788860715483296800,10.260296875,1.691172633510828,-1.0813412382617593,0.8921338406577706
1788860715493302800,10.270302734375,1.9914742614686487,-1.3412871826946735,1.1419462213501335
1788860715503310000,10.28031005859375,2.4698960758268833,-1.3847344024941324,0.9033955316454172
1788860715513316900,10.29031689453125,3.0898657109916208,-1.132336754548922,0.6293062033087015
1788860715523323000,10.300322998046875,3.1007857489347455,-0.9390368999995291,0.37068624678254125
1788860715533330000,10.310329833984374,3.4714725802391766,-0.863441341593489,0.17593378227204085
1788860715543336000,10.3203359375,3.717195645791292,-0.7321658354111016,-0.07905395523160695
1788860715553342700,10.3303427734375,3.0451977172255513,-0.26464732705689964,-0.5074181917399168
1788860715563350000,10.34035009765625,3.065568305081129,0.3562934912275523,-0.5543798494011163
1788860715573356000,10.35035595703125,3.5910944004416465,1.2138719321370124,-0.3672191551938653
1788860715583362800,10.36036279296875,4.37004522177279,1.9506585592165588,-0.05476064097434282
1788860715593369900,10.370369873046876,4.229056203892827,1.7383071635209022,0.23764438851475714
1788860715603375900,10.3803759765625,3.535364914435148,1.2842924990579485,-0.08419920916557312
1788860715613383000,10.3903828125,3.104557668688893,0.8785537897251546,-0.03558949203640222
1788860715623388700,10.400388671875,2.42372469176054,0.40489641328975556,0.4417106248155236
1788860715633396000,10.41039599609375,2.294377011835575,0.05104446999542415,0.6846124954670667
1788860715643402800,10.42040283203125,2.405361352074146,-0.11784516591876744,0.8175276586152612
1788860715653408800,10.43040869140625,2.264218020415306,0.08754472020119428,0.7978451991543173
1788860715663416300,10.440416259765625,2.4355378791511058,0.5984533844053745,0.5947989535510539
1788860715673423400,10.45042333984375,2.467676646211743,1.0665184937916696,0.4280339816406369
1788860715683429000,10.46042919921875,2.2943670749634504,1.3078801492638885,0.36621728467494247
1788860715693436400,10.4704365234375,1.8946388580918312,1.4459735918328165,0.3050252954788506
1788860715703442400,10.4804423828125,1.8026836279720067,1.3924531601779162,0.35266675209775566
1788860715713449200,10.49044921875,2.277815753135085,1.0670391566649078,0.6281221080906689
1788860715723456300,10.500456298828125,2.580371882021427,0.7380234753981232,0.8097413886532187
1788860715733462300,10.510462158203126,2.314444232830405,0.6688540775820613,0.6363450159043074
1788860715743469300,10.52046923828125,1.9320546887725591,0.7130749121025204,0.32297903145104645
1788860715753475000,10.53047509765625,1.5462193881750106,0.6864943636909127,0.0670208414800465
1788860715763482400,10.540482421875,0.9405962582707404,0.4834861120104789,-0.1358725516490638
1788860715773489200,10.5504892578125,0.724454091989994,0.1632256918683648,-0.4030502009011805
1788860715783495200,10.5604951171875,1.224796061733365,-0.2209916521385312,-0.652858343809843
1788860715793502200,10.570502197265625,1.3955086022257803,-0.48301703319400546,-0.9747051563605665
1788860715803509200,10.58050927734375,0.857902777493,-0.5849444990128279,-1.3096160331457853
1788860715813515300,10.590515380859374,0.48067573076486586,-0.717195499163866,-1.2811864958666264
1788860715823522300,10.600522216796875,0.8664180923819541,-1.0788771862357853,-0.7219429859519004
1788860715833528300,10.6105283203125,1.1594599584698677,-1.5408552307933567,-0.1463281869508326
1788860715843535000,10.62053515625,0.8383516893267631,-1.6637854448914526,-0.08376651683673263
1788860715853542400,10.63054248046875,0.6726391490787267,-1.6422674405664204,-0.18940321243703365
1788860715863548200,10.640548095703124,0.8010358118891715,-1.8423603893220424,-0.0854756588421762
1788860715873555200,10.65055517578125,0.5717319662183523,-1.9993401725381612,0.1288399495985359
1788860715883562200,10.660562255859375,-0.39271044706404207,-1.7978034547150135,0.17170527785681186
1788860715893568300,10.670568359375,-1.587800521841645,-1.5033336016505956,0.016575433356314898
1788860715903575300,10.6805751953125,-2.4761276636928318,-1.3144628886550664,-0.27034444271996616
1788860715913581300,10.690581298828125,-3.093282241436839,-1.4284686225414276,-0.2751829687923193
1788860715923588400,10.70058837890625,-3.5139971322357653,-1.9870365712821483,0.22157719694152472
1788860715933595100,10.71059521484375,-3.7243355806738134,-2.8121728052049875,0.8226458784118295
1788860715943601400,10.720601318359375,-3.947503115546703,-3.5647914999276398,1.048237352496013
1788860715953608200,10.730608154296876,-4.167782527762651,-4.086211913534998,1.0233944415319711
1788860715963615200,10.740615234375,-4.067551052206754,-4.321494833615422,0.8170688089318573
1788860715973621200,10.750621337890625,-3.0759137580066915,-4.2317017499655485,0.4700543104421347
1788860715983628300,10.760628173828126,-1.5800000772237777,-3.799319217726588,0.039198403248563406
1788860715993634300,10.77063427734375,-1.0071809002906082,-2.8353730635285377,-0.3087586367882788
1788860716003641300,10.780641357421874,-0.8257803770452737,-1.962780666425824,-0.19431363470181823
1788860716013648400,10.7906484375,-0.520021652725339,-1.5037018504410982,0.22634916058368978
1788860716023654100,10.800654052734375,-0.4349468297690153,-1.2718664404660462,0.6045716480899602
1788860716033661400,10.810661376953124,-0.7724579521805047,-1.258067632216215,0.7759384147074073
1788860716043668200,10.820668212890626,-1.225198797315359,-1.2095265964090824,0.43550161410756405
1788860716053674200,10.83067431640625,-1.2633061173915863,-1.1941384731411933,-0.08846351554654538
1788860716063681300,10.840681396484374,-1.0438117180734872,-1.1357353840112685,-0.6799002991881221
1788860716073687300,10.850687255859375,-0.8611901286005973,-0.8777057945936918,-1.289786128038168
1788860716083694300,10.8606943359375,-0.7852940528780221,-0.5726169323593377,-1.8644883422389626
1788860716093701400,10.870701416015624,-0.8689929113060235,-0.30170038883984085,-2.2830162443876265
1788860716103707400,10.880707275390625,-0.8494909229785204,-0.13472995748519898,-2.2250044926628467
1788860716113714200,10.890714111328125,-0.9352525591552256,-0.11426993778049944,-1.6771435236364602
1788860716123720400,10.900720458984376,-1.4248007476836442,-0.2668517782986164,-1.1382957360185681
1788860716133727200,10.910727294921875,-1.6922943310171366,-0.7273129885524511,-0.7806954730413853
1788860716143734300,10.920734375,-1.5976456240296364,-1.4752537545919417,-0.37759317662678654
1788860716153740300,10.930740234375,-1.7675678909271955,-2.3201854068309067,0.1307505324602127
1788860716163747300,10.940747314453125,-2.2854069389164446,-2.8059990850061176,0.6239344471424818
1788860716173754000,10.950754150390624,-2.4532260960549115,-2.7072639854878187,0.792321759557724
1788860716183760400,10.960760498046875,-2.00284788839817,-2.0496014562666414,0.49359483357071876
1788860716193767400,10.970767333984375,-1.2647867113381623,-1.0447153889149428,0.05148147317320108
1788860716203773200,10.980773193359376,-0.6099824941575527,-0.0073883566856384275,-0.11334931580424308
1788860716213780500,10.990780517578125,-0.23648586612939834,0.6688350806206464,0.3751213796857744
1788860716223787300,11.000787353515625,-0.4309902010977268,0.8890566251695156,1.3770897329598664
1788860716233793300,11.010793212890626,-0.8370984743952751,0.7010100880384444,2.0854428772374987
1788860716243800300,11.02080029296875,-0.9008908553481102,0.34230829356014725,2.0985689007923005
1788860716253807400,11.030807373046875,-0.8137029857605695,-0.06905600056946277,1.556102338155359
1788860716263813400,11.0408134765625,-0.6168383514016866,-0.5383066664785147,0.9149798787161707
1788860716273820400,11.0508203125,-0.029953239715099333,-0.8593973999649286,0.4810518706008792
1788860716283826400,11.060826416015624,0.6107762748837471,-0.8926882596701383,0.33562691610008477
1788860716293833200,11.070833251953125,0.8212123384773731,-0.7111617719575762,0.15671148766875267
1788860716303840500,11.080840576171875,0.6881342398524284,-0.4728814236268401,-0.16797303252592682
1788860716313846300,11.09084619140625,0.21442951714396474,-0.294396787828207,-0.6124909698471427
1788860716323853300,11.100853271484375,-0.3824351367652416,-0.22687749530673026,-0.76977178183645
1788860716333859300,11.110859375,0.016201777738332746,-0.32877573503106833,-0.8541609606161713
1788860716343866400,11.120866455078126,1.2772913881242274,-0.6618652416080236,-0.8140646586798131
1788860716353873200,11.130873046875,2.1582617374718187,-1.1076070216357707,-0.5283605881340802
1788860716363879200,11.140879150390624,2.744587461709976,-1.3304179981559514,-0.0907433701120317
1788860716373886500,11.150886474609376,2.5058067626416682,-1.3338620011299849,0.4660585918694734
1788860716383893200,11.160893310546875,2.039061357551813,-1.052463811084628,0.8753237217627465
1788860716393899300,11.170899169921874,1.2461936545491217,-0.5679368117190897,0.9696499187976121
1788860716403906300,11.18090625,0.7460159354567527,0.09085238344445824,0.9141489808499813
1788860716413912300,11.190912353515625,0.7247516136318445,0.7357144678033888,0.7720455719873308
1788860716423919000,11.200919189453124,0.6515303100764751,0.9408218837201595,0.47960927057713265
1788860716433926400,11.210926513671875,1.2340601491630077,0.5331798249840736,0.04849661214351654
1788860716443932400,11.220932373046875,2.1459797635257245,-0.15145137518346308,-0.39897111489400267
1788860716453939200,11.230939208984376,3.1749884647428988,-0.8442313950151205,-0.5517915864735842
1788860716463945500,11.240945556640625,3.4957676480621096,-1.3835627283662557,-0.3589249357096851
1788860716473952300,11.2509521484375,2.843079984644055,-1.6033295148849487,-0.26435616209059953
1788860716483959300,11.260959228515626,2.0330191547781227,-1.1745464684426783,-0.6451536146514117
1788860716493965300,11.27096533203125,2.0352280629992485,-0.28337358177155253,-1.0890110422372818
1788860716503972400,11.280972412109374,2.6988427786231037,0.37227958038859066,-1.1622678554974495
1788860716513979100,11.290979248046876,3.5622704570174215,0.669178706426546,-0.7321823481544851
1788860716523985400,11.3009853515625,4.065864122033119,0.6796289349008351,-0.25953341810926794
1788860716533992200,11.3109921875,3.9156174464643,0.6744885032724589,-0.22915055480524896
1788860716543998200,11.320998291015625,3.4455472808659073,0.7531268634404986,-0.3668851009339094
1788860716554005500,11.331005615234375,3.1059084987759586,0.6439386859036982,-0.5505101683609187
1788860716564012300,11.34101220703125,2.994483429032564,0.45978236114419996,-0.4687244500778615
1788860716574018300,11.351018310546875,3.2083506361186505,0.27807671747244894,0.016207476826757192
1788860716584025300,11.361025390625,3.267654473480582,0.2929167784035206,0.26015038096383214
1788860716594031400,11.37103125,3.3361177688539025,0.8170110143300146,0.15201631558984516
1788860716604038100,11.3810380859375,3.5938989364683627,1.5390646941147743,0.021042495767772198
1788860716614045400,11.39104541015625,3.4498353334486485,2.0702276263184842,-0.09287512144371866
1788860716624051500,11.401051513671876,3.1268215229451655,2.2008634463578463,-0.10066752888560294
1788860716634058200,11.411058349609375,2.8969921920955177,2.0417551266804335,0.07380670222789049
1788860716644065300,11.421065185546874,2.635278361207247,1.7827729127131402,0.2427120471678674
1788860716654071300,11.4310712890625,2.3130220910727974,1.52409201977998,0.23734452878534792
1788860716664078600,11.44107861328125,2.203960243329406,1.1031930045858025,0.2885390017107129
1788860716674084400,11.45108447265625,2.3397534461319447,0.49057314766198395,0.39611163380965586
1788860716684091400,11.46109130859375,2.423758009508252,-0.1439592658624053,0.2529394266717136
1788860716694098400,11.471098388671875,2.033646931287646,-0.6772703160107135,-0.26780118797793984
1788860716704104400,11.4811044921875,1.5893892523378133,-0.992158979986608,-0.9402318088725209
1788860716714111200,11.491111328125,1.3704022180199622,-0.9919660877630114,-1.224940292509645
1788860716724117500,11.501117431640624,1.2693500737309455,-0.7806658085554837,-1.0696018467597663
1788860716734124500,11.51112451171875,1.2330547715127467,-0.600929126869142,-0.6282040142204612
1788860716744131300,11.52113134765625,0.986381273368001,-0.6323048006027937,-0.2605344118453562
1788860716754137600,11.5311376953125,0.5443541299492121,-0.8233189553678035,-0.14722930050902067
1788860716764144400,11.541144287109375,0.1656067417860031,-1.055880926051736,-0.16754253215417264
1788860716774151400,11.5511513671875,-0.11338497163951396,-1.2249743409097194,-0.18497947771064935
1788860716784157400,11.561157470703124,-0.4105073850393295,-1.323662094154954,-0.11169424207359552
1788860716794164500,11.57116455078125,-0.4982148945868015,-1.5841782396912574,0.08187975324206054
1788860716804170500,11.58117041015625,-0.6811772603213787,-1.8844114785879849,0.19510763462372124
1788860716814177500,11.591177490234376,-1.2681032885402441,-1.9942478178352117,0.1022124933052808
1788860716824184300,11.601184326171875,-1.7710446271270512,-2.077329421147704,-0.05697166808731854
1788860716834190300,11.6111904296875,-2.1719442258656025,-2.0954040070205924,-0.15138422823138534
1788860716844197600,11.62119775390625,-2.5490333254277706,-1.996076786828041,-0.2819400418370962
1788860716854203400,11.631203369140625,-2.7592724051445723,-1.8266326588362454,-0.3656469374410808
1788860716864210400,11.64121044921875,-2.6850463084608314,-1.8331611838221549,-0.1058229388874024
1788860716874217500,11.651217529296876,-2.451110126814246,-1.9284768302857875,0.41858832709901034
1788860716884223500,11.661223388671875,-2.4562135874330995,-1.8309090209811925,0.6472028753314167
1788860716894230300,11.671230224609374,-2.7564754679024217,-1.4990607466369867,0.3656464990496635
1788860716904236300,11.681236328125,-3.050010085943341,-1.022480176231265,-0.1523614757657051
1788860716914243600,11.69124365234375,-2.8985242239683866,-0.7526824076086283,-0.23521811121590433
1788860716924250400,11.70125048828125,-2.636687643483281,-0.8865320751279592,0.23644027342200277
1788860716934256400,11.71125634765625,-2.8110049304693936,-1.149915885055065,0.8120067032366991
1788860716944263400,11.721263427734375,-3.413796051818132,-1.447399532982707,1.0291060971770436
1788860716954270500,11.7312705078125,-3.3664316585749385,-2.0423165599554776,1.1711555108301341
1788860716964276200,11.741276123046875,-2.8720389526247976,-2.5790730743825434,0.8703598888102918
1788860716974283500,11.751283447265624,-2.6190684001624582,-2.487434655126929,-0.06727423171922564
1788860716984289300,11.761289306640625,-2.2734540507942436,-2.0129595325678586,-0.8675170665998011
1788860716994296300,11.77129638671875,-1.7018202842533587,-1.5976584835112093,-0.9097088064454495
1788860717004303400,11.781303466796874,-1.2039742229789494,-1.3290619073718786,-0.4000947120964527
1788860717014309400,11.791309326171875,-0.8500964876562357,-1.223703005799651,0.2264269019950181
1788860717024316400,11.80131640625,-0.8835252945274114,-1.2214578572213648,0.5736337812516838
1788860717034322400,11.811322509765626,-0.8282885604739189,-1.3466186068505048,0.7622767499059439
1788860717044329500,11.82132958984375,-0.6161456929624081,-1.5811498317807913,0.8934094135515391
1788860717054336300,11.831336181640625,-0.5202309115618468,-1.5863526611208916,0.679816054970771
1788860717064342500,11.841342529296876,-0.5268500374406576,-1.3691285448223351,0.10019231258928775
1788860717074349300,11.851349365234375,-0.4351391374707222,-1.222852526450157,-0.21802958746254442
1788860717084356400,11.8613564453125,-0.21852993820011615,-1.1736527344733476,0.1265797495815903
1788860717094362600,11.871362548828126,-0.021256138518452643,-1.1079308467626572,0.783003165461868
1788860717104369400,11.881369384765625,0.046342064458131785,-1.0492314050346612,1.4630699803233145
1788860717114375400,11.89137548828125,0.14302666118741034,-0.8967594546318054,1.7874015954270959
1788860717124382500,11.901382568359375,0.42604631495475764,-0.7783587006568908,1.6124068475708364
1788860717134389500,11.911389404296875,0.2184405063509941,-0.7591706005841493,1.1661840790931135
1788860717144395300,11.921395263671876,-0.6964239292919635,-0.8080173413395881,0.584417771724984
1788860717154402600,11.931402587890625,-1.392775377869606,-1.0514946737915276,0.10210749856084585
1788860717164408300,11.941408203125,-1.1509347067087887,-1.2257049932718276,-0.24116474466063081
1788860717174415400,11.951415283203126,-0.09210545224547385,-1.0731173075348137,-0.38049503554813563
1788860717184422400,11.96142236328125,0.4175274929344654,-0.8280535826742649,-0.3414600061677396
1788860717194428400,11.971428466796874,0.5386135404706001,-0.6920441067725419,-0.24794950942993163
1788860717204435500,11.981435546875,0.9024088586956263,-0.5600391903370618,-0.2959757275827229
1788860717214441500,11.99144140625,0.7476742240577936,-0.4322819944739342,-0.25158903497606516
1788860717224448500,12.001448486328124,0.039616555595397944,-0.4368210992082953,0.11043518192321061
1788860717234455300,12.011455322265626,-0.4526479061543941,-0.6580620499327778,0.5393006459519267
1788860717244461600,12.021461669921875,0.17097382177710532,-0.8896098751381039,0.571136776804179
1788860717254468400,12.03146826171875,0.7641442973434924,-1.0137123478859662,0.3780309104569256
1788860717264475400,12.041475341796875,0.6432324373304844,-1.0957011875256895,0.17045403568670153
1788860717274481400,12.0514814453125,0.2652911048531532,-0.9687012397706508,0.08253975152075291
1788860717284488400,12.061488525390626,0.03205167329907417,-0.680380264724791,0.28817016839832066
1788860717294494500,12.071494384765625,0.02162964800596237,-0.4812146599471569,0.6099795715481042
1788860717304501500,12.08150146484375,0.10658522849678993,-0.5332900073602795,0.5829986256420612
1788860717314508500,12.091508544921876,0.2362777763366699,-0.7882233843281865,0.24369345942065118
1788860717324514300,12.101514404296875,1.0659902321338652,-1.0491285291820764,-0.07896729986146092
1788860717334521600,12.111521484375,1.847161652123928,-1.3136945346310733,-0.2004932001195848
1788860717344527400,12.12152734375,2.293183418136835,-1.5112540193863213,-0.08328779340907931
1788860717354534400,12.131534423828125,2.4050866267859936,-1.600638814496249,-0.12502075663655995
1788860717364541400,12.14154150390625,2.0927496931195257,-1.64389548015967,-0.38121699314713475
1788860717374547500,12.15154736328125,1.8156570913136005,-1.460850696838647,-0.6036728726193309
1788860717384554500,12.161554443359375,1.652580160266161,-0.9239050895802676,-0.6899594094529747
1788860717394560300,12.171560302734376,1.3866080874115227,-0.11717369639798998,-0.7929325849324464
1788860717404567600,12.181567626953125,1.8284405850410461,0.7451612183235585,-0.6553168428778648
1788860717414574300,12.19157421875,2.793402053761482,1.3707994006440043,-0.28094679301604625
1788860717424580400,12.201580322265626,3.27250775873065,1.434961491692066,0.03575461947023868
1788860717434587400,12.21158740234375,3.575852407646179,1.0440189310833812,-0.051732671455293894
1788860717444593400,12.221593505859374,3.7799224433392284,0.6529466796804219,-0.5452287208266556
1788860717454600400,12.231600341796875,3.5665059026300905,0.35123416201137003,-0.82264470936805
1788860717464607500,12.241607421875,3.1890064687013626,-0.08591156604140997,-0.6727557611957192
1788860717474613500,12.251613525390624,2.9185879378318784,-0.17030578632242976,-0.5473043580569327
1788860717484620300,12.261620361328125,2.406602292045951,0.35683073990941044,-0.7232254269778728
1788860717494626600,12.27162646484375,2.430359599730372,0.9824562088787555,-0.8914180936038494
1788860717504633300,12.28163330078125,2.972992897236347,1.016411743037775,-0.6245173615969717
1788860717514640400,12.291640380859375,3.664313950431347,0.7826428077168762,-0.3203001676306128
1788860717524646400,12.301646484375,4.162987110179662,0.4927472768306732,-0.06015870062559843
1788860717534653400,12.3116533203125,4.054707937246561,0.48948418338149785,0.07747033930197357
1788860717544659500,12.321659423828125,3.7150071958363053,0.8865966647967696,0.04077171697989106
1788860717554666500,12.33166650390625,3.2753988039970396,1.309394499349594,-0.1962671068571508
1788860717564673500,12.341673583984376,2.87736862321496,1.627415323871374,-0.48420975010991096
1788860717574679300,12.35167919921875,2.8757319619238375,1.7368686551503836,-0.43841991270706054
1788860717584686600,12.3616865234375,3.0075293730884787,1.6092311401441692,-0.09671411508470773
1788860717594692400,12.3716923828125,2.946737342995405,1.5950205362230538,0.07733063857033848
1788860717604699400,12.381699462890625,2.636613409203291,1.6501574631638825,0.06256371594071387
1788860717614706400,12.39170654296875,2.2486533715367316,1.7179282462283967,0.09966156671345233
1788860717624712400,12.40171240234375,2.323214983785152,1.71712043697685,0.1329473118521273
1788860717634719500,12.411719482421875,2.490651863607764,1.5078879039540887,0.1669797837048769
1788860717644726500,12.4217265625,2.250004786145687,0.959418739901483,0.1332401573188603
1788860717654732500,12.431732666015625,1.9129823240339754,0.3023430706575513,-0.19482976753041148
1788860717664739300,12.4417392578125,1.6389064397007227,-0.30424539714753623,-0.6625261166695505
1788860717674745300,12.451745361328125,1.5448504379093646,-0.9529723402410745,-0.7796030746947974
1788860717684752400,12.46175244140625,1.6722709491640328,-1.6628706681340932,-0.5599587455119938
1788860717694759400,12.471759521484374,1.25306003318727,-2.1903110726833344,-0.41861674947589633
1788860717704765400,12.481765380859375,0.2732645679503679,-2.355946456041932,-0.5788806689292192
1788860717714772500,12.4917724609375,-0.3535352054953575,-2.4225357742369176,-0.6988633583333342
1788860717724778500,12.501778564453126,-0.6325847865879536,-2.4399299766302107,-0.4976611331615597
1788860717734785300,12.511785400390625,-0.6244201848328114,-2.526331664276123,-0.17219496106989682
1788860717744792600,12.52179248046875,-0.6153033969193696,-2.542184482446313,-0.023591449598222968
1788860717754798300,12.53179833984375,-0.9195306738883257,-2.447586628863215,-0.11669964914545417
1788860717764805400,12.541805419921875,-1.3822539838552474,-2.280184235832095,-0.4140940113544464
1788860717774811400,12.551811279296874,-1.9770862551540136,-2.0465724638342855,-0.8021163006022572
1788860717784818400,12.561818359375,-2.501200730150938,-1.7681056510657072,-1.14929585346058
1788860717794825200,12.5718251953125,-2.774436656528711,-1.5340864673107861,-1.325202601595223
1788860717804831200,12.581831298828124,-3.120841279491782,-1.413327752032876,-1.2496534396141767
