time,seconds_elapsed,z,y,x
1788861746241076700,0.04307666015625,9.025242433166504,2.6376620414733885,0.16130933685302734
1788861746251083800,0.053083740234375,9.080159433746337,2.615066763305664,0.155772745513916
1788861746261089800,0.06308984375,8.923189587402343,2.4690204620361325,0.4478653480529785
1788861746271096800,0.073096923828125,8.697984993743896,2.3549966079711915,0.5620388397216797
1788861746281104000,0.083103759765625,8.353968142700195,2.0030489639282227,0.8827122245788573
1788861746291110000,0.09310986328125,8.048258518218994,1.81315884475708,0.8756792572021483
1788861746301116700,0.10311669921875,8.820687828826903,1.8671780197143553,0.41629181365966794
1788861746311124000,0.1131240234375,9.62169792175293,2.3234230735778807,0.47210663986206053
1788861746321129700,0.123129638671875,9.715670336914062,2.6473884857177734,0.8325836273193359
1788861746331136800,0.13313671875,9.05876125640869,2.4543559768676757,0.9662100074768066
1788861746341143800,0.143143798828125,8.110058848571777,1.9832968002319336,0.7860463325500487
1788861746351150800,0.15315087890625,7.611167077636718,1.7374422172546387,0.08843582382202148
1788861746361156600,0.163156494140625,7.737161940002441,2.079962692260742,-0.49455228042602534
1788861746371164000,0.173163818359375,8.297704403686524,2.762609440612793,-0.8776245460510254
1788861746381170700,0.183170654296875,8.742726637268065,2.7551275604248047,-1.0965443603515623
1788861746391176700,0.1931767578125,8.8236805809021,2.805256157684326,-1.035492218017578
1788861746401183700,0.203183837890625,8.61897633895874,3.1953613906860348,-1.5122376235961914
1788861746411190800,0.213190673828125,8.902988510894774,3.8269817161560056,-2.593369310760498
1788861746421196800,0.22319677734375,9.127295278930664,4.145560174560547,-3.2531215057373046
1788861746431203800,0.233203857421875,9.2948893951416,4.083460569000244,-3.3265935691833493
1788861746441210600,0.243210693359375,9.503334577178954,3.623923487854004,-2.507926239013672
1788861746451218000,0.253218017578125,9.281571648406981,3.0455741493225097,-1.984942813873291
1788861746461224000,0.263223876953125,9.177124600982665,2.8528409156799315,-1.619078872680664
1788861746471230700,0.273230712890625,9.353996248626709,2.7437551025390623,-0.7583633758544921
1788861746481238000,0.283238037109375,9.463530974578857,2.7832594299316407,0.18046295013427732
1788861746491243800,0.293243896484375,9.35968247756958,2.869600327301025,1.073200894165039
1788861746501250800,0.303250732421875,9.423877009582519,2.8163293403625485,1.725022296142578
1788861746511257900,0.3132578125,9.138518099212646,2.682553322601318,1.4939818359375
1788861746521265000,0.323264892578125,7.9566803047180175,3.0060698219299313,0.4513070129394531
1788861746531270700,0.333270751953125,6.92687431564331,3.317764950561523,0.10669161148071288
1788861746541278000,0.34327783203125,7.5631334068298335,2.7144261322021483,0.7166144844055176
1788861746551284700,0.35328466796875,8.72731396408081,1.6207248863220214,1.177947216796875
1788861746561290800,0.363290771484375,8.67553935317993,1.3916297149658203,0.9210194511413574
1788861746571297800,0.3732978515625,9.588478373718262,2.095375365447998,0.7703343841552734
1788861746581304800,0.383304931640625,10.758943710327149,1.9307740013122558,1.6774375381469726
1788861746591311600,0.3933115234375,10.66766477203369,1.3447931449890136,2.1267992622375487
1788861746601318000,0.40331787109375,9.878625687408446,1.0805331367492674,1.903839232635498
1788861746611324700,0.41332470703125,8.638578865051269,1.0628758995056151,0.8430582595825195
1788861746621331700,0.423331787109375,7.7587097549438475,0.7689876457214355,-0.6223427940368652
1788861746631338000,0.433337890625,7.483376564025878,0.5259761772155761,-1.7112556365966796
1788861746641344800,0.4433447265625,7.465569689178467,0.32830490264892576,-2.233191598510742
1788861746651351800,0.453351806640625,7.849090867614746,0.11761515655517578,-2.337937921142578
1788861746661358800,0.46335888671875,7.902212216949462,-0.15203180541992187,-2.0063409912109376
1788861746671364900,0.47336474609375,6.9153522201538085,-0.7408557762145995,-1.2196961082458495
1788861746681371600,0.48337158203125,5.617246007537841,-1.3787608810424803,-0.36152445068359373
1788861746691379000,0.49337890625,4.477905292510986,-1.8110639183044432,1.2120645904541014
1788861746701385700,0.5033857421875,4.228309769439697,-2.611774736022949,3.661482526397705
1788861746711391700,0.513391845703125,4.050540296173096,-3.146130619049072,5.194220501708984
1788861746721398800,0.523398681640625,4.337994132995605,-3.8139632446289062,7.199514029693603
1788861746731405800,0.53340576171875,5.131522345733642,-3.372831588745117,8.939200811004637
1788861746741411600,0.54341162109375,6.800131265258789,-2.0190601875305174,10.352527978515624
1788861746751419000,0.5534189453125,8.676886091613769,-1.798494359588623,11.01198089828491
1788861746761425700,0.56342578125,9.770736975097655,-2.4301146850585935,10.849175185394287
1788861746771433000,0.573432861328125,10.398017810058594,-3.521122454071045,11.100267084503173
1788861746781438700,0.583438720703125,10.111611436462402,-4.942978964996338,12.367099037933349
1788861746791445800,0.59344580078125,9.516951599121093,-5.876268699645996,14.766238739013671
1788861746801452800,0.603452880859375,8.909722203063964,-6.395361547088623,17.36514464111328
1788861746811459800,0.6134599609375,7.518391763305663,-6.7639189651489255,18.99125648117065
1788861746821465900,0.6234658203125,6.506691924285889,-6.822726543426513,19.68976481552124
1788861746831473000,0.633472900390625,6.212654032897949,-6.14816022567749,19.10782417449951
1788861746841479700,0.643479736328125,6.014384207916259,-5.224148022460938,16.902764445495606
1788861746851486700,0.65348681640625,5.583577546691894,-4.849156187438965,14.57530115661621
1788861746861493000,0.663492919921875,4.734384145355224,-4.506037162017822,12.842348067474365
1788861746871499800,0.673499755859375,3.838952724456787,-4.049343195343018,11.527931356048583
1788861746881506600,0.683506591796875,3.231723328399658,-3.5224691925048828,11.10191309814453
1788861746891513900,0.693513916015625,2.8694506896972656,-3.6360441337585447,11.406874534606933
1788861746901520000,0.703519775390625,1.1700164237976074,-4.600458489990234,11.866411615753172
1788861746911526700,0.713526611328125,-0.37334582138061523,-3.957615344238281,12.272677709960936
1788861746921533700,0.72353369140625,-2.3473650901794434,-2.1562778701782226,11.595417915344237
1788861746931540700,0.733540771484375,-3.227982388305664,-1.2005424949645995,10.757746609497069
1788861746941546800,0.743546630859375,-5.247341851043701,-1.5542857902526854,10.346542474365235
1788861746951553800,0.7535537109375,-8.712050928497314,0.29224224014282224,10.799345863342284
1788861746961560800,0.763560791015625,-7.042095270538329,-1.259050798034668,11.762862393951416
1788861746971567900,0.77356787109375,-4.639214629364013,-3.4473511154174803,11.640309196472167
1788861746981573600,0.78357373046875,-2.204461178588867,-3.648613692474365,10.082432103729248
1788861746991580400,0.793580322265625,0.5003881469726562,-3.9236476081848144,9.017311640167236
1788861747001587700,0.803587646484375,2.199523137664795,-4.6998178588867185,9.421333170318603
1788861747011594500,0.813594482421875,1.012597664642334,-2.986616933441162,6.786214968109131
1788861747021600500,0.8236005859375,-1.3334206871032714,-2.0886416732788087,5.326051230621338
1788861747031607600,0.833607666015625,-3.960159183502197,0.2353799507141113,2.2774843292236326
1788861747041614600,0.843614501953125,-3.0315082145690915,-1.3545195892333983,3.0793922477722164
1788861747051621400,0.853621337890625,4.159326834106445,-2.8830677116394043,4.579359587860107
1788861747061627600,0.863627685546875,5.3208139144897455,-1.581370196533203,2.441936055755615
1788861747071634400,0.873634521484375,-3.8391023620605464,-0.18704700469970703,3.0424317596435544
1788861747081641500,0.883641357421875,-9.148992731475829,2.1281460006713866,3.7138556877136226
1788861747091648500,0.8936484375,-6.609044045257568,2.408866145324707,2.2273557319641113
1788861747101654500,0.903654541015625,-3.5788825691223143,1.0012252067565917,0.9699509475708007
1788861747111661300,0.913661376953125,-2.4161983879089353,-0.1475426773071289,-0.6471826362609863
1788861747121668600,0.923668701171875,-1.8930653251647949,-0.7240963645935058,-1.744774459838867
1788861747131675400,0.93367529296875,-2.0190601875305174,-1.8716671478271483,1.2367547950744628
1788861747141681400,0.943681396484375,0.9446621925354003,-3.676745561981201,7.911190473175048
1788861747151688400,0.9536884765625,1.565358972930908,-6.888118176269531,15.531934357452391
1788861747161695500,0.963695556640625,-2.012925045776367,-7.985709999847412,16.406117238616943
1788861747171702500,0.97370263671875,-5.419425095367432,-9.623792848205566,16.61875227355957
1788861747181708500,0.98370849609375,-6.8411319686889644,-9.583839608001709,13.54145495223999
1788861747191715600,0.993715576171875,-5.142745166015625,-8.36444277496338,11.165509079742431
1788861747201722600,1.00372265625,-3.146280256652832,-7.753173163604736,11.134833370971679
1788861747211729400,1.0137294921875,-1.1297639083862303,-6.948272492980957,10.530297451782227
1788861747221736400,1.023736328125,-1.0640730003356933,-5.468805504608154,10.357914932250976
1788861747231742700,1.03374267578125,-2.439392216491699,-5.54167901763916,10.32424647140503
1788861747241749500,1.04374951171875,-3.4460043769836424,-7.19472562637329,9.75502502670288
1788861747251756500,1.053756591796875,-2.9405285514831543,-6.682815383911133,10.110264698028564
1788861747261763600,1.063763671875,2.899078935241699,-3.5277065086364745,8.365639875793457
1788861747271769600,1.07376953125,13.457508256530762,-7.2438067604064935,-2.161215911102295
1788861747281776400,1.0837763671875,13.665205250549315,-11.176432624816893,-9.140613025665283
1788861747291783700,1.09378369140625,3.9360675292968748,-7.89757345123291,-0.9781810157775879
1788861747301790500,1.10379052734375,-0.43888709182739255,-8.702923034667968,3.8150107078552242
1788861747311797500,1.113797607421875,-0.968454571533203,-9.908104295349121,4.450671248626708
1788861747321803500,1.123803466796875,1.574935779571533,-7.791031477355957,2.637961316680908
1788861747331810600,1.133810546875,2.0657471199035644,-7.165396656036377,1.9409493583679198
1788861747341817600,1.143817626953125,1.3690344367980956,-7.037157229614257,-0.10654197387695312
1788861747351824600,1.15382470703125,0.17357962036132812,-8.061725902557372,-1.795800882720947
1788861747361830400,1.163830322265625,-5.140799877166748,-11.61382334060669,-2.2158336364746094
1788861747371837700,1.173837646484375,-17.431583737182617,-19.724780014801023,-3.700986853790283
1788861747381844500,1.183844482421875,-15.559617314147948,-21.191078894042967,-5.354183100128173
1788861747391851500,1.1938515625,-5.14528900527954,-17.381754415130615,-3.923198695373535
1788861747401858600,1.203858642578125,-0.3372831588745117,-13.48309628677368,-0.781407566833496
1788861747411864600,1.213864501953125,-0.22520459365844725,-11.701062063598632,1.708412522125244
1788861747421871400,1.223871337890625,-0.4779425064086914,-9.747094233703613,2.01741417388916
1788861747431878700,1.233878662109375,-1.2451345008850097,-7.045686573028564,0.40192660369873046
1788861747441885400,1.243885498046875,-1.4372691841125487,-3.2353146308898926,0.45669396667480466
1788861747451891500,1.253891357421875,-2.4164976631164548,-0.1666962905883789,2.3786393493652342
1788861747461898500,1.2638984375,-3.3647511581420897,-3.1105168693542478,2.479195819091797
1788861747471905500,1.273905517578125,-4.490774126434326,-2.8981811096191405,2.2296002960205077
1788861747481912600,1.28391259765625,-4.5227965736389155,-3.0639795745849607,2.393004559326172
1788861747491919600,1.293919677734375,-2.9173347229003905,-3.563769171142578,2.940678189086914
1788861747501925400,1.30392529296875,-2.9513024589538572,-0.1671452033996582,2.4576480041503905
1788861747511932700,1.3139326171875,-2.0982184799194337,0.9656114570617675,1.6259622024536131
1788861747521939500,1.323939453125,-3.6168905204772948,-1.9042881454467773,0.47120881423950195
1788861747531946500,1.333946533203125,0.30346506042480464,-3.630806817626953,-0.3295020034790039
1788861747541953500,1.34395361328125,-0.47210663986206053,-7.250540452575684,-0.2979284690856933
1788861747551959600,1.35395947265625,-3.6358944961547848,-9.652223992919922,1.0975918235778808
1788861747561966300,1.36396630859375,-7.036857954406738,-13.36263801574707,3.8513726455688473
1788861747571973600,1.3739736328125,-8.213757707977294,-14.723592021942137,5.8734255851745605
1788861747581980400,1.38398046875,-4.6812627960205075,-14.879514405059814,5.928492223358154
1788861747591987700,1.39398779296875,-2.1185691940307616,-16.484826618194578,5.3387704269409175
1788861747601993500,1.403993408203125,0.5710170959472656,-14.515296477508544,4.765508766937256
1788861747612000500,1.41400048828125,-0.5802946273803711,-9.920973129272461,5.734412251281738
1788861747622007600,1.424007568359375,-2.1945850967407226,-6.865373260498046,6.420949577331543
1788861747632014600,1.4340146484375,-2.9109003059387204,-6.401945601654052,5.833771620178222
1788861747642021400,1.444021484375,-3.2013468948364254,-7.320720488739013,4.04769718170166
1788861747652027600,1.454027587890625,-1.8426374526977538,-3.5139398490905758,2.4179940391540526
1788861747662034400,1.464034423828125,-1.1550526634216307,-3.5372833152770995,1.5918448287963867
1788861747672041500,1.47404150390625,-2.229301020812988,-6.177040283203125,2.403030278778076
1788861747682048500,1.484048583984375,-1.439663385772705,-7.077709020233154,3.5509003372192383
1788861747692055600,1.4940556640625,-2.4967034187316894,-10.352677616119385,3.1956606658935547
1788861747702062600,1.5040625,-3.9770682327270506,-11.592574800872802,3.9240965209960934
1788861747712068600,1.514068603515625,-3.231872966003418,-10.236558835601807,5.539284815979004
1788861747722075400,1.524075439453125,-1.6476596549987792,-10.382006586456297,6.381445249938965
1788861747732082700,1.534082763671875,-0.9504980590820312,-9.69741454925537,4.6481928855896
1788861747742089500,1.54408935546875,-1.9096750991821287,-13.590087173461914,3.9209541313171385
1788861747752096500,1.554096435546875,-2.9542952110290526,-11.379490853118895,3.4057518615722655
1788861747762102500,1.5641025390625,-4.214842385101318,-14.763694899749755,4.7770308624267575
1788861747772109600,1.574109619140625,-3.7199908294677733,-13.746608106994628,4.971110834503174
1788861747782116400,1.584116455078125,-2.5781062751770016,-14.512453363037109,4.3828854141235345
1788861747792123600,1.59412353515625,-2.3225252479553222,-13.848810590362548,3.745129946899414
1788861747802130400,1.60413037109375,-3.226037099456787,-13.706205953979492,3.2296284019470214
1788861747812137700,1.6141376953125,-3.958812445068359,-14.175020566558837,3.0919618064880368
1788861747822143500,1.6241435546875,-3.155857063293457,-13.992462689971923,3.031957127380371
1788861747832150500,1.634150634765625,-2.7253496772766113,-13.820678720855712,2.5303718795776367
1788861747842157600,1.644157470703125,-3.2591070098876953,-13.206565995025635,1.6078560523986816
1788861747852164600,1.65416455078125,-3.3885435371398924,-15.170559544372558,1.4395137481689453
1788861747862171400,1.66417138671875,-3.8560114112854,-15.651794078063963,1.6297031425476074
1788861747872177700,1.674177734375,-3.7687726882934567,-13.906869980621337,2.1172224555969237
1788861747882184400,1.684184326171875,-3.328538858032226,-10.466851107788086,2.597110250854492
1788861747892191500,1.69419140625,-2.380584638214111,-7.088632565307617,3.5378818656921385
1788861747902198500,1.704198486328125,-1.8815432296752927,-3.955670055389404,4.546588952636719
1788861747912205600,1.71420556640625,-0.7989151664733887,-0.5755062240600586,5.663484027099609
1788861747922212600,1.724212646484375,0.48497547378540035,-0.3850175544738769,5.70732784500122
1788861747932218600,1.734218505859375,-0.38367081604003905,-1.4740800346374512,4.633678038024902
1788861747942225400,1.744225341796875,-0.9609726913452148,-4.808903672027587,3.2511762168884277
1788861747952232700,1.754232666015625,-1.8234838394165038,-7.585429409790039,3.0330045906066894
1788861747962239500,1.764239501953125,-2.5507225936889646,-10.749965454101561,3.301903364562988
1788861747972246500,1.77424658203125,-2.7207109115600585,-11.418695905303954,2.105550722503662
1788861747982253000,1.784253173828125,-2.568978381347656,-11.416600978851317,1.794603781890869
1788861747992259000,1.794259033203125,-2.4799440071105954,-11.17942537689209,1.997662010192871
1788861748002266000,1.80426611328125,-2.1059996353149413,-10.513089127349852,2.0322282966613767
1788861748012273200,1.814273193359375,-1.943493197631836,-9.6794580368042,1.8900725730895995
1788861748022280000,1.824280029296875,-1.961300072479248,-9.049932637786865,1.9125182136535643
1788861748032287200,1.834287353515625,-1.9167080665588379,-8.743624462890624,2.1562778701782226
1788861748042294000,1.8442939453125,-1.8592472267150877,-8.607304605865478,2.354547695159912
1788861748052300000,1.854300048828125,-1.786224076080322,-8.528595226287841,2.715473595428467
1788861748062307000,1.86430712890625,-1.9340660285949707,-8.393173194885254,3.1516672103881835
1788861748072314000,1.874314208984375,-2.2939444656372068,-8.371475742340087,3.352630512237549
1788861748082321200,1.884321044921875,-2.6301801612854003,-8.530241239929198,3.4859576171874997
1788861748092328200,1.894328125,-3.0627824737548828,-8.674491889953613,3.73480495223999
1788861748102335000,1.9043349609375,-3.436876483154297,-8.985139555358886,4.216189123535156
1788861748112341200,1.91434130859375,-3.461566687774658,-9.296086495971679,4.66689758605957
1788861748122348000,1.92434814453125,-3.3553239891052242,-9.447669388580321,4.8618753837585444
1788861748132355000,1.93435498046875,-3.3831565834045407,-9.371054935455321,4.579509225463867
1788861748142362000,1.944362060546875,-2.967463320159912,-9.095572106933593,3.9246950714111324
1788861748152369000,1.954368896484375,-2.2008698760986327,-8.751255980682373,3.4139819297790526
1788861748162376200,1.964376220703125,-2.0069395416259765,-8.168866426849364,3.2562638954162595
1788861748172382200,1.97438232421875,-2.1371242568969726,-7.871386870574951,3.391386651611328
1788861748182389000,1.984388916015625,-2.21523508605957,-8.039579537200927,3.4388217720031737
1788861748192396300,1.994396240234375,-2.49011936416626,-8.212859882354735,3.3788170928955075
1788861748202403000,2.004403076171875,-2.5234885498046875,-8.339154019927978,3.553294538879394
1788861748212409900,2.014409912109375,-2.4856302360534666,-8.409633331298828,4.017171110534668
1788861748222417200,2.024417236328125,-2.662801158905029,-8.513631465911864,4.267963734436035
1788861748232424000,2.034423828125,-3.2652421516418455,-8.641721254730225,3.9989153228759764
1788861748242430000,2.044429931640625,-3.742436470031738,-8.876203379821776,3.6879683822631835
1788861748252437000,2.05443701171875,-3.752162914276123,-9.130587306213378,3.7351042274475095
1788861748262444000,2.064444091796875,-3.358765653991699,-9.025092795562744,3.738096979522705
1788861748272451000,2.074451171875,-3.122487877655029,-8.661922331237793,3.395875779724121
1788861748282458000,2.0844580078125,-2.7334301078796384,-8.593986859130858,2.865260836791992
1788861748292465000,2.09446484375,-2.5938182235717773,-8.7463179397583,2.329857490539551
1788861748302472200,2.10447216796875,-2.6226982810974118,-8.908076189422607,2.0054431655883787
1788861748312478000,2.11447802734375,-2.9146412460327147,-8.987533757019042,2.233191598510742
1788861748322485000,2.124485107421875,-3.296217135620117,-9.087790951538086,2.9589339767456053
1788861748332492000,2.134491943359375,-3.8344635963439937,-9.010278672790527,3.4886510940551756
1788861748342499000,2.1444990234375,-3.9549218673706052,-8.796596174621582,3.835062146759033
1788861748352506000,2.154506103515625,-3.69036258392334,-8.677335004425048,4.177881896972656
1788861748362513200,2.16451318359375,-3.39003991317749,-8.674641527557373,4.427178144836425
1788861748372519000,2.174518798828125,-3.2371102821350095,-8.606855693054198,4.2223242652893065
1788861748382526200,2.184526123046875,-3.4376246711730953,-8.302343169403075,3.904793270111084
1788861748392533000,2.194532958984375,-3.5193268028259275,-8.064718654632568,3.7502176254272457
1788861748402540000,2.2045400390625,-3.2326211540222167,-7.998279558563232,3.733458213806152
1788861748412547000,2.214547119140625,-3.094505645751953,-7.964162184906005,3.8582559753417964
1788861748422554000,2.22455419921875,-3.573944528198242,-8.17814395828247,3.9196073928833006
1788861748432561200,2.23456103515625,-4.114884465789794,-8.806322618865966,4.150947128295898
1788861748442567200,2.244567138671875,-4.320187258148193,-9.297283596801757,4.653430201721191
1788861748452574000,2.254573974609375,-4.037671462249755,-9.312995545196532,5.129577056884766
1788861748462581200,2.264581298828125,-3.566163372802734,-8.813205948638915,5.140949514770507
1788861748472588000,2.274588134765625,-2.9109003059387204,-8.155399042510986,4.622006304931641
1788861748482595000,2.284594970703125,-2.365321602630615,-7.696460511779785,4.112340626525879
1788861748492602000,2.29460205078125,-2.224362979888916,-7.472153743743896,4.105756571960449
1788861748502609000,2.30460888671875,-2.249053184509277,-7.485920403289795,4.489277750396728
1788861748512616200,2.3146162109375,-2.7919384109497067,-7.626579750823974,4.674678741455078
1788861748522622200,2.324622314453125,-3.5166333259582516,-8.034641496276855,4.573074808502197
1788861748532629000,2.33462890625,-3.8959646514892574,-8.708010713195801,4.3171945060729975
1788861748542636000,2.344635986328125,-4.111891713714599,-9.207650672149658,3.7924154296875
1788861748552643000,2.35464306640625,-3.9175124664306638,-9.530269345855713,3.1521161231994625
1788861748562649900,2.36464990234375,-3.6267666023254392,-9.680355862426758,2.600402278137207
1788861748572657200,2.3746572265625,-3.3699884742736814,-9.743802206420899,2.166004314422607
1788861748582664000,2.384663818359375,-3.343053705596924,-9.738564890289306,2.1471499763488766
1788861748592670000,2.394669921875,-3.3906384635925293,-9.917531464385986,2.6741736167907715
1788861748602677000,2.404677001953125,-3.4563293716430663,-9.964218396759033,3.199251968383789
1788861748612684000,2.41468408203125,-3.573196340179443,-9.613168578338623,3.4835634155273434
1788861748622691000,2.424691162109375,-3.6604350631713864,-9.188048146057127,3.8563106864929195
1788861748632698000,2.434697998046875,-3.911676599884033,-8.75260271911621,4.315249217224121
1788861748642705000,2.444704833984375,-4.049492832946777,-8.264933768463134,4.782417816162109
1788861748652712200,2.454712158203125,-3.8687306076049803,-8.112153775024414,5.110124168395996
1788861748662719000,2.464718994140625,-4.004751189422607,-8.506299223327636,5.061791222381592
1788861748672725000,2.47472509765625,-4.2335470855712884,-9.08494783706665,5.136909299468994
1788861748682732000,2.48473193359375,-4.288464086151123,-9.32032778778076,5.319167900848388
1788861748692739000,2.494739013671875,-4.6444519454956055,-8.92528451385498,5.216366867065429
1788861748702746000,2.50474609375,-4.778227963256835,-8.415618835449218,4.868160163116455
1788861748712753200,2.514753173828125,-4.222473902893066,-8.404994565582275,4.482394420623779
1788861748722760000,2.524760009765625,-3.5462615715026855,-8.754847283172607,4.101417081451416
1788861748732767200,2.534767333984375,-2.798821740722656,-9.447070838165283,3.921702319335937
1788861748742773000,2.54477294921875,-2.7774235633850095,-9.935787252044678,3.873219735717773
1788861748752780000,2.554780029296875,-3.520374266052246,-10.081833553314208,3.836408885192871
1788861748762787000,2.564787109375,-4.289960462188721,-10.088118332672119,3.7816415222167965
1788861748772794000,2.574794189453125,-5.2439001861572265,-9.898228213500976,3.935319341278076
1788861748782801200,2.58480126953125,-6.98403588027954,-9.88386300354004,4.598363563537597
1788861748792808000,2.594807861328125,-8.971821808624266,-10.340706607818603,5.452943918609619
1788861748802815000,2.60481494140625,-9.658808047485351,-11.499799486541747,5.668422068023681
1788861748812822000,2.614822021484375,-7.8906901214599605,-13.226318158721924,5.1325698089599605
1788861748822829000,2.6248291015625,-5.045480723571777,-14.146589421844482,3.4051533111572265
1788861748832835000,2.6348349609375,-2.442684243774414,-14.148085797882079,1.5005658905029295
1788861748842842000,2.644842041015625,-0.9564835632324218,-13.538162924957275,0.7873930709838867
1788861748852849000,2.654848876953125,-0.7987655288696288,-12.170325588989257,1.0085574493408203
1788861748862856200,2.664856201171875,-0.548421817779541,-10.67514665222168,2.1059996353149413
1788861748872863000,2.674863037109375,-0.26126725616455077,-9.527426231384277,3.209277687835693
1788861748882870000,2.6848701171875,-1.3002011390686035,-9.128342742156981,4.088099334716796
1788861748892877000,2.694876953125,-3.909132760620117,-9.79333225326538,5.322609565734863
1788861748902884000,2.704884033203125,-6.985083343505859,-10.925640000915527,6.231807646179199
1788861748912889900,2.714889892578125,-8.514828566741944,-11.986420973968505,6.734739632415771
1788861748922897200,2.724897216796875,-8.341398583984375,-12.506112371826172,6.954407634735107
1788861748932904000,2.734904052734375,-7.240065820312499,-12.39208851776123,6.906373963928222
1788861748942911200,2.7449111328125,-5.0951604080200195,-11.558158152008057,6.902932299041748
1788861748952918000,2.75491796875,-3.5889082885742187,-10.714800617218017,7.424568985748291
1788861748962925000,2.764925048828125,-4.393659321594238,-9.913790524291992,7.68044928817749
1788861748972932000,2.77493212890625,-5.032911164855957,-8.858546142578124,7.401075881958008
1788861748982939600,2.784939697265625,-4.5802574134826655,-7.61640439376831,6.640916854858398
1788861748992947000,2.794947021484375,-4.077923977661133,-6.545298426055908,5.675155760192871
1788861749002952700,2.80495263671875,-3.921702319335937,-6.035632747650146,4.609736021423339
1788861749012959700,2.814959716796875,-4.105906209564209,-6.143371822357177,3.285293590545654
1788861749022966800,2.824966796875,-4.422988291931152,-6.55023646697998,1.8508675209045409
1788861749032973800,2.834973876953125,-3.9261914474487303,-6.953509809112548,0.7591115638732909
1788861749042980600,2.844980712890625,-3.7597944320678707,-7.20774409790039,0.31109657821655273
1788861749052988000,2.85498779296875,-4.789750058746337,-7.2255509727478024,-0.17776947326660156
1788861749062994700,2.86499462890625,-5.6486699043273925,-6.834547914123535,-0.1970727241516113
1788861749073002000,2.875001953125,-6.232256558990478,-5.972186403656005,0.519092847442627
1788861749083008800,2.8850087890625,-5.373635988616943,-4.996100314331055,1.075744733428955
1788861749093015600,2.895015625,-4.6273932586669915,-3.9255928970336913,1.1620856307983398
1788861749103021800,2.905021728515625,-4.486284998321533,-2.767697119140625,0.8764274452209472
1788861749113028900,2.91502880859375,-4.491372676849365,-1.725620846557617,0.7333738960266113
1788861749123035600,2.92503564453125,-4.516062881469726,-1.159392153930664,0.3446154014587402
1788861749133042700,2.935042724609375,-3.9451954231262203,-0.7281365798950195,-0.4074631950378418
1788861749143049700,2.9450498046875,-4.270507573699951,-0.04159925384521484,-0.9469067565917968
1788861749153056800,2.955056884765625,-5.455188482666015,0.3838204536437988,-1.2125135032653809
1788861749163063800,2.965063720703125,-5.718251390075683,0.4821323593139648,-1.0814309623718261
1788861749173070600,2.975070556640625,-6.55667088394165,0.014065934753417967,0.07317278823852538
1788861749183078000,2.985077880859375,-7.752574613189696,-1.3201029403686522,1.5333365257263183
1788861749193084700,2.995084716796875,-8.501510820007324,-2.5665841796874997,2.5125650047302246
1788861749203090700,3.005090576171875,-7.037456504821777,-2.7603648765563964,2.47066647567749
1788861749213097700,3.01509765625,-5.223998384857177,-1.9473837753295897,1.6051625755310057
1788861749223104800,3.025104736328125,-5.617545282745361,-1.0027215827941893,1.5973814201354979
1788861749233111800,3.03511181640625,-7.269544428253173,-1.0322001907348632,2.422183892059326
1788861749243118800,3.045118896484375,-9.73572177581787,-2.479794369506836,2.9721020858764646
1788861749253125600,3.055125732421875,-11.001506266021728,-3.04527487411499,3.3699884742736814
1788861749263133000,3.0651328125,-11.135581558990477,-2.9864672958374023,3.8703766212463377
1788861749273139700,3.0751396484375,-10.603320602416991,-3.187430597686767,3.7849335494995113
1788861749283146800,3.085146728515625,-10.109067597198486,-3.500472464752197,3.961655559539795
1788861749293153800,3.09515380859375,-10.446051480865478,-4.274697426605225,5.250484240722656
1788861749303159800,3.105159912109375,-11.360486877441405,-5.194370139312744,6.0160302215576165
1788861749313166800,3.115166748046875,-10.056694435882568,-5.325153404998779,4.4479777717590325
1788861749323174000,3.125173828125,-8.144325859832763,-4.1952398590087885,1.9788076721191405
1788861749333180700,3.1351806640625,-9.220519506072998,-2.742258726501465,1.399560507965088
1788861749343187700,3.145187744140625,-10.05459950942993,-1.962646810913086,1.262193187713623
1788861749353194800,3.15519482421875,-8.688707462310791,-2.0024504135131833,0.6994061599731445
1788861749363201800,3.165201904296875,-8.426243105316162,-1.5970821449279784,1.2764087600708007
1788861749373208800,3.175208740234375,-8.860192156219481,-1.1013327636718748,2.632873638153076
1788861749383215600,3.185215576171875,-9.096469932556152,-0.9290998817443847,3.1955110282897947
1788861749393223000,3.195222900390625,-8.713696942138672,-1.0170867927551268,3.0918121688842772
1788861749403229700,3.205229736328125,-8.105719358062744,-0.9549871871948241,2.846855411529541
1788861749413236700,3.21523681640625,-9.727042794799804,-0.8857049766540527,2.7829601547241207
1788861749423242800,3.22524267578125,-9.495104508972167,-1.1566986770629881,2.7359739471435547
1788861749433249800,3.235249755859375,-9.986664037322997,-1.259050798034668,2.7635072662353513
1788861749443256800,3.2452568359375,-9.10993731689453,-1.30229606552124,2.832639839172363
1788861749453264000,3.255263916015625,-8.290671436309815,-1.3223475044250488,2.6135703872680662
1788861749463270700,3.265270751953125,-8.167669326019286,-1.3907318893432616,2.1619640991210938
1788861749473277700,3.275277587890625,-8.007706727600096,-1.352873575592041,1.827823329925537
1788861749483284700,3.28528466796875,-7.811082916259765,-0.982520506286621,1.5164274765014647
1788861749493291800,3.295291748046875,-7.422474059295654,-0.4282628219604492,1.4668974296569823
1788861749503298800,3.305298828125,-7.442675135803222,0.018555062866210937,1.6385317611694334
1788861749513305600,3.3153056640625,-7.652317418670654,0.08259995727539061,1.646462554168701
1788861749523313000,3.32531298828125,-8.601917652130126,-0.1632546257019043,1.2880804931640624
1788861749533319700,3.335319580078125,-8.789862482452392,-0.46507367248535153,1.5062521194458007
1788861749543325700,3.34532568359375,-8.034791133880615,-0.8889970039367675,2.2004209632873533
1788861749553332700,3.355332763671875,-8.405593115997315,-1.6277578536987303,3.0253730728149413
1788861749563339800,3.36533984375,-8.56750100326538,-2.3123498908996583,3.6694133193969725
1788861749573346800,3.375346923828125,-9.15587606124878,-2.580650114440918,3.9068881965637203
1788861749583353900,3.385353759765625,-8.965686666870116,-2.344821250915527,3.8476317054748534
1788861749593360600,3.395360595703125,-8.604311853790282,-1.825279490661621,3.9291841995239256
1788861749603367700,3.40536767578125,-8.385242401885986,-1.389235513305664,4.160374297332764
1788861749613374700,3.415374755859375,-8.179191421508788,-1.3820529083251953,3.9996635108947753
1788861749623381800,3.4253818359375,-8.5432597114563,-1.6443676277160644,3.483413777923584
1788861749633388800,3.435388916015625,-9.148394181060791,-1.8836381561279296,2.854636566925049
1788861749643395600,3.4453955078125,-9.101856886291504,-1.8561048370361326,2.516754857635498
1788861749653403000,3.45540283203125,-8.923488862609863,-1.79400523147583,2.320879234313965
1788861749663409700,3.46540966796875,-8.527847038269043,-1.9774609336853026,2.3376386459350584
1788861749673415700,3.475415771484375,-8.317007654571533,-2.1724387313842772,2.5960627876281737
1788861749683422700,3.485422607421875,-8.379406535339355,-2.321328147125244,3.227234200286865
1788861749693429800,3.4954296875,-7.675211972045898,-2.45151286239624,3.909132760620117
1788861749703436800,3.505436767578125,-7.498190686798095,-2.405723755645752,4.387673817443847
1788861749713443800,3.51544384765625,-7.490708806610107,-2.2839187461853028,4.823717794799804
1788861749723450600,3.52545068359375,-6.7924997474670405,-2.0950760902404784,4.89644167022705
1788861749733458000,3.5354580078125,-6.488735411834717,-1.9490297889709471,4.530577729034423
1788861749743464700,3.545464599609375,-7.129034718322753,-2.0760721145629883,4.192995294952392
1788861749753471700,3.5554716796875,-7.4962453979492185,-2.4533085136413573,4.169651828765869
1788861749763478800,3.565478759765625,-7.181108604431152,-2.709338453674316,4.3454760131835934
1788861749773485600,3.575485595703125,-6.855048265838622,-2.751087345123291,4.450371973419189
1788861749783492900,3.585492919921875,-6.863577609252929,-2.684797886657715,4.4671313850402825
1788861749793499600,3.595499755859375,-7.09925683517456,-2.5604490379333495,4.455310014343262
1788861749803507000,3.6055068359375,-7.181407879638671,-2.4054244804382323,4.26422279434204
1788861749813513700,3.615513671875,-7.246799512481689,-2.270900274658203,4.034529072570801
1788861749823519700,3.625519775390625,-7.589170349884033,-2.20251588973999,3.9565678810119627
1788861749833526800,3.63552685546875,-7.727136220550537,-2.2354361625671384,4.12446127243042
1788861749843533800,3.645533935546875,-7.409754862976074,-2.461837857055664,4.45635747756958
1788861749853540600,3.65554052734375,-7.314435709381103,-2.895786907958984,4.64774397277832
1788861749863548000,3.6655478515625,-7.643937712860107,-3.509600358581543,4.6712370765686035
1788861749873554700,3.6755546875,-7.912537211608886,-4.112939176940918,4.694879817962646
1788861749883561700,3.685561767578125,-7.986158912658691,-4.582501977539062,4.72450806350708
1788861749893568800,3.69556884765625,-7.985709999847412,-4.910357967376709,4.947468093109131
1788861749903575600,3.705575439453125,-8.023568313598632,-4.987570970916748,5.353883824920654
1788861749913582800,3.715582763671875,-7.701248915100098,-5.0562546310424805,5.790227077484131
1788861749923589600,3.725589599609375,-7.223904959106445,-5.123890827941894,6.075286712646484
1788861749933597000,3.735596923828125,-6.868814925384521,-5.322160652923584,6.346280413055419
1788861749943603700,3.745603759765625,-6.538265458679199,-5.677549961853027,6.842927619934081
1788861749953610800,3.75561083984375,-6.556221971130371,-6.125714585113525,7.153276010131836
1788861749963617800,3.76561767578125,-6.7000237083435055,-6.474220564270019,6.8673185493469235
1788861749973624800,3.775624755859375,-6.7368345588684075,-6.456862602233886,6.384587639617919
1788861749983631600,3.785631591796875,-6.8034232925415035,-6.149955876922607,5.754463690185546
1788861749993638000,3.795637939453125,-6.90787033996582,-5.893177748870849,5.141847340393066
1788861750003644700,3.805644775390625,-7.130231819152832,-5.948992575073242,4.843769233703613
1788861750013651700,3.815651611328125,-6.739228760528564,-6.217741711425781,5.069572377777099
1788861750023658800,3.82565869140625,-6.474220564270019,-6.41002603225708,5.128828868865966
1788861750033665500,3.83566552734375,-6.125116034698486,-6.44219811706543,4.827309097290039
1788861750043672800,3.8456728515625,-5.536591339111328,-6.2036757766723625,4.524891500091552
1788861750053679600,3.8556796875,-4.835988078308105,-5.889736083984375,4.154538430786133
1788861750063686700,3.865686767578125,-3.9043443572998044,-5.759401731109619,3.7234324943542476
1788861750073693700,3.875693603515625,-3.4700960311889646,-5.878213988494872,3.2414497726440428
1788861750083700700,3.88570068359375,-3.9481881752014156,-6.290016674041747,2.8483517875671387
1788861750093707800,3.895707763671875,-4.751592469787598,-7.026084046936035,2.765602192687988
1788861750103714800,3.90571484375,-5.44591095123291,-8.003067961883545,3.234865718078613
1788861750113721600,3.9157216796875,-5.965003798675537,-9.078962332916259,3.956118968200683
1788861750123728600,3.925728759765625,-6.505943736267089,-10.135104540252685,4.393509683990478
1788861750133735700,3.935735595703125,-6.77379504699707,-11.100865634918213,4.615272612762451
1788861750143742700,3.94574267578125,-6.464793395233154,-11.612476602172851,4.984129306030273
1788861750153749800,3.955749755859375,-5.987748714447021,-11.342530364990234,5.424512773895263
1788861750163756500,3.965756591796875,-5.712714798736572,-10.2272813041687,5.498733025360107
1788861750173763800,3.975763916015625,-5.37573091506958,-9.157372437286377,5.472097531890869
1788861750183770600,3.9857705078125,-5.5084594696044915,-8.437465925598143,5.104138664245605
1788861750193778000,3.99577783203125,-5.508010556793213,-8.277503327178955,4.7022120605468745
1788861750203783700,4.00578369140625,-5.118354236602783,-8.639027777862548,4.989815534973144
1788861750213790700,4.015790771484375,-5.709572409057617,-9.144353965759278,5.5918076148986815
1788861750223797800,4.0257978515625,-6.721122610473633,-9.472359593200682,5.883301667022705
1788861750233804800,4.0358046875,-6.968323931884766,-9.846752877807617,6.119130530548095
1788861750243811600,4.0458115234375,-6.77379504699707,-10.116549477386474,6.074388887023925
1788861750253818600,4.055818603515625,-6.086359895324707,-10.324396109008788,5.706878932189941
1788861750263825700,4.06582568359375,-5.29926609954834,-10.46415763092041,5.195267964935303
1788861750273832700,4.075832763671875,-4.697274019622802,-10.619331826019286,4.722712412261963
1788861750283839700,4.08583984375,-4.279036917114258,-10.660332529449462,4.406677793121338
1788861750293846500,4.095846435546875,-4.197783698272705,-10.594043070983886,4.342034348297119
1788861750303853800,4.105853759765625,-4.474014714813232,-10.466102919769286,4.529230990600586
1788861750313860600,4.115860595703125,-5.130624520111084,-10.21545993347168,4.891802904510498
1788861750323868000,4.125867919921875,-6.010643267822266,-9.734075762176513,5.004180744934081
1788861750333874700,4.135874755859375,-6.845172183990478,-9.233388339996337,4.673780915832519
1788861750343881700,4.1458818359375,-7.2444053108215325,-8.640673791503906,4.090792811584472
1788861750353888800,4.155888671875,-7.117063710021972,-7.933785751342773,3.8973113899230953
1788861750363895600,4.1658955078125,-6.53721799545288,-7.152827097320556,4.07971962890625
1788861750373902800,4.17590283203125,-5.934477727508544,-6.35884997177124,4.1469069129943845
1788861750383909600,4.18590966796875,-5.974580605316162,-5.773766941070556,3.825485340118408
1788861750393916700,4.195916748046875,-5.7998038841247554,-5.8479871925354,3.284844677734375
1788861750403923700,4.205923828125,-4.594173710632324,-6.273406900024414,2.6415526191711423
1788861750413930800,4.2159306640625,-3.050362552642822,-6.146963124847412,2.384475215911865
1788861750423937800,4.225937744140625,-1.7429788085937499,-5.543474668884277,3.0259716232299803
1788861750433944600,4.235944580078125,-1.393724641418457,-4.774038110351563,4.41775097579956
1788861750443951600,4.24595166015625,-2.3425766868591307,-4.056675437927246,5.894524487304687
1788861750453958700,4.255958740234375,-3.837605986022949,-3.723881407165527,7.072471704101562
1788861750463965700,4.265965576171875,-5.430348640441895,-3.773710729217529,7.73791012802124
1788861750473972700,4.27597265625,-6.62670128250122,-3.9547722297668453,7.87782128753662
1788861750483979800,4.285979736328125,-7.334487148284912,-4.079121078491211,7.6479779281616205
1788861750493986600,4.295986572265625,-7.921814743041992,-4.263324968719482,7.139210075378418
1788861750503992800,4.305992919921875,-8.378508709716796,-4.531774829864502,6.477512591552734
1788861750513999600,4.31599951171875,-8.35052647781372,-4.471021962738037,5.8357169090270995
1788861750524006700,4.326006591796875,-7.768585836791992,-4.207959055328369,5.525967069244384
1788861750534013700,4.336013671875,-7.013514488220214,-4.274996701812744,5.615450356292724
1788861750544020700,4.346020751953125,-6.543502774810791,-4.538957434844971,5.664830765533447
1788861750554027800,4.35602783203125,-6.4837973709106445,-4.642955569458008,5.606322462463378
1788861750564034800,4.366034912109375,-6.318747093963623,-4.554370108032226,5.793968017578124
1788861750574041600,4.37604150390625,-6.289418123626708,-4.529081352996826,6.27595073928833
1788861750584048600,4.386048583984375,-6.897545345306396,-4.644900858306885,6.6048541923522945
1788861750594055700,4.3960556640625,-7.621342434692382,-4.8889597900390624,6.582857464599609
1788861750604062700,4.406062744140625,-7.710975359344482,-4.975599962615966,6.217592073822021
1788861750614069800,4.41606982421875,-7.314136434173584,-4.750545006561279,5.640888748931885
1788861750624076500,4.42607666015625,-7.167341944885253,-4.2220249900817866,5.084087225341796
1788861750634083800,4.436083740234375,-7.681496751403808,-3.5549405525207516,5.0680760017395015
1788861750644090600,4.446090576171875,-8.145672598266602,-3.066373776245117,5.855618710327148
1788861750654098000,4.456097900390625,-7.368604521942138,-2.8419173706054686,6.759579474639892
1788861750664104700,4.466104736328125,-6.34613077545166,-2.8579285942077637,7.0184525291442865
1788861750674111500,4.476111572265625,-6.477362953948974,-2.919429649353027,6.635829176330566
1788861750684118800,4.486118896484375,-6.828861685180664,-2.8853122756958007,5.902904193115234
1788861750694125600,4.49612548828125,-6.93959351196289,-2.9673136825561524,5.28654690322876
1788861750704132900,4.5061328125,-7.4503066535949705,-3.2800562744140622,5.0309658760070795
1788861750714139600,4.5161396484375,-7.800309008789062,-3.7382466171264648,5.10698177871704
1788861750724146700,4.526146728515625,-7.045836210632324,-4.387973092651367,5.019892693328857
1788861750734153700,4.53615380859375,-6.496366929626465,-4.972756848144531,4.434660025024414
1788861750744160800,4.546160888671875,-6.612485710144043,-5.1608513160705565,3.7858313751220702
1788861750754167800,4.556167724609375,-7.249941902160644,-5.0942625823974605,3.4478000282287597
1788861750764174600,4.566174560546875,-7.611316715240478,-4.912901806640625,3.413682654571533
1788861750774181600,4.576181640625,-7.632714892578124,-4.726004439544678,3.6649241912841797
1788861750784188700,4.586188720703125,-8.202684525299071,-4.76266565246582,3.892373348999023
1788861750794195700,4.59619580078125,-8.284087381744385,-4.751742107391357,3.806182089233398
1788861750804202800,4.60620263671875,-7.7407532424926755,-4.552275181579589,3.5691561248779293
1788861750814209800,4.616209716796875,-7.6671315414428705,-4.349665866088867,3.2659903396606444
1788861750824216600,4.626216552734375,-7.331494396209717,-4.0252515411376955,3.193565739440918
1788861750834223900,4.636223876953125,-7.429507026672363,-3.4980782630920406,3.5621231575012207
1788861750844230700,4.646230712890625,-8.022520850372313,-3.0816368118286133,3.9463925239562987
1788861750854237700,4.65623779296875,-8.814403049468993,-2.864811923980713,3.782240072631836
1788861750864244700,4.66624462890625,-9.136872085571289,-2.785503993988037,3.1630396682739255
1788861750874251500,4.67625146484375,-9.00803410873413,-2.7557261108398436,2.697367445373535
1788861750884258800,4.6862587890625,-9.608829087829589,-2.654720728302002,2.985419832611084
1788861750894265600,4.696265625,-9.349507120513916,-2.6225486434936522,3.735553140258789
1788861750904273000,4.70627294921875,-8.290970711517334,-2.918980736541748,4.511124840545654
1788861750914279700,4.71627978515625,-7.59755005569458,-3.4572271972656248,5.129128144073486
1788861750924286700,4.72628662109375,-7.20145931854248,-4.1103953376770015,5.1611505912780755
1788861750934293800,4.736293701171875,-7.108235091400146,-4.412064746856689,3.8150107078552242
1788861750944300500,4.746300537109375,-6.770503019714355,-4.198082973480225,1.6314987937927246
1788861750954307800,4.756307861328125,-7.200711130523681,-3.665073828887939,0.2284966209411621
1788861750964314600,4.766314697265625,-7.607276499938965,-3.036296617889404,0.3624222763061523
1788861750974321700,4.77632177734375,-7.845200289916992,-2.2171803749084473,0.9569324760437011
1788861750984328000,4.786327880859375,-8.086116831970214,-1.6109984420776366,1.5427636947631835
1788861750994335000,4.7963349609375,-8.509291975402832,-1.4547767837524412,2.2726959259033204
1788861751004342000,4.806342041015625,-8.289175060272216,-1.5322890624999999,3.034052053833008
1788861751014349000,4.81634912109375,-7.879916213989257,-1.8351555725097655,3.4976293502807616
1788861751024356000,4.826356201171875,-7.879467301177978,-2.146401788330078,3.519027527618408
1788861751034363100,4.836363037109375,-8.691251301574706,-2.0561703132629394,2.694973243713379
1788861751044370000,4.846369873046875,-8.705017961120605,-1.4223054237365722,1.7344494651794433
1788861751054377000,4.856376953125,-7.799411183166503,-0.5192424850463867,1.6929998489379883
1788861751064384000,4.866384033203125,-6.823624369049072,-0.06344634399414062,2.3036709098815917
1788861751074391000,4.87639111328125,-6.4269350814819335,-0.056712651824951166,2.684648249053955
1788861751084398000,4.886398193359375,-6.423643054199219,-0.31004911499023435,2.8290485366821287
1788861751094404900,4.89640478515625,-6.553079581451415,-0.842758984375,2.722207287597656
1788861751104412200,4.906412109375,-6.60126288986206,-1.2921207084655761,2.0509329971313477
1788861751114419000,4.9164189453125,-6.602160715484619,-1.357961254119873,1.5140332748413086
1788861751124426200,4.92642626953125,-6.500856057739258,-1.173458088684082,1.889025109863281
1788861751134433000,4.93643310546875,-6.46718759689331,-1.0380360572814942,2.635417477416992
1788861751144439800,4.946439697265625,-6.201281575012207,-1.0500070655822753,3.1004911499023438
1788861751154447000,4.956447021484375,-6.21190584487915,-1.1308113716125487,3.4008138206481933
1788861751164454000,4.966453857421875,-6.682965021514892,-1.295412735748291,3.5691561248779293
1788861751174461200,4.976461181640625,-6.691943277740478,-1.3157634498596191,3.6553473846435547
1788861751184468000,4.986468017578125,-6.188113465881347,-1.2229881355285643,3.951180927276611
1788861751194475000,4.99647509765625,-5.68203908996582,-1.4059949249267578,4.378246648406982
1788861751204482000,5.00648193359375,-5.964854161071777,-1.9684826774597166,4.58429762878418
1788861751214489000,5.016489013671875,-6.979546752166748,-2.7678467567443845,4.354454269409179
1788861751224496000,5.02649609375,-7.546972545623779,-3.5028666664123533,4.021360963439941
1788861751234503000,5.0365029296875,-7.656956184387207,-4.152293866729736,4.249857584381103
1788861751244510000,5.046510009765625,-7.494150471496582,-4.747103341674804,4.87115291519165
1788861751254517000,5.05651708984375,-7.228094812011718,-5.206939698028564,5.0297687751770015
1788861751264524000,5.06652392578125,-7.127687979888916,-5.521178665924072,4.818480478668213
1788861751274531000,5.076531005859375,-7.447912451934814,-5.648520266723632,4.489277750396728
1788861751284538000,5.0865380859375,-7.415740367126465,-5.5157917121887206,4.2782887290954585
1788861751294545000,5.096544921875,-7.154622748565673,-5.14573791809082,4.3053731353759765
1788861751304552200,5.10655224609375,-6.937947498321533,-4.821173955535889,4.689492864227295
1788861751314559000,5.11655908203125,-6.813897924804687,-4.6636055587768555,5.234173741912842
1788861751324566000,5.12656591796875,-7.223605683898925,-4.694430905151367,5.412691403198242
1788861751334573000,5.136572998046875,-6.99750326461792,-5.0757075195312495,5.360018966674804
1788861751344579800,5.146579833984375,-6.6133835357666015,-5.616946732330322,5.339817890167236
1788861751354587100,5.156587158203125,-6.511330690002441,-6.101772568511962,5.514295336151123
1788861751364594000,5.166593994140625,-6.413318059539795,-6.4846951965332025,5.792172366333007
1788861751374601200,5.176601318359375,-6.338648895263671,-6.922834100341796,5.919065054321289
1788861751384608000,5.18660791015625,-6.501304970550537,-7.485621128082275,5.646724615478515
1788861751394615000,5.196614990234375,-6.666654522705078,-8.053944747161864,5.2831052383422845
1788861751404622000,5.2066220703125,-6.589890431976318,-8.491934013366699,5.180154566955566
1788861751414628900,5.21662890625,-6.73518854522705,-8.730456353759765,5.379322217559814
1788861751424636200,5.22663623046875,-7.134571309661865,-9.024194969940185,5.720196678924561
1788861751434643000,5.236642822265625,-7.167641220092773,-9.528922607421874,6.2675710334777825
1788861751444650000,5.24664990234375,-7.210287937164306,-9.8572275100708,6.5963248489379875
1788861751454657000,5.256656982421875,-7.607875050354004,-9.72360112991333,6.513425616455078
1788861751464664000,5.2666640625,-7.85941586227417,-9.364620518493652,6.330867739868164
1788861751474671000,5.276671142578125,-7.634360906219482,-8.954912759399413,6.301838044738769
1788861751484678100,5.28667822265625,-6.797288150787353,-8.41442173461914,6.458658253479004
1788861751494685000,5.296684814453125,-5.961113220977783,-7.94171654434204,6.583904927825928
1788861751504692000,5.30669189453125,-5.875819786834716,-7.7118731849670406,5.993584580993652
1788861751514700000,5.316699951171875,-5.597793119049072,-7.767688011169433,5.011064074707031
1788861751524707000,5.32670703125,-5.033360077667236,-7.869591219329833,4.508431363677978
1788861751534713900,5.3367138671875,-4.90946014175415,-8.141033832550049,4.59671754989624
1788861751544721200,5.34672119140625,-5.247042575836181,-8.480411917877197,4.852597852325439
1788861751554728000,5.35672802734375,-6.066458094024658,-8.75888749847412,4.841375032043457
1788861751564735000,5.36673486328125,-6.724115362548828,-9.045144234466552,4.872948566436767
1788861751574742000,5.376741943359375,-7.3549875,-9.260023833465576,4.969315183258057
1788861751584749000,5.3867490234375,-7.727285858154296,-9.420435344696044,5.049371301269531
1788861751594756000,5.396756103515625,-7.47574504623413,-9.4113074508667,5.135412923431396
1788861751604763100,5.40676318359375,-7.327304543304443,-9.191190535736084,5.048772750854492
1788861751614770000,5.41677001953125,-6.872855140686035,-8.915707707214356,4.868010525512695
1788861751624777000,5.42677685546875,-5.937021566772461,-8.549544490814208,4.882974285888672
1788861751634784000,5.436783935546875,-4.90931050415039,-8.328080837249756,5.049670576477051
1788861751644791000,5.446791015625,-4.454412188720703,-8.0820766166687,5.093514394378662
1788861751654798000,5.456798095703125,-4.3637318008422845,-7.679102549743652,5.0942625823974605
1788861751664804900,5.466804931640625,-3.9700352653503415,-7.166743394470214,5.06298832321167
1788861751674812200,5.476812255859375,-3.27511823348999,-6.666804160308837,5.300014287567138
1788861751684819000,5.48681884765625,-3.3060932174682613,-6.206219615936279,5.539584091186523
1788861751694826200,5.496826171875,-4.4190977142333985,-5.767482161712646,5.5647232086181635
1788861751704833000,5.5068330078125,-5.652261206817626,-5.296871897888184,5.85442160949707
1788861751714839800,5.51683984375,-6.875548617553711,-5.178658190917968,6.336404331207275
1788861751724847000,5.52684716796875,-7.778013005828857,-5.270236404418945,6.7730468589782715
1788861751734854000,5.53685400390625,-7.8739307098388664,-5.378873304748534,6.957101111602783
1788861751744861200,5.546861083984375,-7.232434302520751,-5.39458525314331,6.861482682800292
1788861751754868000,5.556867919921875,-6.533477055358886,-5.338620789337158,6.63328533706665
1788861751764875000,5.566875,-6.317549993133545,-5.327846881866455,6.372766268920898
1788861751774882000,5.576882080078125,-6.548440815734863,-5.391143588256836,6.2222308395385735
1788861751784889000,5.58688916015625,-6.599018325805663,-5.383811345672607,6.286575009155273
1788861751794896100,5.596896240234375,-6.037727674102783,-5.12688358001709,6.354510481262206
1788861751804903000,5.60690283203125,-5.4239142234802245,-4.628141446685791,6.378901410675049
1788861751814910000,5.616909912109375,-5.722141967773437,-4.153042054748535,6.545148788452148
1788861751824917000,5.6269169921875,-6.757933460998535,-3.9740754806518552,6.775590698242187
1788861751834924000,5.636924072265625,-7.4128972526550285,-3.935319341278076,7.138312249755859
1788861751844932000,5.64693212890625,-6.768258455657959,-4.032434146118164,7.541884867095947
1788861751854939000,5.65693896484375,-5.700594152832031,-4.404433229064941,7.587075423431396
1788861751864946200,5.6669462890625,-5.314978047943115,-4.742314938354492,6.9515645202636716
1788861751874953000,5.676952880859375,-5.370942511749267,-4.862623571777344,5.950638588714599
1788861751884960000,5.6869599609375,-5.484667090606689,-4.646846147155761,5.102642288208007
1788861751894967000,5.696967041015625,-6.028150867462158,-4.069693909454346,4.564096552276611
1788861751904974000,5.70697412109375,-6.88901600189209,-3.425204750061035,4.422838654327393
1788861751914981000,5.716981201171875,-7.475445771026611,-2.830095999908447,4.712836330413818
1788861751924988000,5.72698779296875,-7.89742381362915,-2.448969023132324,5.1237411903381345
1788861751934995000,5.736994873046875,-7.892336135101318,-2.3280618392944334,5.390844313049316
1788861751945002000,5.747001953125,-7.440729846954345,-2.4441806198120117,5.40715481185913
1788861751955009000,5.757009033203125,-7.013813763427734,-2.6138696624755857,5.228487512969971
1788861751965016000,5.76701611328125,-6.33969635848999,-2.840271356964111,5.062389772796631
1788861751975023000,5.777023193359375,-5.956923368072509,-3.4235587364196776,4.867262337493896
1788861751985030000,5.78702978515625,-6.279093128967284,-4.060266740417481,4.592378059387206
1788861751995038000,5.797037841796875,-7.094019519042968,-4.260182579040527,4.221576077270508
1788861752005045000,5.807044921875,-7.4883146049499505,-3.904793270111084,3.7345056770324705
1788861752015052000,5.817052001953125,-7.117063710021972,-3.4561797340393063,3.4581250228881832
1788861752025059000,5.82705908203125,-7.1489365196228025,-3.159448365783691,3.310731983184814
1788861752035066000,5.837066162109375,-7.673266683197021,-2.798971378326416,3.1362545372009274
1788861752045073200,5.8470732421875,-8.07668966293335,-2.6068366950988766,3.057395520019531
1788861752055080000,5.857079833984375,-7.7599068557739255,-2.5884312698364256,2.8407202697753906
1788861752065087000,5.8670869140625,-7.68015001296997,-2.535309920501709,2.618358790588379
1788861752075094000,5.877093994140625,-7.716063037872314,-2.3509563926696777,2.274192301940918
1788861752085102000,5.88710205078125,-8.472481124877929,-2.1095909378051756,2.4742577781677246
1788861752095108900,5.89710888671875,-8.211962056732178,-2.2405238410949706,3.561823882293701
1788861752105116200,5.9071162109375,-7.072022791290283,-2.718915260314941,3.8271313537597655
1788861752115123000,5.917123046875,-6.271760886383056,-2.952649197387695,3.0597897216796874
1788861752125130000,5.9271298828125,-5.792471641540527,-2.551021868896484,2.331054591369629
1788861752135137000,5.937136962890625,-6.196343534088134,-1.7010802795410156,1.5789759948730469
1788861752145144000,5.94714404296875,-6.687304512023926,-1.333719962310791,0.7050923889160156
1788861752155151000,5.957151123046875,-6.523451335906982,-1.1616367179870606,-0.026785131072998045
1788861752165158100,5.967158203125,-6.593781009674072,-0.8026561065673827,-0.0383072265625
1788861752175165000,5.9771650390625,-7.11841044845581,-0.7330746208190918,0.6305728622436523
1788861752185172000,5.987171875,-7.295282096099853,-0.8539818046569824,1.2482768905639647
1788861752195179000,5.997178955078125,-7.294234632873534,-0.711227530670166,1.9455881240844726
1788861752205186000,6.00718603515625,-7.0847419876098625,-0.5038298118591308,2.666691736602783
1788861752215193000,6.017193115234375,-6.174346806335449,-0.4565443290710449,2.995595189666748
1788861752225199900,6.027199951171875,-5.445162763214111,-0.5348047958374023,3.123834616088867
1788861752235207200,6.037207275390625,-5.614702168273926,-0.6350619903564453,2.8016648551940917
1788861752245214000,6.0472138671875,-5.891232460021972,-0.5128080680847168,2.2972364929199216
1788861752255221200,6.05722119140625,-6.275352188873291,-0.14290391159057617,1.8969559028625487
1788861752265228000,6.06722802734375,-6.112396838378906,0.4037222549438476,1.7350480155944823
1788861752275234800,6.07723486328125,-4.377797735595703,0.9615712417602539,2.283769108581543
1788861752285243100,6.0872431640625,-2.841468457794189,0.314089330291748,3.2505776664733883
1788861752295250000,6.09725,-5.666776054382324,-1.5402198554992674,1.9575591323852537
1788861752305257000,6.107257080078125,-9.117119921875,-2.8010663047790527,-0.28356325912475583
1788861752315264000,6.117263916015625,-9.530119708251952,-2.7875989204406735,0.438587816619873
1788861752325271000,6.12727099609375,-6.872106952667236,-2.1164742675781247,3.9496845512390135
1788861752335278000,6.137278076171875,-6.382941625976562,-1.8336591964721678,6.3892264053344725
1788861752345284900,6.147284912109375,-7.71875651473999,-1.9630957237243651,5.647921716308593
1788861752355292200,6.157292236328125,-7.314585346984863,-2.4390929412841795,3.6643256408691403
1788861752365299000,6.167298828125,-6.37830286026001,-2.7404630752563475,3.384204046630859
1788861752375306200,6.17730615234375,-5.875221236419677,-3.553294538879394,4.5145665054321285
1788861752385313000,6.18731298828125,-7.691522470855713,-5.146336468505859,4.658517880249023
1788861752395320000,6.197320068359375,-7.314286071777343,-7.403769358825683,4.281431118774414
1788861752405327000,6.2073271484375,-5.644928964233398,-9.588777648925781,4.106804035186768
1788861752415334000,6.217333984375,-7.392097625732421,-11.089942089843749,4.067299707794189
1788861752425341200,6.227341064453125,-9.612420390319823,-11.507879917144775,4.683806635284424
1788861752435348000,6.237347900390625,-8.393771745300292,-10.639981815338134,5.480926150512695
1788861752445355000,6.24735498046875,-5.947795474243164,-9.27678324508667,5.270685317230225
1788861752455362000,6.257362060546875,-5.515642074584961,-8.119336380004881,4.891054716491699
1788861752465369900,6.267369873046875,-5.829432129669189,-7.145943767547607,5.285649077606201
1788861752475377200,6.277377197265625,-5.093664031982422,-6.081870767211914,6.067505557250977
1788861752485384000,6.287384033203125,-3.9930794563293457,-4.89704022064209,6.0437131782531734
1788861752495391200,6.29739111328125,-3.6522049949645994,-4.147804738616943,5.0848354133605955
1788861752505398000,6.30739794921875,-4.489427388000488,-4.087051871490479,3.5914521278381346
1788861752515405000,6.317405029296875,-5.239111782836914,-4.656722229003906,2.398541150665283
1788861752525412000,6.327412109375,-4.878784432983398,-5.495440998077393,2.198924587249756
1788861752535419000,6.3374189453125,-3.69021294631958,-5.98804798965454,3.2990602500915527
1788861752545426200,6.34742626953125,-2.6785131072998047,-5.466112027740478,4.973953948974609
1788861752555433000,6.357432861328125,-4.222773178100586,-4.206911592102051,5.268740028381347
1788861752565440000,6.36743994140625,-7.842656450653076,-3.7454292221069334,3.55598801574707
1788861752575447000,6.377447021484375,-9.714473236083984,-4.400093738555908,1.4399626609802245
1788861752585454000,6.3874541015625,-7.816619507598877,-5.768828900146484,1.8800468536376953
1788861752595461000,6.397461181640625,-2.1347300552368162,-6.7188780464172355,7.3937436393737785
1788861752605468200,6.40746826171875,-3.303250102996826,-8.672845876312255,13.232752575683593
1788861752615475000,6.417474853515625,-7.464522225952148,-12.700790894317626,15.553631809997558
1788861752625482000,6.42748193359375,-12.205340788269043,-14.892532876586912,13.473070567321777
1788861752635490000,6.437489990234375,-15.288473976135252,-14.366257424163818,8.61269155960083
1788861752645497000,6.4474970703125,-12.28405016784668,-12.820949890136719,4.690839602661133
1788861752655504000,6.45750390625,-5.882104566192627,-12.192920867156982,4.844816696929931
1788861752665511200,6.46751123046875,-4.2794858299255365,-13.47651223220825,10.624718779754637
1788861752675518000,6.47751806640625,-12.92225454788208,-16.184952860260008,14.55704536895752
1788861752685525000,6.48752490234375,-17.654843041992187,-18.927959774780273,15.122376235961914
1788861752695532000,6.497531982421875,-14.83701732559204,-18.388516213226318,13.87978557434082
1788861752705539000,6.5075390625,-9.79976667022705,-14.653411985778808,10.919654496765135
1788861752715546000,6.517546142578125,-4.950460845184326,-11.659612447357176,8.371475742340087
1788861752725553200,6.52755322265625,-2.233341236114502,-9.363124142456055,5.998821897125244
1788861752735560000,6.537559814453125,-2.0875942100524902,-7.29722738494873,3.886088569641113
1788861752745567000,6.54756689453125,-3.0645781249999997,-5.671714095306396,2.6548703659057615
1788861752755574000,6.557573974609375,-3.168576259613037,-4.852747489929199,2.407519406890869
1788861752765581000,6.5675810546875,-2.013523596191406,-4.302530020904541,2.7320833694458004
1788861752775588000,6.577588134765625,-0.9243114784240722,-3.544615557861328,3.3144729232788084
1788861752785596200,6.58759619140625,-0.9855132583618164,-2.8983307472229,4.2125978210449215
1788861752795603000,6.59760302734375,-2.4070704940795897,-2.9083564666748045,5.257816483306884
1788861752805610000,6.60760986328125,-3.732111475372314,-3.227383837890625,5.5558945899963375
1788861752815617000,6.617616943359375,-4.119672869110107,-3.544465920257568,4.759223987579346
1788861752825624000,6.6276240234375,-4.037372187042236,-3.666420567321777,3.399018169403076
1788861752835631000,6.637631103515625,-4.029591031646729,-3.506757244110107,1.9397522575378416
1788861752845638100,6.64763818359375,-3.9739258430480953,-3.4358290199279784,0.9618705169677734
1788861752855645000,6.65764501953125,-3.9731776550292968,-3.7611411705017086,1.1303624588012695
1788861752865652000,6.66765185546875,-4.463839357757568,-4.196137684631347,2.232443410491943
1788861752875659000,6.677658935546875,-4.738573998260498,-4.344428549957275,3.7204397422790527
1788861752885666000,6.687666015625,-5.919813242340087,-4.460248055267334,5.418377632141113
1788861752895673000,6.697673095703125,-7.6102692520141595,-4.655375490570068,6.873752966308594
1788861752905680000,6.707679931640625,-8.347384088134765,-4.74321276397705,7.6553101707458495
1788861752915687200,6.717687255859375,-9.054272128295898,-4.734384145355224,7.55924282913208
1788861752925694000,6.72769384765625,-9.821464122772216,-4.531625192260742,7.029376074218749
1788861752935702000,6.737701904296875,-9.737068514251709,-4.242375704193115,7.162553541564941
1788861752945709000,6.747708984375,-8.387935878753662,-4.355950645446777,8.097489289855957
1788861752955716000,6.757716064453125,-7.077110469818114,-5.1699792098999025,9.232640151977538
1788861752965723100,6.76772314453125,-7.98675746307373,-6.670694738006591,10.137648379516602
1788861752975730000,6.77772998046875,-9.277531433105468,-7.563283044433593,10.383652600097655
1788861752985737000,6.787737060546875,-9.670330142974853,-7.272836455535888,9.485378064727783
1788861752995743500,6.797743408203125,-8.94533595275879,-6.579864712524413,7.613262004089355
1788861753005750500,6.80775048828125,-6.949020680999755,-6.132448277282714,6.56939008026123
1788861753015757300,6.81775732421875,-6.917297509002685,-5.855319435119629,6.562656388092041
1788861753025764400,6.827764404296875,-8.272415648651123,-5.186289708709716,6.395511184692382
1788861753035771400,6.837771484375,-8.393771745300292,-4.026598279571533,5.325153404998779
1788861753045778400,6.8477783203125,-6.684012484741211,-3.310133432769775,4.085106582641601
1788861753055785500,6.857785400390625,-5.112069457244873,-3.110965782165527,3.265691064453125
1788861753065793500,6.86779345703125,-4.145260899353027,-2.985868745422363,2.78355870513916
1788861753075800300,6.87780029296875,-4.0453029800415035,-3.311480171203613,2.3063643867492676
1788861753085807400,6.887807373046875,-5.174767613220214,-3.855562498474121,1.6753426116943357
1788861753095814400,6.897814453125,-6.0042088508605955,-4.001758437347412,0.9977835418701171
1788861753105821400,6.907821533203125,-5.793070191955566,-3.177853791046142,0.2916436897277832
1788861753115828500,6.917828369140625,-5.869684645080566,-1.6853683311462402,-0.37005379409790035
1788861753125835500,6.92783544921875,-6.512976703643798,-0.6687304512023925,-1.02142628326416
1788861753135842300,6.93784228515625,-5.8283846664428705,0.10040683212280273,-1.3180080139160155
1788861753145849300,6.947849365234375,-3.9133226135253905,0.7172130348205566,-0.7517793212890624
1788861753155856400,6.9578564453125,-5.000439804840088,0.1562216583251953,1.427542739868164
1788861753165863400,6.967863525390625,-6.28852029800415,-1.4086884017944334,3.821894037628174
1788861753175870500,6.977870361328125,-5.169829572296142,-1.7127520126342772,3.2564135330200195
1788861753185877200,6.987877197265625,-6.086659170532227,-0.1258452247619629,-0.5312134933471679
1788861753195884500,6.997884521484375,-8.05723677444458,1.3660416847229002,-2.3796868125915527
1788861753205892400,7.007892333984375,-9.772981539154053,2.4027310035705565,-0.29613281784057616
1788861753215899400,7.0178994140625,-9.568726210021971,1.1502642601013182,3.2417490478515623
1788861753225906400,7.027906494140625,-8.469638010406493,-1.5421651443481443,6.122272920227051
1788861753235913500,7.03791357421875,-8.575132521057128,-3.282899388885498,6.501304970550537
1788861753245920500,7.04792041015625,-7.736413751983642,-3.095702746582031,4.780173252105713
1788861753255927300,7.05792724609375,-6.878391732025146,-2.473958502960205,3.152714673614502
1788861753265934600,7.0679345703125,-9.370905297851563,-1.7835305992126465,2.069787335205078
1788861753275941400,7.07794140625,-12.096404612731932,-1.762581334686279,2.126649624633789
1788861753285948400,7.087948486328125,-10.369736302947997,-2.2188263885498047,2.980032878875732
1788861753295955500,7.09795556640625,-6.013486382293701,-2.6855460746765134,3.612251754760742
1788861753305962200,7.107962158203125,-4.881028997039794,-3.0825346374511717,3.5332430999755857
1788861753315969500,7.117969482421875,-6.548440815734863,-3.2606033859252928,3.1625907554626465
1788861753325976300,7.127976318359375,-7.20774409790039,-2.860771708679199,2.6044424934387207
1788861753335984400,7.137984375,-6.252457635498047,-1.868075845336914,1.9143138648986815
1788861753345991400,7.147991455078125,-6.650643299102783,-0.5734112976074218,1.6897078216552734
1788861753355998500,7.15799853515625,-7.24620096206665,0.42242695541381836,2.475903791809082
1788861753366005500,7.168005615234375,-5.332934560394286,0.5873275947570801,3.652653907775879
1788861753376012300,7.17801220703125,-3.1899744369506835,-0.12389993591308593,4.037072911834716
1788861753386019600,7.18801953125,-3.822941500854492,-1.490091258239746,3.6028245857238765
1788861753396026400,7.1980263671875,-5.380070405578613,-3.4413656112670896,3.337666751861572
1788861753406033400,7.208033447265625,-5.295824434661865,-5.105335765075683,3.4243069244384765
1788861753416040400,7.21804052734375,-4.605097255706787,-5.789029976654052,3.478176461791992
1788861753426047200,7.228047119140625,-4.913500357055664,-5.54766452178955,3.632003918457031
1788861753436054500,7.238054443359375,-5.03740029296875,-5.288791467285156,4.282328944396973
1788861753446061300,7.248061279296875,-4.611232397460937,-5.26664510192871,4.739621461486816
1788861753456068600,7.258068603515625,-4.400692288970947,-5.119850612640381,4.608389282989502
1788861753466076400,7.268076416015625,-4.557362860107421,-4.829852936553955,4.319439070129394
1788861753476083500,7.27808349609375,-5.951087501525879,-4.792144260406494,4.291606475830078
1788861753486090500,7.288090576171875,-7.841160074615478,-5.022586170196533,4.420294815063476
1788861753496097300,7.29809716796875,-8.591143744659423,-5.705681831359863,5.163544792938232
1788861753506104600,7.3081044921875,-8.213009519958495,-7.091774954986572,7.404816822052002
1788861753516111400,7.318111328125,-8.073547273254395,-9.57635772781372,10.276960988616942
1788861753526118400,7.328118408203125,-8.93201820602417,-12.878710005187987,11.95798982925415
1788861753536125400,7.33812548828125,-10.97472113494873,-15.573084698486328,11.490821230316161
1788861753546132200,7.34813232421875,-11.567435683441161,-16.73157902679443,10.589404305267333
1788861753556139500,7.358139404296875,-10.690559325408936,-16.664242105102538,10.278158089447022
1788861753566146300,7.368146240234375,-10.4065471534729,-16.787094577789304,9.8311905670166
1788861753576153600,7.378153564453125,-10.739490821838379,-16.437690773010253,8.326285186004638
1788861753586161400,7.388161376953125,-9.187898508453369,-14.354436053466795,7.116914072418212
1788861753596168200,7.398168212890625,-6.312013401794434,-10.721235034179687,7.342717216491699
1788861753606175500,7.408175537109375,-4.958990188598633,-7.462427299499511,8.16572403717041
1788861753616182300,7.418182373046875,-5.511152946472167,-6.000916823577881,7.723544918060302
1788861753626189600,7.428189453125,-5.604676448822021,-5.516689537811279,5.944653084564209
1788861753636196400,7.4381962890625,-3.7502176254272457,-5.48451745300293,4.977994164276123
1788861753646203400,7.448203369140625,-2.8618191719055175,-5.53509496307373,5.135263285827636
1788861753656210400,7.45821044921875,-2.877980033111572,-5.866841530609131,5.549310535430908
1788861753666217200,7.46821728515625,-2.9507039085388183,-6.221781926727295,5.635052882385254
1788861753676224500,7.478224609375,-3.3406595039367675,-6.283133344268799,5.202450569915771
1788861753686231300,7.488231201171875,-3.8117186805725094,-6.166266375732421,4.23938295211792
1788861753696238300,7.49823828125,-3.8793548774719238,-5.989245090484618,2.931699932861328
1788861753706246400,7.508246337890625,-3.2249896362304686,-5.512798960113525,2.039111626434326
1788861753716253200,7.518253173828125,-3.045723786926269,-4.972457572937011,1.9536685546875
1788861753726260500,7.528260498046875,-4.49466470413208,-4.8050130943298335,2.133832229614258
1788861753736267300,7.538267333984375,-5.849932481384277,-4.9528550468444825,2.2254104431152344
1788861753746274600,7.548274658203125,-5.525667794036865,-5.232228453063964,2.533963182067871
1788861753756281300,7.55828125,-5.453692106628417,-5.97577770614624,3.3247979179382323
1788861753766288400,7.568288330078125,-5.8454433532714845,-7.01007282333374,4.206462679290771
1788861753776295400,7.57829541015625,-6.153696817016601,-7.660098574066161,4.245967006683349
1788861753786302200,7.58830224609375,-5.628019915008545,-7.588571799468994,4.004601551818848
1788861753796309500,7.5983095703125,-4.7952866500854485,-7.167042669677734,4.616619351196289
1788861753806316300,7.60831640625,-5.402216770935058,-6.551732843017578,5.459527973175049
1788861753816323300,7.6183232421875,-7.447912451934814,-5.691915171813965,5.9132291877746574
1788861753826331400,7.628331298828125,-9.469366841125488,-5.121197351074218,6.918045697021484
1788861753836338200,7.638338134765625,-9.647435589599608,-5.016002115631103,9.27678324508667
1788861753846345500,7.648345458984375,-9.716119249725342,-5.098452435302734,12.133514738464354
1788861753856352300,7.658352294921875,-10.1000893409729,-6.080972941589355,13.990966313934326
1788861753866359600,7.668359619140625,-9.302670550537108,-8.634987562561035,13.822624009704588
1788861753876366300,7.678366455078125,-8.098536753082275,-10.353575441741942,11.54289511642456
1788861753886373400,7.688373291015625,-7.222857495880127,-9.931747036743163,8.028955267333984
1788861753896380400,7.69838037109375,-5.426009149932861,-8.10167914276123,5.7143608123779295
1788861753906387500,7.708387451171875,-3.848379893493652,-5.8177603965759275,5.208884986877441
1788861753916394500,7.71839453125,-4.152293866729736,-4.323329647827149,5.480926150512695
1788861753926401300,7.7284013671875,-4.800224691009521,-3.866336405944824,5.670068081665039
1788861753936409600,7.73840966796875,-4.723460600280761,-3.792864342498779,5.520131202697754
1788861753946416400,7.74841650390625,-5.203647670745849,-4.1751884201049805,5.0577510070800775
1788861753956423200,7.758423095703125,-6.491129613494873,-4.728249003601074,4.338742321014404
1788861753966430500,7.768430419921875,-8.036886060333252,-5.081244110870361,3.2139164535522458
1788861753976437200,7.778437255859375,-7.541884867095947,-5.1140147460937495,2.584391054534912
1788861753986444500,7.788444580078125,-5.347449407958984,-4.8989855094909665,3.31357509765625
1788861753996451300,7.798451416015625,-4.654926577758789,-4.51381831741333,4.358344847106934
1788861754006458400,7.808458251953125,-4.3251252990722655,-3.826083890533447,4.762964927673339
1788861754016465200,7.818465087890625,-3.8040871627807613,-3.232920429229736,4.25180287322998
1788861754026472400,7.828472412109375,-4.274098876190186,-2.677016731262207,3.1911715377807615
1788861754036479200,7.838479248046875,-5.61200869140625,-2.120065570068359,2.193687271118164
1788861754046487300,7.8484873046875,-6.151901165771484,-1.5376760162353516,2.3451205261230466
1788861754056494300,7.858494384765625,-6.750900493621826,-1.0990881996154784,3.6852749053955076
1788861754066501400,7.86850146484375,-8.340949671173096,-1.1140519599914551,5.223848747253418
1788861754076508200,7.878508056640625,-9.986514399719237,-2.627785959625244,5.716904651641846
1788861754086515200,7.88851513671875,-9.754276838684081,-4.846462710571289,4.534767581939697
1788861754096522200,7.898522216796875,-7.04808077468872,-5.416581980895995,2.8350340408325194
1788861754106529300,7.908529296875,-5.201702381896973,-4.563049089050293,2.7576713996887205
1788861754116536300,7.918536376953125,-6.566995878601074,-3.6125510299682615,3.624372400665283
1788861754126543400,7.92854345703125,-8.588300630187987,-2.8028619560241697,3.5954923431396484
1788861754136550100,7.938550048828125,-10.011803154754638,-1.4459481651306152,2.4274212081909177
1788861754146557400,7.948557373046875,-8.912415679931641,0.43514615173339843,1.3506290115356445
1788861754156565200,7.958565185546875,-6.583605652618408,1.6534955215454101,1.1284171699523926
1788861754166572300,7.968572265625,-4.9443257034301755,1.3670891479492187,0.8577227447509765
1788861754176579300,7.978579345703125,-4.406977068328858,-0.9319429962158202,1.5442600708007812
1788861754186586400,7.98858642578125,-4.8650177734375,-2.9275100799560545,2.7467478546142576
1788861754196593400,7.998593505859375,-6.316951442718506,-3.012803514099121,2.375048046875
1788861754206600200,8.00860009765625,-9.598803368377684,-1.2912228828430174,-0.18734627990722655
1788861754216607200,8.018607177734374,-10.15814873123169,1.2023381462097167,-0.2744353652954101
1788861754226614300,8.0286142578125,-8.475922789764404,1.6587328376770019,1.8620903411865233
1788861754236621300,8.038621337890625,-6.321141295623779,0.22161329116821288,2.4883237129211424
1788861754246628400,8.04862841796875,-4.78825368270874,-1.5891513519287108,4.363582163238525
1788861754256635100,8.05863525390625,-5.468805504608154,-3.227234200286865,5.193472313690185
1788861754266642400,8.068642333984375,-5.966051261901855,-3.277811710357666,2.4154501998901368
1788861754276650200,8.078650146484375,-7.323862878417969,-2.2007202384948727,-0.9745897132873534
1788861754286657300,8.0886572265625,-10.632499935150145,0.39653964996337887,-2.1262007118225097
1788861754296664300,8.098664306640625,-11.67098490524292,1.6882114456176758,0.7095815170288086
1788861754306671400,8.10867138671875,-7.334487148284912,0.9109937316894531,3.9350200660705563
1788861754316678400,8.118678466796876,-4.839130467987061,-0.778265177154541,5.430348640441895
1788861754326685200,8.128685302734375,-5.7611973823547356,-2.4631845954895017,5.247641126251221
1788861754336692200,8.138692138671875,-5.967248362731933,-3.633350656890869,3.8920740737915036
1788861754346699300,8.14869921875,-6.341043096923828,-4.084508032226562,2.3591864608764648
1788861754356706300,8.158706298828125,-7.274482469177245,-3.7249288703918455,1.6412252380371093
1788861754366713300,8.16871337890625,-7.464222950744628,-2.849997801208496,1.8740613494873046
1788861754376721400,8.178721435546874,-4.494066153717041,-2.57930337600708,2.874987281036377
1788861754386728200,8.188728271484376,-2.5727193214416504,-2.9478607940673824,3.1413422157287596
1788861754396735200,8.1987353515625,-4.001010249328613,-3.3735797767639157,2.345719076538086
1788861754406742300,8.2087421875,-5.820004960632324,-3.5850177108764645,1.6261118400573729
1788861754416749300,8.218749267578126,-4.910507604980468,-3.0939070953369137,2.046743144226074
1788861754426756400,8.22875634765625,-3.029413288116455,-2.147748526763916,2.7641058166503907
1788861754436763400,8.238763427734375,-2.7263971405029297,-1.3111246841430664,3.1287726570129393
1788861754446770200,8.248770263671876,-3.2857425033569334,-1.1318588348388672,3.7223850311279296
1788861754456777200,8.258777099609375,-4.019864587402344,-1.7491139503479003,4.32228218460083
1788861754466784300,8.2687841796875,-5.118653511810303,-2.818124991607666,4.467281022644043
1788861754476791300,8.278791259765624,-5.819705685424804,-3.9261914474487303,4.771045358276367
1788861754486799400,8.28879931640625,-5.641038386535644,-5.006275671386718,5.917568678283691
1788861754496806400,8.298806396484375,-5.5355438758850095,-6.233603297424316,7.154622748565673
1788861754506813200,8.308813232421874,-6.017526597595214,-7.82709413986206,7.582586295318603
1788861754516820200,8.3188203125,-7.090727491760253,-9.69786346206665,7.130082181549072
1788861754526827300,8.3288271484375,-7.42486826095581,-11.564592568969726,6.602759265899658
1788861754536834300,8.338834228515625,-7.870040132141113,-12.400468223571776,6.064812080383301
1788861754546841300,8.34884130859375,-9.265410787200928,-12.122291918182372,5.486013829040527
1788861754556848400,8.358848388671875,-10.205583851623535,-12.088024906921387,5.597493843841552
1788861754566855200,8.368855224609375,-10.056844073486328,-12.234819396209716,6.29480507736206
1788861754576862200,8.3788623046875,-9.536554125213623,-12.196212894439697,7.283909638214111
1788861754586870300,8.388870361328125,-9.159467363739013,-12.091167296600341,8.054393659973144
1788861754596877300,8.398877197265625,-9.152434396362304,-11.527332805633545,7.885303167724609
1788861754606884400,8.40888427734375,-8.034791133880615,-10.069413632202147,7.4034700836181635
1788861754616891400,8.418891357421876,-5.4981344749450685,-8.002918324279785,7.626130838012695
1788861754626898200,8.428898193359375,-4.7487493553161615,-6.221931564331054,8.01234549331665
1788861754636905200,8.4389052734375,-5.956175180053711,-5.544222856903076,7.40526573486328
1788861754646912300,8.448912353515626,-5.860257476043701,-6.243329741668701,7.161506078338623
1788861754656919300,8.458919189453125,-5.131522345733642,-7.32266577758789,8.172906642150878
1788861754666926300,8.46892626953125,-6.381445249938965,-8.595034322357177,9.068487700653076
1788861754676933400,8.478933349609376,-7.325209616851806,-9.326612567138671,7.753173163604736
1788861754686940200,8.488940185546875,-7.3265563552856445,-8.969128331756592,5.437531245422363
1788861754696948200,8.4989482421875,-6.246172856140136,-8.462754680633545,4.506186799621582
1788861754706955300,8.508955322265624,-5.832275244140624,-8.377610884094238,4.860977558135986
1788861754716962300,8.51896240234375,-5.955726267242431,-8.443601067352294,5.150376683807373
1788861754726969300,8.52896923828125,-5.559485892486572,-8.393622107696533,5.590909789276123
1788861754736976400,8.538976318359374,-5.711368060302734,-8.21675046005249,6.139630882263183
1788861754746983200,8.548983154296875,-6.593032821655273,-8.072948722839355,5.897517239379883
1788861754756990200,8.558990234375,-6.72276862411499,-8.008155640411376,4.702810610961913
1788861754766997200,8.568997314453124,-5.0385973937988275,-7.709927896118163,3.4680011047363277
1788861754777004300,8.57900439453125,-4.136133005523681,-7.371896549224853,3.1362545372009274
1788861754787011300,8.58901123046875,-4.898835871887207,-7.410652688598632,3.5761890922546384
1788861754797019100,8.59901904296875,-5.594201816558837,-7.832181818389892,4.296095603942871
1788861754807026400,8.6090263671875,-6.273257262420654,-8.329876488494872,4.681113158416748
1788861754817033200,8.619033203125,-6.765864253997802,-8.454075699615478,4.812644612121582
1788861754827040300,8.629040283203125,-7.027730060577392,-8.504802847290039,5.390545037841797
1788861754837047300,8.63904736328125,-7.236923430633545,-8.181435985565185,6.3806970619201655
1788861754847054300,8.649054443359375,-7.576301515960693,-7.263259648895263,7.36740742111206
1788861754857061400,8.659061279296875,-6.911760917663574,-6.429478920745849,8.195202645111083
1788861754867068400,8.669068359375,-5.898415065002441,-6.016928047180175,8.931868568420409
1788861754877075200,8.6790751953125,-5.4412721855163575,-5.534646050262451,9.160514826965331
1788861754887082200,8.689082275390625,-4.893000005340576,-4.517409619903564,8.621370540618896
1788861754897090300,8.69909033203125,-3.7970541954040526,-3.4344822814941405,7.734468463134765
1788861754907097300,8.709097412109376,-3.668515493774414,-2.6957214317321774,6.76077657546997
1788861754917104000,8.719104248046875,-5.276221908569336,-2.6159645889282226,5.862202764892578
1788861754927111400,8.729111328125,-6.9241808387756345,-3.3289877708435056,5.386055909729004
1788861754937118200,8.7391181640625,-7.0181532539367675,-4.240430415344238,5.565022483825683
1788861754947125200,8.749125244140625,-7.138761162567138,-4.849605100250244,5.715557913208007
1788861754957132300,8.75913232421875,-7.826046676635742,-4.965574243164062,5.078999546813964
1788861754967139300,8.769139404296874,-7.6190978706359855,-5.001337630462646,4.359093035125732
1788861754977146400,8.779146484375,-6.527790826416015,-5.045031810760498,4.295945966339111
1788861754987153400,8.7891533203125,-5.773318028259277,-4.730343930053711,4.678718956756591
1788861754997161200,8.7991611328125,-6.711096891021728,-4.049043920135498,5.0471267372131345
1788861755007168000,8.80916796875,-7.754370264434814,-3.4439094505310055,5.441721098327636
1788861755017175300,8.81917529296875,-8.034042945861817,-3.3467946456909177,5.966200899505615
1788861755027182000,8.82918212890625,-8.84881969833374,-3.2609026611328122,6.227168880462646
1788861755037189000,8.839189208984376,-9.261220934295654,-3.2769138847351074,5.977872632598877
1788861755047196200,8.849196044921875,-8.23590407333374,-3.9428012214660644,5.559036979675293
1788861755057203000,8.859202880859375,-6.673837127685546,-4.4662335594177245,5.3944356155395505
1788861755067210200,8.869210205078126,-5.561730456542969,-4.402338302612304,5.4221185722351075
1788861755077217000,8.879217041015625,-5.746233621978759,-4.3549031822204585,5.35627802658081
1788861755087224300,8.889224365234375,-6.935852571868896,-4.540004898071289,4.853495677947998
1788861755097232100,8.899232177734374,-7.50163235168457,-4.406977068328858,3.953874404144287
1788861755107239200,8.9092392578125,-7.349001995849609,-3.867832781982422,3.2333693420410152
1788861755117246200,8.91924609375,-7.191732874298095,-3.4018612838745117,2.6892870147705077
1788861755127253000,8.9292529296875,-6.985382618713379,-3.229778039550781,1.7963994331359863
1788861755137260300,8.93926025390625,-5.95632481765747,-2.730437355804443,0.9650129066467285
1788861755147267000,8.94926708984375,-4.30327820892334,-1.50670103225708,0.39220015945434566
1788861755157274400,8.9592744140625,-4.489876300811767,-0.2150292366027832,-0.5410895751953124
1788861755167281200,8.96928125,-6.448482896423339,1.2648866645812988,-1.556380716705322
1788861755177288000,8.979287841796875,-6.686556324005126,2.2930466400146483,-0.8066963218688964
1788861755187295200,8.989295166015625,-5.7508723876953125,1.9373580558776855,1.0327987411499022
1788861755197303000,8.999302978515624,-5.512050772094726,0.33099837951660155,1.946635587310791
1788861755207310000,9.00931005859375,-4.543446562957763,-0.7037456504821777,1.796549070739746
1788861755217317000,9.019317138671875,-4.947468093109131,-0.21083938369750976,0.9573813888549804
1788861755227324200,9.02932421875,-6.25694676361084,-0.5526116706848144,0.5889736083984375
1788861755237331200,9.039331298828126,-7.873631434631347,-0.9671078330993652,0.3220201232910156
1788861755247338000,9.049337890625,-7.535749725341796,-1.0256161361694336,0.9781810157775879
1788861755257345300,9.05934521484375,-6.622810704803467,-1.0794856735229492,1.7357962036132812
1788861755267352000,9.06935205078125,-5.380369680786132,-0.9632172554016113,1.7832313240051267
1788861755277359400,9.079359375,-6.191106217956543,-1.205929448699951,1.6202759735107422
1788861755287366100,9.0893662109375,-8.170512440490722,-1.4493898300170898,1.2297218276977537
1788861755297374200,9.099374267578124,-9.01476780090332,-1.0971429107666015,1.1930606147766112
1788861755307381200,9.10938134765625,-7.073219892120361,-0.9208698135375976,2.4193407775878906
1788861755317388000,9.119387939453125,-4.900032972717285,-1.2732663703918456,3.9369653549194332
1788861755327395300,9.129395263671874,-6.036380935668945,-1.7649755363464354,4.303427846527099
1788861755337402000,9.139402099609375,-8.086266469573975,-2.170194167327881,3.367743910217285
1788861755347409200,9.1494091796875,-8.17126062850952,-2.1288941886901855,2.8528409156799315
1788861755357416200,9.159416259765624,-7.432799053955078,-1.895459526824951,3.8233904136657713
1788861755367423000,9.169423095703126,-7.304260352325439,-2.1329344039916993,4.899883335113525
1788861755377430300,9.17943017578125,-6.8673185493469235,-2.6797102081298827,4.9337014335632325
1788861755387437000,9.18943701171875,-5.195716877746582,-3.4174235946655274,4.581005601501465
1788861755397445000,9.199445068359376,-3.5353380264282226,-4.146009087371826,4.3357495689392085
1788861755407452200,9.2094521484375,-4.593724797821045,-4.640711005401611,3.778798407745361
1788861755417459200,9.219459228515625,-7.04179599533081,-4.931606507110596,3.1803976303100585
1788861755427466200,9.22946630859375,-7.4594345474243156,-4.867262337493896,3.0090625740051267
1788861755437473000,9.23947314453125,-5.912331362152099,-4.345326375579834,3.1760581398010252
1788861755447480300,9.249480224609375,-4.342782536315918,-3.9049429077148434,3.8610990898132322
1788861755457487000,9.259487060546874,-4.292354663848877,-4.132541703033447,4.606593631744384
1788861755467494100,9.269494140625,-5.456385583496093,-4.912602531433105,4.9669209815979
1788861755477501200,9.279501220703125,-5.326350505828857,-6.063465341949462,5.154416899108886
1788861755487509200,9.28950927734375,-4.494066153717041,-7.093420968627929,5.421220746612549
1788861755497516000,9.29951611328125,-5.206640422821045,-7.6753616096496575,5.763142671203613
1788861755507523000,9.309523193359375,-6.494272003173828,-8.129661374664305,6.152200440979003
1788861755517530000,9.319530029296875,-6.729502316284179,-8.743774100494385,6.398503936767578
1788861755527537200,9.329537109375,-7.419182032012939,-9.278578896331787,6.038176586914062
1788861755537544200,9.339544189453125,-9.00773483352661,-9.445724099731445,5.7043350929260255
1788861755547551200,9.34955126953125,-10.058041174316406,-9.639205521392821,6.616226650238037
1788861755557558000,9.35955810546875,-9.976488680267334,-10.130615412139893,8.842385281372069
1788861755567565300,9.3695654296875,-10.841394029998778,-10.98684178085327,9.996091206359862
1788861755577572000,9.379572021484375,-11.627141087341307,-12.079495563507079,9.839121360015868
1788861755587580200,9.389580078125,-10.393528681945801,-12.702736183166504,9.375544063568114
1788861755597587200,9.399587158203126,-8.346935175323486,-12.006173137664794,8.341697859191894
1788861755607594200,9.40959423828125,-7.1035963256835934,-10.386346076965332,6.974159798431396
1788861755617601300,9.419601318359375,-5.888389345550537,-8.875305554199219,6.024709202575683
1788861755627608000,9.429608154296876,-5.083488674926757,-7.691073558044433,5.231779540252686
1788861755637615000,9.439614990234375,-4.390666569519043,-6.706158850097656,4.848108724212646
1788861755647622100,9.4496220703125,-3.8807016159057617,-6.340444546508789,5.324704492187499
1788861755657629200,9.459629150390626,-4.664204109191894,-6.8569935546875,5.7040358177185055
1788861755667636200,9.46963623046875,-5.989694003295898,-7.55235949935913,5.08199229888916
1788861755677643000,9.47964306640625,-5.265896913909912,-7.6279264892578125,5.635950708007812
1788861755687651000,9.489651123046874,-5.037849205780029,-7.169137596130371,7.183652443695068
1788861755697658000,9.499658203125,-6.025457390594482,-6.959944226074218,7.745392008209228
1788861755707665200,9.5096650390625,-7.264905662536621,-7.293187169647217,6.894103680419922
1788861755717672200,9.519672119140624,-6.989722109222412,-7.505074016571045,5.7137622619628905
1788861755727679200,9.52967919921875,-5.578639505767822,-7.505373291778564,5.719298853302002
1788861755737686300,9.539686279296875,-6.232855109405517,-7.823353199768066,5.6006362335205075
1788861755747693000,9.549693115234374,-7.723544918060302,-8.209268579864501,4.735132333374023
1788861755757700000,9.5597001953125,-7.314435709381103,-8.673444426727295,4.29639487915039
1788861755767707100,9.56970703125,-6.0707975845336914,-8.715941506195067,4.460397692871093
1788861755777714200,9.579714111328125,-5.442918199157715,-8.213009519958495,4.42448466796875
1788861755787722000,9.589721923828124,-5.37558127746582,-7.62912359008789,3.9647979492187497
1788861755797729300,9.599729248046875,-4.111891713714599,-7.007080071258544,4.209904344177246
1788861755807736000,9.609736083984375,-3.3910873764038083,-6.5948284729003905,5.384858808898925
1788861755817743000,9.6197431640625,-4.923974989318848,-6.306776085662841,6.440701741027832
1788861755827750100,9.629750244140626,-6.629843672180176,-6.035632747650146,6.999747828674316
1788861755837757200,9.639757080078125,-6.599766513824463,-6.2413844528198235,7.71845723953247
1788861755847764200,9.64976416015625,-6.502950984191894,-6.649745473480224,8.457966277313233
1788861755857771300,9.659771240234376,-7.449558465576171,-6.858190655517578,8.437166650390624
1788861755867778000,9.669778076171875,-7.1038956008911125,-6.893954042816162,7.7304282478332516
1788861755877786000,9.6797861328125,-5.366603021240234,-6.726659201812744,7.032817739105224
1788861755887793200,9.689793212890624,-4.988468796539307,-6.147262400054931,6.412270596313476
1788861755897800200,9.69980029296875,-5.616048906707763,-5.351040710449219,5.869086094665527
1788861755907807200,9.70980712890625,-5.766883611297607,-4.796034838104248,5.7052329185485835
1788861755917814300,9.719814208984374,-6.063465341949462,-4.5699324188232415,5.913678100585937
1788861755927821000,9.729821044921875,-7.183353168487549,-4.752191020202637,6.184372525787353
1788861755937828000,9.739828125,-7.443124048614502,-5.359719691467284,6.207715991973877
1788861755947835100,9.749835205078124,-6.717232032775878,-5.853224508666992,6.021117900085449
1788861755957842200,9.75984228515625,-7.177966214752197,-5.821950249481201,5.7137622619628905
1788861755967850200,9.769850341796875,-7.830685442352294,-5.135263285827636,5.212027376556396
1788861755977857000,9.77985693359375,-7.476343596649169,-4.014776908874511,4.590881683349609
1788861755987864300,9.7898642578125,-6.875398979949951,-2.8649615615844723,4.521749110412597
1788861755997871900,9.799871826171875,-6.67802698059082,-2.0127754081726072,5.163993705749512
1788861756007879000,9.80987890625,-7.617900769805908,-1.8855834449768065,5.856965448760986
1788861756017886000,9.819885986328124,-8.400954350280761,-2.62389538192749,6.152200440979003
1788861756027892700,9.829892822265625,-7.482778013610839,-3.525461944580078,5.833621982574463
1788861756037900000,9.839900146484375,-6.196193896484375,-4.023755165100098,5.165938994598388
1788861756047906800,9.84990673828125,-5.494543172454834,-4.03482834777832,4.576067560577393
1788861756057914000,9.8599140625,-5.562478644561767,-3.787178113555908,4.112490264129638
1788861756067922000,9.869921875,-6.483348458099365,-3.3969232429504395,3.3276410324096677
1788861756077929000,9.879928955078125,-7.1489365196228025,-2.563441790008545,2.2991817817687985
1788861756087936000,9.88993603515625,-7.1404071762084955,-1.464652865600586,1.492036547088623
1788861756097942800,9.89994287109375,-7.624784099578857,-0.5565022483825683,0.9765350021362305
1788861756107950000,9.9099501953125,-7.191283961486816,-0.3764882110595703,0.8321347145080565
1788861756117956900,9.919956787109374,-6.017526597595214,-1.0654197387695312,0.7199065116882324
1788861756127964000,9.9299638671875,-5.182249493408203,-1.6792331893920898,0.3181295455932617
1788861756137971000,9.939970947265625,-5.0754082443237305,-1.5614683952331543,0.018704700469970702
1788861756147977700,9.949977783203124,-5.91846650390625,-0.9160814102172851,0.5377975479125976
1788861756157985000,9.959985107421875,-7.162553541564941,-0.22071546554565427,1.619078872680664
1788861756167992800,9.969992919921875,-7.954136465454101,-0.31753099517822264,2.0854992835998534
1788861756178000000,9.979999755859374,-7.53978994064331,-1.0811316871643066,2.467374448394775
1788861756188007000,9.9900068359375,-7.688380081176757,-0.8646060745239257,1.9228432083129883
1788861756198014000,10.000013916015625,-6.943184814453125,0.04713584518432617,1.3462895210266113
1788861756208021000,10.01002099609375,-7.255478493499756,0.3547907585144043,0.9211690887451172
1788861756218027800,10.02002783203125,-7.489960618591308,0.18031331253051758,1.3046902671813965
1788861756228035000,10.03003515625,-7.3940429145812985,-0.17776947326660156,2.0202572883605954
1788861756238041900,10.040041748046875,-6.322338396453857,-0.5015852478027344,2.413953823852539
1788861756248049000,10.050048828125,-5.437531245422363,-1.0562918449401855,2.7813141410827633
1788861756258057000,10.060056884765626,-5.56038371810913,-1.735197653198242,2.940229276275635
1788861756268064000,10.07006396484375,-4.535066857147217,-2.1734861946105957,2.992153524780273
1788861756278071000,10.080071044921874,-3.982604824066162,-2.256834339904785,2.799569928741455
1788861756288077800,10.090077880859376,-4.524891500091552,-2.007987004852295,2.3588871856689453
1788861756298084900,10.1000849609375,-5.105934315490722,-1.712901650238037,1.9324200149536133
1788861756308092000,10.110091796875,-5.266794739532471,-1.3590087173461913,1.6162357582092284
1788861756318099000,10.120098876953126,-5.569810887145996,-1.0330980163574217,1.6398784996032714
1788861756328106000,10.13010595703125,-5.876717612457275,-0.9690531219482421,2.2845172966003418
1788861756338112800,10.14011279296875,-5.680542713928222,-1.3914800773620604,3.042132484436035
1788861756348120000,10.1501201171875,-4.799326865386963,-2.217928562927246,3.5523967132568357
1788861756358127900,10.1601279296875,-4.501847309112549,-3.0954034713745116,3.71550170135498
1788861756368135000,10.170135009765625,-5.364508094787597,-3.6318542808532714,3.452588431549072
1788861756378142000,10.180141845703124,-5.9376201171875,-4.172345305633545,3.6188358093261717
1788861756388149000,10.19014892578125,-6.268319221496582,-4.755931960296631,4.3923125831604
1788861756398156000,10.200156005859375,-6.848464211273193,-5.2730795188903805,5.226093311309814
1788861756408162800,10.210162841796874,-7.294234632873534,-6.1647699996948235,6.140528707885742
1788861756418169900,10.220169921875,-6.895450418853759,-7.709478983306885,7.36157155456543
1788861756428177000,10.230177001953125,-6.573131020355224,-9.488520454406737,8.282142092895507
1788861756438184000,10.240183837890624,-7.729530422210693,-10.902595809936523,8.13998636932373
1788861756448192000,10.25019189453125,-8.840739267730712,-12.089670920562744,7.506121479797363
1788861756458199000,10.260198974609375,-8.84253491897583,-12.82603756866455,7.013215213012695
1788861756468205800,10.270205810546875,-9.015665626525879,-12.637045275115966,6.447285795593261
1788861756478212900,10.280212890625,-9.884760829162596,-11.546037506103515,5.598541307067871
1788861756488220000,10.290219970703125,-9.497498710632323,-10.148422286987303,5.223549472045898
1788861756498227000,10.30022705078125,-8.442104691314697,-8.237550086975098,5.0757075195312495
1788861756508234000,10.31023388671875,-7.787140899658203,-6.283133344268799,5.187337171936035
1788861756518241000,10.320240966796876,-7.058106494140625,-5.329043982696533,5.933130989074707
1788861756528247800,10.330247802734375,-6.024709202575683,-5.058948107910156,6.797737063598633
1788861756538255000,10.340255126953124,-6.085162794494629,-5.125087928771972,7.1315785575866695
1788861756548263000,10.350262939453126,-6.900089184570312,-5.521627578735351,6.928221054077148
1788861756558270000,10.36027001953125,-6.534225243377685,-6.33341157913208,7.009474272918701
1788861756568277000,10.370277099609375,-6.069600483703613,-7.326406717681884,7.045387297821044
1788861756578284000,10.380283935546874,-6.714089643096924,-8.28049607925415,6.421398490142822
1788861756588290800,10.390290771484375,-6.839186679840087,-8.892513878631592,6.150404789733886
1788861756598297900,10.4002978515625,-5.854720884704589,-9.127744191741943,6.8113540855407715
1788861756608305000,10.410304931640624,-6.5777697860717765,-8.33152250213623,6.598569412994385
1788861756618312000,10.42031201171875,-7.427262462615967,-7.542633055114746,6.133495740509033
1788861756628319000,10.430319091796875,-6.842329069519042,-7.1038956008911125,6.054636723327636
1788861756638326800,10.440326904296874,-5.351489623260497,-6.789656632995605,6.517914744567871
1788861756648334000,10.450333984375,-5.9020063674926755,-7.161805353546142,6.88243194732666
1788861756658340900,10.4603408203125,-7.364564306640625,-7.764695259094238,6.127809511566162
1788861756668348000,10.470347900390625,-7.671022119140624,-8.500463356781005,5.063586873626709
1788861756678355000,10.48035498046875,-7.358878077697754,-8.897152644348145,4.64145919342041
1788861756688362000,10.490362060546875,-7.612813091278076,-8.750058879852295,5.034257903289794
1788861756698369000,10.500369140625,-7.370549810791015,-8.636783213806153,6.152499716186523
1788861756708375800,10.510375732421876,-6.83783994140625,-8.425345279693603,7.172130348205566
1788861756718382800,10.5203828125,-7.18200643005371,-8.336460543060301,7.86510209121704
1788861756728391000,10.530390869140625,-7.438634920501708,-8.873210627746582,8.007108177185058
1788861756738398000,10.54039794921875,-6.461651005554199,-9.0397572807312,7.331793671417236
1788861756748405000,10.550405029296876,-5.191527024841308,-8.269871809387206,6.1653685501098625
1788861756758411800,10.560411865234375,-5.288043279266357,-7.180210778808593,5.253776268005371
1788861756768419000,10.570419189453125,-5.0760067947387695,-6.253056185913086,5.308693268585205
1788861756778425900,10.58042578125,-4.54524221420288,-6.07124649734497,6.219238087463379
1788861756788433000,10.590432861328125,-5.787832875823974,-6.373813732147217,6.968174294281005
1788861756798440000,10.60043994140625,-7.02892716140747,-6.506841561889648,7.068281851196288
1788861756808447000,10.610447021484376,-6.28852029800415,-6.4351651496887206,6.8599863067626945
1788861756818454000,10.6204541015625,-4.896292032623291,-6.029796881103516,6.675034228515624
1788861756828461800,10.6304619140625,-4.847061260986328,-5.256619382476806,6.291662687683105
1788861756838469000,10.64046923828125,-5.216965417480468,-4.4844893470764156,5.8822542037963865
1788861756848476000,10.650475830078125,-4.953303959655761,-4.47551109085083,5.961562133789062
1788861756858483000,10.66048291015625,-5.5461681457519525,-4.920982237243652,6.094141050720214
1788861756868490000,10.670489990234374,-6.247669232177734,-5.051316590118408,5.624129337310791
1788861756878496800,10.680496826171876,-6.374262644958495,-5.042787246704101,4.593874435424804
1788861756888504000,10.690504150390625,-6.03937368774414,-4.989516259765625,3.6266169647216793
1788861756898510800,10.7005107421875,-6.257246038818359,-4.365527452087402,2.901173861694336
1788861756908518000,10.710517822265626,-6.543502774810791,-3.2199019577026364,3.201047619628906
1788861756918525000,10.72052490234375,-6.415113710784912,-2.09417826461792,4.650886362457275
1788861756928532700,10.73053271484375,-7.160308977508545,-1.7764976318359373,6.1070098846435545
1788861756938540000,10.7405400390625,-7.973290078735351,-2.745700391387939,7.015010864257812
1788861756948546800,10.750546875,-8.35726016998291,-4.478204567718506,6.9725137847900385
1788861756958554000,10.76055419921875,-8.289175060272216,-5.505017804718017,5.971138940429687
1788861756968561000,10.770560791015624,-8.24188957748413,-5.257816483306884,5.244648374176025
1788861756978568000,10.78056787109375,-8.124124783325195,-4.033930522155761,5.3384711517333985
1788861756988575000,10.790574951171875,-6.904877587890625,-2.96237564163208,5.8283846664428705
1788861756998581800,10.800581787109374,-6.49935968170166,-3.0144495277404784,5.666776054382324
1788861757008588500,10.810588623046876,-6.899191358947753,-3.7954081817626952,4.421940828704834
1788861757018596600,10.8205966796875,-6.506841561889648,-3.8398505500793454,2.411409984588623
1788861757028603600,10.830603759765625,-5.596895293426513,-2.916885810089111,1.4700398193359374
1788861757038610700,10.840610595703126,-6.823175456237792,-1.8372504989624023,1.513733999633789
1788861757048617700,10.85061767578125,-7.944260383605957,-1.2131120536804199,1.4311340423583983
1788861757058624800,10.860624755859375,-6.993911962127685,-0.8716390419006347,0.9686042091369629
1788861757068631600,10.870631591796876,-5.9579708312988275,-0.6163572898864745,0.3800795135498047
1788861757078638600,10.880638671875,-5.736806452941894,-0.7754220626831054,-0.03666121292114258
1788861757088645600,10.890645751953125,-5.739051016998291,-1.0410288093566893,-0.14859014053344727
1788861757098652700,10.900652587890624,-5.257517208099365,-0.4402338302612304,0.03441664886474609
1788861757108659700,10.91065966796875,-5.922805994415283,0.3829226280212402,0.47584757995605464
1788861757118667500,10.92066748046875,-6.983886242675781,0.47809214401245115,2.0222025772094727
1788861757128674800,10.9306748046875,-5.801000984954833,-0.40447044296264645,3.65175608215332
1788861757138681600,10.940681640625,-4.529380628204345,-1.8219874633789062,3.4267011260986324
1788861757148688600,10.950688720703125,-5.074211143493652,-1.821538550567627,1.4493898300170898
1788861757158695700,10.96069580078125,-5.7900774398803705,-0.3434183006286621,0.07511807708740234
1788861757168702700,10.97070263671875,-5.303007039642334,0.8144774772644042,-0.5364508094787598
1788861757178709800,10.980709716796875,-5.961711771392822,1.1954548164367675,-0.8583212951660156
1788861757188716500,10.990716552734375,-7.876175273895263,1.118541088104248,-0.565031591796875
1788861757198723600,11.0007236328125,-8.092700886535644,1.1869254730224608,1.1240776794433593
1788861757208730600,11.010730712890625,-7.2720882675170895,0.9976339042663573,3.3451486320495603
1788861757218738400,11.020738525390625,-6.757035635375976,-0.005835866546630859,5.0203416061401365
1788861757228745700,11.030745849609374,-6.430676021575928,-1.6903063720703124,5.483021076965332
1788861757238752500,11.04075244140625,-5.272331330871582,-3.180098355102539,4.874893855285644
1788861757248759800,11.050759765625,-4.886864863586426,-4.088548247528076,3.5378818656921385
1788861757258766600,11.0607666015625,-6.025457390594482,-4.4193969894409175,2.5354595581054684
1788861757268773600,11.070773681640626,-6.503549534606933,-4.474313990020752,2.6397569679260253
1788861757278780700,11.08078076171875,-5.947496199035644,-4.695927281188965,3.333925811767578
1788861757288787700,11.09078759765625,-6.170156953430175,-4.787355857086181,3.4241572868347165
1788861757298794800,11.100794677734376,-6.763021139526367,-4.7584757995605464,3.1453824310302734
1788861757308801500,11.110801513671875,-6.3715691680908195,-4.797980126953124,3.193416101837158
1788861757318809900,11.120809814453125,-5.831527056121826,-4.8032174430847165,3.63903688583374
1788861757328816600,11.130816650390624,-6.331765565490723,-4.5976153755187985,4.257339464569092
1788861757338823700,11.14082373046875,-6.281337693023681,-4.499453107452393,5.307945080566406
1788861757348830700,11.150830810546875,-5.657947435760498,-4.817433015441894,6.358999609374999
1788861757358837500,11.16083740234375,-5.448005877685547,-5.522226129150391,6.698976245117187
1788861757368844800,11.1708447265625,-5.604676448822021,-6.692990740966796,6.4363622505187985
1788861757378851600,11.1808515625,-5.753715502166748,-8.02536396484375,5.7517702133178705
1788861757388858600,11.190858642578124,-6.20562106552124,-8.836250139617919,4.864119947814941
1788861757398865700,11.20086572265625,-7.209539749145508,-9.175328949737548,4.252401423645019
1788861757408873500,11.21087353515625,-8.01877991027832,-9.292495193481445,4.534019393920898
1788861757418880800,11.220880859375,-8.59937381286621,-9.324966553497314,5.691915171813965
1788861757428887600,11.230887451171874,-9.140912300872802,-9.67900912399292,7.192331424713134
1788861757438894800,11.240894775390625,-8.881291058349609,-10.146925910949706,8.156895418548583
1788861757448901600,11.250901611328125,-8.715791868591308,-10.261847590637206,8.31880330581665
1788861757458908700,11.26090869140625,-8.770259956359864,-9.78719711151123,7.888295919799805
1788861757468915700,11.270915771484376,-7.979125945281982,-9.185354669189453,7.519588864135741
1788861757478922500,11.280922607421875,-7.464522225952148,-8.75230344390869,7.508964594268798
1788861757488929800,11.2909296875,-8.585756790924071,-8.694244053649902,7.320271575927734
1788861757498936600,11.3009365234375,-8.685864347839354,-9.106046739196778,7.510311332702636
1788861757508944600,11.310944580078125,-7.298424485778808,-9.367014720153808,7.969848413848877
1788861757518951700,11.32095166015625,-7.599345706939697,-8.95042363128662,7.277026308441162
1788861757528958500,11.33095849609375,-7.979874133300781,-8.35726016998291,6.380996337127685
1788861757538965800,11.3409658203125,-6.777386349487304,-8.202834162902832,6.8822823097229
1788861757548972500,11.35097265625,-6.192303318786621,-7.989450939941406,8.200439961242676
1788861757558979800,11.360979736328124,-7.056909393310547,-8.292766362762451,8.819041815185546
1788861757568986600,11.370986572265625,-6.865522898101807,-8.44015940246582,8.258948264312744
1788861757578993700,11.38099365234375,-5.858012911987305,-7.990797678375244,6.744316439056396
1788861757589000700,11.391000732421874,-5.295225884246826,-7.499687062835693,5.051615865325927
1788861757599007500,11.401007568359375,-5.089324541473388,-7.1416042770385735,3.6623803520202634
1788861757609015800,11.411015869140625,-4.235791649627686,-6.478859329986572,3.0104093124389646
1788861757619022600,11.421022705078125,-3.8709751716613767,-5.799654246520996,3.2984616996765133
1788861757629029600,11.431029541015626,-4.521749110412597,-5.576245304107665,4.253598524475097
1788861757639036700,11.44103662109375,-4.996848502349853,-6.1364884925842285,5.549011260223389
1788861757649043500,11.45104345703125,-5.22190345840454,-7.068880401611327,6.501005695343017
1788861757659050800,11.46105078125,-5.811774892425537,-7.412747615051269,6.158036307525634
1788861757669057500,11.4710576171875,-6.293607976531982,-7.120056462097168,4.840028293609619
1788861757679064800,11.48106494140625,-5.829282492065429,-6.600664339447021,4.132990615844727
1788861757689071600,11.491071533203124,-5.6851814796447755,-5.9953802322387695,4.051438121795654
1788861757699078700,11.50107861328125,-7.205050621032714,-5.421370384216308,4.137928656768799
1788861757709086700,11.511086669921875,-7.6101196144104,-5.510853671264648,5.357175852203369
1788861757719093500,11.521093505859374,-6.531531766510009,-6.381744525146484,7.376236039733886
1788861757729100800,11.531100830078126,-6.585850216674804,-7.136217323303223,8.79210704650879
1788861757739107600,11.541107666015625,-7.369801622772217,-7.427262462615967,8.952069644927978
1788861757749114600,11.551114501953125,-6.874351516723633,-7.378480603790282,8.584858965301514
1788861757759121700,11.56112158203125,-6.55008682937622,-6.901884835815429,8.034192583465575
1788861757769128400,11.57112841796875,-7.196222002410888,-6.488136861419678,7.41244833984375
1788861757779135700,11.5811357421875,-6.8572928298950195,-6.879289557647705,6.625504181671142
1788861757789142500,11.591142578125,-5.954828441619873,-7.467365340423584,5.839008936309814
1788861757799150600,11.601150634765625,-6.389376042938232,-7.41828420639038,5.330390721130371
1788861757809157600,11.61115771484375,-7.485920403289795,-6.584503478240967,5.1146132965087885
1788861757819164700,11.62116455078125,-7.190535773468017,-5.464166738891601,5.5373395271301264
1788861757829171700,11.631171630859376,-7.34855308303833,-4.668693237304687,6.132298639678955
1788861757839178500,11.641178466796875,-8.042721926879882,-4.4385506027221675,6.515670180511474
1788861757849185800,11.651185791015624,-7.22106184463501,-4.777330137634277,6.5671455162048336
1788861757859192600,11.661192626953126,-5.660640912628174,-5.632209767913818,6.210110193634033
1788861757869200000,11.671199951171875,-5.616048906707763,-6.14202508392334,5.147234294128418
1788861757879206700,11.68120654296875,-5.909637885284424,-5.159205302429199,3.7023335922241207
1788861757889213400,11.69121337890625,-4.719270747375488,-3.3476924713134766,3.205985660552978
1788861757899220700,11.701220703125,-4.269011197662353,-1.9400515327453611,3.1649849571228024
1788861757909228500,11.711228515625,-5.422268209838867,-1.1960533668518065,2.888155390167236
1788861757919235600,11.721235595703124,-6.574777033996582,-1.2352584190368652,2.7398645248413085
1788861757929242600,11.73124267578125,-6.353014105224609,-1.9469348625183105,2.6219500930786133
1788861757939249700,11.741249755859375,-6.432621310424804,-2.428019758605957,1.9705776039123535
1788861757949256700,11.751256591796874,-6.468235060119628,-2.3177368446350095,1.4700398193359374
1788861757959263500,11.761263427734375,-5.580584794616699,-2.1779753227233885,1.7782932830810545
1788861757969270800,11.771270751953125,-5.8277861160278315,-2.4480711975097655,2.096123553466797
1788861757979277600,11.781277587890624,-7.119008998870849,-2.4721628517150878,2.0226514900207517
1788861757989284900,11.791284912109376,-7.353341486358642,-2.068590234375,2.1184195564270016
1788861757999291100,11.801291015625,-7.237073068237304,-1.472134745788574,2.0302830078125
1788861758009299200,11.81129931640625,-8.703970497894286,-0.5086182151794433,0.891241567993164
1788861758019306200,11.82130615234375,-8.283488831329345,0.637755467224121,0.8289923248291016
1788861758029313000,11.83131298828125,-7.173028173828125,0.9876081848144531,1.984942813873291
1788861758039320300,11.8413203125,-7.538443202209472,-0.4748001167297363,2.536058108520508
1788861758049327000,11.8513271484375,-7.675810522460937,-2.087145297241211,2.8631659103393554
1788861758059334400,11.86133447265625,-6.569090805053711,-1.399560507965088,2.5878327194213866
1788861758069341200,11.871341064453125,-4.856638067626953,-0.349852717590332,1.982847887420654
1788861758079348000,11.881347900390624,-5.204844771575927,0.05491700057983398,0.785896694946289
1788861758089355300,11.891355224609375,-5.814767644500732,0.04863222122192382,0.2856581855773926
1788861758099362000,11.901362060546875,-6.132448277282714,-0.03860650177001953,1.1308113716125487
1788861758109370000,11.9113701171875,-5.59869094467163,-0.3924994346618652,2.328959664916992
1788861758119377200,11.921377197265626,-5.015852478027344,-1.5351321769714354,3.3475428337097166
1788861758129384200,11.93138427734375,-6.011541093444824,-2.310554239654541,3.212120802307129
1788861758139391200,11.94139111328125,-6.196493171691894,-2.2463597076416013,2.632724000549316
1788861758149398000,11.95139794921875,-6.2873231971740715,-1.5128361740112304,1.8391957878112792
1788861758159405300,11.9614052734375,-6.540510022735595,-0.17702128524780272,1.3703811752319335
1788861758169412000,11.971412109375,-6.85654464187622,0.5448305152893066,1.837998686981201
1788861758179419400,11.98141943359375,-7.039102518463134,0.24824878463745115,2.953397385406494
1788861758189426200,11.99142626953125,-6.937648223114013,-0.8653542625427245,4.1575311828613275
1788861758199433200,12.00143310546875,-7.0950669822692864,-2.2756886779785157,4.688744676208496
1788861758209441300,12.011441162109374,-6.816890676879883,-3.7014357666015623,4.777330137634277
1788861758219448000,12.021447998046876,-6.189160929107666,-4.925471365356445,4.8892590652465815
1788861758229455400,12.031455322265625,-5.47808303604126,-5.954229891204833,5.241206709289551
1788861758239462100,12.041462158203124,-6.100425830078125,-6.898742446136474,5.4418707359313965
1788861758249469200,12.05146923828125,-7.11841044845581,-7.624035911560058,5.365106645202636
1788861758259476200,12.061476318359375,-6.505195548248291,-8.327781562042237,5.584325734710693
1788861758269483000,12.07148291015625,-6.100874742889404,-8.81649797592163,5.626673176574707
1788861758279490300,12.081490234375,-6.977601463317871,-8.774300171661377,5.133617272186279
1788861758289497000,12.0914970703125,-7.5978493309021,-8.295759114837645,4.591330596160889
1788861758299504400,12.10150439453125,-6.656329528045654,-7.584232308959961,4.633079487609863
1788861758309511200,12.11151123046875,-5.4804772377014155,-6.6072483940124505,4.942081139373779
1788861758319519200,12.121519287109376,-5.769277812957763,-5.849633206176757,5.1045875770568845
1788861758329526300,12.1315263671875,-5.977872632598877,-5.632808318328857,5.345504119110107
1788861758339533000,12.141532958984374,-6.0245595649719235,-5.6568999725341795,5.081393748474121
1788861758349540400,12.151540283203126,-6.733542531585693,-5.634454331970215,4.299537268829345
1788861758359547100,12.161547119140625,-6.8213798049926755,-5.803993737030029,4.024054440307617
1788861758369554200,12.17155419921875,-5.748178910827637,-6.206518891143799,4.525639688110351
1788861758379561200,12.181561279296876,-5.819107135009765,-6.609044045257568,5.494543172454834
1788861758389568000,12.191568115234375,-7.579294268035889,-7.608323963165283,6.8822823097229
1788861758399575300,12.2015751953125,-7.951891901397705,-9.077166681671143,8.287678684234619
1788861758409582000,12.21158203125,-7.425616448974609,-10.113856000518798,8.881889608764649
1788861758419590100,12.221590087890625,-7.735515926361083,-10.384101512908934,8.877400480651856
1788861758429597200,12.23159716796875,-8.244283779144286,-10.096647676086425,8.339752570343016
1788861758439604200,12.241604248046874,-7.803750673675537,-9.625588499450682,7.468712078857421
1788861758449611300,12.251611328125,-7.723096005249023,-8.786420817565917,5.928791498565674
1788861758459618000,12.2616181640625,-7.294234632873534,-8.19026460418701,4.967669169616699
1788861758469625300,12.271625244140624,-6.120926181793212,-7.883806791687011,5.141847340393066
1788861758479632100,12.281632080078126,-5.50950693283081,-7.222857495880127,5.979518646240234
1788861758489639200,12.29163916015625,-6.908917803192138,-7.387009947204589,6.812551186370849
1788861758499646200,12.301646240234374,-7.693767034912109,-8.390330080413818,7.357830614471435
1788861758509653000,12.311653076171876,-7.082497423553466,-8.608352069091797,7.930194448852538
1788861758519660300,12.321660400390625,-7.02279201965332,-8.306383384704588,7.944260383605957
1788861758529668000,12.331668212890625,-6.650643299102783,-8.086865019989013,7.267299864196777
1788861758539675100,12.341675048828124,-5.841103862762451,-7.557596815490722,6.295403627777099
1788861758549682200,12.35168212890625,-5.285499440002441,-6.887220350646972,5.402665683746338
1788861758559689200,12.361689208984375,-4.900781160736083,-6.55637160873413,4.931606507110596
1788861758569696300,12.3716962890625,-4.887014501190185,-6.640019029235839,4.646696509552002
1788861758579703000,12.381703125,-5.586719936370849,-7.1026985000610345,4.32213254699707
1788861758589710300,12.39171044921875,-6.766013891601562,-7.439083833312988,3.6715082458496093
1788861758599717000,12.401717041015624,-6.738929485321044,-7.282562899780273,3.667617668151855
1788861758609724200,12.41172412109375,-5.679345613098144,-7.089081478118896,5.063586873626709
1788861758619731200,12.421731201171875,-5.051166952514648,-7.105092701721191,6.450128910064697
1788861758629738000,12.431738037109374,-5.143194078826904,-7.063792723083496,6.820481979370117
1788861758639746300,12.441746337890624,-5.894973400115966,-6.786214968109131,6.315754341888427
1788861758649753000,12.451753173828125,-6.66515814666748,-6.710947253417968,5.6024318847656245
1788861758659760000,12.461760009765625,-7.0747162681579585,-6.687154874420165,4.984278943634033
1788861758669767200,12.47176708984375,-7.545476169586181,-6.648398735046387,4.94731845550537
1788861758679774200,12.481774169921875,-7.937077778625488,-6.545148788452148,5.802347723388672
1788861758689781200,12.49178125,-8.684068696594238,-6.535571981811523,7.299322311401367
1788861758699788000,12.5017880859375,-9.01491743850708,-6.841580881500244,8.997559476470947
1788861758709795300,12.51179541015625,-8.381202186584472,-7.632116342163085,10.353276166534423
1788861758719802000,12.521802001953125,-8.03793352355957,-8.539369133758544,10.464905818939208
1788861758729809400,12.531809326171874,-8.238298274993896,-8.524704648590088,8.945036677551268
1788861758739816200,12.541816162109376,-7.202506781768799,-7.5065703926086425,7.101052486419677
1788861758749824300,12.55182421875,-6.098630178833007,-6.175543907165527,6.2867246467590325
1788861758759831300,12.561831298828125,-5.885546231079101,-5.185691158294677,5.839757124328613
1788861758769838000,12.571838134765626,-5.679944163513183,-4.5973161003112795,5.482272888946533
1788861758779845000,12.58184521484375,-4.839130467987061,-4.369418029785156,5.26080923538208
1788861758789852200,12.59185205078125,-4.8704047271728514,-4.496909268188476,4.82626163406372
1788861758799859200,12.601859130859374,-6.748955204772948,-4.599111751556396,3.74767378616333
1788861758809866200,12.6118662109375,-7.652766331481933,-3.9706338157653804,2.68135622177124
1788861758819873000,12.621873046875,-6.438008264160156,-2.354547695159912,2.633472188568115
1788861758829880300,12.63188037109375,-6.5695397178649895,-0.7707832969665527,3.2320226036071777
1788861758839887000,12.64188720703125,-6.807014595031738,-0.8803180229187011,4.116231204223633
1788861758849894400,12.651894287109375,-6.338798532867432,-2.994996639251709,4.664204109191894
1788861758859902200,12.661902099609375,-6.010643267822266,-5.036502467346191,4.080168541717529
1788861758869909200,12.6719091796875,-5.42705661315918,-4.957643450164794,2.1288941886901855
1788861758879916300,12.681916259765625,-4.669890338134765,-2.533813544464111,-0.05117606048583984
1788861758889923000,12.691923095703125,-4.686949024963378,0.6727706665039062,-0.3950432739257812
1788861758899930000,12.70193017578125,-5.084685775756836,2.740313437652588,0.018854338073730468
1788861758909937200,12.711937255859375,-6.278344940948486,2.4449288078308102,0.8002619049072265
1788861758919944200,12.721944091796875,-7.423970435333252,0.27099370040893556,1.7426795333862304
1788861758929951200,12.731951171875,-7.2355766921997065,-1.6138415565490722,2.1312883903503415
1788861758939958000,12.7419580078125,-6.935104383850097,-1.73654439163208,1.6792331893920898
1788861758949965300,12.75196533203125,-6.663661770629883,-0.5895721588134766,1.2181997322082518
1788861758959972000,12.76197216796875,-6.465391945648193,0.5280711036682129,1.3961188430786131
1788861758969979400,12.7719794921875,-7.102249587249755,0.1096843635559082,1.5203180541992187
1788861758979987200,12.7819873046875,-7.289146954345703,-1.3856442108154297,2.161814461517334
1788861758989994200,12.791994140625,-7.541735229492187,-1.7244237457275389,2.559551212310791
1788861759000002000,12.802001953125,-7.108833641815185,-0.9380781379699706,2.460491118621826
