time,seconds_elapsed,z,y,x
1788861746238574800,0.040574951171875,0.12068278342485428,0.4425313174724579,0.21693430840969086
1788861746248582000,0.050581787109375,0.15095679461956024,0.5771980285644531,0.3185751736164093
1788861746258588000,0.060587890625,0.14761586487293243,0.7454684376716614,0.4454824924468994
1788861746268594700,0.0705947265625,0.12191900610923767,0.8925710916519165,0.5684773921966553
1788861746278602000,0.08060205078125,0.04624709114432335,1.0711108446121216,0.6363813877105713
1788861746288607700,0.090607666015625,-0.04345643147826195,1.2890026569366455,0.6701012849807739
1788861746298614800,0.10061474609375,-0.11531892418861389,1.3871487379074097,0.7393144965171814
1788861746308621800,0.110621826171875,-0.11960209161043167,1.3972793817520142,0.8712805509567261
1788861746318627800,0.1206279296875,-0.1769726425409317,1.4069750308990479,1.0178927183151245
1788861746328634600,0.130634521484375,-0.32488515973091125,1.4627349376678467,1.0967806577682495
1788861746338642000,0.140641845703125,-0.5184164047241211,1.570580005645752,1.0302470922470093
1788861746348648700,0.150648681640625,-0.7378147840499878,1.6038548946380615,0.8596684336662292
1788861746358654700,0.16065478515625,-0.9596012830734253,1.385125994682312,0.601099967956543
1788861746368661800,0.170661865234375,-1.0105090141296387,0.9825706481933594,0.3963744640350342
1788861746378668800,0.180668701171875,-1.0050201416015625,0.4358374774456024,0.29558995366096497
1788861746388674800,0.1906748046875,-0.9852138757705688,0.06850180774927139,0.23239849507808685
1788861746398681900,0.200681884765625,-0.8534482717514038,-0.055035389959812164,0.13945500552654266
1788861746408689000,0.21068896484375,-0.6318055987358093,-0.2217026650905609,-0.04652551934123039
1788861746418694700,0.220694580078125,-0.34716856479644775,-0.40860363841056824,-0.24871201813220978
1788861746428702000,0.230701904296875,-0.005986718460917473,-0.6939235329627991,-0.36282020807266235
1788861746438708700,0.240708740234375,0.345712810754776,-1.0017054080963135,-0.3636378049850464
1788861746448715800,0.2507158203125,0.7385908961296082,-1.2457530498504639,-0.2896280288696289
1788861746458721800,0.2607216796875,1.0916129350662231,-1.4592125415802002,-0.20348136126995087
1788861746468728800,0.270728759765625,1.2247222661972046,-1.6978981494903564,-0.2307603806257248
1788861746478735600,0.280735595703125,1.12999427318573,-1.8746464252471924,-0.3827725052833557
1788861746488742000,0.290741943359375,0.9949770569801331,-1.8464930057525635,-0.5194328427314758
1788861746498748700,0.300748779296875,0.9716576337814331,-1.8033573627471924,-0.5548094511032104
1788861746508755700,0.310755615234375,0.9911738038063049,-1.816969871520996,-0.5014301538467407
1788861746518762800,0.3207626953125,0.8395830988883972,-1.5527863502502441,-0.45148831605911255
1788861746528768800,0.330768798828125,0.6280788779258728,-0.9516826272010803,-0.40905219316482544
1788861746538775800,0.34077587890625,0.6098785996437073,-0.6260541081428528,-0.38869166374206543
1788861746548782800,0.350782958984375,0.6854114532470703,-0.8826408982276917,-0.5349457859992981
1788861746558788900,0.360788818359375,0.8345036506652832,-1.2544928789138794,-0.7346381545066833
1788861746568795600,0.370795654296875,0.9990808963775635,-1.688934087753296,-0.8058465123176575
1788861746578803000,0.380802978515625,0.9271564483642578,-1.9902220964431763,-0.6648529767990112
1788861746588809700,0.390809814453125,0.7578957676887512,-2.13136887550354,-0.44828975200653076
1788861746598815700,0.400815673828125,0.6667505502700806,-2.2503538131713867,-0.3075356185436249
1788861746608822800,0.41082275390625,0.7543043494224548,-2.4392120838165283,-0.28815048933029175
1788861746618829800,0.420829833984375,1.081455945968628,-2.9646899700164795,-0.2946600615978241
1788861746628835600,0.430835693359375,1.5584179162979126,-3.911750316619873,-0.3025462329387665
1788861746638843000,0.4408427734375,2.0725836753845215,-5.023117542266846,-0.30462247133255005
1788861746648849700,0.450849609375,2.6003260612487793,-6.169473648071289,-0.21569977700710297
1788861746658857000,0.46085693359375,3.119384288787842,-7.225644111633301,-0.0708722397685051
1788861746668862700,0.47086279296875,3.564919948577881,-7.945019245147705,0.046716708689928055
1788861746678869800,0.480869873046875,3.9269096851348877,-8.282658576965332,0.048573799431324005
1788861746688876800,0.490876708984375,4.272287845611572,-8.286251068115234,-0.12562063336372375
1788861746698883800,0.5008837890625,4.554563999176025,-7.978322982788086,-0.5331381559371948
1788861746708889600,0.5108896484375,4.764808654785156,-7.329139709472656,-1.04257071018219
1788861746718897000,0.52089697265625,4.891911029815674,-6.532708168029785,-1.5529453754425049
1788861746728903700,0.530903564453125,4.902712345123291,-5.653236389160156,-2.0966317653656006
1788861746738909700,0.54090966796875,4.892503261566162,-5.104823112487793,-2.619035005569458
1788861746748917000,0.5509169921875,4.81357479095459,-4.893902778625488,-3.03165602684021
1788861746758923800,0.560923828125,4.792295932769775,-4.885294437408447,-3.1969525814056396
1788861746768930600,0.5709306640625,4.944547176361084,-4.915255546569824,-3.039463996887207
1788861746778936800,0.580936767578125,5.073681831359863,-4.770532131195068,-2.55686092376709
1788861746788944000,0.59094384765625,4.948369979858398,-4.483148574829102,-1.8332027196884155
1788861746798950700,0.60095068359375,4.382272243499756,-4.057047367095947,-0.9618286490440369
1788861746808957700,0.610957763671875,3.370976209640503,-3.2491095066070557,-0.11506963521242142
1788861746818963700,0.620963623046875,2.1466426849365234,-2.2554965019226074,0.5797428488731384
1788861746828970800,0.630970703125,1.1729011535644531,-1.502469539642334,1.0811764001846313
1788861746838977800,0.640977783203125,0.6106119751930237,-1.1492223739624023,1.48058021068573
1788861746848984800,0.65098486328125,0.3350200653076172,-1.2076928615570068,1.8515510559082031
1788861746858990600,0.660990478515625,0.25155341625213623,-1.420701026916504,2.0464627742767334
1788861746868998000,0.670997802734375,0.43455973267555237,-1.5613175630569458,2.12876033782959
1788861746879004700,0.681004638671875,0.797334611415863,-1.8317726850509644,2.2409744262695312
1788861746889012000,0.691011962890625,1.0766527652740479,-2.28936505317688,2.4385995864868164
1788861746899017700,0.701017822265625,1.05728280544281,-2.2125837802886963,2.332416534423828
1788861746909024800,0.711024658203125,0.6474953293800354,-3.080146551132202,1.8825969696044922
1788861746919031800,0.72103173828125,0.3162030577659607,-5.163270473480225,0.9207118153572083
1788861746929038800,0.731038818359375,0.29696252942085266,-5.891564846038818,0.4325101375579834
1788861746939044600,0.741044677734375,0.16230148077011108,-4.923891544342041,0.6986694931983948
1788861746949052000,0.751052001953125,0.31172746419906616,-3.2329742908477783,0.8112671375274658
1788861746959058700,0.76105859375,0.32769322395324707,-2.1555817127227783,0.5295172929763794
1788861746969065700,0.771065673828125,0.21220551431179047,-1.5073002576828003,0.14414829015731812
1788861746979071700,0.78107177734375,0.19808895885944366,-0.9759120345115662,0.15749497711658478
1788861746989078500,0.79107861328125,0.15657773613929749,-0.7917743921279907,0.5363938212394714
1788861746999085300,0.801085205078125,-0.1990128457546234,-0.9825576543807983,1.126240611076355
1788861747009092600,0.811092529296875,-0.4493146240711212,-1.883135199546814,1.1706857681274414
1788861747019098600,0.8210986328125,-0.6404246091842651,-1.9313557147979736,1.3050259351730347
1788861747029105400,0.83110546875,-0.3452502191066742,-2.092207908630371,0.8477561473846436
1788861747039112400,0.841112548828125,-0.23131191730499268,-1.3148983716964722,0.8438210487365723
1788861747049119500,0.851119384765625,0.0280966367572546,-0.5551155805587769,1.7339712381362915
1788861747059125500,0.86112548828125,0.5725411772727966,-1.0578253269195557,1.9394810199737549
1788861747069132500,0.871132568359375,0.7612999081611633,-1.530114769935608,0.7849487066268921
1788861747079139600,0.8811396484375,0.9021714925765991,-0.7671794295310974,-0.16896279156208038
1788861747089146600,0.891146728515625,1.5280617475509644,-0.14300665259361267,-0.4399402439594269
1788861747099152600,0.901152587890625,2.539885997772217,0.07523567229509354,-0.21836523711681366
1788861747109159400,0.911159423828125,3.7955760955810547,0.04239434376358986,0.014280455186963081
1788861747119166700,0.921166748046875,4.896307468414307,-0.2217566967010498,-0.012116648256778717
1788861747129173500,0.931173583984375,5.219263076782227,-0.39552104473114014,-0.27979257702827454
1788861747139179500,0.941179443359375,4.685528755187988,-0.9317570924758911,-0.3790085017681122
1788861747149186600,0.9511865234375,3.5309314727783203,-0.6635639667510986,-0.0464414618909359
1788861747159193600,0.961193603515625,2.8002212047576904,0.27876734733581543,0.22870729863643646
1788861747169200400,0.971200439453125,2.2613236904144287,1.2994924783706665,0.12360244244337082
1788861747179206700,0.98120654296875,2.168408155441284,2.0623021125793457,0.026806920766830444
1788861747189213400,0.99121337890625,2.256517171859741,2.246044158935547,0.006129794288426638
1788861747199220500,1.001220458984375,2.3560101985931396,1.7853440046310425,0.024057509377598763
1788861747209227500,1.0112275390625,2.4864866733551025,1.182397723197937,0.14636477828025818
1788861747219234600,1.021234619140625,2.652951240539551,0.7628674507141113,0.2426874041557312
1788861747229240300,1.031240234375,2.5585992336273193,0.833798885345459,0.1892569363117218
1788861747239247600,1.04124755859375,1.9995133876800537,0.6930840015411377,-0.13425211608409882
1788861747249254400,1.05125439453125,1.1329041719436646,-0.22334353625774384,-0.9011154174804688
1788861747259261700,1.06126171875,0.3810506761074066,-1.1359442472457886,-1.0655741691589355
1788861747269267500,1.071267333984375,1.3048248291015625,-1.3382139205932617,0.14802241325378418
1788861747279274500,1.0812744140625,2.961249828338623,-1.049169898033142,0.8072459697723389
1788861747289281500,1.091281494140625,4.0559563636779785,-1.1851181983947754,0.3021591007709503
1788861747299288600,1.10128857421875,4.547876834869385,-2.5126731395721436,-0.9405533671379089
1788861747309295400,1.11129541015625,4.485750675201416,-3.4938180446624756,-1.8883605003356934
1788861747319301600,1.121301513671875,4.329305648803711,-4.283501148223877,-1.8187518119812012
1788861747329308400,1.131308349609375,4.186392784118652,-4.902332305908203,-1.3809479475021362
1788861747339315500,1.1413154296875,4.196556091308594,-5.784121036529541,-0.8388970494270325
1788861747349322500,1.151322509765625,4.197450160980225,-6.879724979400635,-0.31405165791511536
1788861747359328500,1.16132861328125,3.7255167961120605,-6.143631458282471,0.414517879486084
1788861747369335300,1.171335205078125,1.922716498374939,-2.572188377380371,1.1512494087219238
1788861747379342600,1.181342529296875,0.28160563111305237,-0.9320321679115295,0.7728161811828613
1788861747389349400,1.191349365234375,-0.3208315074443817,-0.8552596569061279,0.40608319640159607
1788861747399356700,1.201356689453125,-0.4137532413005829,-0.15578418970108032,0.3262989819049835
1788861747409362400,1.211362548828125,-0.381990522146225,0.39117932319641113,0.1137867122888565
1788861747419369500,1.221369384765625,-0.32570189237594604,0.17052489519119263,-0.3450096845626831
1788861747429376500,1.23137646484375,-0.4502432942390442,-0.16084052622318268,-0.5969324707984924
1788861747439383600,1.241383544921875,-0.6633263230323792,-0.36238667368888855,-0.8602192997932434
1788861747449389600,1.2513896484375,-0.7980819940567017,0.15762774646282196,-1.2316291332244873
1788861747459396600,1.261396728515625,-1.000106930732727,0.7581075429916382,-1.2030792236328125
1788861747469403400,1.2714033203125,-0.9570135474205017,1.0178654193878174,-1.3568365573883057
1788861747479410400,1.281410400390625,-0.8582636713981628,0.8494126200675964,-1.336877465248108
1788861747489417500,1.29141748046875,-0.6745454668998718,0.4383808374404907,-0.6307174563407898
1788861747499423500,1.301423583984375,-0.6002092361450195,0.38403284549713135,-0.048163607716560364
1788861747509430500,1.311430419921875,-1.0544880628585815,0.6832041144371033,0.33137279748916626
1788861747519437600,1.3214375,-1.9242488145828247,0.8528986573219299,-0.18550324440002441
1788861747529444400,1.3314443359375,-2.6577200889587402,0.5818535685539246,-0.008872013539075851
1788861747539451600,1.34145166015625,-3.0234522819519043,-0.46134892106056213,0.20322124660015106
1788861747549457700,1.351457763671875,-3.0410470962524414,-0.9118835926055908,0.06322340667247772
1788861747559464400,1.36146435546875,-2.5327224731445312,0.2451539784669876,-0.039060644805431366
1788861747569471500,1.371471435546875,-1.7624280452728271,2.1647613048553467,-0.003393193008378148
1788861747579478500,1.381478515625,-1.1707608699798584,2.426990032196045,0.16039784252643585
1788861747589485300,1.3914853515625,-1.1410080194473267,1.5002431869506836,0.3510466516017914
1788861747599491600,1.40149169921875,-0.9252069592475891,0.02766895294189453,0.2711968421936035
1788861747609498600,1.41149853515625,-0.27194201946258545,-0.5999611616134644,-0.012132594361901283
1788861747619505400,1.42150537109375,0.08929812163114548,-0.5881699323654175,0.0761236622929573
1788861747629512400,1.431512451171875,-0.17832931876182556,-0.4133448004722595,0.30704715847969055
1788861747639519500,1.44151953125,-0.6540022492408752,-0.08939444273710251,0.29533636569976807
1788861747649525500,1.451525390625,-0.5490465760231018,-0.24748581647872925,0.3193216025829315
1788861747659532500,1.461532470703125,-0.19490225613117218,-0.6641944050788879,0.20215073227882385
1788861747669539300,1.471539306640625,0.10717663913965225,-0.7822872400283813,0.24461084604263306
1788861747679546600,1.481546630859375,0.10900116711854935,-0.9544347524642944,0.40741679072380066
1788861747689553400,1.491553466796875,0.20410291850566864,-0.9794673919677734,0.6038368940353394
1788861747699560700,1.501560791015625,0.5678260326385498,-0.7084667682647705,0.7107902765274048
1788861747709566700,1.511566650390625,0.6881008148193359,-0.6116465330123901,0.6409006714820862
1788861747719573500,1.521573486328125,0.4910622239112854,-0.8617141246795654,0.5598850846290588
1788861747729580500,1.53158056640625,0.15205058455467224,-1.0909620523452759,0.5598555207252502
1788861747739587600,1.541587646484375,-0.0756877064704895,-1.2844243049621582,0.6994749307632446
1788861747749594400,1.551594482421875,-0.20845428109169006,-1.1179461479187012,0.8485757112503052
1788861747759600600,1.5616005859375,-0.503165066242218,-1.0816781520843506,0.6870625615119934
1788861747769607400,1.571607421875,-0.5872929692268372,-0.8004128336906433,0.5545409917831421
1788861747779614500,1.581614501953125,-0.6486124396324158,-0.7307735681533813,0.504755437374115
1788861747789621500,1.59162158203125,-0.557890772819519,-0.7583407759666443,0.4850214123725891
1788861747799628500,1.601628662109375,-0.3702335059642792,-0.5945606827735901,0.33524590730667114
1788861747809635600,1.611635498046875,-0.10627320408821106,-0.21047212183475494,0.07627666741609573
1788861747819641600,1.6216416015625,0.11755254864692688,-0.041425012052059174,-0.33066946268081665
1788861747829648400,1.6316484375,0.2547000050544739,0.10355187952518463,-0.6011398434638977
1788861747839655700,1.64165576171875,0.2782880365848541,0.158232644200325,-0.878206193447113
1788861747849662500,1.651662353515625,0.18622200191020966,0.19276292622089386,-1.1015301942825317
1788861747859669500,1.66166943359375,0.16321170330047607,0.2980766296386719,-1.1794178485870361
1788861747869675500,1.671675537109375,0.19056236743927002,0.5240293145179749,-1.0169329643249512
1788861747879682600,1.6816826171875,0.3579568564891815,0.7473152279853821,-0.7351073622703552
1788861747889689300,1.691689453125,0.5783914923667908,0.8161118626594543,-0.153691366314888
1788861747899696600,1.701696533203125,0.6561519503593445,0.703714907169342,-0.03302090987563133
1788861747909703400,1.711703369140625,0.6551308631896973,0.4412105679512024,-0.1057843267917633
1788861747919710700,1.721710693359375,0.4677847921848297,-0.06028537079691887,0.1995934545993805
1788861747929716500,1.731716552734375,0.21057908236980438,-0.32669147849082947,0.3239358961582184
1788861747939723500,1.7417236328125,0.07823727279901505,-0.6008423566818237,0.5527955889701843
1788861747949730600,1.75173046875,0.19525949656963348,-0.6383034586906433,0.5403980612754822
1788861747959737600,1.761737548828125,-0.009984203614294529,-0.44258612394332886,0.5804927349090576
1788861747969744400,1.771744384765625,-0.001534526003524661,-0.23129653930664062,0.5675016045570374
1788861747979751200,1.781751220703125,0.03891927748918533,-0.15706631541252136,0.46623310446739197
1788861747989757200,1.791757080078125,0.06145814061164856,-0.0811646357178688,0.3189765214920044
1788861747999764000,1.801763916015625,0.05930444225668907,-0.026468364521861076,0.20855920016765594
1788861748009771000,1.81177099609375,0.07217364013195038,-0.026150649413466454,0.12473540008068085
1788861748019778000,1.821778076171875,0.08571261912584305,-0.024304699152708054,0.08376837521791458
1788861748029785000,1.83178515625,0.08166222274303436,-0.006129157729446888,0.09887116402387619
1788861748039792000,1.841792236328125,0.07710637897253036,0.000999300042167306,0.13440324366092682
1788861748049798000,1.8517978515625,0.08093228191137314,-0.003156829159706831,0.17605562508106232
1788861748059805200,1.86180517578125,0.08840475976467133,-0.010425358079373837,0.18887928128242493
1788861748069812000,1.87181201171875,0.08006826788187027,-0.04015156254172325,0.16163460910320282
1788861748079819000,1.881819091796875,0.060029201209545135,-0.11051826924085617,0.13699741661548615
1788861748089826000,1.891825927734375,0.032777342945337296,-0.15465962886810303,0.1418137401342392
1788861748099833000,1.9018330078125,0.005039345007389784,-0.14829136431217194,0.16947050392627716
1788861748109838800,1.9118388671875,-0.01488802395761013,-0.16024149954319,0.19313400983810425
1788861748119846100,1.92184619140625,-0.03178444877266884,-0.17986541986465454,0.18660005927085876
1788861748129853000,1.93185302734375,-0.040235456079244614,-0.12805335223674774,0.13182975351810455
1788861748139860200,1.941860107421875,-0.03157251328229904,-0.04900811240077019,0.10817450284957886
1788861748149867000,1.951866943359375,-0.02922893315553665,-0.0853528082370758,0.14877891540527344
1788861748159874000,1.9618740234375,-0.027853354811668396,-0.1828731894493103,0.1903202384710312
1788861748169880000,1.971880126953125,-0.042044807225465775,-0.22263631224632263,0.2507103383541107
1788861748179887000,1.98188720703125,-0.05489205941557884,-0.23361912369728088,0.3000585734844208
1788861748189894000,1.991893798828125,-0.05241825059056282,-0.2472611665725708,0.32759618759155273
1788861748199901200,2.001901123046875,-0.01567722298204899,-0.3091554641723633,0.36723893880844116
1788861748209908000,2.011907958984375,0.023287486284971237,-0.3907395303249359,0.3732893764972687
1788861748219915300,2.021915283203125,0.034771889448165894,-0.4606134593486786,0.3568580150604248
1788861748229922000,2.031922119140625,0.03161657601594925,-0.5092142820358276,0.3335321843624115
1788861748239928000,2.041927978515625,0.008177243173122406,-0.5575062036514282,0.31829750537872314
1788861748249935000,2.05193505859375,-0.038880810141563416,-0.553638756275177,0.351478636264801
1788861748259942100,2.061942138671875,-0.050407879054546356,-0.5140872001647949,0.4281647205352783
1788861748269949000,2.071948974609375,-0.018990037962794304,-0.43071532249450684,0.461929589509964
1788861748279956200,2.081956298828125,0.008086269721388817,-0.39137667417526245,0.4434715807437897
1788861748289963000,2.091962890625,0.02627725712954998,-0.34652239084243774,0.3517299294471741
1788861748299970000,2.101969970703125,0.02972429245710373,-0.38405296206474304,0.24922971427440643
1788861748309976000,2.11197607421875,0.04115431383252144,-0.4704384505748749,0.19235524535179138
1788861748319983000,2.121983154296875,0.03984510153532028,-0.5468388199806213,0.17070990800857544
1788861748329990100,2.131990234375,0.058316782116889954,-0.5251633524894714,0.16177819669246674
1788861748339997000,2.141996826171875,0.11250604689121246,-0.47681570053100586,0.18126653134822845
1788861748350004000,2.15200390625,0.15576110780239105,-0.445337176322937,0.22232048213481903
1788861748360011000,2.162010986328125,0.159502312541008,-0.4825235903263092,0.2630733549594879
1788861748370017000,2.17201708984375,0.1442898064851761,-0.5410223007202148,0.3250664174556732
1788861748380024000,2.182024169921875,0.1562052220106125,-0.5037641525268555,0.39027997851371765
1788861748390031000,2.192031005859375,0.15769818425178528,-0.39929741621017456,0.42529070377349854
1788861748400038000,2.202037841796875,0.15684294700622559,-0.3354569673538208,0.4335368573665619
1788861748410045200,2.212045166015625,0.15645252168178558,-0.38205215334892273,0.3790712058544159
1788861748420052000,2.222052001953125,0.1509556919336319,-0.4481126070022583,0.302101194858551
1788861748430059000,2.23205908203125,0.11164664477109909,-0.47468963265419006,0.2542431056499481
1788861748440065000,2.24206494140625,0.08053489774465561,-0.4438328444957733,0.2549087107181549
1788861748450072000,2.252072021484375,0.10588153451681137,-0.3712145686149597,0.3058815896511078
1788861748460078800,2.262078857421875,0.18053670227527618,-0.27147409319877625,0.3072721064090729
1788861748470086100,2.272086181640625,0.25466153025627136,-0.19453245401382446,0.28306901454925537
1788861748480093000,2.282093017578125,0.29382380843162537,-0.20814061164855957,0.2771523892879486
1788861748490100200,2.292100341796875,0.3099444508552551,-0.28911134600639343,0.3118022382259369
1788861748500107000,2.30210693359375,0.3197438716888428,-0.40363213419914246,0.39954981207847595
1788861748510114000,2.312114013671875,0.3331158757209778,-0.42949622869491577,0.47844356298446655
1788861748520120000,2.3221201171875,0.30822864174842834,-0.35575127601623535,0.5134146809577942
1788861748530127000,2.332127197265625,0.262749046087265,-0.26814764738082886,0.5347663164138794
1788861748540134000,2.3421337890625,0.2678006589412689,-0.17739513516426086,0.5568792819976807
1788861748550141200,2.35214111328125,0.30415812134742737,-0.1342463344335556,0.5728467702865601
1788861748560148000,2.36214794921875,0.31663137674331665,-0.07058016955852509,0.5933793783187866
1788861748570155300,2.3721552734375,0.32307034730911255,-0.03216620534658432,0.6064906120300293
1788861748580162000,2.382162109375,0.35527303814888,-0.014901403337717056,0.5760341286659241
1788861748590168000,2.39216796875,0.3960745334625244,-0.02213241718709469,0.5139593482017517
1788861748600175000,2.402175048828125,0.4557504653930664,-0.026031693443655968,0.4472373127937317
1788861748610182100,2.41218212890625,0.5141772627830505,-0.027092430740594864,0.38683679699897766
1788861748620189000,2.42218896484375,0.5373146533966064,-0.05042433738708496,0.3373193144798279
1788861748630196000,2.432196044921875,0.5359085202217102,-0.0965537503361702,0.29976049065589905
1788861748640203000,2.442203125,0.5218355655670166,-0.12644438445568085,0.2921448051929474
1788861748650210000,2.4522099609375,0.5182650685310364,-0.13137602806091309,0.34308627247810364
1788861748660217000,2.462217041015625,0.529991865158081,-0.1033424511551857,0.39709311723709106
1788861748670223000,2.47222314453125,0.5080847144126892,-0.07245936989784241,0.4457954168319702
1788861748680230100,2.482230224609375,0.4609830379486084,-0.046187326312065125,0.45463791489601135
1788861748690237000,2.49223681640625,0.42946985363960266,0.0796680673956871,0.431610643863678
1788861748700244000,2.502243896484375,0.3575834035873413,0.20434576272964478,0.3531867563724518
1788861748710251000,2.5122509765625,0.2521398067474365,0.24114957451820374,0.24919642508029938
1788861748720258000,2.522258056640625,0.15402817726135254,0.18908952176570892,0.13758927583694458
1788861748730265000,2.53226513671875,0.04971321299672127,-0.02002907730638981,0.037553224712610245
1788861748740271000,2.54227099609375,-0.016620643436908722,-0.2518170177936554,-0.06271252781152725
1788861748750278000,2.55227783203125,-0.027955589815974236,-0.35824304819107056,-0.17710834741592407
1788861748760285200,2.56228515625,-0.028756795451045036,-0.42509618401527405,-0.28803551197052
1788861748770292000,2.5722919921875,-0.05539959296584129,-0.4842308759689331,-0.3583839535713196
1788861748780299000,2.582299072265625,-0.20814919471740723,-0.44454503059387207,-0.4426806569099426
1788861748790306000,2.59230615234375,-0.4775084853172302,-0.0822339579463005,-0.6489360928535461
1788861748800313000,2.60231298828125,-0.7516420483589172,0.34143781661987305,-0.9937093257904053
1788861748810320100,2.612320068359375,-0.9853043556213379,0.3152717053890228,-1.4702857732772827
1788861748820327200,2.6223271484375,-1.0898187160491943,-0.11025482416152954,-2.176096200942993
1788861748830333000,2.6323330078125,-1.0877825021743774,-0.7419145703315735,-2.9378280639648438
1788861748840340200,2.64234033203125,-1.0733329057693481,-1.1136099100112915,-3.3171730041503906
1788861748850347000,2.652346923828125,-1.040686011314392,-0.8057822585105896,-3.314967632293701
1788861748860354000,2.66235400390625,-1.056273102760315,-0.35816502571105957,-3.2384402751922607
1788861748870361000,2.672361083984375,-1.1053184270858765,-0.08335822820663452,-3.2829015254974365
1788861748880367900,2.682367919921875,-1.2361003160476685,0.03406353294849396,-3.3300514221191406
1788861748890375200,2.692375244140625,-1.4975497722625732,0.16937634348869324,-3.319805860519409
1788861748900382000,2.7023818359375,-1.8041660785675049,0.24254055321216583,-3.374544858932495
1788861748910388000,2.712387939453125,-2.0256946086883545,0.10372354835271835,-3.4844281673431396
1788861748920395000,2.72239501953125,-2.060415029525757,0.03539751097559929,-3.546034336090088
1788861748930402000,2.732402099609375,-1.9235860109329224,0.13061057031154633,-3.546765089035034
1788861748940409000,2.7424091796875,-1.6995378732681274,-0.28136464953422546,-3.477482557296753
1788861748950416100,2.752416015625,-1.6141414642333984,-1.2975722551345825,-3.393136501312256
1788861748960423000,2.7624228515625,-1.6797813177108765,-1.896690845489502,-3.3487398624420166
1788861748970430200,2.77243017578125,-1.7791848182678223,-1.934519648551941,-3.2344417572021484
1788861748980437800,2.782437744140625,-1.8373403549194336,-1.8031853437423706,-3.0348877906799316
1788861748990444500,2.792444580078125,-1.860180139541626,-1.7067430019378662,-2.8181169033050537
1788861749000450800,2.802450927734375,-1.8686567544937134,-1.6930021047592163,-2.625957489013672
1788861749010457900,2.812457763671875,-1.869659185409546,-1.728269338607788,-2.4750473499298096
1788861749020464600,2.822464599609375,-1.8952772617340088,-1.8925129175186157,-2.417546033859253
1788861749030471700,2.8324716796875,-1.8808711767196655,-2.2980682849884033,-2.3622262477874756
1788861749040478700,2.842478759765625,-1.8357129096984863,-2.76481032371521,-2.262017250061035
1788861749050485800,2.85248583984375,-1.7526155710220337,-2.966669797897339,-2.1496071815490723
1788861749060492800,2.862492919921875,-1.67579984664917,-2.7752764225006104,-2.089975595474243
1788861749070499600,2.87249951171875,-1.609199047088623,-2.2312395572662354,-2.0736019611358643
1788861749080507000,2.8825068359375,-1.545043706893921,-1.6962015628814697,-2.0783917903900146
1788861749090513700,2.892513671875,-1.4431391954421997,-1.3319783210754395,-2.087554454803467
1788861749100519700,2.902519775390625,-1.315597414970398,-1.1411163806915283,-1.9370200634002686
1788861749110526700,2.912526611328125,-1.22441828250885,-1.0814743041992188,-1.6610307693481445
1788861749120533800,2.92253369140625,-1.1539348363876343,-1.147542119026184,-1.3716766834259033
1788861749130540800,2.932540771484375,-1.03486168384552,-1.2120574712753296,-1.1661043167114258
1788861749140547800,2.9425478515625,-0.839903712272644,-1.0237114429473877,-1.0266261100769043
1788861749150554600,2.9525546875,-0.5981597900390625,-0.5472226142883301,-0.987994372844696
1788861749160562000,2.96256201171875,-0.3532249629497528,-0.2292005568742752,-0.8913719654083252
1788861749170568700,2.972568603515625,-0.20614202320575714,-0.12910909950733185,-0.8524096608161926
1788861749180575700,2.98257568359375,-0.20510728657245636,-0.16701683402061462,-0.7700786590576172
1788861749190582800,2.992582763671875,-0.2184332013130188,-0.35842782258987427,-0.6560101509094238
1788861749200588800,3.0025888671875,-0.15102046728134155,-0.18893879652023315,-0.5718622803688049
1788861749210595800,3.012595947265625,-0.07462982833385468,0.4146658480167389,-0.4544264078140259
1788861749220602600,3.0226025390625,-0.06858748942613602,0.7341155409812927,-0.40624070167541504
1788861749230609700,3.032609619140625,-0.12274100631475449,0.7479450702667236,-0.4309420585632324
1788861749240616700,3.04261669921875,-0.17342939972877502,0.6122379302978516,-0.4682343006134033
1788861749250623700,3.052623779296875,-0.1533758044242859,0.3786486089229584,-0.5203057527542114
1788861749260630800,3.062630859375,-0.14733456075191498,0.3300544321537018,-0.5252095460891724
1788861749270637800,3.072637939453125,-0.17907625436782837,0.39325496554374695,-0.5777699947357178
1788861749280644600,3.08264453125,-0.2923717796802521,0.18280066549777985,-0.4925357699394226
1788861749290652000,3.09265185546875,-0.4601874053478241,-0.08295618742704391,-0.33748865127563477
1788861749300657700,3.10265771484375,-0.5811989307403564,0.04096191003918648,-0.33192452788352966
1788861749310665000,3.1126650390625,-0.6068235635757446,0.035534653812646866,-0.30188485980033875
1788861749320671700,3.122671630859375,-0.4833059310913086,-0.17135167121887207,-0.22111119329929352
1788861749330678800,3.1326787109375,-0.4896538555622101,0.062353748828172684,-0.21236857771873474
1788861749340685800,3.142685791015625,-0.5401906371116638,0.2635229527950287,-0.2995116710662842
1788861749350692900,3.15269287109375,-0.5534265041351318,0.32699674367904663,-0.22230663895606995
1788861749360700000,3.162699951171875,-0.5829852819442749,0.32278937101364136,-0.19473198056221008
1788861749370706700,3.172706787109375,-0.5841789245605469,0.23397746682167053,-0.16570591926574707
1788861749380713700,3.182713623046875,-0.5162383913993835,0.20156539976596832,-0.16702458262443542
1788861749390720800,3.192720703125,-0.399042010307312,0.1537131816148758,-0.175911545753479
1788861749400727800,3.202727783203125,-0.3073614835739136,0.10905789583921432,-0.18634571135044098
1788861749410734800,3.21273486328125,-0.263100266456604,0.03982103243470192,-0.252858966588974
1788861749420740900,3.222740966796875,-0.2568502128124237,-0.17076650261878967,-0.1733131855726242
1788861749430747600,3.23274755859375,-0.2632442116737366,-0.0876774862408638,-0.0980176329612732
1788861749440755000,3.2427548828125,-0.2877936363220215,-0.02219676971435547,0.02142874151468277
1788861749450761700,3.25276171875,-0.31176766753196716,0.0630214586853981,0.12053082138299942
1788861749460768800,3.262768798828125,-0.35188353061676025,0.22224418818950653,0.21249760687351227
1788861749470775800,3.27277587890625,-0.3976616859436035,0.38460859656333923,0.3268281817436218
1788861749480782800,3.282782958984375,-0.3980214297771454,0.5827094912528992,0.4898029565811157
1788861749490790000,3.292789794921875,-0.3549181818962097,0.7897796034812927,0.6752181053161621
1788861749500796700,3.302796630859375,-0.28492656350135803,0.9467822313308716,0.7964526414871216
1788861749510803700,3.3128037109375,-0.2034149169921875,1.1014986038208008,0.8807470202445984
1788861749520810800,3.322810791015625,-0.12078176438808441,1.2400965690612793,0.8758895397186279
1788861749530817800,3.33281787109375,-0.054491687566041946,1.1809357404708862,0.8847978115081787
1788861749540823800,3.34282373046875,0.004422260448336601,1.0210027694702148,0.9267014861106873
1788861749550830800,3.352830810546875,0.01585201546549797,0.9726253151893616,0.9305606484413147
1788861749560837600,3.362837646484375,0.003620648756623268,1.0378667116165161,0.9478778839111328
1788861749570845000,3.372844970703125,0.0024523152969777584,1.1042605638504028,0.9500201940536499
1788861749580851700,3.382851806640625,0.05195285752415657,1.043521761894226,1.0013803243637085
1788861749590858800,3.392858642578125,0.13829466700553894,0.9348106384277344,1.0507526397705078
1788861749600865800,3.40286572265625,0.23515762388706207,0.8771971464157104,1.0903375148773193
1788861749610872800,3.412872802734375,0.3041481375694275,0.7526389956474304,1.0966159105300903
1788861749620880000,3.4228798828125,0.3486536145210266,0.6671399474143982,1.0410959720611572
1788861749630887000,3.432886962890625,0.4017530381679535,0.657436192035675,0.9912616610527039
1788861749640893700,3.442893798828125,0.5057734251022339,0.6278762221336365,0.9900844097137451
1788861749650900700,3.452900634765625,0.6434641480445862,0.5778743028640747,0.992196261882782
1788861749660907800,3.46290771484375,0.7598897814750671,0.6008843779563904,0.9904054999351501
1788861749670913800,3.472913818359375,0.8300686478614807,0.6910715103149414,0.9336479306221008
1788861749680920800,3.4829208984375,0.8414589762687683,0.7233593463897705,0.8462044596672058
1788861749690927600,3.492927734375,0.8435682058334351,0.7106478214263916,0.8535529375076294
1788861749700935000,3.502934814453125,0.8683624267578125,0.7211450934410095,0.8544144034385681
1788861749710941700,3.512941650390625,0.8913170099258423,0.7199083566665649,0.8270890116691589
1788861749720948700,3.52294873046875,0.9402243494987488,0.650620698928833,0.8270004987716675
1788861749730955800,3.532955810546875,1.0235427618026733,0.6244375705718994,0.8658427000045776
1788861749740962800,3.542962890625,1.0937362909317017,0.6757870316505432,0.8514350652694702
1788861749750969900,3.552969970703125,1.0841121673583984,0.7378663420677185,0.8393730521202087
1788861749760977000,3.562976806640625,1.0139975547790527,0.7245686054229736,0.8838285803794861
1788861749770983700,3.572983642578125,0.9306632280349731,0.6926589012145996,0.9738183617591858
1788861749780990700,3.58299072265625,0.8757132291793823,0.7021622657775879,1.053354263305664
1788861749790997800,3.592997802734375,0.8617857098579407,0.7523394227027893,1.0775554180145264
1788861749801004800,3.6030048828125,0.9028185606002808,0.8494521975517273,1.0875170230865479
1788861749811011800,3.61301171875,0.9933234453201294,1.007727026939392,1.0916476249694824
1788861749821017900,3.623017822265625,1.0827008485794067,1.0997695922851562,1.0652872323989868
1788861749831025000,3.63302490234375,1.1547443866729736,1.1355252265930176,1.0920099020004272
1788861749841031700,3.64303173828125,1.186248540878296,1.0659962892532349,1.161926507949829
1788861749851038700,3.653038818359375,1.181152582168579,0.9865509271621704,1.2120766639709473
1788861749861045800,3.663045654296875,1.1593815088272095,0.9844316244125366,1.2159249782562256
1788861749871052800,3.673052734375,1.1438642740249634,0.977013885974884,1.179787516593933
1788861749881059800,3.683059814453125,1.152626633644104,0.9764058589935303,1.1285322904586792
1788861749891067000,3.69306689453125,1.1490546464920044,0.9591893553733826,1.0935450792312622
1788861749901073700,3.70307373046875,1.134432315826416,0.937912106513977,1.0634194612503052
1788861749911081000,3.7130810546875,1.1208730936050415,0.9419971108436584,1.0241270065307617
1788861749921087700,3.723087646484375,1.1278903484344482,0.9720788598060608,0.9880565404891968
1788861749931094800,3.7330947265625,1.1146348714828491,0.9355600476264954,0.968066394329071
1788861749941101800,3.743101806640625,1.0634033679962158,0.7293802499771118,0.9648413062095642
1788861749951108600,3.753108642578125,0.9947330355644226,0.6051912307739258,0.9709061980247498
1788861749961116000,3.763115966796875,0.9210367202758789,0.5912408232688904,0.9936535954475403
1788861749971122700,3.773122802734375,0.8479723930358887,0.5620068311691284,1.0193991661071777
1788861749981129700,3.783129638671875,0.8127331733703613,0.5810611844062805,1.0218569040298462
1788861749991135500,3.793135498046875,0.8010255694389343,0.5884404182434082,0.9815080165863037
1788861750001142800,3.803142822265625,0.7581844925880432,0.5626163482666016,0.941417932510376
1788861750011149600,3.813149658203125,0.6439372301101685,0.530159056186676,0.9610493779182434
1788861750021156900,3.823156982421875,0.5152376294136047,0.6004859805107117,0.9879465103149414
1788861750031163600,3.83316357421875,0.42158856987953186,0.7322638630867004,1.031164288520813
1788861750041170700,3.843170654296875,0.36499959230422974,0.8605501651763916,1.1170963048934937
1788861750051177700,3.853177734375,0.36602866649627686,0.9384925961494446,1.201025366783142
1788861750061184800,3.863184814453125,0.41543054580688477,0.9627670049667358,1.2597259283065796
1788861750071191800,3.87319189453125,0.4920254349708557,0.9544454216957092,1.2555543184280396
1788861750081198600,3.883198486328125,0.5767296552658081,0.9130268692970276,1.1750296354293823
1788861750091205600,3.89320556640625,0.6271677017211914,0.831020176410675,1.045358657836914
1788861750101212700,3.903212646484375,0.6130791902542114,0.6905657649040222,0.9352569580078125
1788861750111219700,3.9132197265625,0.5778913497924805,0.5850803852081299,0.8532803654670715
1788861750121226800,3.923226806640625,0.5950996279716492,0.5843749046325684,0.7404866814613342
1788861750131233800,3.93323388671875,0.6440175771713257,0.7076656818389893,0.6069000959396362
1788861750141240600,3.943240478515625,0.6155520677566528,0.8267915844917297,0.4684135317802429
1788861750151247600,3.95324755859375,0.5050557255744934,0.9133391976356506,0.34861817955970764
1788861750161254700,3.963254638671875,0.41808727383613586,0.9900233149528503,0.2167655974626541
1788861750171261700,3.97326171875,0.3527715504169464,0.9942781329154968,0.07488624006509781
1788861750181268700,3.983268798828125,0.32426586747169495,1.0505836009979248,-0.12186384201049805
1788861750191275500,3.993275634765625,0.3035019636154175,0.9914299845695496,-0.3109801113605499
1788861750201281800,4.00328173828125,0.2482650876045227,0.6616665124893188,-0.4077862799167633
1788861750211288600,4.01328857421875,0.1540275514125824,0.42073285579681396,-0.4929385483264923
1788861750221295600,4.023295654296875,0.052020490169525146,0.3673926591873169,-0.6127594709396362
1788861750231302700,4.033302734375,-0.07720358669757843,0.3809607923030853,-0.6926725506782532
1788861750241309700,4.043309814453125,-0.21222186088562012,0.46753188967704773,-0.7416805624961853
1788861750251316700,4.053316650390625,-0.3409787118434906,0.47260040044784546,-0.7859845757484436
1788861750261323800,4.06332373046875,-0.4572094678878784,0.4471309781074524,-0.8703948259353638
1788861750271330600,4.07333056640625,-0.5746732354164124,0.3895740509033203,-1.0189582109451294
1788861750281337900,4.083337890625,-0.6582938432693481,0.17964716255664825,-1.2299476861953735
1788861750291344600,4.0933447265625,-0.6957277655601501,-0.19532957673072815,-1.4668763875961304
1788861750301351700,4.1033515625,-0.7367844581604004,-0.6215514540672302,-1.7057996988296509
1788861750311358700,4.113358642578125,-0.7828060388565063,-0.9685485363006592,-1.9571914672851562
1788861750321365500,4.123365478515625,-0.7995226979255676,-1.0329164266586304,-2.2245516777038574
1788861750331372800,4.133372802734375,-0.7996416687965393,-0.6792179346084595,-2.445413589477539
1788861750341379600,4.143379638671875,-0.7612790465354919,-0.17424102127552032,-2.4838063716888428
1788861750351387000,4.153386962890625,-0.6673567295074463,0.2600118815898895,-2.311142921447754
1788861750361393700,4.1633935546875,-0.5347371697425842,0.5417221188545227,-2.1045665740966797
1788861750371400700,4.173400634765625,-0.37919872999191284,0.602281928062439,-1.9534615278244019
1788861750381407700,4.18340771484375,-0.23597630858421326,0.5995931625366211,-1.8648861646652222
1788861750391414500,4.19341455078125,-0.18829666078090668,0.5657407641410828,-1.8308216333389282
1788861750401421800,4.203421875,-0.1866212636232376,0.3647208511829376,-1.7994986772537231
1788861750411428600,4.2134287109375,-0.11543884128332138,0.018064996227622032,-1.695136547088623
1788861750421435600,4.223435546875,0.024365657940506935,-0.3037322163581848,-1.4406321048736572
1788861750431442700,4.233442626953125,0.1317978799343109,-0.45034968852996826,-1.060792088508606
1788861750441449700,4.24344970703125,0.15219901502132416,-0.35433661937713623,-0.6562870144844055
1788861750451456800,4.253456787109375,0.08571524173021317,-0.20854176580905914,-0.319576621055603
1788861750461463800,4.2634638671875,-0.0451359786093235,-0.06875430047512054,-0.22081513702869415
1788861750471470600,4.273470703125,-0.20718683302402496,-0.05648801103234291,-0.2832057476043701
1788861750481477600,4.2834775390625,-0.3233392834663391,-0.17064867913722992,-0.36856937408447266
1788861750491484700,4.293484619140625,-0.39974820613861084,-0.1958116590976715,-0.4391162395477295
1788861750501490700,4.30349072265625,-0.46512266993522644,-0.13879890739917755,-0.5044289827346802
1788861750511497700,4.313497802734375,-0.49432769417762756,-0.14657694101333618,-0.5311500430107117
1788861750521504800,4.3235048828125,-0.4730093479156494,-0.23241782188415527,-0.4844062328338623
1788861750531511800,4.33351171875,-0.4593868851661682,-0.3494252860546112,-0.4087512195110321
1788861750541518600,4.3435185546875,-0.4617416560649872,-0.40346559882164,-0.33777502179145813
1788861750551525600,4.353525634765625,-0.4349847733974457,-0.4052651822566986,-0.3030520975589752
1788861750561532700,4.36353271484375,-0.39419713616371155,-0.4769662916660309,-0.2560725808143616
1788861750571539700,4.373539794921875,-0.39166709780693054,-0.7065281271934509,-0.1783432513475418
1788861750581546800,4.383546630859375,-0.4517762362957001,-0.8832371234893799,-0.1717066466808319
1788861750591553800,4.3935537109375,-0.5610984563827515,-0.8322657942771912,-0.24389562010765076
1788861750601560600,4.403560546875,-0.6755280494689941,-0.6709256768226624,-0.30495399236679077
1788861750611567600,4.413567626953125,-0.7660390138626099,-0.5918657779693604,-0.3596654236316681
1788861750621574700,4.42357470703125,-0.8033131957054138,-0.5989859700202942,-0.4416916072368622
1788861750631581700,4.433581787109375,-0.7850432991981506,-0.6053704023361206,-0.4827094078063965
1788861750641588700,4.443588623046875,-0.741232693195343,-0.5313332080841064,-0.512852668762207
1788861750651595500,4.453595458984375,-0.7242541313171387,-0.5013140439987183,-0.54876309633255
1788861750661602800,4.463602783203125,-0.7474516034126282,-0.7030701041221619,-0.5502214431762695
1788861750671609600,4.473609619140625,-0.775966227054596,-0.9155480265617371,-0.5296543836593628
1788861750681617000,4.483616943359375,-0.7668054699897766,-1.0887054204940796,-0.5055258870124817
1788861750691623700,4.493623779296875,-0.7308102250099182,-1.2817541360855103,-0.49967533349990845
1788861750701630700,4.503630615234375,-0.7000369429588318,-1.3857402801513672,-0.48682212829589844
1788861750711637800,4.5136376953125,-0.675369918346405,-1.3464839458465576,-0.5457568168640137
1788861750721644500,4.52364453125,-0.6987178921699524,-1.261979341506958,-0.6717522740364075
1788861750731651800,4.53365185546875,-0.7254199981689453,-1.178855061531067,-0.7825072407722473
1788861750741658600,4.54365869140625,-0.6887104511260986,-1.0819168090820312,-0.8587964177131653
1788861750751665700,4.553665771484375,-0.586857259273529,-0.9497137069702148,-0.9284942150115967
1788861750761672700,4.563672607421875,-0.4568489193916321,-0.9030532836914062,-0.9476503133773804
1788861750771679700,4.5736796875,-0.35525375604629517,-0.9509796500205994,-0.9067269563674927
1788861750781686800,4.583686767578125,-0.32684022188186646,-0.8532400131225586,-0.9163588285446167
1788861750791693600,4.593693603515625,-0.3236468732357025,-0.8426236510276794,-0.9729570150375366
1788861750801700600,4.60370068359375,-0.2795981764793396,-1.0115315914154053,-1.0555425882339478
1788861750811707600,4.613707763671875,-0.1974921077489853,-1.1082900762557983,-1.1684813499450684
1788861750821714700,4.623714599609375,-0.1290757656097412,-1.1762875318527222,-1.259650707244873
1788861750831721700,4.6337216796875,-0.11167332530021667,-1.090658187866211,-1.3366585969924927
1788861750841728800,4.643728759765625,-0.13815659284591675,-0.8355821967124939,-1.3850975036621094
1788861750851735600,4.653735595703125,-0.14590518176555634,-0.49186140298843384,-1.4080164432525635
1788861750861742800,4.663742919921875,-0.08683919161558151,-0.33996960520744324,-1.387352705001831
1788861750871749600,4.67374951171875,-0.016483955085277557,-0.30246660113334656,-1.2738745212554932
1788861750881756700,4.683756591796875,0.004660479724407196,-0.10762416571378708,-1.1315991878509521
1788861750891763700,4.693763671875,-0.018761638551950455,0.028704501688480377,-1.0915039777755737
1788861750901770500,4.7037705078125,-0.08956435322761536,-0.16981400549411774,-1.027234673500061
1788861750911777800,4.71377783203125,-0.2175406962633133,-0.45448118448257446,-0.887202799320221
1788861750921784600,4.72378466796875,-0.352180540561676,-0.4706186056137085,-0.8118193745613098
1788861750931792000,4.7337919921875,-0.3635985553264618,-0.42926716804504395,-0.8321882486343384
1788861750941798700,4.743798583984375,-0.22952331602573395,-0.3591959476470947,-0.8470553755760193
1788861750951805700,4.7538056640625,-0.07236852496862411,-0.2108573317527771,-0.9854048490524292
1788861750961812700,4.763812744140625,-0.011694259010255337,-0.07329921424388885,-1.116380214691162
1788861750971819500,4.773819580078125,-0.00799154955893755,0.1210411936044693,-1.1188567876815796
1788861750981826000,4.783825927734375,-0.007678894326090813,0.24346457421779633,-1.0504952669143677
1788861750991833000,4.7938330078125,0.006226032972335815,0.3221001923084259,-0.9413614869117737
1788861751001840000,4.803840087890625,0.028853900730609894,0.3089399039745331,-0.7905890941619873
1788861751011847000,4.813846923828125,0.04550930857658386,0.2752586305141449,-0.637151300907135
1788861751021854000,4.82385400390625,0.04825343191623688,0.301625519990921,-0.5129002332687378
1788861751031861000,4.833861083984375,0.11164861917495728,0.4175345003604889,-0.42886149883270264
1788861751041868000,4.843867919921875,0.21239814162254333,0.4403593838214874,-0.34213727712631226
1788861751051875000,4.853875,0.34290647506713867,0.3885834515094757,-0.18584412336349487
1788861751061882000,4.863882080078125,0.4426746368408203,0.35994380712509155,-0.029210830107331276
1788861751071889000,4.873888916015625,0.5175148844718933,0.4351349472999573,0.10393477231264114
1788861751081896200,4.883896240234375,0.5700606107711792,0.41393032670021057,0.24524903297424316
1788861751091903000,4.893903076171875,0.6116328239440918,0.5168749690055847,0.3885381519794464
1788861751101910000,4.903909912109375,0.6767846941947937,0.7536037564277649,0.5161276459693909
1788861751111917000,4.9139169921875,0.742281436920166,0.9246594309806824,0.6189243197441101
1788861751121923800,4.923923828125,0.7746651768684387,0.9343029856681824,0.7436169981956482
1788861751131931100,4.93393115234375,0.7869677543640137,1.062282681465149,0.89313805103302
1788861751141938000,4.94393798828125,0.8111761808395386,1.2205028533935547,1.064108967781067
1788861751151945200,4.9539453125,0.8533617258071899,1.2919186353683472,1.2146230936050415
1788861751161952000,4.963951904296875,0.8920457363128662,1.3004662990570068,1.3055956363677979
1788861751171959000,4.973958984375,0.9458813667297363,1.2329550981521606,1.3740638494491577
1788861751181966000,4.983966064453125,1.0269958972930908,1.1291663646697998,1.4633129835128784
1788861751191972900,4.993972900390625,1.090386986732483,0.9884732365608215,1.5720667839050293
1788861751201980200,5.003980224609375,1.1152191162109375,0.864246666431427,1.6207927465438843
1788861751211987000,5.013987060546875,1.1150039434432983,0.8561996221542358,1.5826094150543213
1788861751221994000,5.023993896484375,1.1278201341629028,0.7783474326133728,1.5333662033081055
1788861751232001000,5.0340009765625,1.1214337348937988,0.5466595888137817,1.5419268608093262
1788861751242008000,5.044008056640625,1.0846812725067139,0.5065150856971741,1.6286510229110718
1788861751252015000,5.05401513671875,1.0391350984573364,0.5885123014450073,1.719954013824463
1788861751262022100,5.064022216796875,0.993364155292511,0.685149610042572,1.7785851955413818
1788861751272029000,5.07402880859375,0.9547635316848755,0.8195726275444031,1.7705469131469727
1788861751282036000,5.084035888671875,0.9485806822776794,0.945685863494873,1.7554627656936646
1788861751292043000,5.09404296875,0.9751595854759216,1.0022914409637451,1.767930030822754
1788861751302050000,5.104050048828125,1.0044114589691162,0.8551380634307861,1.795175313949585
1788861751312057000,5.11405712890625,1.016819953918457,0.6977266073226929,1.850235939025879
1788861751322064000,5.12406396484375,1.0005520582199097,0.8292760848999023,1.8739957809448242
1788861751332071200,5.1340712890625,0.9448934197425842,1.0048035383224487,1.9055522680282593
1788861751342078000,5.144077880859375,0.870119571685791,0.9842294454574585,1.9431281089782715
1788861751352085000,5.1540849609375,0.8048473000526428,0.8778423070907593,1.9785656929016113
1788861751362092000,5.164092041015625,0.7684818506240845,0.800758421421051,1.9980498552322388
1788861751372098800,5.174098876953125,0.760076105594635,0.8672967553138733,1.9948570728302002
1788861751382106000,5.184106201171875,0.769932746887207,1.0336705446243286,1.94021475315094
1788861751392113000,5.19411279296875,0.7748166918754578,1.1344393491744995,1.875833511352539
1788861751402120200,5.2041201171875,0.7675412893295288,1.058493733406067,1.8402127027511597
1788861751412127000,5.214126953125,0.7472421526908875,0.9630883932113647,1.783961296081543
1788861751422134000,5.224134033203125,0.6971259713172913,0.9353070855140686,1.6654807329177856
1788861751432141000,5.23414111328125,0.5893017053604126,0.8489625453948975,1.5133196115493774
1788861751442148000,5.244148193359375,0.4740040898323059,0.7043481469154358,1.3222482204437256
1788861751452155100,5.254155029296875,0.40772536396980286,0.6244139075279236,1.0903278589248657
1788861751462162000,5.264161865234375,0.36398079991340637,0.5933811664581299,0.8462907075881958
1788861751472169000,5.2741689453125,0.2970340847969055,0.4856559634208679,0.602550745010376
1788861751482176000,5.284176025390625,0.20068518817424774,0.23294222354888916,0.37421533465385437
1788861751492183000,5.29418310546875,0.10138673335313797,0.0023485012352466583,0.16165658831596375
1788861751502190000,5.304190185546875,0.01978202536702156,0.10101903975009918,-0.07521472871303558
1788861751512198000,5.314197998046875,-0.04501774162054062,0.23382316529750824,-0.30254456400871277
1788861751522205200,5.324205078125,-0.09976088255643845,0.14609624445438385,-0.46192917227745056
1788861751532212000,5.3342119140625,-0.17467254400253296,-0.07468631863594055,-0.5637555718421936
1788861751542219000,5.344218994140625,-0.2373329997062683,-0.28509682416915894,-0.6547424793243408
1788861751552226000,5.35422607421875,-0.26003262400627136,-0.29227766394615173,-0.7747902870178223
1788861751562233000,5.364233154296875,-0.2792617082595825,-0.22391857206821442,-0.8981577157974243
1788861751572240100,5.374240234375,-0.33115774393081665,-0.07076764851808548,-1.034023642539978
1788861751582247000,5.384246826171875,-0.395083487033844,0.11022637039422989,-1.1771085262298584
1788861751592254000,5.39425390625,-0.45650890469551086,0.21572533249855042,-1.273051142692566
1788861751602261000,5.404260986328125,-0.5137665271759033,0.37885573506355286,-1.3269875049591064
1788861751612268000,5.41426806640625,-0.5247054696083069,0.5034677386283875,-1.3516864776611328
1788861751622275000,5.424275146484375,-0.5031775236129761,0.4136531352996826,-1.3938522338867188
1788861751632282000,5.4342822265625,-0.5025996565818787,0.1952560544013977,-1.4040523767471313
1788861751642289000,5.444288818359375,-0.5107795596122742,0.040170054882764816,-1.355722427368164
1788861751652296200,5.454296142578125,-0.4859442710876465,0.08210234344005585,-1.3198225498199463
1788861751662303000,5.464302978515625,-0.4363998770713806,0.24715441465377808,-1.2583266496658325
1788861751672310000,5.47431005859375,-0.4128666818141937,0.20170365273952484,-1.1031358242034912
1788861751682317000,5.484317138671875,-0.42441388964653015,0.06417801976203918,-0.9865962862968445
1788861751692323800,5.49432373046875,-0.44108402729034424,-0.04373765364289284,-0.9653816819190979
1788861751702331100,5.5043310546875,-0.45427560806274414,-0.19619092345237732,-0.957954466342926
1788861751712338000,5.514337890625,-0.48644712567329407,-0.20704464614391327,-0.9525493383407593
1788861751722345200,5.52434521484375,-0.5582355856895447,-0.07043778896331787,-0.9651415348052979
1788861751732352000,5.53435205078125,-0.6163738965988159,-0.006996319629251957,-1.0100665092468262
1788861751742359000,5.544359130859375,-0.6305347681045532,-0.0468318834900856,-1.0553754568099976
1788861751752366000,5.554365966796875,-0.5952965617179871,-0.2047768533229828,-1.1008939743041992
1788861751762372900,5.564372802734375,-0.5647959113121033,-0.3938453197479248,-1.145238995552063
1788861751772380200,5.574380126953125,-0.5740147233009338,-0.44738662242889404,-1.1183552742004395
1788861751782387000,5.584386962890625,-0.6145858764648438,-0.3030358552932739,-1.0627074241638184
1788861751792394000,5.59439404296875,-0.6603032946586609,-0.21464803814888,-1.036451816558838
1788861751802401000,5.604401123046875,-0.6833282709121704,-0.36669495701789856,-0.9851897954940796
1788861751812408000,5.614407958984375,-0.6816983819007874,-0.5888518691062927,-0.9752846956253052
1788861751822415000,5.6244150390625,-0.6845269203186035,-0.6841046214103699,-0.9876420497894287
1788861751832422100,5.634422119140625,-0.6952639222145081,-0.6946885585784912,-0.9722329378128052
1788861751842430200,5.64443017578125,-0.744509756565094,-0.7397699952125549,-0.9522773623466492
1788861751852437000,5.65443701171875,-0.8113147020339966,-0.9557749032974243,-0.9648845195770264
1788861751862444000,5.664444091796875,-0.8327720761299133,-1.1343300342559814,-1.0087734460830688
1788861751872451000,5.674451171875,-0.8223951458930969,-1.1687222719192505,-1.052230954170227
1788861751882457900,5.684457763671875,-0.7918652296066284,-1.1495685577392578,-1.0779725313186646
1788861751892465200,5.694465087890625,-0.7450819611549377,-1.1077508926391602,-1.0860289335250854
1788861751902472000,5.704471923828125,-0.6775005459785461,-1.1231602430343628,-1.0782623291015625
1788861751912479000,5.71447900390625,-0.6066260933876038,-1.2222375869750977,-1.0420459508895874
1788861751922486000,5.724486083984375,-0.5471500158309937,-1.287137746810913,-1.0340930223464966
1788861751932493000,5.7344931640625,-0.5172492861747742,-1.2914669513702393,-1.0892441272735596
1788861751942500000,5.7445,-0.5050365924835205,-1.3042794466018677,-1.1370494365692139
1788861751952507100,5.754507080078125,-0.4897092580795288,-1.3704324960708618,-1.1285837888717651
1788861751962514000,5.764513916015625,-0.45345696806907654,-1.5851162672042847,-1.098902702331543
1788861751972521000,5.77452099609375,-0.42906439304351807,-1.798364281654358,-1.108528733253479
1788861751982529000,5.784529052734375,-0.41863545775413513,-1.8378469944000244,-1.1105319261550903
1788861751992536000,5.7945361328125,-0.41162511706352234,-1.7367912530899048,-1.091366171836853
1788861752002542800,5.80454296875,-0.3756466209888458,-1.7251020669937134,-1.0576121807098389
1788861752012550100,5.814550048828125,-0.3640902042388916,-1.8863680362701416,-1.0886421203613281
1788861752022557000,5.824556884765625,-0.37805792689323425,-1.9304710626602173,-1.1715186834335327
1788861752032564000,5.83456396484375,-0.4035675823688507,-1.7522400617599487,-1.2341324090957642
1788861752042571000,5.844571044921875,-0.429506778717041,-1.5142077207565308,-1.2569812536239624
1788861752052578000,5.854578125,-0.44978097081184387,-1.2730674743652344,-1.225732445716858
1788861752062585000,5.864585205078125,-0.4434881806373596,-1.0120930671691895,-1.1293302774429321
1788861752072592100,5.874592041015625,-0.3822713792324066,-0.9171838164329529,-0.9324172139167786
1788861752082600200,5.88460009765625,-0.3044077455997467,-0.6828850507736206,-0.7153032422065735
1788861752092607000,5.89460693359375,-0.33656027913093567,-0.36930739879608154,-0.5837531685829163
1788861752102614000,5.904614013671875,-0.4126822054386139,-0.2744314670562744,-0.5031485557556152
1788861752112621000,5.91462109375,-0.4490016996860504,-0.34685057401657104,-0.38150396943092346
1788861752122628000,5.924628173828125,-0.4338824152946472,-0.29425475001335144,-0.19141122698783875
1788861752132635100,5.93463525390625,-0.36753562092781067,-0.19136270880699158,-0.0952729880809784
1788861752142642000,5.944641845703125,-0.2742782235145569,0.026086954399943352,-0.06593620777130127
1788861752152649000,5.95464892578125,-0.1766173243522644,0.325340211391449,0.006427744869142771
1788861752162656000,5.964656005859375,-0.09543033689260483,0.474327027797699,0.056261878460645676
1788861752172663000,5.9746630859375,-0.035623740404844284,0.6903026103973389,0.08889859169721603
1788861752182670000,5.984670166015625,0.03888271749019623,0.8596439361572266,0.16855134069919586
1788861752192677000,5.994677001953125,0.12873350083827972,0.870253324508667,0.28574690222740173
1788861752202684000,6.004683837890625,0.20097067952156067,0.7959694862365723,0.4305775761604309
1788861752212691000,6.01469091796875,0.25315243005752563,0.7555232644081116,0.5964998602867126
1788861752222698000,6.024697998046875,0.29707327485084534,0.7206518650054932,0.7475152015686035
1788861752232705000,6.034705078125,0.3643583357334137,0.7293419241905212,0.8442716002464294
1788861752242712000,6.044712158203125,0.4384400248527527,0.7412920594215393,0.9499290585517883
1788861752252718800,6.05471875,0.5238400101661682,0.8032604455947876,1.0770140886306763
1788861752262726100,6.06472607421875,0.6255109310150146,0.8979467153549194,1.2527529001235962
1788861752272733000,6.07473291015625,0.7292027473449707,0.6327068209648132,1.5229997634887695
1788861752282741000,6.084740966796875,0.7470552325248718,0.6356978416442871,1.7707360982894897
1788861752292748000,6.094748046875,0.8999856114387512,1.3892356157302856,1.7044373750686646
1788861752302755000,6.104755126953125,1.2062407732009888,1.6326764822006226,1.4702759981155396
1788861752312762000,6.11476220703125,1.337469458580017,1.326485276222229,1.4650006294250488
1788861752322769000,6.124768798828125,1.2835707664489746,0.9014557003974915,1.7833553552627563
1788861752332776200,6.134776123046875,1.1764239072799683,1.0022464990615845,2.0428266525268555
1788861752342783000,6.144782958984375,1.10312819480896,1.456799864768982,2.1143805980682373
1788861752352790000,6.1547900390625,1.1476776599884033,1.487795114517212,2.0412051677703857
1788861752362797000,6.164797119140625,1.216355800628662,1.1038886308670044,2.080627918243408
1788861752372803800,6.174803955078125,1.2131036520004272,0.5418514013290405,2.20583438873291
1788861752382811100,6.18481103515625,1.2771598100662231,0.5578615069389343,2.211306095123291
1788861752392818000,6.19481787109375,1.365110993385315,0.837511420249939,2.270416259765625
1788861752402825200,6.2048251953125,1.3464051485061646,0.8783539533615112,2.351640462875366
1788861752412832000,6.21483203125,1.22806715965271,0.7328082323074341,2.1739444732666016
1788861752422839000,6.224839111328125,1.0858758687973022,0.9206649661064148,1.9256622791290283
1788861752432846000,6.23484619140625,1.0592832565307617,1.392087459564209,1.953830361366272
1788861752442852900,6.244852783203125,1.2137854099273682,1.7224150896072388,2.0606155395507812
1788861752452860200,6.254860107421875,1.379500389099121,1.7552851438522339,1.983900547027588
1788861752462868000,6.264867919921875,1.3770065307617188,1.5447145700454712,1.8231929540634155
1788861752472875000,6.274875,1.2467858791351318,1.3720022439956665,1.8704135417938232
1788861752482882000,6.284882080078125,1.1566059589385986,1.3832850456237793,2.0718472003936768
1788861752492888800,6.294888916015625,1.1578584909439087,1.3323907852172852,2.1487228870391846
1788861752502896000,6.304896240234375,1.1860896348953247,1.2920266389846802,1.9517128467559814
1788861752512903000,6.31490283203125,1.152021884918213,1.3569624423980713,1.581093668937683
1788861752522910200,6.32491015625,1.0076522827148438,1.344287395477295,1.2603849172592163
1788861752532917000,6.3349169921875,0.7831583619117737,0.9375950694084167,1.1356083154678345
1788861752542924000,6.344924072265625,0.5967133641242981,0.31913477182388306,1.1496455669403076
1788861752552931000,6.35493115234375,0.5323439240455627,0.45827439427375793,1.0732247829437256
1788861752562937900,6.364937744140625,0.4868645668029785,1.9806033372879028,0.6522823572158813
1788861752572945200,6.374945068359375,0.40465593338012695,3.4972496032714844,-0.08036766946315765
1788861752582952000,6.384951904296875,0.19543932378292084,3.171907901763916,-0.8149242401123047
1788861752592959000,6.394958984375,0.21012139320373535,0.7961751818656921,-0.8715291619300842
1788861752602966000,6.404966064453125,0.4593898057937622,-1.0823200941085815,-0.4107586145401001
1788861752612973000,6.41497314453125,0.5383306741714478,-1.7771013975143433,0.06335270404815674
1788861752622980000,6.42497998046875,0.2237703502178192,-0.22857896983623505,-0.06792915612459183
1788861752632988000,6.43498779296875,-0.31918439269065857,1.994109034538269,-0.7539584636688232
1788861752642995200,6.4449951171875,-0.6356472969055176,2.671355724334717,-1.5230228900909424
1788861752653002000,6.455001953125,-0.7128847241401672,1.0843496322631836,-1.6472715139389038
1788861752663009000,6.465009033203125,-0.6417335867881775,-1.4758718013763428,-1.1312974691390991
1788861752673016000,6.47501611328125,-0.5115894675254822,-1.9449436664581299,-0.8479557633399963
1788861752683022800,6.48502294921875,-0.6262001991271973,-1.0040091276168823,-1.1097948551177979
1788861752693030100,6.495030029296875,-0.8575040698051453,0.012860657647252083,-1.3500964641571045
1788861752703037000,6.505036865234375,-1.0046637058258057,0.5177656412124634,-1.3209084272384644
1788861752713044000,6.5150439453125,-1.1319838762283325,0.4511537253856659,-1.1874395608901978
1788861752723051000,6.525051025390625,-1.1284745931625366,0.025602689012885094,-1.0770906209945679
1788861752733058000,6.53505810546875,-0.9234641194343567,-0.5121414065361023,-1.0613937377929688
1788861752743065000,6.545065185546875,-0.5792486667633057,-0.7530653476715088,-1.0110673904418945
1788861752753072000,6.555072021484375,-0.28865674138069153,-0.6861600875854492,-0.8218101263046265
1788861752763079000,6.565078857421875,-0.1690664142370224,-0.7046975493431091,-0.5826617479324341
1788861752773086000,6.5750859375,-0.19122643768787384,-0.9539793133735657,-0.39555782079696655
1788861752783094000,6.585093994140625,-0.2940489649772644,-1.2822890281677246,-0.27117273211479187
1788861752793101000,6.59510107421875,-0.5017037987709045,-1.414300560951233,-0.22335463762283325
1788861752803108000,6.605108154296875,-0.7607723474502563,-1.4236394166946411,-0.27912095189094543
1788861752813115100,6.615115234375,-0.9446616172790527,-1.3324657678604126,-0.4348122775554657
1788861752823122000,6.625121826171875,-0.9956598281860352,-1.0581977367401123,-0.5913102626800537
1788861752833129000,6.63512890625,-0.9589540958404541,-0.6869952082633972,-0.7941057682037354
1788861752843136000,6.645135986328125,-0.9094792008399963,-0.4369693994522095,-1.0691519975662231
1788861752853143000,6.65514306640625,-0.9055242538452148,-0.40020763874053955,-1.337801456451416
1788861752863150000,6.665150146484375,-0.9473667740821838,-0.5223889350891113,-1.6261290311813354
1788861752873157000,6.6751572265625,-0.9308032393455505,-0.8438714742660522,-1.708856463432312
1788861752883164000,6.685163818359375,-0.872192919254303,-0.9182146787643433,-1.5627530813217163
1788861752893171200,6.695171142578125,-0.8727303743362427,-0.6143071055412292,-1.4317760467529297
1788861752903178000,6.705177978515625,-0.9740098118782043,-0.33527225255966187,-1.3659096956253052
1788861752913185000,6.71518505859375,-1.125413179397583,-0.08519076555967331,-1.3794740438461304
1788861752923192000,6.725192138671875,-1.1863974332809448,0.08751362562179565,-1.472396731376648
1788861752933200100,6.7352001953125,-1.141068458557129,-0.03364291414618492,-1.553278923034668
1788861752943207000,6.74520703125,-1.0027673244476318,-0.6467691659927368,-1.4581258296966553
1788861752953214000,6.7552138671875,-0.8835195899009705,-1.3866783380508423,-1.301007628440857
1788861752963221000,6.765220947265625,-0.9292237162590027,-1.5507892370224,-1.143318772315979
1788861752973228000,6.77522802734375,-1.0703927278518677,-1.234027624130249,-1.010071873664856
1788861752983234300,6.785234375,-1.1251044273376465,-0.9863581657409668,-1.0387946367263794
1788861752993241300,6.795241455078125,-1.0504531860351562,-1.2331703901290894,-1.1058530807495117
1788861753003248400,6.805248291015625,-1.0003248453140259,-1.8403297662734985,-1.0464619398117065
1788861753013255400,6.81525537109375,-1.0527526140213013,-2.192831039428711,-0.96446692943573
1788861753023262500,6.825262451171875,-1.0870863199234009,-2.1991822719573975,-0.9080183506011963
1788861753033269500,6.83526953125,-0.9862843751907349,-2.199704170227051,-0.9559015035629272
1788861753043276300,6.8452763671875,-0.8822975158691406,-2.457935333251953,-1.0804001092910767
1788861753053283300,6.855283447265625,-0.8392829895019531,-2.662217140197754,-1.1498746871948242
1788861753063291400,6.86529150390625,-0.8357276320457458,-2.8072831630706787,-1.2133996486663818
1788861753073298400,6.87529833984375,-0.828151285648346,-2.797750234603882,-1.3494280576705933
1788861753083305500,6.885305419921875,-0.8101914525032043,-2.4149045944213867,-1.5556679964065552
1788861753093312500,6.8953125,-0.8100572228431702,-1.7934236526489258,-1.7610541582107544
1788861753103319300,6.9053193359375,-0.7589766979217529,-1.4051179885864258,-1.8859034776687622
1788861753113326300,6.915326416015625,-0.6033034324645996,-1.3187252283096313,-1.9115272760391235
1788861753123333400,6.92533349609375,-0.4437209665775299,-1.037376046180725,-1.7847673892974854
1788861753133340400,6.93534033203125,-0.33654776215553284,-0.5950876474380493,-1.5426424741744995
1788861753143347500,6.945347412109375,-0.22625643014907837,-0.5235697627067566,-1.287602186203003
1788861753153354500,6.9553544921875,-0.24647964537143707,-0.463766485452652,-1.1515140533447266
1788861753163361300,6.965361328125,-0.44177961349487305,-0.013061091303825378,-1.0369524955749512
1788861753173368600,6.97536865234375,-0.4647120535373688,0.5861653089523315,-0.8471447229385376
1788861753183375400,6.985375244140625,-0.11466801911592484,1.1961722373962402,-0.7811553478240967
1788861753193382400,6.99538232421875,0.22579695284366608,1.4225503206253052,-0.711685836315155
1788861753203390500,7.005390380859375,0.35872969031333923,1.2599067687988281,-0.4413011968135834
1788861753213397500,7.0153974609375,0.3410351574420929,1.114564061164856,0.0558081679046154
1788861753223404300,7.025404296875,0.3747350573539734,1.159026861190796,0.5336471796035767
1788861753233411300,7.035411376953125,0.4126763641834259,1.4274787902832031,0.7609461545944214
1788861753243418400,7.04541845703125,0.4148961305618286,1.2927896976470947,0.8345894813537598
1788861753253425400,7.05542529296875,0.4131171703338623,1.0372015237808228,0.9286307692527771
1788861753263432400,7.065432373046875,0.44672757387161255,0.9622094631195068,0.9703790545463562
1788861753273439500,7.075439453125,0.47622811794281006,1.067683219909668,1.0149139165878296
1788861753283446300,7.0854462890625,0.5485038757324219,1.1887177228927612,1.226738452911377
1788861753293453600,7.09545361328125,0.7092294096946716,1.2938328981399536,1.5844240188598633
1788861753303460400,7.10546044921875,0.8869392275810242,1.354557991027832,1.7254503965377808
1788861753313467400,7.11546728515625,0.9997008442878723,1.322000503540039,1.5981367826461792
1788861753323474400,7.125474365234375,1.0708547830581665,1.340850830078125,1.534347653388977
1788861753333482500,7.135482421875,1.1859210729599,1.5412354469299316,1.6626267433166504
1788861753343489500,7.145489501953125,1.3282231092453003,1.675480842590332,1.7037603855133057
1788861753353496300,7.155496337890625,1.430362343788147,1.626848816871643,1.6643965244293213
1788861753363503400,7.16550341796875,1.5108665227890015,1.3971364498138428,1.7652637958526611
1788861753373510400,7.175510498046875,1.592164397239685,1.1783452033996582,1.9827678203582764
1788861753383517400,7.185517333984375,1.6554701328277588,0.9589489698410034,1.9749343395233154
1788861753393524500,7.1955244140625,1.6289962530136108,0.8231348395347595,1.8056844472885132
1788861753403531300,7.20553125,1.5786688327789307,0.8902879953384399,1.8432999849319458
1788861753413538600,7.21553857421875,1.5366828441619873,0.925816535949707,1.9969992637634277
1788861753423545300,7.22554541015625,1.517802357673645,0.7374034523963928,2.0374202728271484
1788861753433552400,7.235552490234375,1.494341254234314,0.6844512820243835,2.029991388320923
1788861753443559400,7.245559326171875,1.4662816524505615,0.9689083099365234,2.0897231101989746
1788861753453566200,7.255566162109375,1.448874592781067,1.293624997138977,2.187516927719116
1788861753463574500,7.265574462890625,1.4386563301086426,1.2929072380065918,2.2327871322631836
1788861753473581300,7.275581298828125,1.3600407838821411,1.3666117191314697,2.2012388706207275
1788861753483588400,7.28558837890625,1.2871894836425781,1.6909003257751465,2.2030463218688965
1788861753493595400,7.295595458984375,1.3458739519119263,1.7070107460021973,2.2964401245117188
1788861753503602400,7.3056025390625,1.4545639753341675,1.2546147108078003,2.4133780002593994
1788861753513609500,7.315609375,1.4957524538040161,0.7704658508300781,2.41300630569458
1788861753523616300,7.3256162109375,1.3725298643112183,0.5790791511535645,2.253437042236328
1788861753533623600,7.33562353515625,1.114000678062439,0.8824185729026794,1.9003047943115234
1788861753543630300,7.34563037109375,0.7925219535827637,1.1397705078125,1.4889601469039917
1788861753553637600,7.3556376953125,0.615760087966919,1.0200303792953491,1.2462968826293945
1788861753563644400,7.36564453125,0.5998908281326294,0.6720572113990784,1.038321852684021
1788861753573651200,7.375651123046875,0.5853390097618103,0.6367436051368713,0.6960151195526123
1788861753583659500,7.385659423828125,0.5070745944976807,0.604945182800293,0.41095197200775146
1788861753593666300,7.395666259765625,0.48769310116767883,0.050189871340990067,0.24600693583488464
1788861753603673300,7.40567333984375,0.42028555274009705,-0.4345565736293793,0.09197582304477692
1788861753613680400,7.415680419921875,0.22496092319488525,-0.17607098817825317,-0.18163402378559113
1788861753623687400,7.4256875,0.02351967990398407,0.34098413586616516,-0.4746227264404297
1788861753633694500,7.435694580078125,-0.10700639337301254,0.0683218389749527,-0.5408729314804077
1788861753643701200,7.445701171875,-0.17164823412895203,-0.4757981598377228,-0.41371604800224304
1788861753653708500,7.45570849609375,-0.2002459615468979,-0.8770384192466736,-0.2740713059902191
1788861753663715300,7.46571533203125,-0.2323535531759262,-1.0177916288375854,-0.22164511680603027
1788861753673722600,7.47572265625,-0.271331787109375,-0.8313482403755188,-0.2595554292201996
1788861753683729400,7.4857294921875,-0.31289201974868774,-0.5248581171035767,-0.3604743182659149
1788861753693736200,7.495736083984375,-0.36887356638908386,-0.31716102361679077,-0.48431771993637085
1788861753703744500,7.50574462890625,-0.3984261453151703,-0.46387964487075806,-0.5665124654769897
1788861753713751300,7.515751220703125,-0.4008663296699524,-0.7566315531730652,-0.6067724227905273
1788861753723758300,7.52575830078125,-0.39958056807518005,-0.67153400182724,-0.7432668805122375
1788861753733765400,7.535765380859375,-0.38288575410842896,-0.31311172246932983,-0.9894987940788269
1788861753743772400,7.5457724609375,-0.3473306894302368,-0.13361306488513947,-1.2002688646316528
1788861753753779500,7.555779541015625,-0.42125406861305237,0.05041844770312309,-1.275292992591858
1788861753763786200,7.5657861328125,-0.6126445531845093,0.23475100100040436,-1.313612937927246
1788861753773793500,7.57579345703125,-0.7911980748176575,0.38098934292793274,-1.530689001083374
1788861753783800300,7.58580029296875,-0.8622978329658508,0.2507687509059906,-1.7446268796920776
1788861753793807600,7.5958076171875,-0.8683080077171326,-0.15431344509124756,-1.750653862953186
1788861753803814400,7.605814453125,-0.859825849533081,-0.32978513836860657,-1.6777117252349854
1788861753813821400,7.615821533203125,-0.7986774444580078,-0.04503517970442772,-1.5682200193405151
1788861753823829500,7.62582958984375,-0.7263028025627136,0.41312307119369507,-1.3077846765518188
1788861753833836300,7.635836181640625,-0.7196494340896606,0.3200036287307739,-0.8706588745117188
1788861753843843600,7.645843505859375,-0.7174445986747742,-0.4933033883571625,-0.716062605381012
1788861753853850400,7.655850341796875,-0.7499391436576843,-1.3814207315444946,-1.0133434534072876
1788861753863857400,7.665857421875,-1.0341717004776,-1.4897797107696533,-1.2831419706344604
1788861753873864400,7.675864501953125,-1.3129262924194336,-0.8388803601264954,-1.2840476036071777
1788861753883871200,7.685871337890625,-1.3131276369094849,-0.17203815281391144,-1.1046350002288818
1788861753893878500,7.69587841796875,-1.121495008468628,-0.3099132180213928,-0.8837696313858032
1788861753903885300,7.70588525390625,-0.9077004790306091,-1.2128249406814575,-0.7769851088523865
1788861753913892600,7.715892578125,-0.805025041103363,-2.0030503273010254,-0.8307793140411377
1788861753923899400,7.7258994140625,-0.8193022608757019,-2.0723085403442383,-0.8905915021896362
1788861753933907500,7.735907470703125,-0.8855805397033691,-1.7962995767593384,-0.8703804016113281
1788861753943914500,7.74591455078125,-0.9702040553092957,-1.5078320503234863,-0.9062148332595825
1788861753953921300,7.75592138671875,-1.0657708644866943,-1.2589937448501587,-1.0303245782852173
1788861753963928600,7.765928466796875,-1.098913311958313,-0.9472911953926086,-1.2360422611236572
1788861753973935400,7.775935302734375,-1.0072846412658691,-1.017901062965393,-1.3737744092941284
1788861753983942400,7.7859423828125,-0.8810541033744812,-1.4865339994430542,-1.3730899095535278
1788861753993949200,7.79594921875,-0.8331760764122009,-1.6753344535827637,-1.3094614744186401
1788861754003956200,7.805956298828125,-0.8568414449691772,-1.5426459312438965,-1.2122081518173218
1788861754013963300,7.81596337890625,-0.8964754343032837,-1.4548664093017578,-1.2100129127502441
1788861754023970300,7.82597021484375,-0.868493378162384,-1.400528073310852,-1.3514113426208496
1788861754033977300,7.835977294921875,-0.7707588076591492,-1.299830675125122,-1.5266233682632446
1788861754043985400,7.8459853515625,-0.679541289806366,-1.4123388528823853,-1.548263669013977
1788861754053992200,7.8559921875,-0.6436983346939087,-1.6940701007843018,-1.416164517402649
1788861754063999200,7.865999267578125,-0.6325019598007202,-1.7501862049102783,-1.3033643960952759
1788861754074006300,7.87600634765625,-0.6996574401855469,-1.4055432081222534,-1.3580684661865234
1788861754084013300,7.886013427734375,-0.8402318954467773,-1.0407284498214722,-1.4450502395629883
1788861754094020400,7.896020263671875,-0.8760212659835815,-1.1888127326965332,-1.4419341087341309
1788861754104027400,7.90602734375,-0.8616964221000671,-1.579453468322754,-1.3832800388336182
1788861754114034200,7.9160341796875,-0.893585205078125,-1.4927304983139038,-1.3806695938110352
1788861754124041200,7.926041259765625,-0.8919761776924133,-0.9415456652641296,-1.4082423448562622
1788861754134048300,7.93604833984375,-0.8209582567214966,-0.3093390166759491,-1.4393638372421265
1788861754144055300,7.94605517578125,-0.7156733870506287,-0.21771852672100067,-1.361830711364746
1788861754154063000,7.95606298828125,-0.5688450336456299,-0.503750205039978,-1.0968620777130127
1788861754164070400,7.9660703125,-0.32276177406311035,-0.7105121612548828,-0.784428060054779
1788861754174077200,7.9760771484375,-0.20724065601825714,-0.4973320960998535,-0.5281605124473572
1788861754184084200,7.986084228515625,-0.23160912096500397,-0.10414540022611618,-0.34782296419143677
1788861754194091300,7.99609130859375,-0.1865401715040207,0.24321609735488892,-0.2155037373304367
1788861754204098300,8.006098388671875,0.08750443160533905,0.5898699164390564,-0.1515149027109146
1788861754214105300,8.016105224609374,0.17878775298595428,0.3576277494430542,0.016314897686243057
1788861754224112400,8.0261123046875,0.11175733059644699,0.48338809609413147,0.3935689926147461
1788861754234119200,8.036119140625,0.1260664314031601,0.818899929523468,0.8267905712127686
1788861754244126200,8.046126220703124,0.12644486129283905,0.41347765922546387,1.1107701063156128
1788861754254133200,8.05613330078125,0.15021608769893646,0.35290366411209106,1.1811585426330566
1788861754264140300,8.066140380859375,0.274827778339386,1.0331718921661377,1.060228705406189
1788861754274148400,8.0761484375,0.4670695960521698,1.3873138427734375,0.9610216617584229
1788861754284155400,8.0861552734375,0.743318498134613,1.1292641162872314,0.945763349533081
1788861754294162200,8.096162109375,0.8066203594207764,1.0007754564285278,1.1399047374725342
1788861754304169200,8.106169189453125,0.8260236382484436,1.0796483755111694,1.5389043092727661
1788861754314176300,8.11617626953125,0.8500619530677795,1.220694899559021,1.775978922843933
1788861754324183300,8.126183349609375,0.8541703820228577,1.2158585786819458,1.7554265260696411
1788861754334190300,8.1361904296875,0.87821364402771,1.094751000404358,1.6790577173233032
1788861754344197400,8.146197265625,0.9070916175842285,1.125137448310852,1.625565767288208
1788861754354204200,8.1562041015625,0.9537571668624878,1.283517599105835,1.6122361421585083
1788861754364211200,8.166211181640625,1.0607211589813232,1.2508821487426758,1.617931604385376
1788861754374219300,8.17621923828125,1.1667418479919434,0.9054545760154724,1.819677710533142
1788861754384226300,8.186226318359376,1.2501219511032104,0.9679030179977417,2.0455093383789062
1788861754394233300,8.1962333984375,1.302859902381897,1.3920079469680786,1.9603910446166992
1788861754404240400,8.206240478515625,1.2944267988204956,1.5480960607528687,1.6869747638702393
1788861754414247200,8.2162470703125,1.296030879020691,1.3785624504089355,1.655090570449829
1788861754424254200,8.226254150390625,1.3715476989746094,1.2833025455474854,1.8866231441497803
1788861754434261200,8.23626123046875,1.4893224239349365,1.2902888059616089,2.0822842121124268
1788861754444268300,8.246268310546874,1.5495778322219849,1.2358615398406982,2.1152191162109375
1788861754454275300,8.256275390625,1.5153753757476807,1.2030481100082397,2.0873963832855225
1788861754464282400,8.266282470703125,1.4388068914413452,1.3013755083084106,2.0980751514434814
1788861754474289200,8.2762890625,1.375775694847107,1.1652729511260986,2.1742310523986816
1788861754484297200,8.286297119140626,1.3447479009628296,0.7394667267799377,2.34122371673584
1788861754494304300,8.29630419921875,1.357466220855713,0.43952882289886475,2.523252010345459
1788861754504311300,8.306311279296875,1.3694727420806885,0.44760510325431824,2.6072542667388916
1788861754514318300,8.316318359375,1.3643016815185547,0.7356148958206177,2.5338127613067627
1788861754524325400,8.326325439453125,1.2749104499816895,0.8901416659355164,2.416414260864258
1788861754534332200,8.336332275390625,1.1460171937942505,0.7493391633033752,2.2945752143859863
1788861754544339200,8.346339111328126,1.0581704378128052,0.7155503034591675,2.078568458557129
1788861754554346200,8.35634619140625,0.9465733766555786,0.8494328856468201,1.7921638488769531
1788861754564353300,8.366353271484375,0.8348122239112854,0.9043909311294556,1.5381402969360352
1788861754574360300,8.3763603515625,0.7522811889648438,0.8476215600967407,1.3182626962661743
1788861754584368000,8.3863681640625,0.6299523115158081,0.933527946472168,1.1033066511154175
1788861754594375400,8.39637548828125,0.4671579897403717,1.2996770143508911,0.8707324862480164
1788861754604382200,8.40638232421875,0.35597527027130127,1.4024078845977783,0.63725346326828
1788861754614389200,8.41638916015625,0.3347877562046051,0.7600144147872925,0.4952058494091034
1788861754624396300,8.426396240234375,0.3546421527862549,0.11833880096673965,0.37020745873451233
1788861754634403300,8.4364033203125,0.3261510729789734,0.18609042465686798,0.21081262826919556
1788861754644410400,8.446410400390626,0.20775733888149261,0.21659107506275177,0.1301761120557785
1788861754654417200,8.456417236328125,0.051667023450136185,-0.4757553040981293,0.14590099453926086
1788861754664424200,8.466424072265625,-0.2015463262796402,-0.850810706615448,0.11868376284837723
1788861754674431200,8.47643115234375,-0.41481834650039673,-0.6251121759414673,-0.06272011250257492
1788861754684438300,8.486438232421875,-0.48768988251686096,-0.11989400535821915,-0.3829098343849182
1788861754694446300,8.4964462890625,-0.5665820837020874,-0.13778991997241974,-0.693598747253418
1788861754704453000,8.506453125,-0.7234500646591187,-0.3341046869754791,-0.900014340877533
1788861754714460400,8.51646044921875,-0.8384843468666077,-0.4163380563259125,-0.9886641502380371
1788861754724467200,8.52646728515625,-0.8653740286827087,-0.582436740398407,-1.0148608684539795
1788861754734474200,8.53647412109375,-0.8615954518318176,-0.7597661018371582,-1.0809375047683716
1788861754744481300,8.546481201171876,-0.9123619794845581,-0.5325481295585632,-1.2299901247024536
1788861754754488300,8.55648828125,-0.9778046607971191,0.081442691385746,-1.3781204223632812
1788861754764495400,8.566495361328125,-0.9838529825210571,0.2508420944213867,-1.366709589958191
1788861754774502400,8.57650244140625,-0.9767289757728577,-0.09999091178178787,-1.2661415338516235
1788861754784509200,8.58650927734375,-0.9952938556671143,-0.44478878378868103,-1.2700462341308594
1788861754794517200,8.596517333984375,-1.034546971321106,-0.6016315221786499,-1.3744451999664307
1788861754804524300,8.606524169921874,-1.0770041942596436,-0.4439380168914795,-1.4849897623062134
1788861754814531300,8.61653125,-1.038813591003418,-0.1932903677225113,-1.4937434196472168
1788861754824538000,8.6265380859375,-1.0297220945358276,0.03259282931685448,-1.344971776008606
1788861754834545400,8.63654541015625,-1.0438593626022339,0.1853359341621399,-1.1572246551513672
1788861754844552200,8.64655224609375,-1.0265562534332275,0.2501777708530426,-1.1695419549942017
1788861754854559200,8.656559326171875,-1.0281046628952026,-0.014400528743863106,-1.3130261898040771
1788861754864566300,8.666566162109374,-1.1399517059326172,-0.3692537248134613,-1.4281878471374512
1788861754874573300,8.6765732421875,-1.2550513744354248,-0.419406920671463,-1.413678526878357
1788861754884580400,8.686580322265625,-1.2900903224945068,-0.25138384103775024,-1.331954836845398
1788861754894588200,8.696588134765625,-1.259580373764038,-0.3031390905380249,-1.2083956003189087
1788861754904595500,8.706595458984374,-1.1825332641601562,-0.6173990368843079,-1.1260775327682495
1788861754914602200,8.716602294921875,-1.1202247142791748,-0.8542670011520386,-1.1536827087402344
1788861754924609300,8.726609375,-1.1169322729110718,-0.9504563808441162,-1.181734323501587
1788861754934616300,8.7366162109375,-1.1231197118759155,-1.2519035339355469,-1.144874930381775
1788861754944623000,8.746623046875,-1.0819346904754639,-1.5483777523040771,-1.127309799194336
1788861754954630400,8.75663037109375,-0.9467669129371643,-1.5728647708892822,-1.1785180568695068
1788861754964637200,8.76663720703125,-0.8089596033096313,-1.4765173196792603,-1.2950962781906128
1788861754974644200,8.776644287109375,-0.7667445540428162,-1.5439826250076294,-1.3509896993637085
1788861754984651300,8.7866513671875,-0.7958824634552002,-1.705720067024231,-1.282078504562378
1788861754994659000,8.7966591796875,-0.7754040360450745,-1.5773016214370728,-1.2560304403305054
1788861755004666000,8.806666015625,-0.6778473854064941,-1.386061429977417,-1.315401315689087
1788861755014673200,8.816673095703125,-0.6233431696891785,-1.3959574699401855,-1.3324693441390991
1788861755024680200,8.82668017578125,-0.6128146648406982,-1.3849139213562012,-1.288983941078186
1788861755034687000,8.83668701171875,-0.5701699256896973,-1.3593263626098633,-1.2722190618515015
1788861755044694300,8.8466943359375,-0.5605239868164062,-1.5342520475387573,-1.3175777196884155
1788861755054701000,8.856701171875,-0.6039798259735107,-1.936706304550171,-1.3268678188323975
1788861755064708400,8.866708251953124,-0.6492878794670105,-2.304398536682129,-1.2504894733428955
1788861755074715100,8.876715087890625,-0.6716018915176392,-2.394340753555298,-1.2263389825820923
1788861755084722000,8.886721923828125,-0.6840348243713379,-2.1046142578125,-1.2895419597625732
1788861755094730200,8.896730224609374,-0.6866282224655151,-1.7638781070709229,-1.3253319263458252
1788861755104737000,8.906737060546876,-0.6997019648551941,-1.6369150876998901,-1.3326656818389893
1788861755114744000,8.916744140625,-0.7297008633613586,-1.6540559530258179,-1.35239839553833
1788861755124751000,8.926751220703125,-0.7585964202880859,-1.561082124710083,-1.3518120050430298
1788861755134758100,8.936758056640626,-0.758671760559082,-1.3029768466949463,-1.2532275915145874
1788861755144765200,8.94676513671875,-0.6825013756752014,-1.0535805225372314,-1.0847326517105103
1788861755154772000,8.95677197265625,-0.4799874722957611,-0.6523870825767517,-0.9804832339286804
1788861755164779300,8.966779296875,-0.19521945714950562,-0.00002525770105421543,-0.9530301094055176
1788861755174786000,8.9767861328125,-0.09227336943149567,0.07651559263467789,-0.8961556553840637
1788861755184793300,8.98679345703125,-0.07660972326993942,-0.11597289890050888,-0.7083926796913147
1788861755194801200,8.99680126953125,-0.060505740344524384,0.08830771595239639,-0.3817555606365204
1788861755204808200,9.00680810546875,-0.025425249710679054,0.5057153105735779,-0.10070257633924484
1788861755214815200,9.016815185546875,0.042125310748815536,0.664076030254364,0.0026868830900639296
1788861755224822000,9.026822021484374,0.16743183135986328,0.7369779348373413,0.07482925802469254
1788861755234829300,9.036829345703126,0.29602643847465515,0.822245717048645,0.12230906635522842
1788861755244836000,9.046836181640625,0.3315162658691406,0.8395288586616516,0.24727310240268707
1788861755254843100,9.056843017578124,0.3328735828399658,1.0238643884658813,0.4733700454235077
1788861755264850200,9.06685009765625,0.39863571524620056,1.168839931488037,0.743796706199646
1788861755274857000,9.07685693359375,0.5088868737220764,1.411674976348877,0.9015437364578247
1788861755284864300,9.0868642578125,0.6295741200447083,1.6765241622924805,0.9537086486816406
1788861755294872000,9.0968720703125,0.7885257601737976,1.6899043321609497,0.9975906610488892
1788861755304879000,9.106879150390625,0.9081235527992249,1.4675040245056152,1.2210122346878052
1788861755314886100,9.11688623046875,0.9414246082305908,1.2542822360992432,1.5384602546691895
1788861755324893200,9.12689306640625,0.945070207118988,1.5202851295471191,1.6779826879501343
1788861755334900200,9.136900146484376,0.9879935383796692,1.8364439010620117,1.6618058681488037
1788861755344907000,9.146906982421875,1.1063833236694336,1.6699116230010986,1.7199615240097046
1788861755354914300,9.156914306640624,1.2076348066329956,1.3070975542068481,1.8778674602508545
1788861755364921000,9.166921142578126,1.2472965717315674,1.2680370807647705,2.017967939376831
1788861755374928100,9.17692822265625,1.2896445989608765,1.3031830787658691,2.0783867835998535
1788861755384935200,9.18693505859375,1.3656154870986938,1.1221253871917725,2.205634117126465
1788861755394943200,9.196943115234374,1.4042911529541016,0.8039073944091797,2.3512275218963623
1788861755404950000,9.206949951171875,1.3725746870040894,0.7767460942268372,2.336759090423584
1788861755414957000,9.21695703125,1.2712830305099487,1.0424177646636963,2.192774772644043
1788861755424964000,9.226964111328124,1.2115014791488647,1.2865954637527466,2.149768352508545
1788861755434971100,9.23697119140625,1.3081122636795044,1.2881107330322266,2.294041156768799
1788861755444978200,9.246978271484375,1.4974888563156128,1.0546634197235107,2.523700475692749
1788861755454985200,9.256985107421874,1.6009355783462524,0.9136245250701904,2.648610830307007
1788861755464992000,9.266991943359375,1.5587990283966064,1.2002222537994385,2.615806818008423
1788861755474999300,9.276999267578125,1.4349831342697144,1.493741750717163,2.5895931720733643
1788861755485007000,9.287007080078125,1.3256803750991821,1.2530030012130737,2.6134145259857178
1788861755495014100,9.29701416015625,1.2384735345840454,0.9187229871749878,2.5465404987335205
1788861755505021200,9.307021240234375,1.1575757265090942,0.9309101700782776,2.3996763229370117
1788861755515028200,9.3170283203125,1.0898268222808838,1.1635594367980957,2.3393733501434326
1788861755525035300,9.32703515625,1.0625505447387695,1.3826212882995605,2.293523073196411
1788861755535042000,9.3370419921875,1.0512104034423828,1.3723374605178833,2.147275924682617
1788861755545049000,9.347049072265625,0.9984366297721863,1.0604840517044067,1.9173972606658936
1788861755555056000,9.35705615234375,0.935309648513794,0.6111392974853516,1.7414326667785645
1788861755565063200,9.367063232421875,0.9170451164245605,0.5002313256263733,1.4899601936340332
1788861755575070200,9.3770703125,0.7885228395462036,0.85329669713974,1.134614109992981
1788861755585078300,9.387078369140625,0.5120753645896912,1.348078727722168,0.8520711660385132
1788861755595085000,9.3970849609375,0.3144237995147705,1.4147049188613892,0.6456572413444519
1788861755605092000,9.407092041015625,0.25784093141555786,0.9674230813980103,0.3611519932746887
1788861755615099100,9.41709912109375,0.21677003800868988,0.3497024178504944,0.08765023201704025
1788861755625106200,9.427106201171876,0.1348339021205902,0.05998992174863815,-0.12578508257865906
1788861755635113200,9.43711328125,0.05289847031235695,-0.052008576691150665,-0.27143722772598267
1788861755645120300,9.447120361328125,-0.07146982103586197,-0.28180423378944397,-0.3742575943470001
1788861755655127000,9.457126953125,-0.21802489459514618,-0.27099356055259705,-0.5100022554397583
1788861755665134000,9.467134033203125,-0.2860129773616791,0.11413773894309998,-0.6793806552886963
1788861755675141000,9.47714111328125,-0.3312864303588867,-0.13634827733039856,-0.6968940496444702
1788861755685149200,9.487149169921874,-0.3970015347003937,-0.6440162658691406,-0.6378360986709595
1788861755695156200,9.49715625,-0.4652893543243408,-0.8155702352523804,-0.6489216685295105
1788861755705163300,9.507163330078125,-0.5640852451324463,-0.33364301919937134,-0.8148952126502991
1788861755715170000,9.517170166015624,-0.6557342410087585,0.06943216174840927,-0.931801974773407
1788861755725177000,9.527177001953126,-0.7902587652206421,-0.1825374960899353,-0.8725370764732361
1788861755735184100,9.53718408203125,-0.9227791428565979,-0.4373679459095001,-0.8693839907646179
1788861755745191200,9.547191162109375,-1.0030630826950073,-0.2541424632072449,-1.0661007165908813
1788861755755198200,9.5571982421875,-1.025222659111023,-0.05854489281773567,-1.2393404245376587
1788861755765205200,9.567205322265625,-1.0209791660308838,-0.1339232176542282,-1.2983794212341309
1788861755775212000,9.5772119140625,-0.9804388880729675,-0.1905025988817215,-1.3814620971679688
1788861755785220000,9.58722021484375,-0.8927380442619324,0.07241851091384888,-1.5397651195526123
1788861755795227100,9.59722705078125,-0.7790842056274414,0.0030834502540528774,-1.5808618068695068
1788861755805234200,9.607234130859375,-0.7318754196166992,-0.42880138754844666,-1.4480537176132202
1788861755815241200,9.6172412109375,-0.757226824760437,-0.5409021973609924,-1.3352011442184448
1788861755825248300,9.627248291015626,-0.7958037853240967,-0.22508062422275543,-1.329057216644287
1788861755835255000,9.637255126953125,-0.8811814188957214,-0.09674590826034546,-1.3115894794464111
1788861755845262000,9.647261962890624,-1.0320188999176025,-0.27007511258125305,-1.3292933702468872
1788861755855269000,9.65726904296875,-1.1755859851837158,-0.3714860677719116,-1.4828846454620361
1788861755865276200,9.667276123046875,-1.250786304473877,-0.3923892080783844,-1.6104508638381958
1788861755875284200,9.6772841796875,-1.259613037109375,-0.6051833629608154,-1.5776945352554321
1788861755885291000,9.687291015625,-1.2046821117401123,-0.7732719779014587,-1.511118769645691
1788861755895298300,9.69729833984375,-1.13578200340271,-0.7275946140289307,-1.4991137981414795
1788861755905305000,9.70730517578125,-1.087258219718933,-0.7414670586585999,-1.5120279788970947
1788861755915312000,9.71731201171875,-1.0686819553375244,-1.0280652046203613,-1.510560154914856
1788861755925319200,9.727319091796875,-1.0766040086746216,-1.291399359703064,-1.520422339439392
1788861755935326200,9.737326171875,-1.0917390584945679,-1.4247146844863892,-1.5367352962493896
1788861755945333200,9.747333251953124,-1.068421721458435,-1.5225006341934204,-1.5278736352920532
1788861755955340000,9.757340087890626,-0.999214768409729,-1.3464479446411133,-1.5046889781951904
1788861755965348400,9.767348388671875,-0.9242287278175354,-0.9662092924118042,-1.5336946249008179
1788861755975355100,9.777355224609375,-0.8520136475563049,-0.7966301441192627,-1.5422745943069458
1788861755985362200,9.787362060546876,-0.8071057796478271,-1.1110104322433472,-1.4876688718795776
1788861755995370000,9.797369873046875,-0.7805078029632568,-1.611036777496338,-1.4011904001235962
1788861756005377000,9.807376953125,-0.7163003087043762,-1.7708940505981445,-1.371001124382019
1788861756015384000,9.817384033203124,-0.6513410806655884,-1.645247220993042,-1.397957444190979
1788861756025390800,9.827390869140626,-0.6078183650970459,-1.677014708518982,-1.3864046335220337
1788861756035398000,9.83739794921875,-0.5898236036300659,-1.927622675895691,-1.3479431867599487
1788861756045405000,9.847405029296874,-0.6056800484657288,-2.249398708343506,-1.2961164712905884
1788861756055412000,9.857411865234376,-0.6293131709098816,-2.395634174346924,-1.2866278886795044
1788861756065420000,9.867419921875,-0.6360701322555542,-2.1644506454467773,-1.359890103340149
1788861756075427000,9.877427001953125,-0.6101292967796326,-1.8794519901275635,-1.4102773666381836
1788861756085433900,9.887433837890624,-0.5513989329338074,-1.6535935401916504,-1.3897099494934082
1788861756095441000,9.89744091796875,-0.4674723744392395,-1.4170390367507935,-1.3866896629333496
1788861756105448000,9.907447998046875,-0.3724963068962097,-1.3456772565841675,-1.3272767066955566
1788861756115455000,9.917455078125,-0.29623252153396606,-1.1681571006774902,-1.1550427675247192
1788861756125462000,9.9274619140625,-0.16337062418460846,-0.8559462428092957,-0.914027750492096
1788861756135469000,9.937468994140625,0.022430846467614174,-0.4836457371711731,-0.6650753021240234
1788861756145475800,9.947475830078124,0.1513741910457611,-0.11502321064472198,-0.5067298412322998
1788861756155483000,9.95748291015625,0.16924446821212769,0.16495226323604584,-0.4375647008419037
1788861756165491000,9.967490966796875,0.18580026924610138,0.37749436497688293,-0.2889525890350342
1788861756175498000,9.977498046875,0.21845968067646027,0.3441350758075714,0.014990804716944695
1788861756185505000,9.987505126953126,0.25897035002708435,0.6143420338630676,0.25561457872390747
1788861756195512000,9.997511962890625,0.30085882544517517,0.8486415147781372,0.43553876876831055
1788861756205518800,10.007518798828125,0.41928747296333313,1.0234631299972534,0.5501883625984192
1788861756215526000,10.01752587890625,0.5175355076789856,1.020385980606079,0.6216117143630981
1788861756225533000,10.027532958984375,0.5660814642906189,1.0995385646820068,0.7034745812416077
1788861756235540000,10.0375400390625,0.6259670853614807,1.1138567924499512,0.8243953585624695
1788861756245547000,10.047547119140624,0.7320048809051514,0.9803704023361206,0.9775077104568481
1788861756255554800,10.057554931640626,0.848269522190094,0.9628311991691589,1.0858798027038574
1788861756265562000,10.06756201171875,0.925713062286377,0.8631449937820435,1.2076060771942139
1788861756275569000,10.07756884765625,0.9831622242927551,0.8319860100746155,1.2987385988235474
1788861756285576000,10.087575927734376,1.0480154752731323,0.9197326302528381,1.3480247259140015
1788861756295583000,10.0975830078125,1.1099534034729004,1.1191340684890747,1.3990706205368042
1788861756305590000,10.107590087890625,1.1751973628997803,1.243669867515564,1.4756404161453247
1788861756315597000,10.11759716796875,1.2504500150680542,1.1911368370056152,1.5437827110290527
1788861756325603800,10.127603759765625,1.3121384382247925,1.0874407291412354,1.6457836627960205
1788861756335611000,10.13761083984375,1.349127173423767,1.1345113515853882,1.8001511096954346
1788861756345618000,10.147617919921874,1.3614410161972046,1.1715571880340576,1.979314923286438
1788861756355626000,10.1576259765625,1.3554952144622803,1.2725882530212402,2.133068323135376
1788861756365633000,10.167633056640625,1.362775444984436,1.4552608728408813,2.1935462951660156
1788861756375639800,10.177639892578124,1.3426848649978638,1.4421002864837646,2.2192556858062744
1788861756385647000,10.187647216796876,1.289170503616333,1.2711472511291504,2.3041396141052246
1788861756395654000,10.19765380859375,1.283355474472046,1.1344325542449951,2.459914207458496
1788861756405661000,10.207660888671874,1.3280893564224243,1.0969663858413696,2.5862278938293457
1788861756415668000,10.21766796875,1.3417997360229492,0.9787622094154358,2.7030327320098877
1788861756425675000,10.227675048828125,1.319923758506775,0.7348203659057617,2.832066774368286
1788861756435682000,10.23768212890625,1.2930349111557007,0.7663842439651489,2.8452649116516113
1788861756445689900,10.24768994140625,1.2577277421951294,1.0037403106689453,2.7244176864624023
1788861756455697000,10.25769677734375,1.1746108531951904,0.9818217754364014,2.5498251914978027
1788861756465704000,10.267703857421875,1.080604910850525,0.812751829624176,2.3336973190307617
1788861756475711000,10.2777109375,1.0089508295059204,0.9117059707641602,2.0407307147979736
1788861756485718000,10.287718017578126,0.9407024383544922,1.0887531042099,1.7666281461715698
1788861756495724800,10.297724853515625,0.966765820980072,1.12226402759552,1.5666494369506836
1788861756505731800,10.30773193359375,1.0647025108337402,1.0434906482696533,1.4099016189575195
1788861756515739000,10.31773876953125,1.046610713005066,1.0207842588424683,1.2801178693771362
1788861756525746000,10.327745849609375,0.9311554431915283,0.9034793972969055,1.2098511457443237
1788861756535753000,10.3377529296875,0.8004974722862244,0.7288051247596741,1.0866508483886719
1788861756545760800,10.3477607421875,0.6548449397087097,0.6484069228172302,0.8692792654037476
1788861756555768000,10.35776806640625,0.46723809838294983,0.5547904372215271,0.6640151143074036
1788861756565774800,10.36777490234375,0.29403916001319885,0.3251279294490814,0.48851844668388367
1788861756575782000,10.377781982421874,0.18506476283073425,0.14002372324466705,0.22438296675682068
1788861756585789000,10.387788818359375,0.0787535011768341,-0.009572423994541168,0.0007389638340100646
1788861756595796000,10.3977958984375,-0.10707410424947739,-0.32619255781173706,-0.10125742852687836
1788861756605803000,10.407802978515624,-0.22290350496768951,-0.39716899394989014,-0.2730228006839752
1788861756615809800,10.417809814453125,-0.33918067812919617,-0.1788988560438156,-0.5023577809333801
1788861756625816800,10.42781689453125,-0.48659810423851013,0.05274396389722824,-0.7002807259559631
1788861756635825000,10.437824951171875,-0.6108222603797913,-0.26560327410697937,-0.7621849775314331
1788861756645832000,10.44783203125,-0.7512075901031494,-0.4167584180831909,-0.8475707173347473
1788861756655839000,10.4578388671875,-0.8658602237701416,-0.13804976642131805,-1.0219666957855225
1788861756665845800,10.467845703125,-0.9343303442001343,0.15465080738067627,-1.201370358467102
1788861756675853000,10.47785302734375,-0.9287123680114746,0.1320657581090927,-1.3174448013305664
1788861756685859800,10.48785986328125,-0.9316386580467224,-0.13304686546325684,-1.3398683071136475
1788861756695867000,10.497866943359375,-0.9744445085525513,-0.42936035990715027,-1.2403544187545776
1788861756705874000,10.5078740234375,-0.9233754873275757,-0.6766812205314636,-1.0981285572052002
1788861756715881000,10.517880859375,-0.8790825605392456,-0.7785555720329285,-1.1030399799346924
1788861756725889000,10.527888916015625,-1.0198171138763428,-0.5341394543647766,-1.262816309928894
1788861756735895800,10.537895751953124,-1.1655247211456299,-0.2519960105419159,-1.38169264793396
1788861756745903000,10.547903076171876,-1.1901684999465942,-0.24429841339588165,-1.3518226146697998
1788861756755910000,10.557909912109375,-1.112655758857727,-0.1462259441614151,-1.2665997743606567
1788861756765917000,10.5679169921875,-0.9915789365768433,-0.24184808135032654,-1.1664625406265259
1788861756775924000,10.577924072265626,-0.9279446601867676,-0.678588330745697,-1.101306676864624
1788861756785930800,10.5879306640625,-0.9542964100837708,-0.9201911091804504,-1.1819720268249512
1788861756795938000,10.59793798828125,-1.0113557577133179,-0.7036038637161255,-1.2996881008148193
1788861756805944800,10.60794482421875,-1.0205271244049072,-0.37479856610298157,-1.3165059089660645
1788861756815952000,10.617951904296875,-0.9863227605819702,-0.43466803431510925,-1.2628158330917358
1788861756825960000,10.6279599609375,-0.9263063073158264,-0.7093789577484131,-1.2722513675689697
1788861756835966700,10.637966796875,-0.8677073121070862,-0.9658445119857788,-1.3189184665679932
1788861756845974000,10.64797412109375,-0.8709098100662231,-1.2632179260253906,-1.3176395893096924
1788861756855980800,10.657980712890625,-0.9362208843231201,-1.353413462638855,-1.318584680557251
1788861756865988000,10.667988037109374,-0.9724062085151672,-1.1281877756118774,-1.3297935724258423
1788861756875995000,10.677994873046876,-0.9503605365753174,-0.8002317547798157,-1.4123414754867554
1788861756886002000,10.688001953125,-0.922362208366394,-0.721681535243988,-1.5541619062423706
1788861756896009000,10.698009033203125,-0.8853963017463684,-0.8458614945411682,-1.6133220195770264
1788861756906016000,10.70801611328125,-0.824684202671051,-0.9794105291366577,-1.5038599967956543
1788861756916023000,10.71802294921875,-0.7422751784324646,-1.2542085647583008,-1.3835785388946533
1788861756926030800,10.72803076171875,-0.6615774035453796,-1.4616690874099731,-1.3721262216567993
1788861756936038100,10.7380380859375,-0.6766049861907959,-1.4259244203567505,-1.39622962474823
1788861756946045000,10.748044921875,-0.7783137559890747,-1.1883536577224731,-1.4364057779312134
1788861756956051700,10.7580517578125,-0.826454758644104,-1.1492094993591309,-1.4645906686782837
1788861756966059000,10.76805908203125,-0.7737215161323547,-1.3140149116516113,-1.4184154272079468
1788861756976065800,10.778065673828126,-0.6669449806213379,-1.5725966691970825,-1.3377962112426758
1788861756986073000,10.788072998046875,-0.614629328250885,-2.0132830142974854,-1.2669793367385864
1788861756996079600,10.79807958984375,-0.6629046201705933,-2.1687893867492676,-1.2130306959152222
1788861757006086700,10.808086669921876,-0.747205913066864,-1.997857928276062,-1.2050654888153076
1788861757016094700,10.8180947265625,-0.7386420965194702,-1.9001648426055908,-1.267531156539917
1788861757026101500,10.8281015625,-0.6669583320617676,-1.972946047782898,-1.2809984683990479
1788861757036108800,10.83810888671875,-0.5795625448226929,-1.7673437595367432,-1.3105518817901611
1788861757046115600,10.848115478515625,-0.5007430911064148,-1.3714481592178345,-1.3646775484085083
1788861757056122600,10.85812255859375,-0.4144296646118164,-1.1616839170455933,-1.3098630905151367
1788861757066129700,10.868129638671874,-0.29050078988075256,-0.9760929942131042,-1.1304768323898315
1788861757076136700,10.87813671875,-0.1254640817642212,-0.8304145932197571,-0.8841338157653809
1788861757086143700,10.888143798828125,0.017805198207497597,-0.4359849691390991,-0.627699613571167
1788861757096150500,10.898150634765624,0.08893940597772598,0.04376740753650665,-0.40446218848228455
1788861757106157600,10.908157470703125,0.14100341498851776,0.21593411266803741,-0.295302152633667
1788861757116165600,10.91816552734375,0.14576929807662964,0.1957874596118927,-0.15450915694236755
1788861757126172400,10.92817236328125,0.08901042491197586,0.14630645513534546,0.12877847254276276
1788861757136179700,10.9381796875,0.09340490400791168,0.4091567397117615,0.3870995044708252
1788861757146186500,10.9481865234375,0.22492404282093048,0.6573601365089417,0.4848146140575409
1788861757156193800,10.95819384765625,0.32840055227279663,0.839009165763855,0.5097233057022095
1788861757166200600,10.96820068359375,0.42282238602638245,0.918724775314331,0.5958496928215027
1788861757176207600,10.97820751953125,0.5972265601158142,1.0755937099456787,0.6838271021842957
1788861757186214700,10.988214599609375,0.8013775944709778,1.2976230382919312,0.7722907066345215
1788861757196221700,10.9982216796875,0.9209903478622437,1.3285064697265625,0.9650992155075073
1788861757206228700,11.008228759765625,0.9627034068107605,1.1903164386749268,1.2568490505218506
1788861757216236500,11.018236572265625,1.0018953084945679,1.0504605770111084,1.5242656469345093
1788861757226243800,11.028243896484375,1.0759665966033936,1.099749207496643,1.708317518234253
1788861757236250600,11.038250732421876,1.1327135562896729,1.2396059036254883,1.8369166851043701
1788861757246257700,11.048257568359375,1.1465675830841064,1.2189123630523682,1.8639594316482544
1788861757256264700,11.0582646484375,1.1343079805374146,1.0288580656051636,1.8243504762649536
1788861757266271500,11.068271484375,1.1000181436538696,0.8498350977897644,1.8542022705078125
1788861757276278800,11.07827880859375,1.0456587076187134,0.794702410697937,1.9718652963638306
1788861757286285600,11.08828564453125,1.0422166585922241,0.9950171113014221,2.08978009223938
1788861757296292600,11.098292724609376,1.1067817211151123,1.4529459476470947,2.170116901397705
1788861757306299600,11.108299560546875,1.206043004989624,1.7288448810577393,2.294450521469116
1788861757316307500,11.118307373046875,1.2821568250656128,1.6526646614074707,2.45217227935791
1788861757326314800,11.128314697265624,1.339300274848938,1.4958481788635254,2.562839984893799
1788861757336321500,11.138321533203126,1.3537235260009766,1.3159221410751343,2.6529555320739746
1788861757346328800,11.148328857421875,1.3418843746185303,1.1141680479049683,2.7652595043182373
1788861757356335600,11.158335693359374,1.3299908638000488,0.9239048957824707,2.837940216064453
1788861757366342700,11.1683427734375,1.2741330862045288,0.9656711220741272,2.801243782043457
1788861757376349700,11.178349609375,1.1749536991119385,1.1891781091690063,2.666590929031372
1788861757386356500,11.1883564453125,1.0868068933486938,1.2717474699020386,2.485849618911743
1788861757396363800,11.19836376953125,1.0335992574691772,1.123444676399231,2.262800455093384
1788861757406371600,11.20837158203125,1.0482066869735718,0.7934454679489136,2.1122543811798096
1788861757416378600,11.218378662109375,1.1215916872024536,0.5842318534851074,2.052299737930298
1788861757426385700,11.2283857421875,1.1441545486450195,0.6555212140083313,1.9404244422912598
1788861757436392400,11.238392333984375,1.06858229637146,0.8429331183433533,1.7378158569335938
1788861757446399700,11.248399658203125,0.8993469476699829,1.130171537399292,1.444541573524475
1788861757456406500,11.258406494140624,0.7097618579864502,1.4099889993667603,1.119796872138977
1788861757466413800,11.268413818359376,0.5632607936859131,1.3620572090148926,0.8934173583984375
1788861757476420600,11.278420654296875,0.5133288502693176,0.8754222989082336,0.7608522176742554
1788861757486427600,11.288427734375,0.4944792687892914,0.4891206920146942,0.5767582654953003
1788861757496434700,11.2984345703125,0.39808881282806396,0.26961761713027954,0.39539405703544617
1788861757506442500,11.3084423828125,0.22310979664325714,-0.00469941645860672,0.2718164622783661
1788861757516449800,11.31844970703125,0.07780352979898453,0.07451790571212769,0.05548214912414551
1788861757526456600,11.32845654296875,-0.03914172574877739,0.2644422948360443,-0.14831490814685822
1788861757536463600,11.338463623046875,-0.18416479229927063,0.03498310595750809,-0.23384033143520355
1788861757546470700,11.348470703125,-0.2474236637353897,-0.5136368870735168,-0.2728945016860962
1788861757556477400,11.3584775390625,-0.35407036542892456,-0.6269077062606812,-0.39968353509902954
1788861757566484700,11.368484619140625,-0.5275901556015015,-0.37117424607276917,-0.5860877633094788
1788861757576491500,11.378491455078125,-0.6499879360198975,-0.08971773833036423,-0.7740956544876099
1788861757586498800,11.388498779296874,-0.766489565372467,0.14771904051303864,-0.9245375990867615
1788861757596505600,11.398505615234376,-0.9145451784133911,0.3273526728153229,-1.0206342935562134
1788861757606513700,11.408513671875,-1.0065646171569824,0.09610003232955933,-0.9948858022689819
1788861757616520700,11.418520751953125,-0.9268532395362854,-0.41513967514038086,-0.9180482029914856
1788861757626527500,11.428527587890626,-0.7584618330001831,-0.8103283047676086,-0.9060258865356445
1788861757636534800,11.43853466796875,-0.6935959458351135,-1.0011054277420044,-0.9394513368606567
1788861757646541600,11.44854150390625,-0.8038161396980286,-0.9109976887702942,-0.9736872911453247
1788861757656548900,11.458548828125,-0.9497194886207581,-0.5148829817771912,-1.0006520748138428
1788861757666555600,11.4685556640625,-1.045348048210144,-0.03193093463778496,-1.0523005723953247
1788861757676562400,11.4785625,-1.1133850812911987,0.14929766952991486,-1.048783302307129
1788861757686569700,11.48856982421875,-1.1325539350509644,0.0674523338675499,-1.0085389614105225
1788861757696576500,11.498576416015625,-1.0534175634384155,0.09742967039346695,-1.1340723037719727
1788861757706584600,11.50858447265625,-0.9708206057548523,-0.06773717701435089,-1.2998205423355103
1788861757716591600,11.518591552734375,-0.9870261549949646,-0.5757248401641846,-1.3036972284317017
1788861757726598700,11.5285986328125,-1.074774146080017,-0.9284511804580688,-1.2557597160339355
1788861757736605700,11.538605712890625,-1.1506074666976929,-0.6197795271873474,-1.2480167150497437
1788861757746612500,11.548612548828125,-1.167335033416748,-0.32338008284568787,-1.2437812089920044
1788861757756619800,11.558619873046876,-1.1453152894973755,-0.47714653611183167,-1.2922630310058594
1788861757766626600,11.56862646484375,-1.1361761093139648,-0.7297633290290833,-1.4478377103805542
1788861757776633900,11.5786337890625,-1.1521145105361938,-0.9300268292427063,-1.5900864601135254
1788861757786640600,11.588640625,-1.158004879951477,-1.1945189237594604,-1.6115168333053589
1788861757796648700,11.598648681640626,-1.130507469177246,-1.2226728200912476,-1.5372577905654907
1788861757806655700,11.60865576171875,-1.0463638305664062,-0.9400044083595276,-1.4782432317733765
1788861757816662500,11.61866259765625,-0.9480199813842773,-1.044326663017273,-1.4804898500442505
1788861757826669600,11.628669677734376,-0.8771588802337646,-1.3779927492141724,-1.5507453680038452
1788861757836676600,11.638676513671875,-0.8535982370376587,-1.5468134880065918,-1.5315263271331787
1788861757846683600,11.64868359375,-0.8531407117843628,-1.5299291610717773,-1.4248147010803223
1788861757856690700,11.658690673828126,-0.901604950428009,-1.5908300876617432,-1.4146867990493774
1788861757866697500,11.668697509765625,-0.9613528251647949,-1.5518187284469604,-1.4813718795776367
1788861757876704800,11.678704833984375,-0.9482492804527283,-1.3836411237716675,-1.4690231084823608
1788861757886711600,11.688711669921876,-0.9076200723648071,-1.5923514366149902,-1.3883522748947144
1788861757896718800,11.69871875,-0.8519366979598999,-1.953027367591858,-1.374684453010559
1788861757906726700,11.7087265625,-0.7505802512168884,-2.009310483932495,-1.3775092363357544
1788861757916733700,11.718733642578124,-0.6611813306808472,-1.712484359741211,-1.3639979362487793
1788861757926740700,11.72874072265625,-0.6434542536735535,-1.5266942977905273,-1.3610447645187378
1788861757936747500,11.73874755859375,-0.6409366726875305,-1.4088259935379028,-1.3679558038711548
1788861757946754800,11.7487548828125,-0.5679197311401367,-1.4054456949234009,-1.373837947845459
1788861757956761600,11.75876171875,-0.4677591323852539,-1.555585503578186,-1.3887842893600464
1788861757966768600,11.7687685546875,-0.4166450798511505,-1.5154668092727661,-1.3910013437271118
1788861757976775700,11.778775634765625,-0.3624435067176819,-1.2087146043777466,-1.3357819318771362
1788861757986782500,11.788782470703126,-0.3212185800075531,-0.8582268953323364,-1.2041666507720947
1788861757996789200,11.798789306640625,-0.29633256793022156,-0.5602884292602539,-1.1115020513534546
1788861758006797000,11.808797119140625,-0.17731298506259918,-0.053185250610113144,-1.0755441188812256
1788861758016804000,11.81880419921875,-0.054442714899778366,0.0819510743021965,-0.8914597034454346
1788861758026811100,11.82881103515625,0.024740522727370262,-0.05183975026011467,-0.5669156908988953
1788861758036818200,11.838818115234375,0.11449556797742844,0.06971912831068039,-0.24156655371189117
1788861758046825200,11.8488251953125,0.14970336854457855,0.2874368131160736,0.016575777903199196
1788861758056832000,11.85883203125,0.11569660156965256,0.4731929302215576,0.15421651303768158
1788861758066839300,11.86883935546875,0.10634703934192657,0.5271307229995728,0.3023305833339691
1788861758076846000,11.87884619140625,0.2587384879589081,0.6539024114608765,0.4402211010456085
1788861758086853400,11.888853271484376,0.5025623440742493,0.7471631169319153,0.5955486297607422
1788861758096860200,11.898860107421875,0.6713008284568787,0.8306204676628113,0.7368094325065613
1788861758106868200,11.9088681640625,0.7521059513092041,0.7327862977981567,0.8924326300621033
1788861758116875300,11.918875244140626,0.7906679511070251,0.5757768750190735,1.0843751430511475
1788861758126882000,11.928882080078125,0.8820154070854187,0.7996677756309509,1.2425365447998047
1788861758136889300,11.938889404296875,0.9283462166786194,1.1492120027542114,1.3848923444747925
1788861758146896100,11.948896240234374,0.9727317690849304,1.4819625616073608,1.4934585094451904
1788861758156903200,11.958903076171875,1.1150957345962524,1.5506210327148438,1.605447769165039
1788861758166910200,11.96891015625,1.2671725749969482,1.4182233810424805,1.7312583923339844
1788861758176917000,11.9789169921875,1.331990122795105,1.184954285621643,1.861183762550354
1788861758186924300,11.98892431640625,1.299128532409668,0.9902519583702087,1.9760209321975708
1788861758196931000,11.99893115234375,1.2510985136032104,1.0363489389419556,2.0674171447753906
1788861758206939100,12.008939208984375,1.2256935834884644,1.2258174419403076,2.1687304973602295
1788861758216946200,12.0189462890625,1.2251067161560059,1.3590736389160156,2.2808828353881836
1788861758226953200,12.028953125,1.208335518836975,1.1596862077713013,2.384714365005493
1788861758236960300,12.038960205078125,1.1786504983901978,0.9444815516471863,2.398705244064331
1788861758246967000,12.048967041015626,1.1734453439712524,0.91214519739151,2.353795051574707
1788861758256974300,12.058974365234375,1.1659135818481445,0.8354047536849976,2.3520398139953613
1788861758266981000,12.068981201171875,1.162654995918274,0.8114174008369446,2.3485679626464844
1788861758276988200,12.07898828125,1.1701719760894775,1.0148087739944458,2.2441084384918213
1788861758286995200,12.0889951171875,1.1473298072814941,1.2847175598144531,2.081413984298706
1788861758297002000,12.099001953125,1.086294174194336,1.2277145385742188,2.0102906227111816
1788861758307009300,12.10900927734375,1.0698859691619873,0.9208283424377441,2.082376003265381
1788861758317017000,12.11901708984375,1.0966218709945679,0.8298313617706299,2.1174049377441406
1788861758327024000,12.129024169921875,1.10686194896698,0.8599075078964233,2.031308650970459
1788861758337031200,12.13903125,1.0881139039993286,0.9324445128440857,1.8350893259048462
1788861758347038200,12.1490380859375,1.0695111751556396,1.1736953258514404,1.577860951423645
1788861758357045200,12.159045166015625,1.0135498046875,1.4227657318115234,1.389755368232727
1788861758367052000,12.169052001953125,0.9651662707328796,1.1873018741607666,1.3615732192993164
1788861758377059300,12.179059326171876,0.9775358438491821,0.5652244687080383,1.333972454071045
1788861758387066000,12.189066162109375,0.9603859186172485,0.34043556451797485,1.210476040840149
1788861758397073200,12.1990732421875,0.8862122893333435,0.44363826513290405,1.1440790891647339
1788861758407080200,12.209080078125,0.7883328199386597,0.4758598506450653,1.1102733612060547
1788861758417088300,12.219088134765625,0.6512139439582825,0.4939653277397156,1.0301514863967896
1788861758427095300,12.22909521484375,0.45396900177001953,0.7250680327415466,0.8700057864189148
1788861758437102000,12.23910205078125,0.2464408427476883,0.8494555354118347,0.6611793637275696
1788861758447109000,12.249109130859376,0.148768350481987,0.8089592456817627,0.35726869106292725
1788861758457116200,12.2591162109375,0.0743861049413681,0.7014207243919373,0.109204962849617
1788861758467123200,12.269123291015624,-0.0417114719748497,0.43170666694641113,0.0012944794725626707
1788861758477130200,12.279130126953126,-0.07726962864398956,-0.0705518126487732,-0.05454101786017418
1788861758487137000,12.289136962890625,-0.10756894946098328,-0.11011147499084473,-0.2058091014623642
1788861758497144300,12.299144287109375,-0.21785032749176025,0.08793553709983826,-0.34931233525276184
1788861758507151000,12.309151123046876,-0.3396928906440735,-0.06168724596500397,-0.4169132113456726
1788861758517158100,12.319158203125,-0.4447101354598999,-0.2289554476737976,-0.5134639739990234
1788861758527166200,12.329166259765625,-0.5613150596618652,-0.31174352765083313,-0.6128755211830139
1788861758537173200,12.33917333984375,-0.6394220590591431,-0.3295179009437561,-0.6980454325675964
1788861758547180300,12.34918017578125,-0.6763315796852112,-0.4010373651981354,-0.7672426104545593
1788861758557187000,12.35918701171875,-0.7228702902793884,-0.5588688850402832,-0.8190629482269287
1788861758567194000,12.369194091796874,-0.8035757541656494,-0.6115862131118774,-0.8589658737182617
1788861758577201200,12.379201171875,-0.9237788319587708,-0.3585447072982788,-0.9117732644081116
1788861758587208200,12.389208251953125,-0.9822213649749756,0.037294238805770874,-1.0313000679016113
1788861758597215200,12.39921533203125,-0.9237844944000244,-0.08915668725967407,-1.1458083391189575
1788861758607222000,12.409221923828126,-0.8884744644165039,-0.625040590763092,-1.0981411933898926
1788861758617229300,12.419229248046875,-0.950147807598114,-0.9716388583183289,-1.0241669416427612
1788861758627236000,12.429236083984375,-1.046105980873108,-0.9410258531570435,-1.0991767644882202
1788861758637244200,12.439244140625,-1.1193851232528687,-0.5512597560882568,-1.2585729360580444
1788861758647251200,12.449251220703125,-1.2198792695999146,-0.00956345722079277,-1.3980330228805542
1788861758657258200,12.45925830078125,-1.3261997699737549,0.3163323998451233,-1.5385165214538574
1788861758667265300,12.469265380859374,-1.3688044548034668,0.19563685357570648,-1.6292728185653687
1788861758677272000,12.47927197265625,-1.3085722923278809,-0.3230443000793457,-1.6094231605529785
1788861758687279000,12.489279052734375,-1.1798830032348633,-0.7623782753944397,-1.5548278093338013
1788861758697286100,12.4992861328125,-1.0664061307907104,-0.9940095543861389,-1.5112836360931396
1788861758707293200,12.509293212890626,-1.1026238203048706,-1.0594731569290161,-1.603241205215454
1788861758717300200,12.51930029296875,-1.2761597633361816,-0.9899117350578308,-1.8397572040557861
1788861758727307000,12.52930712890625,-1.3698550462722778,-0.8563440442085266,-2.0280988216400146
1788861758737314300,12.539314208984376,-1.331784963607788,-1.0127394199371338,-2.0321202278137207
