time,seconds_elapsed,z,y,x
1789635377653846800,0.0598466796875,0.6863152077317237,-1.4689683907121418,2.3208748503997922
1789635377663886800,0.069886962890625,0.0234627086520195,-1.6834803254425525,2.0372867490947244
1789635377673927000,0.079927001953125,-0.19427987856268883,-1.9517197587072848,1.8078470020845532
1789635377683965700,0.089965576171875,-0.7426338918030262,-2.1798457927703856,1.8265272987656294
1789635377694005800,0.100005859375,-1.3628466880738734,-2.372024315139651,2.0213107429362833
1789635377704045800,0.1100458984375,-2.0202631335794923,-2.615357855206728,1.7285329346120357
1789635377714084900,0.1200849609375,-2.753877268102765,-1.9358955821096897,0.5204758262336254
1789635377724125000,0.130125,-4.000174383026361,-0.6638496934235095,-0.04742854452058673
1789635377734164700,0.140164794921875,-4.646615845531225,0.3354822469323873,-0.34530426050573587
1789635377744203800,0.150203857421875,-3.547681375172734,-0.07939327018857002,0.02782148838341236
1789635377754243800,0.160243896484375,-2.549064305087924,-1.6244214027523993,0.6245512638665736
1789635377764284000,0.170283935546875,-2.8610382506608962,-3.5923622284203764,0.6848742151431739
1789635377774322700,0.18032275390625,-3.3879140070647,-4.574045114839077,0.3630208997864276
1789635377784362800,0.19036279296875,-3.405959366843104,-3.924973888352513,-0.42972010809667405
1789635377794402800,0.20040283203125,-3.1713983312964436,-3.435422777214646,-1.1693953692898154
1789635377804441600,0.210441650390625,-2.98824365786016,-3.860252702116966,-1.2851533536709845
1789635377814481700,0.220481689453125,-2.179283482712507,-4.3875703570693725,-0.9388920847013592
1789635377824521700,0.230521728515625,-1.404980194926262,-4.179710865965485,-0.10847681439705192
1789635377834560800,0.240560791015625,-1.0458183817207813,-3.4565456447422505,1.0798802257984876
1789635377844600600,0.2506005859375,-1.6223644702225923,-2.3867571893692014,1.9836689945451913
1789635377854640600,0.260640625,-1.8695009097039699,-2.535395260697603,2.1444958085782826
1789635377864680000,0.270679931640625,-1.241771161931753,-3.0998931840091943,2.3268512944608926
1789635377874719700,0.2807197265625,-1.014557566538453,-2.969781533974409,2.0202394604429603
1789635377884759800,0.290759765625,-0.9821762228935956,-3.5235020426839587,1.2587398323893546
1789635377894798800,0.300798828125,-1.371280754420161,-4.749499881422519,0.05588847596049309
1789635377904839000,0.3108388671875,-1.5436849012613296,-5.966524724632501,-1.203206453476846
1789635377914878700,0.320878662109375,-1.5528987198084592,-7.034452062308788,-2.6370614452317356
1789635377924917800,0.330917724609375,-1.2697826199293136,-7.4621303623795505,-3.086148151773214
1789635377934957800,0.340957763671875,-0.5965192014724016,-7.180508884972333,-2.1493851880550383
1789635377944998000,0.350997802734375,0.6683519732788205,-6.788553055667877,-0.9339239408999681
1789635377955037000,0.361036865234375,1.9834996293276548,-5.991852058112621,-0.1101630869835615
1789635377965076700,0.37107666015625,2.125182474690676,-4.717854450836778,0.5232955598294735
1789635377975116800,0.38111669921875,1.4461647304907441,-3.0167192262381315,1.336121762755513
1789635377985155800,0.39115576171875,1.7788772204488514,-1.8340625165760516,1.890597473746538
1789635377995196000,0.40119580078125,1.9179916766285896,-1.571502297991514,2.0125246482819317
1789635378005234700,0.411234619140625,1.7171628148138522,-1.4398410804271697,1.7370266221910715
1789635378015274800,0.421274658203125,1.935887398803234,-0.805531662003696,1.7959902678132056
1789635378025314800,0.431314697265625,2.377326513200998,-0.14305179562866688,2.8649779281973835
1789635378035353900,0.441353759765625,2.8148750499010085,0.8220178096413612,4.6159845604240894
1789635378045393700,0.4513935546875,3.0891876655995842,2.57873492846936,6.504241608524322
1789635378055433700,0.461433837890625,3.0633854080840943,4.046776267464459,7.780290303111076
1789635378065472800,0.47147265625,2.6717782460868356,4.7753021389380095,7.951594964277744
1789635378075512800,0.481512939453125,3.1310066996753214,5.137299760091304,7.30030372365415
1789635378085552600,0.491552734375,3.01627440508008,4.966335290664434,5.9442941881239415
1789635378095591700,0.501591796875,2.472580492605269,5.149123468875885,5.121140652450919
1789635378105631700,0.5116318359375,2.3266356058835984,5.871812304759025,4.9680789194613695
1789635378115671800,0.521671875,2.1574527591764925,6.053570555400848,5.263279424887895
1789635378125710800,0.5317109375,2.0272081304118035,5.183238504445552,5.165194313710928
1789635378135750700,0.541750732421875,0.813896170245111,4.314410428312421,4.168902471703291
1789635378145790700,0.551790771484375,-1.8765102039441466,4.886776016259193,3.7570343197047706
1789635378155830300,0.561830322265625,-4.355426621572673,5.3795875904977315,3.5858623450070617
1789635378165870300,0.571870361328125,-5.653180075228214,4.225442105048895,2.9966899991661307
1789635378175910400,0.581910400390625,-4.383244602824747,3.3821263635739682,1.9827537793964147
1789635378185949400,0.591949462890625,-4.455645529907941,3.7887285578683016,1.3327309512734413
1789635378195989200,0.6019892578125,-19.209437459802626,5.554225780001282,1.886628570115566
1789635378206029300,0.612029296875,-33.4681662371397,5.712238997918367,-1.9561592024594545
1789635378216068600,0.622068603515625,-19.182378772485254,2.1799112592220307,-3.0926977195471523
1789635378226108700,0.632108642578125,0.7284644966751337,1.2149109928611665,-1.5461989299088716
1789635378236148500,0.6421484375,1.9384139946714043,1.6665138469420373,-3.5459792474299667
1789635378246187500,0.6521875,0.5662757466390729,0.33967107692435383,-8.387329729554057
1789635378256227600,0.6622275390625,0.8706319106847047,-1.1134133698269724,-12.570052052295207
1789635378266267600,0.672267578125,0.10840016896426677,-0.6488057804834098,-13.453489084017276
1789635378276306400,0.682306396484375,-1.0512041664123535,-0.466314904718101,-11.441741265326737
1789635378286346500,0.692346435546875,-0.5922524839386344,-3.133374597850442,-10.516123965001105
1789635378296386600,0.702386474609375,2.8825033557549116,-6.366419530242681,-9.440665647298097
1789635378306425600,0.712425537109375,7.873072047182917,-7.71288090070486,-6.27738749409318
1789635378316465400,0.72246533203125,4.821816345092654,-3.5960230890154836,2.9788907231032846
1789635378326505500,0.73250537109375,-0.02123801833987236,5.787835213911533,15.469448967444896
1789635378336544500,0.74254443359375,1.9200088616698978,9.161891960537433,20.183073233366013
1789635378346584600,0.75258447265625,-3.1909733848601576,7.456790170395374,16.464078429198263
1789635378356624400,0.762624267578125,-4.027632591055333,4.53907024756968,9.189902249491213
1789635378366663400,0.772663330078125,-3.5988422380894423,2.896803976047039,5.037628841027617
1789635378376703500,0.782703369140625,-3.248625947883725,2.702788885900378,3.6426685203343627
1789635378386743600,0.79274365234375,-2.503903559368849,2.2885528357267377,4.476277399048209
1789635378396782300,0.8027822265625,-3.2375448741599917,2.6215502801060677,5.512925216841698
1789635378406822400,0.812822509765625,-2.7335604562610385,5.853422077065706,7.480645093235373
1789635378416862500,0.822862548828125,-1.8281021468669174,5.3853293490201235,9.742956403246522
1789635378426901200,0.8329013671875,-0.615612316738069,0.2848714191138744,8.812516212809085
1789635378436941300,0.84294140625,-2.277034247368574,-5.346907556167245,2.007169843250513
1789635378446981400,0.8529814453125,-2.601805130672455,-6.29079642624259,0.36349428945183754
1789635378457020400,0.8630205078125,9.30210882500112,-4.759295299249887,0.8553782274514437
1789635378467060500,0.873060546875,12.91081896163225,-7.665567945387959,-6.9724792979985475
1789635378477100300,0.883100341796875,9.994468573594093,-10.374912828803062,-16.297737527918816
1789635378487139600,0.8931396484375,-0.38550972190499305,-10.37702061473727,-14.123714742213487
1789635378497179400,0.903179443359375,-5.878205220666527,-2.125458953544497,-1.9862194096803665
1789635378507218400,0.913218505859375,-1.3448305543899535,1.0244137746423483,-0.26347265725433827
1789635378517258500,0.923258544921875,-0.15645897421240806,1.6774474750190973,-0.5587228470414877
1789635378527298600,0.933298583984375,-2.94752995467782,0.8238672369003296,-1.511632058918476
1789635378537337600,0.943337646484375,-2.1039239980846642,1.294534199348092,-1.8111691322445869
1789635378547377400,0.95337744140625,-0.3374146762996912,1.260854048064351,-0.7181184592276811
1789635378557417500,0.96341748046875,0.8900824610859155,-1.5294851109951733,-0.8646265327900647
1789635378567456500,0.97345654296875,1.3268869014203548,-4.186664338365197,-1.8880799379676578
1789635378577496600,0.98349658203125,2.304781501471996,-3.854941151705384,-1.9501105699449777
1789635378587536600,0.99353662109375,3.1699884644985197,-3.6520740620613097,-2.655405203434825
1789635378597575400,1.003575439453125,1.5046826781719922,-3.2874469691872594,-3.174840580704808
1789635378607615500,1.013615478515625,0.04855155720114707,-2.371668341308832,-3.0345918597981334
1789635378617655600,1.023655517578125,-1.9042840537935495,0.24630174222290516,-1.2306208223640918
1789635378627694300,1.0336943359375,-0.8077268339604139,1.9509446826815604,1.183544306151569
1789635378637734400,1.043734375,3.33959158244431,2.373374560704827,3.068574208898842
1789635378647774500,1.0537744140625,0.7245867784589528,4.186845540150999,5.108392814558744
1789635378657813500,1.0638134765625,-1.6328431941390036,4.156435204318165,5.233513232177495
1789635378667853300,1.073853271484375,0.1260720192551613,3.131203099030256,4.110928421640396
1789635378677893400,1.083893310546875,1.2770149092704057,1.1651987943828106,2.0308228137776254
1789635378687932400,1.093932373046875,1.226951778462529,0.13047697621583937,0.26802316016554834
1789635378697972500,1.103972412109375,1.183475040307641,0.8192734793692826,0.4753934064477682
1789635378708012300,1.11401220703125,-1.0895137310624121,0.965185340604186,-0.14077712869495151
1789635378718051300,1.12405126953125,-0.3205664173513651,1.2431149777561425,-0.18413316307961938
1789635378728091400,1.13409130859375,-0.5584253253996372,2.6197669038206337,0.36632717479020355
1789635378738131500,1.14413134765625,-1.425429693236947,4.042562156900764,0.23787205979079007
1789635378748170500,1.15417041015625,-1.2524573911190031,2.5839818892121316,-0.5884393553912639
1789635378758210300,1.164210205078125,-0.9356237305551767,-0.4629366604566574,-0.9913143458560109
1789635378768250400,1.17425048828125,-0.2659282337129116,-0.8967366582781076,-0.09588906243741512
1789635378778289700,1.18428955078125,0.20853987458348272,-1.4354747019112108,0.4136719865500927
1789635378788329500,1.19432958984375,-0.23701135130822656,-1.1657587663531304,1.0460776171788573
1789635378798369300,1.204369384765625,-0.32054069838821886,-0.842467892473936,0.7928425685614346
1789635378808408600,1.21440869140625,0.626942396786809,-0.2268967845290899,0.6369102485716343
1789635378818448600,1.22444873046875,0.555913634839654,0.3678735274493694,0.0868468010649085
1789635378828488400,1.234488525390625,-0.8136860346257686,0.8355839781790971,-0.6573796206265687
1789635378838527500,1.244527587890625,-1.0336650025904177,4.524339126905798,-0.055286418414115905
1789635378848567600,1.254567626953125,-1.7797499116301536,8.353834871709346,1.287652330879867
1789635378858607600,1.264607666015625,-1.5181500625103712,1.260413903081417,-2.2453823870420453
1789635378868646400,1.274646484375,0.47593818084895606,-0.14130524422228335,-0.6988429731324315
1789635378878686500,1.2846865234375,3.5355034461230037,6.133378251609206,2.5069267065823078
1789635378888726500,1.2947265625,0.9247440246224403,1.027514078745246,-2.2795304480984804
1789635378898765600,1.304765625,-3.003099281686544,-0.2034089414358139,-1.6103478692144155
1789635378908805400,1.314805419921875,-1.5278975495427847,2.420251462692022,0.9358031787753105
1789635378918845400,1.324845458984375,-2.0753093134969474,4.675672428667545,0.6483584020420908
1789635378928884500,1.334884521484375,-0.48130116918683047,8.479035953348875,-0.34335517226457596
1789635378938924500,1.344924560546875,-2.342557982158661,-0.02855214074552059,-2.7180437381774185
1789635378948964400,1.35496435546875,-0.6143354286700486,2.3676111748725175,4.8308375636771315
1789635378959003400,1.36500341796875,0.9267834214955568,7.817150837996602,3.8971523999691007
1789635378969043500,1.37504345703125,-2.026584737816453,-0.07620119614899158,-2.5724746990308165
1789635378979083500,1.38508349609375,2.375363104173541,4.444463626158237,2.098210004352033
1789635378989122300,1.395122314453125,-2.4529776742517946,-1.3210036886006593,-0.7311483289316296
1789635378999162400,1.405162353515625,-5.15851439755559,-4.463734143817424,4.413934632381797
1789635379009202400,1.415202392578125,0.4685287813752889,0.5902370524629951,6.919607539510727
1789635379019241500,1.425241455078125,-1.733463376751542,-7.452783857363462,2.2208462039396166
1789635379029281300,1.43528125,8.283373680517077,-9.784227740311621,5.353852260738611
1789635379039321300,1.4453212890625,0.623883593738079,-3.133646400529146,2.7577345280528065
1789635379049360600,1.455360595703125,-0.8268868769824504,-5.314737224924564,-2.6498177586913108
1789635379059400400,1.465400390625,2.0165853218495844,-8.279615789288282,-4.427085205855965
1789635379069440300,1.475440185546875,3.953616629990935,-2.512687462066114,-1.3365662916526198
1789635379079479600,1.4854794921875,2.101118877536058,-0.22570143726468084,-1.2495727755933999
1789635379089519600,1.49551953125,-0.2563198628902435,-1.657499788750708,-2.7281688263505695
1789635379099559400,1.505559326171875,-1.5352327147364615,-3.201232036285102,-3.113910895706713
1789635379109598500,1.515598388671875,-1.4788158309876918,-3.8921532765075564,-3.78425579636842
1789635379119638500,1.525638427734375,0.171727855014801,-4.198789368183911,-3.8266307107612487
1789635379129678600,1.5356787109375,0.8949217178106308,-3.1559567242756486,-1.705695372121036
1789635379139717400,1.54571728515625,0.46746027536094187,-1.9761071809887885,0.9730135500118136
1789635379149757700,1.5557578125,-0.2926666030347347,-1.202285539239645,2.0792437303364277
1789635379159797500,1.565797607421875,-0.45267596320509906,-2.6266806287318465,0.31080227144509553
1789635379169836500,1.57583642578125,-0.3829126911491155,-3.1764453855529426,-0.9123197195962071
1789635379179876600,1.585876708984375,-0.11001403390169143,-2.2641969776272775,-1.3468730200029908
1789635379189916700,1.595916748046875,-0.2888765631020069,-1.3615873356625436,-1.7130175317026675
1789635379199955500,1.60595556640625,-0.21823709273338315,0.18443916028887034,-1.8391173157475889
1789635379209995500,1.61599560546875,0.03519055584669113,1.2791586433008313,-1.9163138065442442
1789635379220035600,1.62603564453125,0.18820552708506583,2.3052809754267334,-1.4552674898788331
1789635379230074600,1.63607470703125,-0.036144495570659636,2.1939882998913527,-1.7488186206631362
1789635379240114400,1.646114501953125,0.1387502990424633,1.2735615539461373,-2.364062834741175
1789635379250154500,1.656154541015625,0.12977964160144329,0.44783086126148697,-2.5190964523255825
1789635379260193500,1.666193603515625,0.2697521759152412,-0.1500020531579852,-2.4380090915702284
1789635379270233600,1.676233642578125,0.36402737341523167,-0.506328642937541,-2.1975971380382773
1789635379280273400,1.6862734375,0.15129180070757864,-0.1985828364536166,-2.3447506698973477
1789635379290312400,1.6963125,1.1875894898891448,-2.035050952866673,0.4605137806912884
1789635379300352500,1.7063525390625,1.2193617617249488,-3.8667864877998825,2.065436446519196
1789635379310392600,1.716392578125,1.046803885626793,-3.8601369667828083,2.9521728120476007
1789635379320431400,1.726431396484375,-0.7063818442046642,-1.0061530185475944,2.5261551386654375
1789635379330471400,1.736471435546875,-0.4487584975004196,-0.20819559119045733,0.641798897396028
1789635379340511500,1.746511474609375,-0.6473556547403335,1.0834104457512497,0.32421701228078453
1789635379350550500,1.756550537109375,-0.48806174936294555,2.311579783309996,-0.3382483871774748
1789635379360590300,1.76659033203125,0.5471241791844368,2.53580179567188,-0.8542362908747047
1789635379370630400,1.77663037109375,0.6927011093765497,1.33007576058954,-1.1809465447433292
1789635379380669700,1.786669677734375,0.1582218922317028,0.3138055449143052,-0.5477649613060057
1789635379390709800,1.796709716796875,-0.41928924190998074,-0.7773390022203326,0.5543563223950565
1789635379400749600,1.80674951171875,-0.08281973750591277,-1.4593381003186106,0.5254712233681231
1789635379410788600,1.81678857421875,0.024710662886500357,-1.095845564432442,-0.5327097232542932
1789635379420828700,1.82682861328125,0.2924152586221695,-0.7170625204339623,-1.3859192283645272
1789635379430868700,1.83686865234375,-0.023577859464287757,-0.8287883266896009,-1.1659778889965264
1789635379440907500,1.846907470703125,-0.11857786410748958,-1.484416135212779,-0.4889229693021625
1789635379450947600,1.856947509765625,-0.21311551193594933,-1.9048329198479652,0.5257256365206092
1789635379460987600,1.866987548828125,-0.9955319635510445,-2.076093157351017,0.6271695566061883
1789635379471026700,1.877026611328125,-0.5834878704637289,-1.9071692538410423,0.7746015400804579
1789635379481066500,1.88706640625,-0.13716390663385392,-1.553659767308831,0.4459242969878018
1789635379491106600,1.8971064453125,-0.16238368808627127,-1.0872808574438095,0.044812955194711686
1789635379501145600,1.9071455078125,0.0883387931883335,-0.7209279636904596,-0.1529778906309977
1789635379511185700,1.917185546875,0.24384032054543495,-0.7112880286857486,-0.4662277378913015
1789635379521225500,1.9272255859375,-0.05189268432259559,-0.3944645972549915,-0.503683608321473
1789635379531264500,1.937264404296875,-0.02760404624044895,-0.13755699760466814,-0.468961327573657
1789635379541304600,1.9473046875,0.15554536649882791,0.13370090669840573,0.06660271196609828
1789635379551344600,1.9573447265625,0.15521861876249313,0.018789163883030414,0.6805244955010712
1789635379561383400,1.967383544921875,-0.09371522552967071,-0.22227146281599997,0.7413255856834352
1789635379571423500,1.977423583984375,-0.27473113337159155,-0.45526159578412767,0.5978118350988254
1789635379581463600,1.987463623046875,-0.35821605678796764,-0.7632175378873944,0.48085791893135754
1789635379591502300,1.99750244140625,0.29245909776389595,-0.5895385488048196,0.490880569643341
1789635379601542400,2.00754248046875,-0.1260802025616169,-0.3740507547795772,0.3206504058403894
1789635379611582500,2.01758251953125,-0.6048597443163395,-0.8295046582654118,-0.1976489896696061
1789635379621621500,2.02762158203125,-0.11170505572855471,-1.5928578052312135,-0.5201129112053662
1789635379631661600,2.03766162109375,0.26861820344924925,-1.020715796907246,0.024940818380564448
1789635379641701400,2.047701416015625,-0.3494692712306976,-0.7433221663281321,0.30645744717381895
1789635379651740700,2.05774072265625,-1.048765541088581,-1.207007307064533,0.09952471552602946
1789635379661780500,2.067780517578125,0.3356143488794565,-1.6700287231951951,-0.05477518095634877
1789635379671820500,2.077820556640625,-0.4078407961785793,-2.1139868346765636,0.35060309756621716
1789635379681859600,2.087859619140625,-0.38610125805735585,-2.253018873269856,-0.3151738375928253
1789635379691899600,2.097899658203125,0.10596914242506027,0.1476204187184572,-0.028426395474001765
1789635379701938700,2.107938720703125,-0.4578256010532379,4.24918158481568,1.9558248559385536
1789635379711978500,2.117978515625,0.7845604779064654,5.38421700386405,1.3203648061752318
1789635379722018600,2.1280185546875,1.1284674388349056,2.992599807243049,-0.23643998116105794
1789635379732058600,2.13805859375,-0.26955343847274776,1.326134914009273,0.22445713629201053
1789635379742097700,2.14809765625,-0.7475719327270984,0.8723413449510932,0.15614567047953604
1789635379752137700,2.1581376953125,0.9866232654303312,-2.3887974630251527,-1.252230596625805
1789635379762177500,2.168177490234375,-0.8438473641335964,-0.7994798146188259,0.5809522145062684
1789635379772216600,2.178216552734375,-0.15001169776916504,0.7293848263904452,1.0777486936625094
1789635379782256600,2.188256591796875,0.28212358171045776,0.21041618984937666,0.4573775650247931
1789635379792296700,2.198296630859375,-0.750355425965786,1.1148095003604888,1.4467524672508238
1789635379802335500,2.20833544921875,0.37034254791140553,1.380083946339786,1.7307269375249743
1789635379812375600,2.21837548828125,0.6903975086092948,1.0258128277853131,1.2086657417960465
1789635379822415600,2.22841552734375,0.9209358645111322,-0.16038666905015705,0.232983995488286
1789635379832454400,2.238454345703125,0.2852034275472164,-0.6198287653893232,0.1512272110387683
1789635379842494500,2.248494384765625,-0.4207809417724609,-0.9789078687474131,0.44750338287279007
1789635379852534500,2.258534423828125,-1.2519102786302565,-1.6979340904697775,-0.26412878307551146
1789635379862573600,2.268573486328125,-1.140956333529949,-2.296534189869463,-1.2959819139383733
1789635379872613400,2.27861328125,-0.1752835016697645,-1.1670675108641386,-1.5895850671708582
1789635379882653400,2.2886533203125,0.6387842257499694,-0.05986117898374795,-1.4796004054941236
1789635379892692500,2.2986923828125,1.5208242501556872,0.9121391023322939,-1.1024772575318813
1789635379902732500,2.308732666015625,1.9600281528472898,1.242780338974297,-0.8557390235878527
1789635379912772600,2.318772705078125,1.6952134333342312,0.8464952482938766,-0.8162056162312626
1789635379922811400,2.328811279296875,1.3684750493496656,0.3585699847921729,-0.8771154274851083
1789635379932851500,2.3388515625,0.9382558326244353,0.58450230820328,-0.5638339064449072
1789635379942891500,2.3488916015625,0.5829764138102531,0.8581424314677715,-0.15505509876385332
1789635379952930600,2.3589306640625,-0.14402970075011254,0.6576213204279542,0.0629810645699501
1789635379962970400,2.368970458984375,-0.6077829382866621,0.0480319172412157,-0.06704597592130303
1789635379973010400,2.379010498046875,-1.168359304240346,-0.5126332960397004,-0.4899537005893886
1789635379983049700,2.3890498046875,-1.4706301864445208,-0.9100295628324151,-1.0342211751684547
1789635379993089500,2.399089599609375,-0.23536007696986197,-1.1223699987426399,-1.0642578553833066
1789635380003129600,2.409129638671875,0.5426274522870779,-0.8026753957897425,-0.87388594404459
1789635380013168600,2.419168701171875,-0.2322738013923168,0.2391401800304651,-0.6035379941932857
1789635380023208700,2.429208740234375,-1.0932903269916772,1.105460072734952,-0.09215309077948332
1789635380033248500,2.43924853515625,-1.6793617842078208,1.303100367641449,0.697211864799261
1789635380043287600,2.44928759765625,-2.545850603738427,0.9101970283538102,0.9526043837115168
1789635380053327600,2.45932763671875,-2.684811915183067,0.2587377376869321,0.9177999045729637
1789635380063367700,2.46936767578125,-2.6720354357182976,0.5546674341708422,1.106235733282566
1789635380073406500,2.479406494140625,-1.9485645095467565,1.5892638723924755,1.0943716924875975
1789635380083446500,2.489446533203125,-0.726390028488636,2.4455326189428566,0.8465662677034735
1789635380093486600,2.499486572265625,-0.906665347096324,2.585239780318737,0.4747814120292663
1789635380103525600,2.509525634765625,-2.0438234573870897,1.764606995294988,-0.2380444937482476
1789635380113565400,2.5195654296875,-1.733032584118843,0.8261775596693157,-0.5556406631171703
1789635380123605500,2.52960546875,-0.4865460841029882,0.8014175046831369,0.08017506821602582
1789635380133644500,2.53964453125,-0.2642114929229021,1.5040996175870298,0.4603288160458207
1789635380143684600,2.5496845703125,-0.4895259766966104,2.2405425457954404,0.3416252797320485
1789635380153723600,2.5597236328125,-1.322775958970189,2.6322289105087515,0.46759091600328684
1789635380163762700,2.5697626953125,-1.5816729788720607,2.076620980617404,0.7155804651826619
1789635380173802800,2.579802734375,-1.7603069600135086,1.055787110288441,0.7124319380238652
1789635380183842800,2.5898427734375,-1.112017239293456,0.5097106865912675,0.9106590929076075
1789635380193881900,2.5998818359375,0.42194355581104753,0.4948731829434633,0.5986082827061414
1789635380203922000,2.609921875,2.680940626707673,2.4332450920388102,0.047151627275347704
1789635380213961700,2.619961669921875,4.249449588102102,6.444186076012254,-0.04439531430453062
1789635380224001000,2.6300009765625,3.215629102689028,6.442528956454992,0.6259405262678861
1789635380234040800,2.640040771484375,-0.14556640879809857,2.6014754603266717,0.03370528572499752
1789635380244081000,2.650080810546875,-0.825123374441266,0.017826748591661452,-0.989816508513689
1789635380254120000,2.660119873046875,-0.9102443746268749,-1.1063020765170455,-1.9023887415662406
1789635380264160000,2.670159912109375,-1.8239707461506127,-0.658736880454421,-1.4482771926000713
1789635380274199800,2.68019970703125,-0.561275454133749,0.8050818724095821,0.12353694781959056
1789635380284238800,2.69023876953125,-0.011247370201349258,2.3553765471994876,-0.19158990882635116
1789635380294279000,2.70027880859375,-1.206110650485754,3.159258103908598,-0.9746554719999432
1789635380304319000,2.710319091796875,-1.570883289310336,3.2491745216771957,-1.4487953712552786
1789635380314357800,2.720357666015625,-1.3943559250593185,3.2863997982218858,-1.8025670158550142
1789635380324397800,2.730397705078125,-1.3523036667495965,3.495373388047516,-1.8928823698133228
1789635380334438000,2.74043798828125,-1.871556088668108,3.5655528396889564,-0.9016288142338394
1789635380344477000,2.750476806640625,-1.7748761681139469,3.1843443221092222,0.5277306196674704
1789635380354516700,2.760516845703125,-1.134600827023387,2.4722008456379174,0.9297060309439897
1789635380364556800,2.770556884765625,-1.9319646724015473,1.7907690260335802,0.18237492123544216
1789635380374595800,2.780595947265625,-2.641343944856524,1.4180530269891023,-0.6417135572001338
1789635380384636000,2.790635986328125,-2.184796693176031,1.4408844520002602,-0.5739768225356936
1789635380394675700,2.80067578125,-1.4593103355288504,1.089544126200676,-0.6256050107032061
1789635380404714800,2.81071484375,-1.2872498875588179,0.3526439557440579,-1.011899745506048
1789635380414754800,2.8207548828125,-1.1614075854063033,-0.10977160344794391,-0.9339338777720928
1789635380424795000,2.830794921875,-0.29765491284132,0.27640549632459877,-0.36672961811125276
1789635380434833700,2.840833740234375,0.53050096116364,0.7530582551836967,-0.17154489966332911
1789635380444873700,2.850873779296875,1.3456383636415004,1.2222530992522835,-0.2387310147076845
1789635380454913800,2.860913818359375,1.811995061674714,1.3204662207230924,-0.7786404402077197
1789635380464952800,2.870952880859375,2.219271209707856,1.2483251136198639,-0.8147937036067247
1789635380474992600,2.88099267578125,4.242874885886907,1.6525797218747436,0.536799184525013
1789635380485032700,2.89103271484375,4.88874000980854,3.041436611126363,1.5431699374765158
1789635380495072000,2.901072021484375,3.9537189213216304,3.3984593664765357,0.9346247826457023
1789635380505111800,2.91111181640625,3.678412618410587,1.8810016701444983,-0.47819560438692565
1789635380515151600,2.921151611328125,2.9258927078872916,0.6333327554110437,-1.8329302976757287
1789635380525191000,2.93119091796875,1.4155845910489557,0.5827272613547742,-1.748064733555913
1789635380535231000,2.94123095703125,1.0293746119201184,-0.07118197974748909,-1.0323317081600427
1789635380545271000,2.95127099609375,1.388483818155527,-0.6544494854588061,0.20002572873830793
1789635380555309800,2.961309814453125,1.5695955875873564,-1.0534710153657942,1.192145253497362
1789635380565350000,2.971349853515625,0.8462246146589517,-0.9469945810057222,1.0553817443579434
1789635380575390000,2.981389892578125,0.08464461484551429,0.990121848135814,0.22528116602599618
1789635380585430000,2.991429931640625,0.11376198825836181,2.7788059576541184,-0.24580080696344375
1789635380595468800,3.00146875,0.08070435278713703,2.6260423308283087,0.07895663233697414
1789635380605508900,3.0115087890625,0.2630097159177065,-0.06754179661422967,0.15152677850723265
1789635380615549000,3.021548828125,0.877899271339178,-2.711785262304544,-0.06688450174927711
1789635380625588000,3.031587890625,1.8778946440398692,-2.5042557338073848,-0.33478958849310875
1789635380635627800,3.041627685546875,2.392229483300447,-0.41945604984425006,-0.6614449703693389
1789635380645667800,3.051667724609375,2.046916747227311,1.529484672603756,-0.1806497048780322
1789635380655707000,3.061706787109375,2.040743611550331,2.684528422066569,1.1599372205927967
1789635380665747000,3.071746826171875,2.596229960888624,2.958215014821291,1.648436192329228
1789635380675786800,3.081786865234375,3.03333893712759,1.7487673288673162,1.2962787049278617
1789635380685825800,3.09182568359375,3.142026106339693,0.631593072136864,1.0529638695612549
1789635380695865900,3.101865966796875,3.1156729369431733,-0.157187799943611,1.0034548655048012
1789635380705906000,3.111906005859375,1.878629972577095,-0.5118922684140503,0.9930331324726343
1789635380715944700,3.12194482421875,0.35645196972489357,-0.04408931709527969,0.24165040928572415
1789635380725984800,3.13198486328125,-2.5366280173629523,1.1704722047410905,-1.5320546692222357
1789635380736024800,3.14202490234375,-5.449072630134225,1.8364760074585675,-3.0049557232081887
1789635380746064000,3.15206396484375,-6.227413210612535,1.3286679396182297,-3.4067429184362292
1789635380756103700,3.162103759765625,-3.4453029507160187,-1.1123165875662118,-3.072496643039584
1789635380766143700,3.172143798828125,-5.330552049171924,-3.568216798201203,-0.06271013867408037
1789635380776182800,3.182182861328125,-5.338005872309208,-4.690200720235705,5.386280366134644
1789635380786222800,3.192222900390625,1.4195347899794577,-4.476875364941359,6.937027460867166
1789635380796262700,3.2022626953125,2.1540496727347374,-2.634809574651718,2.419205168509483
1789635380806302000,3.212302001953125,1.086013613986969,0.20110358710289,-2.876635632765293
1789635380816341800,3.222341796875,3.4432325741827485,3.071356825354695,-3.620538229329884
1789635380826381800,3.2323818359375,5.271390250629186,4.468830882434546,-0.6393805842079222
1789635380836420900,3.2424208984375,5.552949768716097,3.7918978355541824,0.9264131999436765
1789635380846461000,3.2524609375,4.000090211874246,1.5834361891523003,-0.2751249549947679
1789635380856501000,3.2625009765625,1.6735475449711084,-0.4908589788660407,-1.9382605576753615
1789635380866539800,3.272539794921875,-0.5640893425107002,-1.6258787619538604,-2.3838595682315527
1789635380876579800,3.282579833984375,-1.5043670363515615,-1.4153127883702517,-1.6833337565787136
1789635380886620000,3.292619873046875,-1.4987947891771793,-0.9853618671923875,-0.9775706287942826
1789635380896659000,3.302658935546875,-1.6956980019807815,-0.9410203289017081,-0.820717759893462
1789635380906699000,3.312698974609375,-1.3339186997532844,-0.9552215804725885,-0.9948931541908532
1789635380916738800,3.32273876953125,-0.8606699041187763,-0.256167887198925,-1.1607976368144153
1789635380926777900,3.33277783203125,-0.2042413006067276,0.9112228642702103,-1.030219099920243
1789635380936818000,3.34281787109375,0.18643033410608767,1.9868173755735157,-0.9785103938624262
1789635380946858000,3.35285791015625,-0.5919190142005681,2.539453596177697,-1.0412848299443722
1789635380956896800,3.362896728515625,-1.359811265900731,2.586582427099347,-0.2940470245424658
1789635380966936800,3.372936767578125,-1.757145281112194,2.339445987617969,0.5124650268007069
1789635380976977000,3.382976806640625,-2.330246782118082,2.215541375529766,0.7081041379526257
1789635380987015700,3.393015625,-2.337035419344902,2.1786694424673914,0.5260584121389315
1789635380997055700,3.4030556640625,-1.865440820658207,2.425909926845133,-0.12161566090080886
1789635381007095800,3.413095703125,-1.9312106391638517,3.127918378271162,-0.7955703860901295
1789635381017134800,3.423134765625,-2.0074469066262246,3.439669621004164,-0.6003314167043193
1789635381027175000,3.4331748046875,-1.3017010222375391,3.32034444566071,0.09677611093763261
1789635381037214700,3.443214599609375,-0.5801975967466831,3.2199338141456244,0.9666294749978929
1789635381047253800,3.453253662109375,-0.6274491772651672,3.3434070490792394,1.6639458961501716
1789635381057293800,3.4632939453125,-0.6356564491182566,3.3489828033849594,2.1385107428193093
1789635381067334000,3.473333984375,-0.4388274705946445,2.783868501740694,2.4775062585696577
1789635381077372700,3.48337255859375,0.151576462867856,1.7821534656405449,2.488703359888494
1789635381087412700,3.493412841796875,0.7132219193577766,1.0992094879075884,2.2898132110513747
1789635381097452800,3.503452880859375,0.31386604292988773,1.2130115159153938,1.798680822071433
1789635381107492900,3.513492919921875,-1.0468471402466297,1.3923603673279286,1.3034130868524312
1789635381117532000,3.523531982421875,-1.7336241202712057,1.032774775752425,0.9672598087906837
1789635381127571700,3.53357177734375,-2.2404022605419156,0.5775926749452949,0.8643157132752239
1789635381137611800,3.54361181640625,-2.274093517741561,0.48835693291723725,0.7467601779527961
1789635381147650800,3.55365087890625,-2.216656058773398,0.7649100210189819,0.8335733690090477
1789635381157691400,3.56369140625,-1.2554074730962514,1.17137309910357,0.7890488753668964
1789635381167731500,3.5737314453125,-0.21562311084270477,1.475676948440075,0.17185484239533544
1789635381177770500,3.5837705078125,-0.059412558433413504,1.5567811141997574,-0.8595534673094749
1789635381187810300,3.593810302734375,-0.8992758213669061,1.4563579154640436,-1.7572434807896613
1789635381197850400,3.603850341796875,-1.863851505640149,1.1413736821591853,-1.9100468551039695
1789635381207889400,3.613889404296875,-2.243760923320055,0.5403577537894249,-1.5151197549037634
1789635381217929500,3.623929443359375,-2.3714234266370533,-0.1642775390088558,-1.275184771233797
1789635381227969500,3.633969482421875,-2.170123440179229,-0.24910394016206264,-0.6293097104400396
1789635381238008600,3.644008544921875,-1.6743500935256481,0.22358254541456699,0.2661481600739062
1789635381248048400,3.65404833984375,-1.0062930115401745,0.7935621150076388,0.6929509924843907
1789635381258088400,3.66408837890625,0.6014549043089151,1.3199743455529211,0.13611995053887366
1789635381268127500,3.67412744140625,1.7395763066738843,2.061941297879815,-0.8278782261073588
1789635381278167600,3.68416748046875,0.12217793442606925,2.7446821542561053,-0.9879390242040157
1789635381288207600,3.69420751953125,-0.8819488389909267,2.0312568212807176,-0.6981074984647333
1789635381298246400,3.704246337890625,0.27348551722466946,0.36570728932619095,0.1057749350272119
1789635381308286500,3.714286376953125,-0.649865007212758,-0.12770341984927652,1.756629586675018
1789635381318326500,3.724326416015625,-2.4051930097699166,0.41142508440613745,2.9378087711304426
1789635381328365300,3.734365234375,-0.7172223871707916,1.4989496874779462,2.5083126079827545
1789635381338405400,3.7444052734375,2.197239995163679,2.9825071600347757,0.7735657672919333
1789635381348445400,3.754445556640625,2.0065496655255557,3.400187797704339,-0.958327729794383
1789635381358484500,3.764484375,0.4076531646519899,2.4947487775325774,-2.214626891033351
1789635381368524300,3.774524169921875,0.03439619059860706,1.66377200088799,-1.8761070299707352
1789635381378564400,3.784564453125,0.40636137127578253,0.6456178711622953,-0.8101426629304885
1789635381388603400,3.794603271484375,-1.7541367469459772,-0.8628630302488803,-0.2646072142422199
1789635381398643500,3.8046435546875,-3.4317572404444214,-2.2522996190845963,0.5590943837676197
1789635381408683300,3.814683349609375,-0.6593915449708699,-2.0957973902523515,1.3287985802605748
1789635381418722300,3.824722412109375,2.5946307089984417,-0.6382184085607528,-0.5519638743005693
1789635381428762400,3.834762451171875,0.993915760526061,1.3217138826966286,-2.287333669195324
1789635381438802400,3.844802490234375,-2.047716373172402,1.770442569580674,-2.6670582318276166
1789635381448841200,3.85484130859375,-2.9881039571285246,0.5981137771874666,-1.6622307627953588
1789635381458881300,3.86488134765625,-1.789818301180005,-1.0286182405948638,0.5609685801416635
1789635381468921300,3.87492138671875,-0.8389847265332937,-2.216501744994521,2.3757057801313697
1789635381478960600,3.884960693359375,-0.9052502196013927,-2.0455729314029214,2.1184978823602196
1789635381489000400,3.89500048828125,-1.1035048470139504,-0.6924322293072939,0.20427461835443972
1789635381499040300,3.905040283203125,-0.8991501491606235,0.6919990985870361,-0.9900675606653093
1789635381509079600,3.91507958984375,-0.14850889199078082,1.2190665781706571,-1.3448070273838937
1789635381519119600,3.92511962890625,-1.0534341174215078,0.8507733640044927,-1.0300102794751524
1789635381529159400,3.935159423828125,-1.5179659381151198,0.46052024696469307,0.2638160638645291
1789635381539198500,3.945198486328125,-0.5530313574016094,0.7163514495551586,1.6180571284174918
1789635381549238500,3.955238525390625,0.6434726758271455,1.38258482324481,1.8841975435763596
1789635381559278600,3.965278564453125,1.2230097628384828,2.5142490122944117,0.7425408066920935
1789635381569317400,3.9753173828125,0.8055249400019645,3.461207206812501,-1.0628037110522388
1789635381579357400,3.985357421875,-1.01695059915483,3.0547201633304355,-2.9171760252073407
1789635381589397500,3.9953974609375,-2.8897908824145793,1.1204635805994272,-2.897833319094777
1789635381599437600,4.0054375,-2.5914643539220092,-1.2258967164516448,-0.7814268560558557
1789635381609476400,4.015476318359375,-1.529597923719883,-2.3783839132994413,1.526850378577411
1789635381619516400,4.025516357421875,-1.1773960126549006,-2.2267156804949044,2.502249362421036
1789635381629556500,4.035556396484375,-1.5562918693780898,-1.4837199696421621,1.2589673575349152
1789635381639595500,4.045595458984375,-1.2006330958575009,-0.2586415838360786,-0.1533107393145561
1789635381649635300,4.05563525390625,-0.29521044229865073,0.4746621695637703,-1.2438697416462003
1789635381659675400,4.06567529296875,-0.9491589194327592,0.2676958279073238,-1.6810227031573652
1789635381669714400,4.07571435546875,-1.8133225108861921,-0.6407564026057719,-0.9148894239537417
1789635381679754500,4.08575439453125,-0.7469634454399346,-1.3835878628075122,0.5050871184438467
1789635381689794300,4.095794189453125,1.4143062416762113,-1.3464140241891145,1.4453512221507727
1789635381699833300,4.105833251953125,2.562708799558878,-0.2984463554799557,0.5251273053012788
1789635381709873400,4.115873291015625,1.3284464058220387,0.12140811909735202,-1.5849435249753296
1789635381719913500,4.12591357421875,-1.284198683294654,-0.4277396748691797,-2.171387176504731
1789635381729952300,4.1359521484375,-2.0376637657135723,-1.3334072430998085,-1.0553658161364494
1789635381739992300,4.145992431640625,-0.514907670712471,-1.7869459606140852,0.5326224833622575
1789635381750032400,4.156032470703125,0.8389578385263681,-1.3990215787827969,1.1383439590744673
1789635381760071400,4.166071533203125,0.9397557157933711,-0.2466220602184534,0.31661651068180796
1789635381770111200,4.176111328125,-1.224025661882758,-0.16535247476398943,0.17275895162820815
1789635381780151300,4.1861513671875,-1.6720593522399663,-0.522772412738204,0.615965806350857
1789635381790190300,4.1961904296875,-1.4067729235619306,-0.7668687538713216,0.4535615138679743
1789635381800230400,4.20623046875,-1.773949116396904,-0.6229851835936308,0.26412220720425245
1789635381810270200,4.216270263671875,-1.4122259282708167,0.19137363572716712,0.2274582178041339
1789635381820309500,4.2263095703125,-0.32065175754725933,1.2201713245421648,-0.18975918626785276
1789635381830349600,4.236349609375,0.6573211684376001,1.8994559029847382,-1.1567230808518827
1789635381840389400,4.246389404296875,0.9686123924434185,2.0773785209864375,-2.0757183326892554
1789635381850428400,4.256428466796875,0.3931336409121752,1.9270523504406212,-1.9128126665554939
1789635381860468500,4.266468505859375,1.0571458314210176,1.7185124758571386,-1.1755689433582126
1789635381870508500,4.276508544921875,1.7305138792961834,1.4489035078048704,-0.6782569889605045
1789635381880547600,4.286547607421875,1.3318220197349786,1.2089841600954532,-0.4756760227814317
1789635381890587400,4.29658740234375,0.6697153705865144,1.1866168454647064,0.16231033058911562
1789635381900627500,4.30662744140625,0.5774222868144512,0.9656623104661702,0.8084517872340977
1789635381910666500,4.31666650390625,0.8095259923368692,0.813444627085328,1.0348518742874264
1789635381920706600,4.32670654296875,0.8255354623734951,0.722359750059247,0.5594055686086415
1789635381930746400,4.336746337890625,0.3223433638960123,0.5528583389222621,-0.10744389115273952
1789635381940785400,4.346785400390625,-0.46262043411433695,0.012276713249087332,-0.37353637551665303
1789635381950825500,4.356825439453125,-1.0896417413562536,-0.4809247370898723,0.1562532225072384
1789635381960865500,4.366865478515625,-0.6783849992543458,-0.8446364686846732,0.502790531939268
1789635381970905300,4.3769052734375,-0.5081219560950995,-0.9598504093170166,0.13969444802477954
1789635381980944400,4.3869443359375,-0.8506155430942773,-0.8024889333069324,-0.2693076470181346
1789635381990984400,4.396984375,-1.2192284907341002,-0.5355541528999805,-0.38079409155994653
1789635382001024500,4.4070244140625,-1.6636662024259565,-0.6008633681565523,0.0568977991335094
1789635382011063300,4.417063232421875,-1.942903415045142,-1.0811147360295057,0.8101020386591553
1789635382021103400,4.427103271484375,-2.1642063250899315,-1.3264140232115984,1.4009475784093142
1789635382031143400,4.437143310546875,-2.526969377657771,-1.240480537599325,2.0993205959424377
1789635382041182500,4.447182373046875,-2.71971956243515,-1.072889343997836,2.7442680204972625
1789635382051222300,4.45722216796875,-2.3823335277080533,-0.5806868415683507,3.272477363592386
1789635382061262300,4.467262451171875,-1.3904577485769987,-0.08402794425189494,3.195111215317249
1789635382071301400,4.47730126953125,-0.26694588632285593,0.37517829750478265,2.47477946395427
1789635382081341400,4.487341552734375,0.2581464937955141,0.8940221386224031,1.5920055723160504
1789635382091381200,4.49738134765625,0.28193945731520653,1.1199521239459513,0.7961622145034373
1789635382101420300,4.507420166015625,0.199958508720994,0.9734703538686037,-0.03169569946825504
1789635382111460400,4.51746044921875,0.24916765304803848,0.8235510105580091,-0.9231418501228094
1789635382121500400,4.52750048828125,0.12176935362517834,0.9323094914406538,-1.5822158535771071
1789635382131539500,4.53753955078125,-0.3094242610901594,1.192702887380123,-1.7153981432288885
1789635382141579300,4.547579345703125,-0.578366289666295,1.2694096949636935,-1.6520469301722942
1789635382151619300,4.557619384765625,-0.6914204219162464,1.2841478298902511,-1.2305977337494491
1789635382161659000,4.567658935546875,-0.8817261361509561,0.9980459921985864,-0.6129463123992085
1789635382171698700,4.57769873046875,-0.6915870106548071,0.4630862980604171,-0.2105257877036929
1789635382181738500,4.587738525390625,-0.44707916611135,-0.20765490844249723,-0.28034648903533815
1789635382191777800,4.59777783203125,-0.3972200334429741,-0.3493658108562231,-0.336611250962317
1789635382201817900,4.60781787109375,-0.6995914534121751,0.1968295630455017,-0.5994026479542255
1789635382211857700,4.617857666015625,-1.5292267523199319,0.8093816154301166,-0.4576163422167301
1789635382221896700,4.627896728515625,-2.3752263260513544,0.7474047594666481,0.19656258267238735
1789635382231936800,4.637936767578125,-2.2921195882976053,0.08330781328380107,1.1617036457434295
1789635382241976800,4.647976806640625,-1.250594519856572,-0.440581620785594,1.8710927089400589
1789635382252015600,4.658015625,-0.4962497319936752,-0.44021571008265015,2.259683153464645
1789635382262055700,4.6680556640625,-0.520702036204934,0.19067922372221946,2.3718320074379444
1789635382272095700,4.678095703125,-0.6678191815763711,1.115551258638501,2.0263839545473457
1789635382282135800,4.6881357421875,-0.49746436848044395,1.9779349809378384,1.3286061264283955
1789635382292174600,4.698174560546875,-0.6340542746186256,2.2811340839028356,0.8882397558286785
1789635382302214700,4.708214599609375,-0.863508926936984,1.9002771562397478,0.8830589921899139
1789635382312254700,4.718254638671875,-0.526923687198758,1.1192296548902987,0.8689620777763426
1789635382322293800,4.728293701171875,0.064797758603096,0.2844230908244848,0.8019327607288956
1789635382332333600,4.73833349609375,-0.4068956242829561,-0.18245032455921173,0.9828058990992605
1789635382342373600,4.74837353515625,-1.5202882435828446,-0.36971477140188214,1.4773668012231587
1789635382352412700,4.75841259765625,-1.8406033165216444,-0.5279910241693258,1.4703879021212458
1789635382362452700,4.76845263671875,-1.451107155328989,-0.7591910588502884,0.7891948597088456
1789635382372492500,4.778492431640625,-0.6347837579369544,-0.8455985917150973,-0.04137202096059918
1789635382382531600,4.788531494140625,-0.17117840443849563,-0.5344441458314657,-0.31564284334406256
1789635382392571600,4.798571533203125,-0.21994681926071644,0.10401625479161739,0.042241643401980396
1789635382402611700,4.80861181640625,-0.34875790809094903,0.6176543439596891,0.37628289774581786
1789635382412650500,4.818650390625,-0.6782733555734157,0.7420289116472005,0.45660336578190325
1789635382422690600,4.828690673828125,-0.9199468534737825,0.47111938239037987,0.27179917157292366
1789635382432730600,4.838730712890625,-0.4523527226001024,0.15457272207438943,-0.01892389617860317
1789635382442769700,4.848769775390625,0.6932137350738048,0.23191958112716674,-0.5978225391559302
1789635382452809500,4.8588095703125,0.6918149741917848,0.8823743709266185,-0.8711075653724372
1789635382462849500,4.868849609375,-0.10931962189674377,1.5384513845220207,-0.6373647143408656
1789635382472888800,4.878888916015625,-0.18012743456959723,1.7180799296587705,-0.427075073480606
1789635382482928600,4.8889287109375,0.5888502742797136,1.5375325161114335,-0.3676251056462526
1789635382492968400,4.898968505859375,0.9213695797532796,1.3771832564622164,-0.42381300294473767
1789635382503007700,4.9090078125,0.6676543464034795,1.4534855748981237,-0.21863398309648036
1789635382513047800,4.9190478515625,0.39041035342812536,1.6973089443087577,0.15608984863907097
1789635382523087600,4.929087646484375,0.19524609324634074,1.8448612662270665,0.5822972724396736
1789635382533126700,4.939126708984375,0.24045827689170837,1.648474770773947,0.9298488004155456
1789635382543166700,4.949166748046875,0.6137959149658679,1.076321072012186,0.7989244457583874
1789635382553206800,4.959206787109375,1.0897615683436392,0.37436727338284254,0.3604100597009063
1789635382563245800,4.969245849609375,1.4765888025879859,-0.013912205496430395,0.16282032593786716
1789635382573285600,4.97928564453125,1.6186410657852888,-0.37030017007440325,0.1576128934878856
1789635382583325700,4.98932568359375,1.6860405313193798,-0.6236734581187368,0.3124984078384936
1789635382593365800,4.99936572265625,1.6423814223349094,-0.5110331673666835,0.3860914673157036
1789635382603404800,5.00940478515625,1.1786468894988298,-0.4172539366900921,-0.017713278279826043
1789635382613444600,5.019444580078125,0.2742664384692907,-0.4083618974432349,-0.47356370680257676
1789635382623484700,5.029484619140625,-0.5964286005795002,-0.30993016478568314,-0.6139937025602906
1789635382633523700,5.039523681640625,-1.2576970453381537,-0.44349341657906766,-0.5803255339752882
1789635382643563800,5.049563720703125,-1.5431038865029811,-0.8049556156814098,-0.9105895348027347
1789635382653603600,5.059603515625,-2.2027748329371213,-1.3884712509348989,-0.618327347850427
1789635382663642600,5.069642578125,-2.622948456466198,-2.342925061905384,0.3805300337962806
1789635382673682700,5.0796826171875,-1.9535376217842102,-3.2569144682794806,0.864740295362845
1789635382683722800,5.08972265625,-1.3965057965695857,-3.6037589439645408,0.30154779209401456
1789635382693761500,5.099761474609375,-0.11471008276343345,-2.4169030290469524,-1.4040300545945763
1789635382703801600,5.109801513671875,0.5730068084597587,-0.8429945466965436,-1.8804652251802383
1789635382713841700,5.119841552734375,1.36464350836277,-0.3643096974879503,-1.1460266955967993
1789635382723880700,5.129880615234375,1.9015519984811544,-0.9933414677694439,-1.0072125375378875
1789635382733920500,5.13992041015625,1.1089806480765343,-1.1679422478720545,-1.3143699496746062
1789635382743960600,5.149960693359375,0.2006675337731838,-0.5987909457966685,-1.4185098308458923
1789635382753999600,5.15999951171875,-0.3567594282388687,-0.5055383693426847,-0.6683529231268912
1789635382764039700,5.170039794921875,-0.7704664861023426,-1.1470103728719054,0.27889384254161265
1789635382774079500,5.18007958984375,-0.12042319971323012,-1.748644871531427,0.7349601423047483
1789635382784118500,5.190118408203125,1.1245979039251803,-2.234595181698352,0.5229118577415123
1789635382794158600,5.20015869140625,1.8809902719676495,-2.047771610490978,-0.1322792581311427
1789635382804198700,5.21019873046875,2.4671838942587376,-1.0861423549331723,-0.7303282447203994
1789635382814238500,5.220238525390625,2.6236896302223203,0.22233619861528275,-1.0361858263049275
1789635382824277800,5.23027783203125,3.099914226797223,1.1291440229222178,-1.5754305773511528
1789635382834317600,5.240317626953125,3.4456782137691975,1.7420840517111122,-1.943357734683901
1789635382844357600,5.250357666015625,3.4210230804622173,1.9801567486405371,-1.125422956572473
1789635382854396700,5.260396728515625,4.023436016148328,1.2472908021360636,0.3515628459764644
1789635382864436700,5.270436767578125,4.758090599635243,0.1435778653293848,0.5049221371404826
1789635382874476500,5.2804765625,3.129135060584545,-0.2775108272179961,0.4004460828173905
1789635382884515800,5.290515869140625,1.017431660670042,0.14083974560238421,0.6496245495203882
1789635382894555600,5.3005556640625,1.6913965053945779,1.1483663175255059,0.9418363214597105
1789635382904595700,5.310595703125,4.256405398589372,2.4763784235835073,1.274552318549156
1789635382914634800,5.320634765625,4.539380628693103,2.809960389852524,1.6374778682023285
1789635382924674800,5.3306748046875,2.2507938906967637,1.7189233947455882,0.34879860542751845
1789635382934714600,5.340714599609375,0.0006166705936193465,1.1211069200042634,-1.3655550702497363
1789635382944753700,5.350753662109375,-1.0072621488332747,0.7134338816080242,-0.9350742799788713
1789635382954793700,5.360793701171875,-0.3420680550634861,-0.06165032742284238,-0.21447255256809292
1789635382964833800,5.370833740234375,-0.9941291110157966,-0.6154450704123825,0.7655605938822031
1789635382974872600,5.38087255859375,-2.5440181276142595,-1.768765137887746,1.5106794343687593
1789635382984912600,5.39091259765625,-2.757550988179445,-3.3085067083507775,0.8598098532233387
1789635382994952700,5.40095263671875,-1.3809949237048624,-3.344461234307289,-0.09991546840928495
1789635383004991700,5.41099169921875,-0.4090869968473911,-1.45842989943251,-0.5944578119631856
1789635383015031600,5.421031494140625,-1.1862953584253788,0.5131913683138788,-1.6181822161018848
1789635383025071600,5.431071533203125,-2.014637694913149,1.8090920337095855,-1.5659977092258632
1789635383035111700,5.441111572265625,-0.5347843375712633,1.756245555793494,-0.29382790189906954
1789635383045150700,5.451150634765625,2.5044167695879933,0.7552768080160022,0.36470907206907865
1789635383055190500,5.4611904296875,3.126184978607297,-0.12573621142953634,-0.2996913871049881
1789635383065230600,5.471230712890625,1.1306219865202902,-0.3821804313518107,-1.1396342911459505
1789635383075269600,5.48126953125,0.7494236980736255,-0.07029664828032255,-1.5433675058752296
1789635383085309700,5.491309814453125,1.5981693556427954,0.40829438516497607,-1.224833471134305
1789635383095349500,5.501349609375,2.860843020349741,0.7070074287571012,-0.9997245929352938
1789635383105388500,5.511388427734375,3.578187572595477,0.9776482240751385,-1.1218081270761788
1789635383115428600,5.5214287109375,2.438172319307923,1.3120637185588477,-1.1474782826445995
1789635383125468700,5.53146875,1.7943629588723182,1.6988406839206813,-0.9348097838237881
1789635383135507500,5.541507568359375,2.158983622005582,2.0954826252147556,-0.8090288564696908
1789635383145547500,5.551547607421875,1.6223171239495275,2.3623045928969977,-0.8119507352657616
1789635383155587000,5.561587158203125,0.6621744536876678,2.3981901452705263,-0.7938774645671248
1789635383165626000,5.571626220703125,0.28616438153386115,2.10791365224272,-0.7589006976015865
1789635383175666200,5.581666259765625,-0.06634791065454483,1.3533797715485094,-0.6803204973615705
1789635383185706200,5.591706298828125,-0.34579847376346584,0.3244970347985625,-0.7810840339675545
1789635383195745300,5.601745361328125,-1.203285071671009,-0.5211810518935323,-0.9623090545155107
1789635383205785300,5.611785400390625,-2.9685388404369353,-0.8918433332785963,-0.6592528671525418
1789635383215825200,5.6218251953125,-2.621096691119671,-0.8318529749572277,-0.024024141927063463
1789635383225864200,5.6318642578125,-1.5142705907285212,-0.414365229511261,0.4559581997461617
1789635383235904300,5.641904296875,-1.885888565403223,0.015448036761581897,0.48582040017694234
1789635383245944300,5.6519443359375,-2.730249724277854,0.08079290785342455,0.007566928122937679
1789635383255984000,5.661984130859375,-2.6186978132843968,-0.001307283206284046,-0.4363499745652079
1789635383266023200,5.672023193359375,-2.120246187332272,-0.3303790785744786,-0.605358633749187
1789635383276063200,5.682063232421875,-2.7249142084687947,-0.8739759604156017,-0.1753679650828242
1789635383286103300,5.692103271484375,-2.7185920197099445,-1.0395862093329429,0.28543036817088724
1789635383296142000,5.70214208984375,-2.6740204720556733,-1.254748132404685,0.6362529537066817
1789635383306182100,5.71218212890625,-3.2883214139342307,-1.717384933131933,0.6879707198537885
1789635383316222200,5.72222216796875,-2.659960967043042,-2.0251532437086106,0.9842797710441052
1789635383326261200,5.73226123046875,-1.2461194202691317,-1.8963351406157016,1.1261610615886748
1789635383336301000,5.742301025390625,-0.8184504725486039,-1.5603846916496753,1.0735744036525487
1789635383346341000,5.752341064453125,-0.9672820206224918,-1.3717927955955267,0.5480706662543118
1789635383356380200,5.762380126953125,-0.4153472262859344,-1.109991870945692,0.036479280482977626
1789635383366420200,5.772420166015625,0.7040092698544264,-0.5233031586140394,-0.36530572278797624
1789635383376460000,5.7824599609375,0.4370476014405489,-0.09556699087619781,-0.5239576770000159
1789635383386499000,5.7924990234375,-0.02708206819295883,0.32760055377185343,-0.43303252058029174
1789635383396539100,5.8025390625,0.554054270708561,0.5618307499289512,0.0013945230983197687
1789635383406579200,5.8125791015625,1.8286428296148776,0.7930459821790456,0.1224212416626513
1789635383416618000,5.822617919921875,2.6545085468560456,1.2340092957586049,-0.34814956693425775
1789635383426658000,5.832657958984375,2.296838433513045,1.7823966267466544,-1.0515580944165588
1789635383436698000,5.842697998046875,1.0138099630415438,2.130463629963994,-1.2971115024901925
1789635383446737200,5.852737060546875,0.7532306891411542,2.3238795851737257,-0.9345986252911388
1789635383456777200,5.862777099609375,2.590488202366233,2.358589664027095,-0.8254653197467327
1789635383466817000,5.872817138671875,3.283714212399721,2.054028040537238,-1.0516710532717406
1789635383476857000,5.882857177734375,1.8994886362105607,1.6413742911189793,-1.202275894628465
1789635383486896400,5.892896484375,0.04069090682864189,1.1053864229768513,-1.1748609412193298
1789635383496936200,5.902936279296875,-0.4376864838659763,-0.19714929651916027,-1.2993060899250208
1789635383506976000,5.91297607421875,0.0035977322310209274,-1.824272359445691,-1.3283598965823649
1789635383517015300,5.923015380859375,-0.9788421100348234,-2.415954642280936,-0.6103752928674221
1789635383527055400,5.933055419921875,-2.820610378682613,-2.3984207391560077,0.016515665993094442
1789635383537095200,5.94309521484375,-3.678260058197379,-2.141011327463388,0.5085077405422925
1789635383547134200,5.95313427734375,-2.6766630955189465,-1.6955939570844172,0.9533009876735508
1789635383557174300,5.96317431640625,-1.5465835453122854,-1.0410025058716534,1.3279535077385605
1789635383567214300,5.97321435546875,-1.45315707359612,-0.5230138202786445,1.1126512994132935
1789635383577253000,5.983253173828125,-1.6953887899011373,-0.43552375287413597,0.738212275968492
1789635383587293200,5.993293212890625,-1.236944764688611,-0.5170575422227383,0.31927126297429204
1789635383597333200,6.003333251953125,-0.6478145044237374,-0.5337602552205324,-0.04666428214982152
1789635383607372300,6.013372314453125,-0.3247562702566385,-0.5805927335441112,-0.347033714646846
1789635383617412000,6.023412109375,-0.3088525986820459,-0.6873813756585121,-0.6134568922698498
1789635383627452200,6.0334521484375,-0.8016384539574384,-0.9292267229944468,-0.5422247167050838
1789635383637491200,6.0434912109375,-1.2695049720317124,-1.1011316881418227,0.3879024622604251
1789635383647531300,6.05353125,-0.43369887553453446,-0.7925105601280927,1.2467739386551082
1789635383657571000,6.063571044921875,-0.3748533033341169,-0.40920273218154907,1.2408119615107773
1789635383667611100,6.073611083984375,-1.282592417141795,-0.4170487695068121,1.0771939093239604
1789635383677650200,6.083650146484375,-1.5444500404149293,-0.7454343361765146,1.0605201301597058
1789635383687690200,6.093690185546875,-1.0352285986453293,-1.0978624572128057,0.872299697766453
1789635383697730000,6.10372998046875,-0.3790484169363975,-1.2282868264585733,0.1265764616459608
1789635383707769000,6.11376904296875,0.3141337539553642,-0.9228419903934001,-0.60655120453462
1789635383717809200,6.12380908203125,0.5213683911591768,-0.1993213798612356,-0.4745183771789074
1789635383727849200,6.13384912109375,0.8584376150220632,0.3984346699297428,-0.09641045596301555
1789635383737888000,6.143887939453125,1.3923995302945376,0.29632863267362114,0.019910276867449284
1789635383747928000,6.153927978515625,1.4874252539008854,-0.17638941708505151,0.07747019317150115
1789635383757968100,6.163968017578125,1.396203014230728,-0.4494207608014345,-0.03810352068394422
1789635383768007200,6.174007080078125,1.5056892248660325,-0.10487491744756698,-0.4391042417094111
1789635383778047000,6.184046875,0.9604173955500125,0.6288204656183719,-0.6592967062942683
1789635383788087000,6.194087158203125,0.35352468410134313,1.0651315694779158,-0.29493995479419827
1789635383798126300,6.204126220703125,0.28133564620316026,0.5651444045215844,0.08665931566879152
1789635383808166100,6.214166259765625,0.19932780960202215,-0.389998850017786,-0.2268772030457854
1789635383818206000,6.2242060546875,-0.10079378561377525,-0.8038058611243962,-0.9548324350245296
1789635383828245200,6.234245361328125,-0.23798282668888568,-0.17286416556835174,-1.2842692643128335
1789635383838285300,6.244285400390625,-0.45908232311606406,0.6403408075422048,-1.2842037978611887
1789635383848325400,6.254325439453125,-1.424762169238925,0.1661000782608986,-0.6823540490157902
1789635383858365200,6.264365234375,-1.742003241559863,-1.0820376960933207,0.0285974411919713
1789635383868404200,6.274404296875,-0.7057394546478987,-1.4191449138790369,-0.10081322096660733
1789635383878444300,6.2844443359375,-1.163493159508705,-1.055395772883296,0.30500235299468037
1789635383888484400,6.294484375,-1.7332576250463723,-0.8345505434781313,0.9136430771544575
1789635383898523100,6.304523193359375,-0.9232634306758641,-0.8733569517344236,0.9613516076602041
1789635383908563200,6.314563232421875,-0.4033101670116186,-1.0329834500670432,0.8558379539176821
1789635383918603300,6.324603271484375,-1.4224264197677372,-1.5369482864826918,0.8797586354702711
1789635383928642300,6.334642333984375,-1.807328823429346,-1.6764280688434838,0.9870864990279078
1789635383938682000,6.34468212890625,-2.178162369728088,-1.277469082778692,0.981388579647243
1789635383948722200,6.35472216796875,-2.3554998813182113,-1.009212698379159,0.7627331153713166
1789635383958761200,6.36476123046875,-1.9944588302373885,-0.9756196408569813,0.3948668944455683
1789635383968801300,6.37480126953125,-1.3527864818304776,-0.5421271015495062,0.22036694436892865
1789635383978841000,6.384841064453125,-0.6053776307106018,0.09278642024695873,-0.16420578894689677
1789635383988880100,6.394880126953125,0.24140403330922125,0.7804302462339401,-0.5195129725508392
1789635383998920200,6.404920166015625,1.1728934405386446,1.2268278598219156,-0.7386236332483589
1789635384008960300,6.414960205078125,1.4617700036406516,1.432151110446453,-0.3756969145514071
1789635384018999000,6.4249990234375,1.418683726108074,1.3311556647807359,-0.1600575832262635
1789635384029039000,6.4350390625,1.3968722917944192,1.3992062876999378,0.04406067552268505
1789635384039079200,6.4450791015625,1.0483148747116326,1.480303439196944,0.08622048586010933
1789635384049119200,6.455119140625,0.2199216848194599,1.6409692174494266,0.20488646664246915
1789635384059158000,6.465157958984375,-0.5666542245626449,1.5568372283011673,0.37675811404213305
1789635384069198000,6.475197998046875,-0.7688309938549995,1.2228735692381858,0.13620368329957128
1789635384079238100,6.485238037109375,-1.1048755508452652,0.7214958267062902,-0.07871697836220264
1789635384089277200,6.495277099609375,-1.316884562844038,0.3422890043377876,-0.007902735948562622
1789635384099317000,6.50531689453125,-0.6632663405776024,0.1939110452502966,0.30694311179891226
1789635384109357000,6.515357177734375,-0.304042568051815,0.0012590601503849029,1.0320378397800027
1789635384119396000,6.52539599609375,0.3768056064456701,-0.4078893114954233,1.4285770513519644
1789635384129436200,6.535436279296875,0.6458423275679349,-0.5575169783830642,1.403927032611519
1789635384139476000,6.54547607421875,-0.3964133932352066,-0.5957505551874637,1.4611948341012
1789635384149515300,6.555515380859375,-0.1416606335312128,-0.7784308891102671,1.4195911963418126
1789635384159555300,6.565555419921875,1.3408248258799313,-0.8260545178115367,0.7840436144255101
1789635384169595400,6.575595458984375,1.421378956541419,-0.6052849839910864,0.15093071231022476
1789635384179634700,6.585634765625,0.7427075415611266,0.10308189655095339,-0.059857525721937414
1789635384189674500,6.595674560546875,-0.3779354872584343,0.823006528417766,0.25706147503778337
1789635384199714300,6.60571435546875,-1.4582394914269448,0.5351964255034923,0.6080997491508722
1789635384209753600,6.615753662109375,-1.0493184987962245,-0.6489221734046936,0.2498246556520462
1789635384219793700,6.625793701171875,0.04108604362607002,-1.2528466826975344,-0.5019106803648173
1789635384229833500,6.63583349609375,0.6377905385375022,-1.174175881564617,-1.2029698682419956
1789635384239873500,6.64587353515625,0.8837515044987201,-0.49972266880124805,-1.170835631226003
1789635384249912600,6.65591259765625,0.661954088935256,0.23008739726394414,-0.5141995224431157
1789635384259952600,6.66595263671875,0.5520154583573341,0.12744973734915255,-0.10821027241535484
1789635384269992400,6.675992431640625,0.4407704213559627,-0.6210813957989215,-0.28265659260861575
1789635384280031500,6.686031494140625,-0.14978490327596664,-1.00530312371999,-0.5201940136175602
1789635384290071600,6.696071533203125,-0.6259831963658332,-0.9405322531238198,-0.5607385707780719
1789635384300111600,6.706111572265625,-0.27318916462659837,-0.9487184821888804,-0.34184418317973614
1789635384310150400,6.716150390625,0.1851227586388588,-1.2943608886078,-0.3286408566050231
1789635384320190500,6.7261904296875,-0.12749591457843779,-1.6493299262985586,-0.48788025531619783
1789635384330230500,6.73623046875,-0.9179811063587665,-1.9513173153862355,-0.6518802925579249
1789635384340269600,6.74626953125,-1.429159527415037,-1.9401006325840948,-0.4171969458058476
1789635384350309400,6.756309326171875,-1.7922329611063001,-1.5164485192894934,-0.03130947662964463
1789635384360349400,6.766349365234375,-1.1589923409581184,-1.5022043053597212,0.02870133995786309
1789635384370388500,6.776388427734375,0.8337386425733566,-1.8898206441551446,-0.3765034816939384
1789635384380428500,6.786428466796875,2.7715502874374387,-1.402124805495143,-0.237197265801765
1789635384390468400,6.79646826171875,3.163930479633808,-0.19426585003733635,-0.05189838341102004
1789635384400508400,6.80650830078125,2.5304221484601497,0.4210292174451053,-0.1325941145002842
1789635384410547500,6.81654736328125,2.2543682420521973,-0.005316372717171907,-0.8104929376728832
1789635384420587500,6.82658740234375,2.238160619094968,-0.7271253570258617,-1.5449430846288799
1789635384430627300,6.83662744140625,2.4470494532465934,-1.2224673265248536,-1.5099737703174352
1789635384440666400,6.846666259765625,2.789869203460216,-1.0743724221624433,-0.8218237483739852
1789635384450706400,6.85670654296875,2.7844547771960495,-0.4514586233045906,0.06006104893740266
1789635384460746500,6.86674658203125,3.018078239631653,0.014700214068964122,0.857340978891775
1789635384470785300,6.876785400390625,3.2105472693800925,-0.2694494666416198,0.9461997773662209
1789635384480825300,6.886825439453125,3.1754572512984276,-0.12329853595383465,0.3627489509772509
1789635384490865400,6.896865478515625,3.2772043921142813,1.1534999540869146,-1.090314233790338
1789635384500904400,6.906904541015625,2.2543507063955066,2.490079616677761,-1.6289628455743193
1789635384510944300,6.9169443359375,0.5529670599937438,2.1450170559734105,-0.7435045371577144
1789635384520984300,6.926984375,-0.3348533013790846,0.8541482472650707,0.03816979085318744
1789635384531023600,6.937023681640625,0.03489595681428909,-0.21368783193118868,-0.18041618838310242
1789635384541063400,6.9470634765625,-0.7774199585020541,-0.06445990495085716,-0.007351531806588173
1789635384551103200,6.957103271484375,-2.3080536550104616,-0.13149499415196478,1.4091449133902787
1789635384561143300,6.967143310546875,-2.7257985900878903,-1.1765516707852481,2.5211510467678306
1789635384571182600,6.9771826171875,-0.4835796355128288,-2.253149513912201,1.4601891641899942
1789635384581222700,6.98722265625,1.5335820249199867,-2.143089595042169,-0.7035078962035477
1789635384591262500,6.997262451171875,1.3530220441520213,-0.2915877217568457,-2.609096456724405
1789635384601301500,7.007301513671875,-0.033621699094772334,1.1005016466099768,-2.816450044132769
1789635384611341600,7.017341552734375,0.1430073719650507,0.4513225027695298,-2.140311362500489
1789635384621381600,7.027381591796875,2.4119570970773694,-0.5102697087135165,-0.8915317831113934
1789635384631420400,7.03742041015625,4.720792842376232,-0.430960463546589,-0.1957116649314761
1789635384641460500,7.04746044921875,3.3918051692843436,0.4793631137963384,-0.9546663577426224
1789635384651500500,7.05750048828125,-0.11301380023956298,1.4802157609134912,-1.5843952434428035
1789635384661539600,7.06753955078125,-1.0292390028417109,1.6072291526719926,0.07703282466754317
1789635384671579400,7.077579345703125,2.4398598340034483,0.763077398764342,2.104686945281178
1789635384681619500,7.087619384765625,4.1599914354950185,-0.09039426441341639,1.8346157665446399
1789635384691658500,7.097658447265625,1.6038199287503956,-0.46790085873529313,0.43720352265462276
1789635384701698600,7.107698486328125,0.11009703601002692,-0.3869236803561449,-0.5628318897955119
1789635384711738400,7.11773828125,1.1898714633464813,-0.11566358409598469,-1.0761389934435486
1789635384721778400,7.1277783203125,2.1667267834782598,0.14542656193599104,-1.6369897924244403
1789635384731817500,7.1378173828125,2.0822002420544625,0.4874444942474365,-2.243511040212214
1789635384741857500,7.147857421875,1.0174380904108284,1.1964037877246736,-2.545514795912802
1789635384751897600,7.157897705078125,-0.21835984233021735,2.1815397372066974,-2.152745750529319
1789635384761936400,7.167936279296875,0.4635200133025646,2.8593755781456824,-1.3478247677698731
1789635384771976400,7.1779765625,2.3359400253236293,2.677181858696043,-0.7102063709288835
1789635384782016500,7.1880166015625,2.674053205281496,1.6654294127061962,-0.7382942551635205
1789635384792055300,7.19805517578125,0.8171370518624782,0.18660715197771788,-0.9636712827794254
1789635384802095400,7.208095458984375,-1.6326994017541407,-0.7094713346526026,-0.8845791874945164
1789635384812135400,7.218135498046875,-2.603818808582425,-1.2077803372636438,0.0036595454208552835
1789635384822174500,7.228174560546875,-1.781114185720682,-1.215204057523608,1.437744400408864
1789635384832214300,7.23821435546875,-0.4566051193475723,-0.4364341457173228,2.384315349175036
1789635384842254300,7.24825439453125,0.9928887555658816,-0.008404840251803398,0.9845387142412364
1789635384852293400,7.25829345703125,0.09807809691429138,-0.6923433819800615,-2.3590739404127
1789635384862333400,7.26833349609375,-2.8591256950378416,-0.7762628974214196,-4.114400189404189
1789635384872373200,7.278373291015625,-4.225782296788692,0.07791209172010422,-2.8645822068780658
1789635384882413300,7.288413330078125,-3.407136593928933,0.7597627212584018,-0.2777861370280385
1789635384892452400,7.298452392578125,-1.6560837844729424,0.7515215471357106,1.6662975738428532
1789635384902492400,7.308492431640625,0.7390753225386142,0.6018009412676095,2.2670243100076912
1789635384912532500,7.318532470703125,2.905425673919916,0.37933424814045424,0.8964913052149116
1789635384922571500,7.328571533203125,3.1170734513908624,0.3805494691491127,-1.0763407996259629
1789635384932611600,7.338611572265625,0.937042365181446,1.0774918693572282,-2.349459578240663
1789635384942651400,7.3486513671875,-2.405705050945282,1.7023422623008488,-2.4185532804720102
1789635384952690400,7.3586904296875,-3.7221646663755177,1.4073907631993292,-0.6639193976588547
1789635384962730500,7.36873046875,-0.6398018783599138,0.37330665841400623,1.8898017933242022
1789635384972770600,7.3787705078125,2.4216186593919993,-0.19019056342244148,2.774461206448078
1789635384982809600,7.3888095703125,2.264814817264676,-0.40861061150729655,2.114697759424895
1789635384992849400,7.398849365234375,-0.5311731613367796,-0.6903595146864652,1.087596791525185
1789635385002889500,7.408889404296875,-2.310533781388402,-1.05960316144526,0.37575653578415513
1789635385012929500,7.418929443359375,-0.8454846099466085,-1.2932879986792802,-0.2528128776825964
1789635385022968600,7.428968505859375,1.0812678807646035,-0.9133943630903959,-0.6001749475009739
1789635385033008600,7.439008544921875,-0.2522860773295164,-0.5475175624161959,-0.886957607063651
1789635385043048400,7.44904833984375,-3.5011610315382478,-0.4961187990903854,-0.7221078211247921
1789635385053087500,7.45908740234375,-3.668352996689081,-0.5483154347956181,0.16302213212028144
1789635385063127600,7.46912744140625,-0.5344195959120989,-0.5042892460644245,0.9712506319925188
1789635385073167600,7.479167724609375,0.651164983895421,-0.8056132028073072,1.0645903022080658
1789635385083206400,7.489206298828125,-1.1791811425060033,-1.066035824841261,0.9405522729985415
1789635385093246500,7.49924658203125,-2.7184429666280745,-1.087781792703271,0.9495010108686983
1789635385103286500,7.50928662109375,-1.9436177007943392,-0.8646797242820262,0.9466128882117569
1789635385113325300,7.5193251953125,0.1399877318829298,-0.7413999660938978,0.37916999748945235
1789635385123365400,7.529365478515625,0.9737351422846316,-0.6763812582165002,-0.4931067577928304
1789635385133405400,7.539405517578125,-0.3303255948215723,-0.5106979440629482,-0.9185776109471917
1789635385143444500,7.549444580078125,-1.8376731082886457,-0.29671733973026276,-0.6277757788710295
1789635385153484300,7.559484375,-1.175306346899271,0.15850655439198016,0.12326616805419326
1789635385163523600,7.569523681640625,0.6668839465528726,1.063980061355233,0.47142494120821354
1789635385173563600,7.579563720703125,1.8293968628525732,2.024160141018033,0.09434460947439074
1789635385183602700,7.589602783203125,1.7451204967975615,2.410815525826812,-0.6301841551870108
1789635385193642800,7.599642822265625,1.3793892420738936,1.6994202373743057,-1.8248882993869482
1789635385203682800,7.609682861328125,1.2161913149952888,-0.11238719277381896,-3.151725662577152
1789635385213721900,7.619721923828125,-1.0759726969659327,-1.9435931508749722,-2.9771377419561147
1789635385223762000,7.629761962890625,-3.3231565804719922,-3.094775694864988,-1.5589970366835593
1789635385233801700,7.6398017578125,-3.403624786415696,-3.0824568960398433,0.4168466710634529
1789635385243840800,7.6498408203125,-2.8418519041538235,-2.0139538043022154,1.991638219858706
1789635385253880800,7.659880859375,-1.9739152239024638,-0.5864408750504255,2.508168815597892
1789635385263921000,7.6699208984375,-1.0090461096405983,0.777366182488203,1.807604717761278
1789635385273960000,7.6799599609375,-0.8879016099154948,0.7161854453384876,0.4075646095857024
1789635385283999700,7.689999755859375,-0.48248716410100456,-0.2157739174902439,-0.5620224731087684
1789635385294039800,7.700039794921875,0.0025765724897384643,-1.246858840459585,-0.9818775322079658
1789635385304078800,7.710078857421875,-0.04155658374726772,-2.1091367642968892,-0.772483671143651
1789635385314119000,7.720118896484375,-0.015305705681443214,-2.4458850856423378,-0.41318376464173195
1789635385324159000,7.730158935546875,0.0634165333777666,-2.048100988575816,-0.2610509830653667
1789635385334198800,7.74019873046875,0.008536942198872566,-1.681159189018607,-0.3064436378441751
1789635385344237800,7.75023779296875,0.09352467139363288,-1.655407492646575,-0.8040478531867266
1789635385354278000,7.76027783203125,0.4292816436141729,-1.3057213637948035,-1.2924968483015895
1789635385364318000,7.77031787109375,0.8107166634261608,-0.42284547308683396,-1.6062519782029092
1789635385374356700,7.780356689453125,0.7815309009522199,0.2781172686785459,-1.7162448231860994
1789635385384396800,7.790396728515625,0.29238720157146453,-0.024434184032678604,-1.0325216777741908
1789635385394436900,7.800436767578125,0.1700169594436884,-1.2254869666069745,-0.15585063305571675
1789635385404475600,7.8104755859375,0.5785837318092584,-1.179786122661829,0.5094090732961892
1789635385414515700,7.820515625,0.3850684078782797,-0.47596857598721976,0.4838827101126313
1789635385424555800,7.8305556640625,0.02133037279844284,-0.25728841566145416,-0.012413783632218837
1789635385434594800,7.8405947265625,0.009813538005948067,-0.23857319379746914,-0.44895606589913367
1789635385444634600,7.850634521484375,-0.19425591316521168,0.130749947938323,-0.5813480819560587
1789635385454674700,7.8606748046875,-0.507568998387456,0.6132143156856298,-0.539243216676265
1789635385464714800,7.87071484375,-0.7711041994839907,0.7866051354765892,-0.2079652895659208
1789635385474753800,7.88075390625,-1.0739940903693437,0.5311982957780361,0.49512686544358725
1789635385484793900,7.8907939453125,-1.010891445246339,-0.3393301545321941,0.6663229516692459
1789635385494833700,7.900833740234375,-1.0162748918503521,-0.7135615265756845,0.4164676086179912
1789635385504872700,7.910872802734375,-1.0675491520136595,-0.07862462390363216,0.560889377425611
1789635385514912800,7.920912841796875,-0.8240946159154177,0.5530886405467986,0.3219489577509463
1789635385524952800,7.930952880859375,-0.5667220291018485,0.8068062119841575,-0.3317154417447746
1789635385534991600,7.94099169921875,-0.9442360760778188,0.8051064223289489,-0.5309215246632695
1789635385545031700,7.95103173828125,-1.4667121362179516,0.6060650284528732,-0.42437531300261616
1789635385555071700,7.96107177734375,-1.3329080614060163,0.26933190467655654,-0.17035437470450995
1789635385565110800,7.97111083984375,-0.8007119867622852,-0.23905074818134306,0.20689882937818765
1789635385575150800,7.98115087890625,-0.3788742294132709,-0.8936170649528503,0.48020855164453385
1789635385585190700,7.991190673828125,-0.4684656530112028,-1.2044091072648764,0.7996088478259742
1789635385595230000,8.00122998046875,-1.121470711815357,-0.9915209743440151,1.020765042876452
1789635385605270000,8.01127001953125,-1.7223083610087633,-0.6082873806774616,1.0540497651018201
1789635385615309800,8.021309814453126,-1.808735183095932,-0.48074938052296634,1.019383233129233
1789635385625350000,8.031349853515625,-1.4085650676757095,-0.25969547680318356,0.7911221745096146
1789635385635389000,8.041388916015626,-1.3397025438517332,0.08495616501271724,0.5375736760288476
1789635385645429000,8.051428955078125,-1.2481447886168957,0.26078970178067684,0.3248157453589141
1789635385655468800,8.06146875,-0.5404974545210599,0.1941846014946699,0.09721388130038976
1789635385665507800,8.0715078125,0.2712076354205608,0.1697699989452958,-0.2554645612351596
1789635385675548000,8.0815478515625,0.23455869745910166,0.3573112169027328,-0.30013416243642566
1789635385685588000,8.091587890625,-0.46753626320660113,0.5888917753338814,0.2712431451253593
1789635385695626800,8.101626708984375,-0.45802258493006226,0.48550446609556674,0.8483164723716675
1789635385705666800,8.111666748046876,0.4553495663285255,-0.002563420747220516,0.7736367867015301
1789635385715707000,8.121706787109375,1.025501569879055,-0.5502171767637133,0.3536472875677049
1789635385725745700,8.13174560546875,1.359395670837164,-0.6768082514569163,0.03361658452823758
1789635385735785700,8.14178564453125,1.4508324300408362,-0.6101540513321757,-0.17308526097312568
1789635385745825800,8.15182568359375,1.5219319191366434,-0.32095833927839995,-0.36022220897860824
1789635385755865900,8.161865966796874,1.063467435657978,-0.07942658793628216,-0.600191971701011
1789635385765905000,8.17190478515625,-0.7589724476635455,-0.1186550209969282,-0.6188738027520477
1789635385775944700,8.18194482421875,-2.2096973256766796,-0.8567565300673246,-0.035056408073008055
1789635385785984800,8.19198486328125,-1.1833540442764758,-2.272002682942152,0.461905125451833
1789635385796023800,8.20202392578125,0.7121230182051658,-3.0603605073049662,0.2782648604556918
1789635385806063900,8.21206396484375,1.5812813492059707,-2.547197342172265,-0.15981595649011432
1789635385816103700,8.222103759765625,1.7881722875386477,-1.0218675972908735,-0.15887904096618294
1789635385826142700,8.232142822265626,1.728297372290492,0.33833968219012023,-0.02571399471014738
1789635385836182800,8.242182861328125,1.0994424198806285,0.38161914420723914,-0.12015848436243831
1789635385846222800,8.252222900390626,0.5303606759101153,-0.5338850506439805,-0.6548318358398973
1789635385856261600,8.26226171875,0.44600832200944424,-1.3933043701797723,-0.8516791537377982
1789635385866301700,8.2723017578125,0.5217711267411709,-2.1950648430816826,-0.34525976377688344
1789635385876341800,8.282341796875,1.481409354612231,-2.5337457399249077,0.11642539878133684
1789635385886381800,8.2923818359375,2.0673241599619385,-1.8860900793246924,0.11624412393029779
1789635385896420600,8.302420654296874,1.862230626440048,-0.4516277693264186,-0.021046550888381896
1789635385906460700,8.312460693359375,1.6352140149235725,0.45089974731281396,0.17252006483841686
1789635385916500700,8.322500732421876,1.562345178067684,0.03571297228559851,0.18708982092812657
1789635385926539800,8.332539794921875,1.515966288730502,-0.8322237079657614,-0.45610447634905577
1789635385936579600,8.34257958984375,1.0663391917020082,-1.0085044039793312,-1.1508299311600625
1789635385946619600,8.35261962890625,1.2137789931565521,-0.968424760916829,-0.9083247316759079
1789635385956659000,8.362658935546875,2.4311609792411324,-1.4489382868573069,-0.3282232522474602
1789635385966699000,8.372698974609374,2.8798107556700705,-1.5273594971433282,-0.37959680806677787
1789635385976738800,8.38273876953125,1.5758207457125186,-0.2940618567854166,-0.9715689041614531
1789635385986777900,8.39277783203125,0.05589782831072807,1.0317816730618476,-0.0063073565158993
1789635385996818000,8.40281787109375,1.5087047732949257,0.9479092846978455,0.9444137707322835
1789635386006858000,8.41285791015625,3.534232695534825,-0.11999890988655387,0.12004369887635111
1789635386016897800,8.422897705078125,3.771213651704788,-0.30711656866967674,-0.7695717292197048
1789635386026936800,8.432936767578125,3.30227278239727,1.154016452241689,-0.47225912701003253
1789635386036977000,8.442976806640624,3.4895541803747414,1.3806377808302641,0.2507011827582493
1789635386047017000,8.453016845703125,3.5109272232711315,-0.5940757538430392,-0.3233734741287306
1789635386057055700,8.4630556640625,2.722468568882346,-0.5777838136032223,-1.5035601038828492
1789635386067095800,8.473095703125,1.1984253566801548,1.5143039084762333,-1.7464529144451022
1789635386077136000,8.483135986328126,-0.9705512515515089,2.0694708166018128,-0.9153734811436385
1789635386087175000,8.4931748046875,-1.992781252413988,0.5694095876853913,-0.21208565743155777
1789635386097214700,8.503214599609375,-1.0569190369278192,-0.7214733226135372,-0.012645327365770936
1789635386107254800,8.5132548828125,0.652767158395052,-0.783283516773209,0.13825988517701626
1789635386117293800,8.5232939453125,1.651960567063093,-0.1979554983355105,1.070784553738311
1789635386127334000,8.533333984375,2.4344471613049508,-0.44225174595490097,1.5293202758222817
1789635386137373700,8.543373779296875,3.0221161168456074,-0.9647511869706213,0.1588604823961854
1789635386147413800,8.553413818359376,1.8536171118736267,-0.04900543844848871,-1.873228698055446
1789635386157453600,8.56345361328125,-0.8501531862795353,1.613830742894113,-2.871968809998035
1789635386167493600,8.57349365234375,-1.8886019160151482,2.3694170552507043,-2.116895415599644
1789635386177533700,8.58353369140625,-0.005003507375717163,2.0481762457691133,-0.3096172263789922
1789635386187572500,8.593572509765625,1.8831997647106646,1.4227166348859668,1.373664726947248
1789635386197612500,8.603612548828124,2.3310405628442763,0.4581996950626373,1.5817366917580364
1789635386207652600,8.613652587890625,2.065063229292631,-0.40818128017932176,0.42263562972843643
1789635386217691600,8.623691650390626,1.2895967429459094,-0.8704849034294485,-0.7680082792952656
1789635386227731500,8.6337314453125,1.1520394530802964,-0.7089075632899999,-1.4273869647845625
1789635386237771500,8.643771484375,0.7807330285727977,0.010608487775921821,-1.395884449800849
1789635386247810600,8.653810546875,-0.09325345323681831,0.9277025821670889,-0.685854019960761
1789635386257850600,8.6638505859375,0.4219926556497812,1.6617846264630556,-0.058576984392106526
1789635386267890400,8.673890380859374,0.7814718642413616,2.108661255739629,-0.1000529041185975
1789635386277930500,8.683930419921875,0.10948971776664257,2.182519688154757,-0.4805845453500747
1789635386287969500,8.693969482421876,-0.8317991989433765,1.9788342678651212,-0.5989896832391619
1789635386298009600,8.704009521484375,-0.8017676332950592,1.390954884444177,-0.1122746723100543
1789635386308049400,8.71404931640625,0.8215478540420532,0.2644777426436543,0.43380087460428474
1789635386318088400,8.72408837890625,2.508244218921661,-0.9290499051228165,-0.376020593547821
1789635386328128500,8.73412841796875,0.620849340608716,-1.5336007296204566,-1.3252578389137983
1789635386338168600,8.74416845703125,-3.2701772699564695,-1.4760019426107405,-1.1081542802549897
1789635386348207400,8.754207275390625,-2.4482108982414004,-0.8921043223023414,0.5379319879472255
1789635386358247400,8.764247314453126,1.9576959105074405,-0.3299187675863504,1.9346283386528491
1789635386368287500,8.77428759765625,3.0867478712320326,0.09539455691874027,1.8108114048480985
1789635386378326500,8.784326416015626,1.14121586124897,0.7868132252693176,0.7226325756512582
1789635386388366300,8.794366455078125,-0.7059341004371643,1.5728560506880283,-0.12499606058672069
1789635386398406400,8.804406494140625,0.22757833705246447,1.9484522813439369,-0.6215794084489346
1789635386408446500,8.814446533203125,1.7229308768212794,1.7033955707460642,-1.1311815200991928
1789635386418485800,8.82448583984375,-0.32315234219133854,1.0968009654611348,-1.134696542482823
1789635386428525600,8.834525634765624,-2.985924859523773,0.12842471986114978,-0.36846243325322864
1789635386438565400,8.8445654296875,-1.1594161193281411,-0.6087421387076377,1.1050031227476895
1789635386448604700,8.854604736328126,2.2634370991706847,-1.2717127112090587,1.547878553558886
1789635386458644700,8.864644775390625,1.3516092547446488,-1.3942828598231076,0.9578868541590869
1789635386468684500,8.8746845703125,-2.689292275467515,-1.1727654302448034,0.3205154178164899
1789635386478723600,8.8847236328125,-4.834295302915573,-0.7729296613454818,0.09022679889202118
1789635386488763600,8.894763671875,-2.482199677082896,-0.705212800425291,0.23997137015759942
1789635386498803700,8.9048037109375,0.5451490797191858,-1.1454887162625789,0.17662191066667438
1789635386508842500,8.914842529296875,-0.3625596389502287,-1.648091032153368,-0.06458090098202228
1789635386518882600,8.924882568359376,-2.6347189737588166,-1.8320044150024652,0.03285670607164502
1789635386528922600,8.934922607421875,-2.1510189267367124,-1.3488742768228053,0.6712919722534716
1789635386538962700,8.944962646484376,0.28841420628726483,-0.5993973872572184,1.0967222011364997
1789635386549001500,8.95500146484375,1.1676695684105156,0.019150106149911878,0.7844535104006528
1789635386559041500,8.96504150390625,-0.24352000254988668,-0.022460253611207008,0.01559402110353112
1789635386569081600,8.97508154296875,-1.47495857103765,-1.0684960774749517,-0.6925999870896339
1789635386579120600,8.98512060546875,-1.4702899947047232,-2.3573837953686714,-0.7855624945558607
1789635386589160400,8.995160400390626,-0.8129740869641303,-2.6801994529515505,-0.48365094718337054
1789635386599200500,9.005200439453125,-1.1800181778520344,-1.8528794452488422,0.1409200442969799
1789635386609239600,9.015239501953126,-1.6556991690695284,-0.8074421718001366,1.3309556121639907
1789635386619279600,9.025279541015625,-0.5942471648871899,0.18977906001210212,2.403727175001055
1789635386629319400,9.0353193359375,0.7206243045687675,0.9351029215514659,2.0136381624817847
1789635386639358500,9.0453583984375,0.5022960264205932,0.7746832270145416,0.6029251229919493
1789635386649398500,9.0553984375,0.010269465079903601,0.2851864764124155,-0.7783271364748477
1789635386659438600,9.0654384765625,0.19962416220009327,0.40941140649616714,-1.7271059705488383
1789635386669478700,9.075478759765625,-0.7763602203160523,-0.1474994226872921,-1.9102669275954365
1789635386679517400,9.085517333984376,-1.9713497573286294,-1.6143138502359389,-1.4625116157881914
1789635386689557500,9.0955576171875,-1.536770591828227,-1.659101670989394,-1.1024595757447182
1789635386699597600,9.10559765625,-1.9517887322902678,-0.1470551860511303,-0.22223434567600486
1789635386709636400,9.11563623046875,-1.5449030448794363,0.314352365142107,1.1195933736361563
1789635386719676400,9.125676513671875,-0.008388473638892174,0.13889701403677462,1.0201958646863698
1789635386729716500,9.135716552734374,-0.5343903698176146,-0.03671791154444218,0.4191106704726815
1789635386739755500,9.145755615234375,-1.5232798266142606,-0.48348026679158207,1.118982256000489
1789635386749795300,9.15579541015625,-0.5608136818408965,-0.40463936978876586,1.6486635713443158
1789635386759835400,9.16583544921875,-0.1530623175114393,-0.39006373194754124,0.617354191969335
1789635386769874700,9.175874755859375,-0.12129063019752502,-0.7443196529328823,-0.950741950840503
1789635386779914500,9.18591455078125,0.6583259615659713,-0.4829729017913341,-1.5255900032527745
1789635386789954300,9.195954345703125,1.0602619176149368,-0.20692659416794776,-1.374163177988678
1789635386799994400,9.205994384765624,0.8539706987410783,-0.5591261671453714,-1.2331165847025811
1789635386810033700,9.21603369140625,0.30889351521432395,-1.2831868759036062,-1.2012610184974968
1789635386820073700,9.22607373046875,-0.3993839334785938,-1.7119401117295026,-0.5358927372045814
1789635386830113500,9.236113525390625,-0.7775269260078668,-1.537397199293971,0.8539687990449368
1789635386840152600,9.246152587890625,-0.45907121720016,-1.4140969828397034,1.4395741000540554
1789635386850192600,9.256192626953125,-0.5438613779962063,-1.698865526100993,0.6704096364609897
1789635386860232700,9.266232666015625,-0.9589461539536714,-1.0027718516767024,-0.040415450888127084
1789635386870271500,9.276271484375,-1.3524509662657975,0.6588964549303055,0.0001930383540689945
1789635386880311600,9.2863115234375,-1.929113959145546,1.1479477998524903,0.33541151978373523
1789635386890351600,9.2963515625,-2.2256506816118953,0.5633785638928414,0.41229529136940835
1789635386900391700,9.3063916015625,-3.2591321443289516,-0.2265098310381174,1.2896075566008687
1789635386910430500,9.316430419921875,-3.5899925766795873,-1.3160732464611529,2.0788281352728606
1789635386920470500,9.326470458984375,-2.3501322168052194,-1.9483914910674094,2.334536003744602
1789635386930510600,9.336510498046875,-1.4463976624637842,-1.7739122915178536,1.9408802386544644
1789635386940549600,9.346549560546874,-1.001165001001954,-1.146859420093894,0.8139965618796646
1789635386950589700,9.356589599609375,-0.6879881093800068,-0.4947293905586004,-0.08622428525239229
1789635386960629500,9.36662939453125,-0.07633855879306793,-0.15058043756783007,-0.40753085344657297
1789635386970668500,9.37666845703125,0.6728992613196373,0.25540157900154586,-0.3349100000023842
1789635386980708600,9.38670849609375,1.6304817257046698,0.6411603072315454,-0.5207105117723345
1789635386990748700,9.396748779296875,1.8856003961116075,0.94951197065413,-0.5143422919146716
1789635387000787500,9.406787353515625,0.8375386193782091,0.5751385597914457,-0.42901334806680674
1789635387010827500,9.41682763671875,0.4751519989073276,-0.08263970476388931,-0.7326957045041024
1789635387020867600,9.42686767578125,0.5342313798636198,-0.3556096736818552,-0.650331163419783
1789635387030906400,9.43690625,-0.18786708891093729,-0.8974076894074677,-0.2439177696958184
1789635387040946400,9.446946533203125,-0.35353579001724716,-1.513978329783678,0.24391046317219733
1789635387050986500,9.456986572265626,0.09037234484255313,-2.1485119123518466,0.7278982410944997
1789635387061026600,9.467026611328125,0.5288672224819659,-2.522798813974857,1.1266168425321579
1789635387071065300,9.4770654296875,2.209575160601735,-1.6766139468044041,0.9728492993608117
1789635387081105400,9.48710546875,3.3464071076780555,1.0847869948014617,0.263377964708209
1789635387091145500,9.4971455078125,1.799631839185953,3.3572891516983505,-0.42183161986917256
1789635387101184500,9.5071845703125,1.9249673608601092,3.1952447785690423,-1.084143874592334
1789635387111224600,9.517224609375,2.2271195851206778,1.7838678683429956,-1.3065195284351705
1789635387121264400,9.527264404296876,1.5863690277338027,0.15480565404742955,-1.0093588288515805
1789635387131303400,9.537303466796875,0.5302373417913914,-0.4971648010119796,-0.23918708791211246
1789635387141343500,9.547343505859375,-1.6487737537205218,-1.0115656912460922,0.3842240660086274
1789635387151383600,9.557383544921874,-3.0819355025142428,-1.8460946074143052,0.525279865514487
1789635387161421800,9.567421875,-3.1181080551356075,-2.4570912470504642,0.5454807958915829
1789635387171461600,9.577461669921876,-2.0545348210155963,-2.880152408714592,0.6268816065102816
1789635387181501700,9.587501708984375,-0.408525855833292,-2.8421447496205565,0.8785783396445215
1789635387191541800,9.597541748046876,0.097910923653841,-2.026474555440247,0.8729331733644008
1789635387201580800,9.607580810546875,-0.5622270557701587,-0.8318310553863644,0.9061499449200928
1789635387211620600,9.61762060546875,-0.5712491511374712,-0.043028702126443386,0.49619054915234445
1789635387221660700,9.62766064453125,-0.6397814200937748,-0.03004705547839403,-0.26195363099351526
1789635387231699700,9.63769970703125,-0.2461474284440279,-0.5886228952646255,-0.516729625442624
1789635387241739800,9.64773974609375,1.2488859623730182,-1.186488104518503,-0.7066679676696658
1789635387251779600,9.657779541015625,2.100848828423023,-1.1888751457855105,-0.5608553290255367
1789635387261818600,9.667818603515625,1.9488871656298636,-1.2965735962212086,-0.3841709475819021
1789635387271858700,9.677858642578125,1.8341197997212408,-1.4383227848187088,-0.041428573453426355
1789635387281898800,9.687898681640625,1.5134376470357178,-1.3625534042157232,0.014280308156460524
1789635387291938800,9.697938720703124,1.043867832174897,-1.2521999092265963,-0.007299947749823331
1789635387301977600,9.7079775390625,1.0132371315896511,-1.7577336023941634,0.0673833181168884
1789635387312017700,9.718017578125,1.6605448555350302,-2.071460236853361,0.19523206472098825
1789635387322057700,9.7280576171875,1.9832102909922598,-1.1815328201986848,0.32229499470964074
1789635387332096500,9.738096435546876,1.9377438403248786,0.008688041107356548,0.7134985443420708
1789635387342136600,9.748136474609375,2.232311893066764,-0.24563063802830873,0.3077554510951042
1789635387352176600,9.7581767578125,2.0351140812307595,-0.48379656619913874,-0.27630283966772257
1789635387362215700,9.768215576171874,0.9539701191067695,-0.4672269780617207,-0.45288763319440184
1789635387372255500,9.77825537109375,-0.20105390274226664,-0.8421805268999188,-0.036450638910382985
1789635387382295600,9.788295654296874,0.008152326795458794,-1.5317624082773924,-0.11361644230782986
1789635387392335600,9.798335693359375,-0.3881739726781845,-1.0902250942021607,-0.0576924566425383
1789635387402374700,9.808374755859376,-1.38058926551342,-0.7368137342821807,0.6762018830616027
1789635387412414500,9.81841455078125,0.037056349718570705,-0.6801533971663564,0.8081546309184282
1789635387422454500,9.82845458984375,2.4550223318219184,-0.1586087726574391,0.11338058772534132
1789635387432493600,9.83849365234375,3.19779533983469,0.5701855404939502,-0.6880880626231431
1789635387442533600,9.84853369140625,3.297048325747251,1.6013693207278847,-1.1488243634913116
1789635387452573700,9.85857373046875,2.840114705097675,2.2586554178521037,-1.4871411762624978
1789635387462612700,9.86861279296875,2.5837059948801993,1.4497002111405133,-0.8627678993113338
1789635387472652800,9.87865283203125,3.264502146929502,1.0519835532870143,0.030579920246079563
1789635387482692600,9.888692626953125,4.031774220904707,1.7468118108853696,0.4730555380847305
1789635387492731600,9.898731689453125,3.487919272649288,2.0981838469974696,-0.0456346468411386
1789635387502771700,9.908771728515624,2.7431612282991407,1.9600749145984648,0.10268332568742335
1789635387512811800,9.918811767578125,3.762259945398569,1.356440912684798,0.9183995509665459
1789635387522850800,9.928850830078124,4.80431166806221,0.8024924404382705,0.5550327603518963
1789635387532890600,9.938890625,3.3272949954509734,0.5949858544252813,-0.8028319745909422
1789635387542930700,9.9489306640625,0.5445429305195808,0.5580054925523698,-1.524088220387697
1789635387552970800,9.958970703125,0.05078852247297763,0.5302750434532761,-1.35815779960528
1789635387563009800,9.969009765625,0.30387539479136466,0.7169080605246126,-0.4104341736726463
1789635387573049900,9.9790498046875,-0.024072949504852295,0.8447529346711933,0.7565882559407502
1789635387583089700,9.989089599609375,0.738864894658327,0.3677390874147415,1.4082115780629216
1789635387593128700,9.999128662109374,1.7020681215345859,-0.305611132542789,1.0352169812727718
1789635387603168800,10.009168701171875,1.5036042352855206,-0.5660100814402103,-0.0938724619179964
1789635387613208800,10.019208740234374,0.37980537278354165,-0.3062289721801877,-0.9119972096435726
1789635387623247600,10.02924755859375,-0.09668927290439605,0.23708149393498895,-0.9738786424085497
1789635387633287700,10.03928759765625,0.5989408756613731,0.5798161962136625,-0.5575621326990425
1789635387643327700,10.04932763671875,1.0586848775565623,0.6946922831937671,-0.2623201262183487
1789635387653367800,10.059367919921876,-0.02081190188229084,0.63414867490381,-0.11627104846984147
1789635387663406600,10.069406494140624,-1.4778917018800972,0.3916919176712632,0.24940628410950302
1789635387673446700,10.07944677734375,-0.29435937842726706,0.12601795098036528,0.7523623818740248
1789635387683486700,10.08948681640625,1.1138380249798296,-0.122463765630126,0.7667195546589791
1789635387693525500,10.099525390625,-0.4137327768266201,-0.21577011809796093,0.38748978980630633
1789635387703565600,10.109565673828126,-2.023327781847119,-0.13475830679684878,0.051223260628432035
1789635387713605600,10.119605712890625,-1.6311141783893108,0.04250234016478061,0.17087839857861398
1789635387723644700,10.129644775390625,-0.6449649602115154,-0.3246089707404375,0.22678908637091516
1789635387733684700,10.139684814453124,-0.24624095194637774,-0.787452107694745,0.26466215929985043
1789635387743724500,10.149724609375,-0.4914180740535259,-0.8529185593396424,0.614305033531785
1789635387753764600,10.1597646484375,-0.6856020910263061,-0.7028086618930101,0.8351891336426138
1789635387763803600,10.1698037109375,-0.3793675658881664,-0.7025672543525695,0.5499995884902775
1789635387773843700,10.17984375,0.23912907411456108,-0.6877233209639787,-0.11635098183825611
1789635387783883500,10.189883544921875,0.5989888064563273,-0.4269160835266113,-0.752399206753075
1789635387793922600,10.199922607421875,-0.2197077498078346,0.20387714346945285,-0.6172045543655753
1789635387803962600,10.209962646484374,-0.9874357508569955,0.5531541069984436,-0.26597455707266926
1789635387814002700,10.220002685546875,-0.14218027349114418,0.7329325819998979,0.18914543828368185
1789635387824041700,10.230041748046874,1.8539526274383067,0.7937497465342283,0.4496880334354937
1789635387834081500,10.24008154296875,2.763394453510642,0.6372808354496956,0.06322451793700457
1789635387844121600,10.25012158203125,0.5894885721832513,0.17026187411546706,-0.6315994288124144
1789635387854161000,10.260160888671875,-2.337096794143319,-0.31246669752597805,-0.8855242132596671
1789635387864200700,10.27020068359375,-3.1408599851697683,-0.8043535581350326,-0.03788929341137409
1789635387874240500,10.280240478515625,-1.4815630838692186,-1.7485843735158442,1.1835736783765256
1789635387884280600,10.290280517578125,0.0736906746327877,-2.488643446394801,1.9968322813704609
1789635387894319900,10.30031982421875,0.5239058006823063,-2.3517244544327256,1.9516487392976878
1789635387904359700,10.310359619140625,-0.2789285850614309,-1.8110300160348414,1.0175019494272768
1789635387914399700,10.320399658203126,-1.2055787355661391,-1.1270593256026507,-0.15688041449487208
1789635387924438800,10.330438720703125,-1.7920453295797107,-0.8781512002736329,-1.1174863183543084
1789635387934478800,10.340478759765626,-1.7294021186619997,-0.8777811979174613,-1.423312847213447
1789635387944518700,10.3505185546875,-1.8288725467175244,-0.9583616320639848,-0.9013225247636437
1789635387954557700,10.3605576171875,-2.5404040287703276,-1.2245792041122912,-0.03769479375258088
1789635387964597800,10.37059765625,-2.2010265279650687,-1.3801818537563084,0.5060444191686809
1789635387974637800,10.380637939453125,-1.072227080696821,-0.8702350203216075,0.39256358593925833
1789635387984676600,10.390676513671876,-1.3906553169757128,-0.12948504256904125,-0.0050832946136593815
1789635387994716700,10.400716552734375,-2.2989941502422093,0.48468379736244677,-0.3130310534104705
1789635388004756700,10.4107568359375,-1.646041113886237,0.44399055244624613,-0.7781506108641624
1789635388014796800,10.420796875,0.05298106408119201,-0.7681471032440662,-1.6311922120615838
1789635388024835600,10.430835693359375,0.8960223725289106,-1.2220680980741978,-2.703134046076238
1789635388034875600,10.440875732421874,-0.3974538421988487,-0.8874170412689447,-2.536691730248928
1789635388044915700,10.450915771484375,-1.263618252080679,-1.3427543326377869,-1.1988513270072638
1789635388054954800,10.460954833984376,-0.2552536949634552,-2.1769144154936075,0.2776348919890821
1789635388064994600,10.47099462890625,0.4645055172085762,-2.6135084279477594,1.30068789967224
1789635388075034600,10.48103466796875,0.5658090059101581,-2.594389885979891,1.3739251314491032
1789635388085073700,10.49107373046875,0.8108855902522802,-2.094332578396797,0.4300226712398231
1789635388095113700,10.50111376953125,0.1022685343414545,-1.1123983475655317,-0.7680394050858914
1789635388105153500,10.511153564453124,-0.6421200921744108,0.1425491068035364,-0.8475145083390175
1789635388115192600,10.521192626953125,-0.36643735716640946,0.6817728881269693,-0.7899673053860664
1789635388125232600,10.531232666015624,-0.09650339494347572,0.4811135376602411,-1.2762797268636523
1789635388135272700,10.541272705078125,-0.8533674721509218,-0.10907762983441352,-1.7563995773114263
1789635388145312800,10.551312744140626,-1.9882693279474972,-0.6996306163787841,-1.4908458759993315
1789635388155351600,10.5613515625,-2.216046986964345,-0.9933142875015735,-0.9675925478763878
1789635388165392400,10.571392333984376,-1.9514754285573959,-1.1771055052757262,-1.0697827562846243
1789635388175432200,10.58143212890625,-2.4972347491294142,-1.3995026402980089,-1.4000345552176237
1789635388185471200,10.59147119140625,-3.038469870275259,-2.056308844950795,-1.1012434779532254
1789635388195511300,10.60151123046875,-2.045001853516698,-1.8378385279834268,-0.09112506290599703
1789635388205551400,10.61155126953125,-0.5171504812031984,-0.4428817144215107,1.3622291406974196
1789635388215590100,10.621590087890626,0.5176180987149477,-0.6796300308793782,1.4583387140177189
1789635388225630200,10.631630126953125,1.120176580351591,-1.1722463748067617,0.8627072551652789
1789635388235670300,10.641670166015626,1.1148422335863113,-0.7742021654993295,0.06651435326263308
1789635388245709000,10.651708984375,0.6008551848500967,-0.1513373934149742,-0.8582339091435074
1789635388255749000,10.6617490234375,0.29507424869835375,-0.13383271638453006,-1.9658057133354245
1789635388265789200,10.6717890625,0.08447568801939487,-0.24129005154073238,-2.1517197684824465
1789635388275829200,10.681829345703125,-0.18609423401951788,-0.06697101098895072,-1.1308525804057716
1789635388285868300,10.691868408203124,0.2926841386914253,-0.35839082883298395,-0.28185440938025713
1789635388295908000,10.701908203125,2.244886712479591,-0.3421370286464691,0.18280016091018914
1789635388305948200,10.7119482421875,3.663024495142698,0.4195785802453756,0.5732433936946094
1789635388315987500,10.721987548828125,3.223153652974963,0.9753554369628429,0.08047887346819042
1789635388326027500,10.732027587890625,2.032869517174363,1.267802844288945,-0.9019152299597859
1789635388336067000,10.742067138671874,0.5178489848613739,1.1772171489566563,-1.7185101377695797
1789635388346106400,10.7521064453125,-0.7562485756576061,0.9172387635588646,-2.144329365970194
1789635388356146400,10.762146484375,-1.8904127648293971,0.6018862814635038,-1.3895803812205791
1789635388366186500,10.7721865234375,-5.643085382193327,-0.6284446180433034,0.8896455309733748
1789635388376226300,10.782226318359376,-7.727155509772897,-2.627642751762271,3.1969264480456707
1789635388386265300,10.792265380859375,-6.808645995625853,-4.016493649664521,4.222642537458241
1789635388396305400,10.802305419921876,-5.7522208796948195,-4.935616911795735,3.539602405874431
1789635388406345500,10.812345458984375,-2.733503757637739,-4.859574121078849,1.76262663513273
1789635388416384300,10.82238427734375,1.1414391486108302,-3.732262574280798,0.1892253716520965
1789635388426424300,10.83242431640625,3.22983590721786,-2.373363162527978,-0.37711145752444863
1789635388436464400,10.84246435546875,3.9818502063065764,-0.49746992143839597,-0.40381139453202486
1789635388446503400,10.85250341796875,2.573385676395893,1.6239640143737195,-1.5653233170956373
1789635388456543200,10.862543212890625,1.0054811106353998,2.648274913163483,-2.823103656803071
1789635388466583300,10.872583251953126,0.40983869199752804,2.209440136045217,-3.1207097620666024
1789635388476623400,10.882623291015625,0.4906079267144203,0.8798270245313644,-2.8328052588671446
1789635388486662400,10.892662353515625,1.494118029537797,-0.11510375825613736,-2.405787176270783
1789635388496702200,10.9027021484375,2.4916788685679436,-0.7733163225755095,-1.872349431002885
1789635388506742300,10.9127421875,3.5608956615328786,-1.0904580261752008,-1.334617934063822
1789635388516781300,10.92278125,4.0030595830738545,-0.9566451835349201,-0.8185236839152872
1789635388526821400,10.9328212890625,3.0950457439780235,-0.08017068430185317,-0.5077738733097911
1789635388536861200,10.942861083984376,1.0494342341303824,0.698625530989468,-0.28407588482201096
1789635388546900200,10.952900146484374,-0.2865782230317592,0.39008214438706634,-0.5241320106536149
1789635388556940300,10.962940185546875,-0.44219899285435676,-0.41414778736829755,-1.0751892915032804
1789635388566980400,10.97298046875,-0.23415713092088697,-1.142929679429531,-0.9847370132923126
1789635388577019100,10.98301904296875,0.6814683522224426,-1.8021520053133366,-0.731254858046025
1789635388587059200,10.99305908203125,1.6333505591392516,-1.616748530036956,-0.5318256338961422
1789635388597099300,11.003099365234375,1.1234358744084834,-0.7065221294581889,-0.20173501687422393
1789635388607139300,11.013139404296876,0.06209317581951618,-0.2551680625066161,0.5195185255087912
1789635388617178000,11.02317822265625,0.40840661336779593,-0.8426886956177652,0.3183085554219782
1789635388627218200,11.03321826171875,1.8389485350519417,-0.8336284601971506,-0.3960914678044617
1789635388637258200,11.04325830078125,1.8244670052349565,-0.008498436819389462,-0.8469129622492939
1789635388647297300,11.05329736328125,1.1146177771806716,0.0763046565234661,-0.3349439753372222
1789635388657337000,11.063337158203124,1.1325965014636517,-0.6026937984541059,-0.39333471644222734
1789635388667377200,11.073377197265625,0.21957564786076544,-0.011521145641431212,-0.6591120704423635
1789635388677416400,11.08341650390625,-1.381723237979412,0.2805005105532706,0.323244696649909
1789635388687456300,11.093456298828125,-0.5713455972492695,-0.5665637698002159,1.087856684570387
1789635388697496000,11.10349609375,0.9539338787496089,0.3953142728868872,0.5624395294770598
1789635388707536100,11.1135361328125,1.107449785247445,0.9166846368074416,-0.4596880339242518
1789635388717575400,11.123575439453125,-0.06803016465306282,-0.16817827277444303,-0.2751323345836252
1789635388727615200,11.133615234375,0.23814883090555666,-0.578177050704509,0.2913298745382577
1789635388737655300,11.1436552734375,1.1996779870897532,-0.2500035193502903,-0.2325770221225917
1789635388747694300,11.1536943359375,1.7440215956449507,0.37881570415906607,-0.6521668544143437
1789635388757734400,11.163734375,2.520397013530135,0.6663475015886128,-0.6012006372869014
1789635388767774500,11.1737744140625,3.935882820379734,1.1970649550471455,-0.3686316523402929
1789635388777813200,11.183813232421874,5.790080947011709,1.424442728026211,-0.07265892043225466
1789635388787853300,11.193853271484375,7.323923084172606,0.6222811269775033,-0.9860301218427717
1789635388797893400,11.203893310546874,5.350705779406428,1.1561473267905413,-3.0570588354110715
1789635388807932400,11.213932373046875,1.0511129809975623,2.8162945613101122,-3.2409801093056796
1789635388817972200,11.22397216796875,-0.6677630674749613,2.1930893052250147,-2.3412752488717437
1789635388828012300,11.23401220703125,0.4002513639628887,-0.24152488320991394,-0.07267484865374862
1789635388838052400,11.24405224609375,2.275336795800924,-1.5148863845393061,2.957953733536601
1789635388848091400,11.25409130859375,3.2036949192672965,-1.144247630160302,3.9967169360488652
1789635388858131500,11.26413134765625,3.204227418708801,-0.21598113050013779,2.65905028193891
1789635388868171300,11.274171142578124,2.0228385370254514,0.8763957349084317,0.1542962432205677
1789635388878210300,11.284210205078125,1.4354828852176666,1.6740671849310398,-1.8297667190782725
1789635388888250400,11.29425048828125,0.39321488945484157,1.8794350053496658,-2.52015414468497
1789635388898290400,11.30429052734375,-0.46991468277573584,1.1761819606900215,-1.6628715449169278
1789635388908329200,11.3143291015625,1.1892214750051497,0.0784337775066495,-0.3448952413134277
1789635388918369300,11.324369384765625,2.290840654402971,-0.7370423554062843,0.27731866564676166
1789635388928409300,11.334409423828125,1.7476900550246237,-0.7627733012512325,0.1953422470971942
1789635388938449400,11.344449462890625,0.6627127983480692,-0.08258943588137627,-0.19926015119329094
1789635388948488200,11.35448828125,-0.11897592351436614,0.544128504499793,-0.7815491672612727
1789635388958528300,11.3645283203125,-0.037110710254311556,0.4986524092212319,-1.6370415226116775
1789635388968568300,11.374568359375,-1.0218038844048976,0.1730164335206151,-2.0456616325996815
1789635388978607000,11.384607177734376,-3.208237238872051,-0.28672143089473245,-1.302289781910926
1789635388988647200,11.394647216796875,-2.1720225517988205,-0.8156269395604729,0.44416503223031756
1789635388998687200,11.404687255859375,0.504480384722352,-1.3520531991198659,1.4680530294328926
1789635389008726300,11.414726318359374,1.408143042871356,-1.5127221922427414,0.938700361521542
1789635389018766300,11.424766357421875,-0.09457681079506873,-1.3601046958893537,-0.201269591319561
1789635389028806100,11.43480615234375,-1.704514930164814,-1.1440987232089042,-1.2637664283797143
1789635389038845200,11.44484521484375,-1.8068208739072082,-0.6649515171855688,-1.471184751587361
1789635389048885200,11.45488525390625,-1.5371312418341636,-0.42473640139997004,-0.9146075382724403
1789635389058925300,11.46492529296875,-1.0293231739938258,-0.4003583314687013,0.03964768138602376
1789635389068965000,11.474965087890626,0.9826970318973064,-0.28751813423037526,0.8745248264700174
1789635389079004200,11.485004150390624,2.4690239691674707,-0.01333995856642723,1.0098904515102505
1789635389089044200,11.495044189453125,1.6685446221172808,0.6045809273749589,0.668067603379488
1789635389099084300,11.505084228515624,-0.3828267664313316,0.8955190991818904,-0.21145517750829457
1789635389109123300,11.515123291015625,-0.9972451972097158,0.45155192761123175,-1.598169501773268
1789635389119163400,11.525163330078126,-1.949444214990735,-0.5897650510370731,-2.1108748401358723
1789635389129203200,11.535203125,-3.3932565371364354,-2.0659172157734633,-0.5929353516362608
1789635389139242500,11.545242431640625,-2.347456860116124,-3.2251059560865163,1.5137440826363862
1789635389149282300,11.5552822265625,-0.3880336874246597,-3.7587446307539936,2.781965882989764
1789635389159322600,11.565322509765625,0.5867991869688034,-3.397781321084499,2.3616908449128267
1789635389169362400,11.575362548828124,0.6392740550935267,-2.0476210961043835,1.7930870937176047
1789635389179401500,11.5854013671875,0.02722059988081455,-0.6446908194452524,0.7421373404577374
1789635389189441500,11.595441650390624,0.13268705348074436,0.28426994608938694,-0.8171154245525598
1789635389199481600,11.605481689453125,0.07512626039385795,0.4932277538239956,-2.1638449444316326
1789635389209520400,11.615520263671876,-0.5179062680065631,-0.05302607226669788,-2.7020348526626825
1789635389219560400,11.625560546875,-0.9335486778467893,-0.6603203502535819,-2.1617013565316796
1789635389229600500,11.6356005859375,-0.6343623176544905,-0.723868401056528,-0.9192677851684391
1789635389239639600,11.6456396484375,-0.22317747174501418,-0.4902104518294334,0.05713686858639121
1789635389249679600,11.6556796875,-0.939948023495078,-0.19436171162724494,0.7660121370419859
1789635389259719400,11.665719482421874,-1.527212489888072,0.0021545476853847504,1.1729162368923425
1789635389269758500,11.675758544921875,-0.6077852763742209,0.2900847698479891,0.9286316797107458
1789635389279798500,11.685798583984376,-0.9876420870840549,0.061171969321370125,0.16853227384388444
1789635389289838600,11.695838623046875,-2.556152802044153,-0.5039660054594278,-0.3891678060211241
1789635389299878400,11.70587841796875,-2.9316935031205413,-0.6244961726784706,-0.0813495188228786
1789635389309917400,11.71591748046875,-1.8197037363559005,-0.22691665827333926,0.19197613166496155
1789635389319957500,11.72595751953125,-1.6350819129765033,-0.48364276387691496,0.05419876930788159
1789635389329997600,11.73599755859375,-1.704576304963231,-1.5143231976985931,-0.06734846599921583
1789635389340036400,11.746036376953125,-1.010874494111538,-1.9221669164866209,-0.1535821036018431
1789635389350076400,11.756076416015626,-1.6472791312485933,-1.60187230181396,0.15725699272230267
1789635389360116500,11.766116455078125,-2.019771550670266,-1.4164987832844256,0.7953881613910198
1789635389370155500,11.776155517578125,-0.9929793564587831,-1.1679735197931527,1.0823629825249315
1789635389380195300,11.7861953125,-0.17787410268485546,-0.4248381082087755,0.9268415814235806
1789635389390235400,11.7962353515625,0.7872340810298919,0.9677636666595936,-0.04956219554841518
1789635389400274400,11.8062744140625,1.2190519651234148,1.9513620313107967,-0.9730512516736983
1789635389410314500,11.816314453125,1.1312012477129698,0.5330126517236232,-1.7916085455976425
1789635389420354300,11.826354248046876,1.0682283664494752,-1.3026526238739489,-2.4303067004993557
1789635389430394400,11.836394287109375,0.0870534295529127,-2.150480582076311,-2.2745852467812595
1789635389440433400,11.846433349609375,-0.8854571393728256,-2.5085890868365763,-1.676005021125823
1789635389450473500,11.856473388671875,-1.1329413693785666,-2.42926362118721,-0.9035068830654025
1789635389460513300,11.86651318359375,-1.0688859535753725,-1.5733476335972547,-0.18996333053782583
1789635389470552300,11.87655224609375,-1.1255430758208036,-0.5594546684473752,0.46683849020078777
1789635389480592400,11.88659228515625,-0.8098743673831224,-0.6840221283584833,1.0130189587943255
1789635389490632400,11.896632568359376,0.2925350856095552,-1.640858158290386,0.8066098126292228
1789635389500671500,11.90667138671875,0.6063076050370931,-1.450592191544175,0.8576702839113771
1789635389510711600,11.916711669921876,-0.7836001084417105,-1.1633429373830557,0.7907403355851769
1789635389520751400,11.92675146484375,-2.4090081841439006,-1.0756704991489647,1.0440312060430645
1789635389530791400,11.93679150390625,-2.7769460090011355,-1.336937170791626,1.1637725609719753
1789635389540830500,11.94683056640625,-2.295269576761126,-1.5430793365836142,1.0011432275615633
1789635389550870500,11.95687060546875,-2.5328613583058117,-1.4131214158058165,0.7636065372049808
1789635389560910300,11.966910400390624,-2.062452754533291,-0.8039151667177676,0.885845115777105
1789635389570949600,11.97694970703125,-0.8170002737402915,-0.2979635403990745,0.7136714166909456
1789635389580989400,11.986989501953126,0.014063596665859221,-0.34796120475530623,-0.203294959667325
1789635389591029500,11.997029541015625,0.9591834698408842,-0.3229267167419195,-1.4514170980609953
1789635389601068500,12.007068603515625,1.7524632607758044,0.286727860635519,-1.6215452627941964
1789635389611108600,12.017108642578124,2.2359096252977846,1.0880161859810351,-1.4046233443126082
1789635389621148400,12.0271484375,2.0040467427939177,1.930409844174981,-1.0949993228666484
1789635389631188500,12.0371884765625,0.8322598021924495,2.141257995700836,-0.7624336940333247
1789635389641227500,12.0472275390625,0.2927320694863796,1.7921283316880463,-0.4703589194118976
1789635389651267600,12.057267578125,-0.2653875509649515,1.102108424219489,0.13480068463385103
1789635389661307600,12.0673076171875,-0.6131155314862727,0.08504793494939804,0.625144407454133
1789635389671346400,12.077346435546875,-0.5886293250054121,-1.033875430470705,1.0142382714562117
1789635389681386500,12.087386474609374,-0.42487610213160515,-1.881951225954294,0.9972375984251498
1789635389691426600,12.097426513671875,0.17148761651813982,-2.169865666025877,1.0397101279735566
1789635389701465300,12.10746533203125,1.2152402978807686,-1.4541826172515748,0.9416827383331954
1789635389711505400,12.11750537109375,1.177092645794153,-0.5599772310167551,0.5422232554003596
1789635389721545500,12.12754541015625,1.1702847193449735,0.4373082982033491,-0.04626929148286581
1789635389731584500,12.13758447265625,0.6422381655961275,1.336509885290265,-0.6103799690425395
1789635389741624300,12.147624267578125,-0.5894330426037311,1.5540513969749212,-1.1599066793240607
1789635389751664400,12.157664306640624,-0.4264110566139221,0.829731745019555,-0.9476699960492551
1789635389761704400,12.167704345703125,-0.377087345996499,-0.017183189991116524,-0.09952961089685558
1789635389771743500,12.177743408203124,-0.9141852212071419,-1.0192959932371974,0.6829352829698473
1789635389781783300,12.187783203125,-0.6297720672547816,-1.7753335564926265,0.8878066251084208
1789635389791823400,12.1978232421875,-0.27976035971045493,-2.065927152645588,0.6225323252595961
1789635389801862400,12.2078623046875,0.20407588091194628,-1.6943915955573319,0.3677026278618723
1789635389811902500,12.21790234375,0.5015858323246241,-0.7636357632994651,0.12963709132559598
1789635389821942500,12.227942626953125,-0.3991127153217792,-0.24294980144649742,-0.08697188874930142
1789635389831981300,12.237981201171875,-1.7447908264517784,-0.7536606049910187,0.19498371598310768
1789635389842021400,12.248021484375,-1.5632885963976382,-1.9676881660811603,0.6779679428860544
1789635389852061400,12.2580615234375,0.34623511161506176,-3.0300200218379496,0.6025947219938039
1789635389862100500,12.2681005859375,2.320063241755962,-2.5904624834030865,0.2574375052759424
1789635389872140300,12.278140380859375,3.08050517745018,-0.9442631102152168,0.3511021696621552
1789635389882180400,12.288180419921876,3.1118735446602104,0.6907868001878261,0.4346411248207092
1789635389892220400,12.298220458984375,2.6656746685147286,0.8588160929456353,-0.09475359213408083
1789635389902259500,12.308259521484375,2.2854086924821138,0.042160394859313964,-0.7199087036453187
1789635389912299500,12.318299560546874,2.1461831771433353,-0.9141795951839536,-1.022736635210365
1789635389922339300,12.32833935546875,2.588801856714487,-1.3964659029506146,-0.7323474755883217
1789635389932378600,12.338378662109376,3.5053637439250944,-1.5216051714003085,-0.30631182815805075
1789635389942418700,12.348418701171875,4.2315094422638415,-0.9817397311724722,-0.18790142957195638
1789635389952458500,12.35845849609375,4.343197546857596,-0.0836901636648923,-0.42880321244746444
1789635389962497500,12.36849755859375,4.109802047958969,0.957695569370687,-0.797827078975737
1789635389972537600,12.37853759765625,2.9319208821356293,1.2325798474773764,-0.8470588004607706
1789635389982577700,12.38857763671875,1.6845494159787893,0.6468437596954405,-0.5795156423645094
1789635389992617500,12.398617431640625,1.790023468363285,0.3256894959861412,-0.3835229320019483
1789635390002656500,12.408656494140626,1.7562240746140478,0.312176592005603,0.21157873082272707
1789635390012696600,12.418696533203125,1.3239140230894089,-0.07456438872739672,1.320285165067762
1789635390022736600,12.428736572265626,1.4065934753417968,-0.8043945477325469,1.5026006112009287
1789635390032775400,12.438775390625,2.209445981264114,-1.3485942908376454,-0.07357303960248827
1789635390042815500,12.4488154296875,1.8433692741036414,-0.5607979728151112,-1.3485007673352956
1789635390052855600,12.45885546875,0.42460780658423897,-0.15371815107166767,-0.7193609335694462
1789635390062894300,12.468894287109375,0.25325989079773426,-0.34425584743134674,-0.7704863598465919
1789635390072934400,12.478934326171874,0.5289607459843159,-0.02216492392644286,-1.556108621765673
1789635390082974500,12.488974365234375,0.13483283333778381,0.4532836467746645,-1.6126821573808787
1789635390093014500,12.4990146484375,-0.414072384044528,0.6147492701679468,-1.043742306099087
1789635390103053600,12.509053466796875,-0.021472411617636678,0.04167421877756715,-0.22658567275330424
1789635390113093400,12.51909326171875,1.6801158174455164,-0.6296377733506262,0.21866357451714574
1789635390123133400,12.529133544921875,2.672283272999525,-0.3993393636845052,0.2846611373640597
1789635390133172500,12.53917236328125,2.3312860620379445,0.027954028721898793,0.3757267982330173
1789635390143212500,12.549212646484374,2.0665514220237733,0.28678412086740135,-0.14819734182357788
1789635390153252400,12.55925244140625,1.7698574631690978,0.6891868176452816,-1.008462464533746
1789635390163291000,12.569290771484376,1.8976105673789976,1.1575628926768897,-1.9236366967782377
1789635390173331000,12.5793310546875,2.3076281230747697,1.955025814515352,-2.48632318675369
1789635390183371000,12.58937109375,1.173514202785492,2.489333474485576,-1.7228993126392365
1789635390193411000,12.5994111328125,0.956341524413228,1.9551631771594284,-0.2617353120677173
1789635390203450000,12.6094501953125,2.5514953316271303,0.8447212243586778,0.6328263402588665
1789635390213490000,12.619489990234374,2.357095041555166,-0.35854543487280605,0.5600241388984024
1789635390223530000,12.629530029296875,0.3521533957481384,-1.2900725437641143,0.15286986367926
