time,seconds_elapsed,z,y,x
1789635377653846800,0.0598466796875,-1.1926988363265991,-0.06621087342500687,1.0351061820983887
1789635377663886800,0.069886962890625,-1.306252360343933,0.11173307150602341,0.9941123127937317
1789635377673927000,0.079927001953125,-1.3984125852584839,0.38235074281692505,0.8301771879196167
1789635377683965700,0.089965576171875,-1.4106131792068481,0.7111811637878418,0.5304101705551147
1789635377694005800,0.100005859375,-1.2551437616348267,1.006149172782898,0.1622696965932846
1789635377704045800,0.1100458984375,-0.9449030756950378,1.0490550994873047,-0.1297621726989746
1789635377714084900,0.1200849609375,-0.6582134962081909,0.6108591556549072,-0.361995130777359
1789635377724125000,0.130125,-0.5052193403244019,-0.18759649991989136,-0.5021835565567017
1789635377734164700,0.140164794921875,-0.45744940638542175,-0.8482822775840759,-0.4203728437423706
1789635377744203800,0.150203857421875,-0.2854278087615967,-1.4436687231063843,-0.1980036497116089
1789635377754243800,0.160243896484375,0.1542091965675354,-2.10609769821167,0.004390740301460028
1789635377764284000,0.170283935546875,0.4789453446865082,-2.712639331817627,0.06876476854085922
1789635377774322700,0.18032275390625,0.5562798380851746,-3.175920248031616,0.13551343977451324
1789635377784362800,0.19036279296875,0.6983053088188171,-3.558281183242798,0.2605283558368683
1789635377794402800,0.20040283203125,0.9873341917991638,-3.810959815979004,0.3636994957923889
1789635377804441600,0.210441650390625,1.3192932605743408,-3.8127176761627197,0.38794392347335815
1789635377814481700,0.220481689453125,1.575356125831604,-3.5816028118133545,0.31183719635009766
1789635377824521700,0.230521728515625,1.651520013809204,-3.2450757026672363,0.0848207101225853
1789635377834560800,0.240560791015625,1.5182095766067505,-3.2112672328948975,-0.18604940176010132
1789635377844600600,0.2506005859375,1.4393563270568848,-3.412787675857544,-0.2657729983329773
1789635377854640600,0.260640625,1.4608049392700195,-3.5861148834228516,-0.1467624455690384
1789635377864680000,0.270679931640625,1.4590821266174316,-3.781876802444458,0.09107417613267899
1789635377874719700,0.2807197265625,1.482657790184021,-4.0926313400268555,0.4288162589073181
1789635377884759800,0.290759765625,1.5974280834197998,-4.587989330291748,0.8497853875160217
1789635377894798800,0.300798828125,1.9090999364852905,-5.276320457458496,1.363618016242981
1789635377904839000,0.3108388671875,2.436911106109619,-6.0223164558410645,1.930607557296753
1789635377914878700,0.320878662109375,2.9674723148345947,-6.714959144592285,2.4451379776000977
1789635377924917800,0.330917724609375,3.3732030391693115,-7.313405513763428,2.8794960975646973
1789635377934957800,0.340957763671875,3.7707269191741943,-7.639537334442139,3.316349744796753
1789635377944998000,0.350997802734375,4.064143657684326,-7.662886619567871,3.728299617767334
1789635377955037000,0.361036865234375,4.166963577270508,-7.647726058959961,4.09080696105957
1789635377965076700,0.37107666015625,3.957143783569336,-7.651345252990723,4.3190999031066895
1789635377975116800,0.38111669921875,3.6246631145477295,-7.429161071777344,4.401740550994873
1789635377985155800,0.39115576171875,3.4050676822662354,-7.106636047363281,4.317399024963379
1789635377995196000,0.40119580078125,3.3580586910247803,-6.717874526977539,4.119147777557373
1789635378005234700,0.411234619140625,3.378045082092285,-6.108064651489258,3.8070709705352783
1789635378015274800,0.421274658203125,3.36464524269104,-5.2810959815979,3.458346366882324
1789635378025314800,0.431314697265625,3.2419004440307617,-4.3796467781066895,3.1756768226623535
1789635378035353900,0.441353759765625,2.9342918395996094,-3.358325481414795,2.7675154209136963
1789635378045393700,0.4513935546875,2.547720432281494,-2.472107410430908,2.3425779342651367
1789635378055433700,0.461433837890625,2.1747939586639404,-1.8472554683685303,1.995255470275879
1789635378065472800,0.47147265625,1.9435189962387085,-1.3286105394363403,1.802466630935669
1789635378075512800,0.481512939453125,1.834694743156433,-1.039247751235962,1.7864573001861572
1789635378085552600,0.491552734375,1.7783055305480957,-0.9627360105514526,1.9336332082748413
1789635378095591700,0.501591796875,1.6493397951126099,-0.8496899008750916,2.190208911895752
1789635378105631700,0.5116318359375,1.4459196329116821,-0.6705234050750732,2.4453108310699463
1789635378115671800,0.521671875,1.3606971502304077,-0.3059960603713989,2.6364128589630127
1789635378125710800,0.5317109375,1.3585023880004883,-0.05687953904271126,2.775214195251465
1789635378135750700,0.541750732421875,1.2316290140151978,-0.23280289769172668,2.94575572013855
1789635378145790700,0.551790771484375,1.1048448085784912,-0.8395355343818665,3.155697822570801
1789635378155830300,0.561830322265625,1.1337722539901733,-1.4824124574661255,3.2898037433624268
1789635378165870300,0.571870361328125,1.1659326553344727,-1.7102704048156738,3.3505876064300537
1789635378175910400,0.581910400390625,1.151929259300232,-1.0037705898284912,2.8438117504119873
1789635378185949400,0.591949462890625,0.9588068723678589,-1.484861969947815,0.8034452795982361
1789635378195989200,0.6019892578125,1.1476002931594849,-3.0253312587738037,-1.3236385583877563
1789635378206029300,0.612029296875,1.4134647846221924,-1.7331284284591675,-1.8443660736083984
1789635378216068600,0.622068603515625,1.270033597946167,0.05115886032581329,-1.1313294172286987
1789635378226108700,0.632108642578125,1.2866569757461548,0.3554292917251587,-0.6494323015213013
1789635378236148500,0.6421484375,1.7388372421264648,0.12096007168292999,-0.33888375759124756
1789635378246187500,0.6521875,2.6891562938690186,-0.30841442942619324,0.030568305402994156
1789635378256227600,0.6622275390625,3.632026195526123,-0.8778688311576843,0.2975880205631256
1789635378266267600,0.672267578125,4.456351280212402,-1.395563006401062,0.47127118706703186
1789635378276306400,0.682306396484375,5.419556617736816,-1.5371522903442383,0.5292607545852661
1789635378286346500,0.692346435546875,6.37948751449585,-0.729094386100769,0.6189408302307129
1789635378296386600,0.702386474609375,7.153604030609131,0.08849552273750305,1.0087064504623413
1789635378306425600,0.712425537109375,6.882744312286377,-0.2361837476491928,1.0787967443466187
1789635378316465400,0.72246533203125,5.307519912719727,0.024800969287753105,0.9799922704696655
1789635378326505500,0.73250537109375,3.933595895767212,0.8977442979812622,0.6023525595664978
1789635378336544500,0.74254443359375,3.2853963375091553,1.321388840675354,-0.11438185721635818
1789635378346584600,0.75258447265625,3.0644335746765137,1.4421064853668213,-0.5529193878173828
1789635378356624400,0.762624267578125,3.1172454357147217,0.7962084412574768,-0.668486475944519
1789635378366663400,0.772663330078125,3.1515235900878906,-0.08126839995384216,-0.4740700423717499
1789635378376703500,0.782703369140625,3.138923168182373,-0.7771651744842529,-0.29840022325515747
1789635378386743600,0.79274365234375,2.922294855117798,-1.2541751861572266,-0.14363352954387665
1789635378396782300,0.8027822265625,2.27063250541687,-1.6392171382904053,-0.03587963432073593
1789635378406822400,0.812822509765625,1.3011291027069092,-1.6115083694458008,0.19976994395256042
1789635378416862500,0.822862548828125,0.4032555818557739,-1.4280014038085938,0.028219491243362427
1789635378426901200,0.8329013671875,-0.4937002956867218,-1.1745387315750122,-0.3235268294811249
1789635378436941300,0.84294140625,-1.3198530673980713,-1.4180387258529663,-0.33076342940330505
1789635378446981400,0.8529814453125,-1.5195714235305786,-0.6632567048072815,0.08097583800554276
1789635378457020400,0.8630205078125,-0.1928120255470276,-0.45340150594711304,0.17713645100593567
1789635378467060500,0.873060546875,1.5595581531524658,0.7103011012077332,-0.06480927765369415
1789635378477100300,0.883100341796875,2.373765707015991,0.6792845726013184,-0.6619424819946289
1789635378487139600,0.8931396484375,1.9803904294967651,-0.523889422416687,-0.45852842926979065
1789635378497179400,0.903179443359375,1.5517979860305786,-0.7577527761459351,-0.08133507519960403
1789635378507218400,0.913218505859375,1.180371880531311,-0.7780371904373169,-0.034623127430677414
1789635378517258500,0.923258544921875,0.763454794883728,-1.1570584774017334,0.013673562556505203
1789635378527298600,0.933298583984375,0.43490833044052124,-1.511604905128479,0.2760303318500519
1789635378537337600,0.943337646484375,0.22443419694900513,-1.5660643577575684,0.5974640250205994
1789635378547377400,0.95337744140625,0.5116269588470459,-1.025312066078186,0.1914922147989273
1789635378557417500,0.96341748046875,1.0645060539245605,-0.4283360242843628,-0.6466463804244995
1789635378567456500,0.97345654296875,1.4489396810531616,-0.16646906733512878,-0.9812781810760498
1789635378577496600,0.98349658203125,1.832958698272705,0.5090821981430054,-1.1719934940338135
1789635378587536600,0.99353662109375,2.424189329147339,1.120531439781189,-1.6364896297454834
1789635378597575400,1.003575439453125,3.0241055488586426,1.3321465253829956,-1.868830680847168
1789635378607615500,1.013615478515625,3.041086435317993,0.10400798916816711,-0.9416167736053467
1789635378617655600,1.023655517578125,2.7879586219787598,-0.49609753489494324,0.18588146567344666
1789635378627694300,1.0336943359375,2.334677219390869,-0.027960199862718582,0.2923961579799652
1789635378637734400,1.043734375,1.608911395072937,0.03788885101675987,-0.02565239742398262
1789635378647774500,1.0537744140625,0.8429271578788757,-0.15637001395225525,-0.18247409164905548
1789635378657813500,1.0638134765625,0.1952940672636032,-0.20138703286647797,-0.21414333581924438
1789635378667853300,1.073853271484375,-0.009618104435503483,-0.20745143294334412,-0.22408510744571686
1789635378677893400,1.083893310546875,0.03677868843078613,-0.005621911026537418,-0.3762226998806
1789635378687932400,1.093932373046875,-0.08692943304777145,-0.10835391283035278,-0.40766772627830505
1789635378697972500,1.103972412109375,-0.15362884104251862,-0.49594587087631226,0.029488053172826767
1789635378708012300,1.11401220703125,-0.1983570009469986,-0.44909223914146423,0.15778379142284393
1789635378718051300,1.12405126953125,-0.40566542744636536,-0.3318497836589813,0.09103646129369736
1789635378728091400,1.13409130859375,-0.5278304219245911,-0.4881645441055298,-0.09080705046653748
1789635378738131500,1.14413134765625,-0.4372107982635498,-0.701240599155426,-0.18997465074062347
1789635378748170500,1.15417041015625,-0.29502400755882263,-0.765662670135498,-0.2881864011287689
1789635378758210300,1.164210205078125,-0.03331197425723076,-0.7162597179412842,-0.2432708442211151
1789635378768250400,1.17425048828125,0.3153570592403412,-0.6117464303970337,-0.1320108324289322
1789635378778289700,1.18428955078125,0.5114074945449829,-0.4596131145954132,-0.1714027225971222
1789635378788329500,1.19432958984375,0.5513304471969604,-0.29583024978637695,-0.17685474455356598
1789635378798369300,1.204369384765625,0.4526728689670563,-0.1419765204191208,-0.07856972515583038
1789635378808408600,1.21440869140625,0.22657272219657898,-0.13784994184970856,0.02299455925822258
1789635378818448600,1.22444873046875,-0.027484582737088203,-0.32278329133987427,0.014140879735350609
1789635378828488400,1.234488525390625,-0.6057189702987671,-0.43984055519104004,-0.07287197560071945
1789635378838527500,1.244527587890625,-1.2144882678985596,-0.6264240145683289,-0.2758442461490631
1789635378848567600,1.254567626953125,-1.1247713565826416,-0.6835209131240845,-0.4129398763179779
1789635378858607600,1.264607666015625,-1.3436392545700073,-0.5467172861099243,-0.4674808979034424
1789635378868646400,1.274646484375,-1.6912873983383179,-0.3076513111591339,-0.12825386226177216
1789635378878686500,1.2846865234375,-1.2564496994018555,-0.8269120454788208,0.10160517692565918
1789635378888726500,1.2947265625,-1.042686104774475,-1.2287085056304932,0.1879422962665558
1789635378898765600,1.304765625,-1.0104024410247803,-1.5062274932861328,0.5697586536407471
1789635378908805400,1.314805419921875,-1.3495700359344482,-1.820622444152832,0.2959687411785126
1789635378918845400,1.324845458984375,-1.3285949230194092,-1.9871504306793213,-0.27070799469947815
1789635378928884500,1.334884521484375,-0.7637954354286194,-2.2290303707122803,-0.3940424621105194
1789635378938924500,1.344924560546875,-1.1217548847198486,-1.6149797439575195,-0.8983929753303528
1789635378948964400,1.35496435546875,-1.3189467191696167,-1.2326009273529053,-1.2932780981063843
1789635378959003400,1.36500341796875,-0.6112420558929443,-1.712439775466919,-1.9003536701202393
1789635378969043500,1.37504345703125,-0.6212465763092041,-1.7643046379089355,-2.106229066848755
1789635378979083500,1.38508349609375,0.12355649471282959,-2.601430892944336,-2.358591318130493
1789635378989122300,1.395122314453125,0.055434003472328186,-4.002625465393066,-2.214543581008911
1789635378999162400,1.405162353515625,-0.15847882628440857,-3.616791248321533,-2.2730579376220703
1789635379009202400,1.415202392578125,-0.29521751403808594,-3.307626247406006,-2.973177433013916
1789635379019241500,1.425241455078125,-0.4292680025100708,-1.328922152519226,-1.172714352607727
1789635379029281300,1.43528125,-0.3250030279159546,-1.5609771013259888,-0.8796122670173645
1789635379039321300,1.4453212890625,0.20894715189933777,-2.4063589572906494,-0.9621880650520325
1789635379049360600,1.455360595703125,0.7095049619674683,-2.1631569862365723,-0.5152286291122437
1789635379059400400,1.465400390625,0.791039764881134,-1.1450424194335938,-0.5130102038383484
1789635379069440300,1.475440185546875,0.5225014090538025,-0.10541458427906036,-0.6320337057113647
1789635379079479600,1.4854794921875,0.4715823233127594,0.8097692728042603,-0.7708845138549805
1789635379089519600,1.49551953125,0.4856148660182953,0.6047050952911377,-0.6792736053466797
1789635379099559400,1.505559326171875,0.5279104113578796,-0.11633085459470749,-0.5695263147354126
1789635379109598500,1.515598388671875,0.5939132571220398,-0.5109854936599731,-0.5349798798561096
1789635379119638500,1.525638427734375,0.4919528365135193,-0.7778571248054504,-0.4110107719898224
1789635379129678600,1.5356787109375,0.30043089389801025,-0.7702606320381165,-0.2063431441783905
1789635379139717400,1.54571728515625,0.12948524951934814,-0.48139050602912903,-0.07540376484394073
1789635379149757700,1.5557578125,0.09720401465892792,-0.12187547236680984,-0.09296517819166183
1789635379159797500,1.565797607421875,0.08199895918369293,-0.06299272179603577,-0.1321416199207306
1789635379169836500,1.57583642578125,0.08873634040355682,-0.2841513752937317,-0.06769920140504837
1789635379179876600,1.585876708984375,0.1139676570892334,-0.5145128965377808,-0.016395000740885735
1789635379189916700,1.595916748046875,0.18346081674098969,-0.659019410610199,-0.04959345608949661
1789635379199955500,1.60595556640625,0.3070349395275116,-0.7703036069869995,-0.08824684470891953
1789635379209995500,1.61599560546875,0.4334273040294647,-0.9264073371887207,-0.11183054745197296
1789635379220035600,1.62603564453125,0.5886844992637634,-1.0080227851867676,-0.17943675816059113
1789635379230074600,1.63607470703125,0.7726761102676392,-1.0045702457427979,-0.2533741891384125
1789635379240114400,1.646114501953125,0.9181872010231018,-0.9587160348892212,-0.31083908677101135
1789635379250154500,1.656154541015625,1.0514709949493408,-0.8323416709899902,-0.3401661813259125
1789635379260193500,1.666193603515625,1.1649386882781982,-0.5772334933280945,-0.4235031306743622
1789635379270233600,1.676233642578125,1.1480560302734375,-0.14001375436782837,-0.4945250153541565
1789635379280273400,1.6862734375,0.9971344470977783,-0.1291954666376114,-0.3410342335700989
1789635379290312400,1.6963125,0.8478798270225525,-0.006114737130701542,-0.19566738605499268
1789635379300352500,1.7063525390625,0.6819023489952087,0.3225156366825104,-0.11581995338201523
1789635379310392600,1.716392578125,0.4368177652359009,0.19182659685611725,-0.18498997390270233
1789635379320431400,1.726431396484375,0.5115428566932678,0.27629008889198303,-0.14845086634159088
1789635379330471400,1.736471435546875,0.6009267568588257,0.28985142707824707,-0.20408564805984497
1789635379340511500,1.746511474609375,0.7592759132385254,0.5946936011314392,-0.3384370505809784
1789635379350550500,1.756550537109375,0.9242956042289734,0.9773990511894226,-0.4444655179977417
1789635379360590300,1.76659033203125,1.11519455909729,1.0634667873382568,-0.42470166087150574
1789635379370630400,1.77663037109375,1.2042440176010132,0.9118069410324097,-0.3004356324672699
1789635379380669700,1.786669677734375,1.1198891401290894,0.6650384664535522,-0.21040773391723633
1789635379390709800,1.796709716796875,0.9349690675735474,0.5430521965026855,-0.20229743421077728
1789635379400749600,1.80674951171875,0.8657668232917786,0.3551563322544098,-0.18505239486694336
1789635379410788600,1.81678857421875,0.8636872172355652,0.2599881589412689,-0.03818606585264206
1789635379420828700,1.82682861328125,0.867149293422699,0.1639777421951294,0.042001981288194656
1789635379430868700,1.83686865234375,0.8181209564208984,0.10917280614376068,0.11491069942712784
1789635379440907500,1.846907470703125,0.7046082615852356,0.031806908547878265,0.14286324381828308
1789635379450947600,1.856947509765625,0.5782628655433655,-0.22093896567821503,0.10151679813861847
1789635379460987600,1.866987548828125,0.4703763425350189,-0.3407590985298157,0.0780855044722557
1789635379471026700,1.877026611328125,0.418657511472702,-0.39460650086402893,0.07037851214408875
1789635379481066500,1.88706640625,0.3771798610687256,-0.4773655831813812,0.054482366889715195
1789635379491106600,1.8971064453125,0.36209315061569214,-0.49075186252593994,0.03147076815366745
1789635379501145600,1.9071455078125,0.36816009879112244,-0.5589188933372498,0.004217309877276421
1789635379511185700,1.917185546875,0.382858544588089,-0.6633774638175964,-0.054940804839134216
1789635379521225500,1.9272255859375,0.4020351767539978,-0.8165044188499451,-0.08936163038015366
1789635379531264500,1.937264404296875,0.3824460804462433,-0.9455698728561401,-0.09196202456951141
1789635379541304600,1.9473046875,0.343050479888916,-1.0532094240188599,-0.07991840690374374
1789635379551344600,1.9573447265625,0.27783718705177307,-1.1283807754516602,-0.10245709121227264
1789635379561383400,1.967383544921875,0.21110022068023682,-1.1687878370285034,-0.11103832721710205
1789635379571423500,1.977423583984375,0.16645416617393494,-1.1522444486618042,-0.06630699336528778
1789635379581463600,1.987463623046875,0.10708830505609512,-0.905843198299408,0.005907542537897825
1789635379591502300,1.99750244140625,0.07931963354349136,-0.7701148986816406,0.06231553107500076
1789635379601542400,2.00754248046875,0.09374331682920456,-0.6977133750915527,0.08959881216287613
1789635379611582500,2.01758251953125,0.1330326646566391,-0.524193525314331,0.14101700484752655
1789635379621621500,2.02762158203125,0.07500973343849182,-0.37911128997802734,0.2213011384010315
1789635379631661600,2.03766162109375,-0.06203287094831467,-0.4391592741012573,0.3141764998435974
1789635379641701400,2.047701416015625,-0.2164674550294876,-0.5634732246398926,0.30862727761268616
1789635379651740700,2.05774072265625,-0.5302577018737793,-0.3106403648853302,0.2883359491825104
1789635379661780500,2.067780517578125,-1.0070058107376099,-0.2536473870277405,0.03430287167429924
1789635379671820500,2.077820556640625,-0.6822336912155151,-0.13493333756923676,-0.38162344694137573
1789635379681859600,2.087859619140625,0.07292750477790833,-0.2529846131801605,-0.5134539008140564
1789635379691899600,2.097899658203125,0.2478054314851761,-0.5332882404327393,-0.3314802050590515
1789635379701938700,2.107938720703125,0.19467617571353912,-0.4772643446922302,0.06611377000808716
1789635379711978500,2.117978515625,0.21030880510807037,-0.24150247871875763,0.3057551085948944
1789635379722018600,2.1280185546875,0.03529198840260506,-0.1657579094171524,0.13168954849243164
1789635379732058600,2.13805859375,-0.11224234849214554,-0.1344783753156662,-0.2184036821126938
1789635379742097700,2.14809765625,0.20770768821239471,-0.046978358179330826,-0.4408718943595886
1789635379752137700,2.1581376953125,0.2477007955312729,-0.5081536769866943,-0.45876237750053406
1789635379762177500,2.168177490234375,0.23849983513355255,-0.521325945854187,-0.13612522184848785
1789635379772216600,2.178216552734375,0.3310321569442749,-0.4665883779525757,-0.04559345915913582
1789635379782256600,2.188256591796875,0.3353824317455292,-0.5133537650108337,-0.14210908114910126
1789635379792296700,2.198296630859375,0.278425931930542,-0.44041597843170166,-0.24477386474609375
1789635379802335500,2.20833544921875,0.1972740888595581,-0.4157378077507019,-0.21033573150634766
1789635379812375600,2.21837548828125,0.16678036749362946,-0.3707011044025421,-0.08986231684684753
1789635379822415600,2.22841552734375,0.17245103418827057,-0.3844379484653473,0.014411624521017075
1789635379832454400,2.238454345703125,0.12151094526052475,-0.266395628452301,-0.05601615086197853
1789635379842494500,2.248494384765625,0.08738599717617035,-0.3572797179222107,-0.1723235845565796
1789635379852534500,2.258534423828125,0.08571156114339828,-0.55808025598526,-0.2113693505525589
1789635379862573600,2.268573486328125,0.09028580784797668,-0.591481626033783,-0.2330501526594162
1789635379872613400,2.27861328125,0.10570892691612244,-0.46636033058166504,-0.1630837768316269
1789635379882653400,2.2886533203125,0.12208257615566254,-0.32804983854293823,0.06586125493049622
1789635379892692500,2.2986923828125,0.1739892214536667,-0.1976139396429062,0.23567844927310944
1789635379902732500,2.308732666015625,0.255244642496109,-0.1683546006679535,0.26635435223579407
1789635379912772600,2.318772705078125,0.328737735748291,-0.2640153169631958,0.2682056725025177
1789635379922811400,2.328811279296875,0.3777305781841278,-0.3649384677410126,0.28757643699645996
1789635379932851500,2.3388515625,0.41118118166923523,-0.41650131344795227,0.34677502512931824
1789635379942891500,2.3488916015625,0.4060995876789093,-0.4423193037509918,0.37804266810417175
1789635379952930600,2.3589306640625,0.43062248826026917,-0.3314647376537323,0.35383692383766174
1789635379962970400,2.368970458984375,0.4826822280883789,-0.36243942379951477,0.29414138197898865
1789635379973010400,2.379010498046875,0.5320044755935669,-0.5903596878051758,0.2387327253818512
1789635379983049700,2.3890498046875,0.5853822231292725,-0.6556856632232666,0.18224655091762543
1789635379993089500,2.399089599609375,0.6510217785835266,-0.6204898953437805,0.19507615268230438
1789635380003129600,2.409129638671875,0.7130576968193054,-0.6071045398712158,0.2870873212814331
1789635380013168600,2.419168701171875,0.743550181388855,-0.5521342158317566,0.3437162935733795
1789635380023208700,2.429208740234375,0.7274188995361328,-0.5770100355148315,0.3058626353740692
1789635380033248500,2.43924853515625,0.6629394292831421,-0.6666847467422485,0.1756870150566101
1789635380043287600,2.44928759765625,0.614447832107544,-0.7736647725105286,0.03177830949425697
1789635380053327600,2.45932763671875,0.5587901473045349,-0.9836499691009521,-0.08291737735271454
1789635380063367700,2.46936767578125,0.5372824668884277,-0.9644877314567566,-0.1487794816493988
1789635380073406500,2.479406494140625,0.5375508666038513,-0.6852930784225464,-0.2564559876918793
1789635380083446500,2.489446533203125,0.5146551132202148,-0.6501696705818176,-0.33769410848617554
1789635380093486600,2.499486572265625,0.49833792448043823,-0.992089033126831,-0.4160311222076416
1789635380103525600,2.509525634765625,0.475972443819046,-1.021920919418335,-0.5268756747245789
1789635380113565400,2.5195654296875,0.438780277967453,-0.8250422477722168,-0.6040259003639221
1789635380123605500,2.52960546875,0.40563830733299255,-0.7203578948974609,-0.6632676720619202
1789635380133644500,2.53964453125,0.35515856742858887,-0.6466137766838074,-0.7245179414749146
1789635380143684600,2.5496845703125,0.3227449655532837,-0.5384718775749207,-0.8253846168518066
1789635380153723600,2.5597236328125,0.31633296608924866,-0.6727194786071777,-0.8441038131713867
1789635380163762700,2.5697626953125,0.2932675778865814,-0.8798420429229736,-0.8831667900085449
1789635380173802800,2.579802734375,0.22990410029888153,-0.9674160480499268,-0.8873423337936401
1789635380183842800,2.5898427734375,0.16504813730716705,-0.940355122089386,-0.6549256443977356
1789635380193881900,2.5998818359375,0.10550111532211304,-0.9381009936332703,-0.2559511065483093
1789635380203922000,2.609921875,0.06237334758043289,-0.5300434827804565,0.1291782110929489
1789635380213961700,2.619961669921875,0.04803098365664482,0.09933450818061829,0.10617326200008392
1789635380224001000,2.6300009765625,0.06875277310609818,0.15989957749843597,-0.10369741171598434
1789635380234040800,2.640040771484375,0.1334172487258911,-0.10426788032054901,-0.1826915740966797
1789635380244081000,2.650080810546875,0.1903119683265686,-0.2800498306751251,-0.22550535202026367
1789635380254120000,2.660119873046875,0.11174105107784271,-0.3988858759403229,-0.3034217357635498
1789635380264160000,2.670159912109375,-0.02455953322350979,-0.42013391852378845,-0.2755610942840576
1789635380274199800,2.68019970703125,-0.08631390333175659,-0.38726890087127686,-0.20139405131340027
1789635380284238800,2.69023876953125,-0.0949699729681015,-0.5555399656295776,-0.14888396859169006
1789635380294279000,2.70027880859375,-0.04002320393919945,-0.705193281173706,-0.10198161751031876
1789635380304319000,2.710319091796875,0.062286123633384705,-0.8039941787719727,-0.1310015469789505
1789635380314357800,2.720357666015625,0.16344895958900452,-0.9164519906044006,-0.2014181911945343
1789635380324397800,2.730397705078125,0.1852637231349945,-1.0257949829101562,-0.31560787558555603
1789635380334438000,2.74043798828125,0.10724524408578873,-1.0864380598068237,-0.44463974237442017
1789635380344477000,2.750476806640625,-0.004572106990963221,-1.0504359006881714,-0.5615421533584595
1789635380354516700,2.760516845703125,-0.04471193253993988,-0.8964201807975769,-0.81886887550354
1789635380364556800,2.770556884765625,-0.03930944204330444,-0.7811495661735535,-1.0795912742614746
1789635380374595800,2.780595947265625,-0.028397878631949425,-0.7641286849975586,-1.2384426593780518
1789635380384636000,2.790635986328125,-0.011381079442799091,-0.8683626651763916,-1.2856794595718384
1789635380394675700,2.80067578125,0.03783194720745087,-0.9196909070014954,-1.3155913352966309
1789635380404714800,2.81071484375,0.08633902668952942,-1.0043139457702637,-1.3419626951217651
1789635380414754800,2.8207548828125,0.07503305375576019,-0.9443337321281433,-1.395831823348999
1789635380424795000,2.830794921875,0.04179093986749649,-0.8030818104743958,-1.4937818050384521
1789635380434833700,2.840833740234375,-0.01163544226437807,-0.6405407190322876,-1.503933072090149
1789635380444873700,2.850873779296875,-0.008603166788816452,-0.6063790321350098,-1.4250906705856323
1789635380454913800,2.860913818359375,0.004183171782642603,-0.6065545678138733,-1.3445411920547485
1789635380464952800,2.870952880859375,-0.0035407941322773695,-0.4559192657470703,-1.222647786140442
1789635380474992600,2.88099267578125,-0.016289444640278816,-0.2697274386882782,-0.9379411339759827
1789635380485032700,2.89103271484375,0.04501359164714813,-0.11785615980625153,-0.672970175743103
1789635380495072000,2.901072021484375,0.1821766495704651,0.01901189237833023,-0.4885418713092804
1789635380505111800,2.91111181640625,0.36351633071899414,0.09729817509651184,-0.31128665804862976
1789635380515151600,2.921151611328125,0.4861970841884613,0.13186202943325043,-0.16176442801952362
1789635380525191000,2.93119091796875,0.5311917662620544,0.23451544344425201,-0.17026683688163757
1789635380535231000,2.94123095703125,0.4774615168571472,0.35826289653778076,-0.23017553985118866
1789635380545271000,2.95127099609375,0.3821059465408325,0.5410556197166443,-0.3319796919822693
1789635380555309800,2.961309814453125,0.3212919533252716,0.48563405871391296,-0.39584606885910034
1789635380565350000,2.971349853515625,0.2999805510044098,0.37081000208854675,-0.26172181963920593
1789635380575390000,2.981389892578125,0.2960624396800995,0.29227787256240845,-0.023515380918979645
1789635380585430000,2.991429931640625,0.2905749976634979,0.32621344923973083,0.17758657038211823
1789635380595468800,3.00146875,0.2882906198501587,0.3746645152568817,0.14275392889976501
1789635380605508900,3.0115087890625,0.2436928004026413,0.4270337224006653,-0.032166220247745514
1789635380615549000,3.021548828125,0.13919775187969208,0.6230202913284302,-0.12731415033340454
1789635380625588000,3.031587890625,0.02329963818192482,0.8633679151535034,-0.1322716325521469
1789635380635627800,3.041627685546875,-0.08401695638895035,1.0855212211608887,-0.13785874843597412
1789635380645667800,3.051667724609375,-0.18461386859416962,1.3043217658996582,-0.056028325110673904
1789635380655707000,3.061706787109375,-0.2835945188999176,1.576535701751709,0.1602027714252472
1789635380665747000,3.071746826171875,-0.3511812686920166,1.8381233215332031,0.39676791429519653
1789635380675786800,3.081786865234375,-0.4303494989871979,2.031242847442627,0.6353139281272888
1789635380685825800,3.09182568359375,-0.49130764603614807,2.175414562225342,0.8133800625801086
1789635380695865900,3.101865966796875,-0.5323266983032227,2.322842836380005,0.773543119430542
1789635380705906000,3.111906005859375,-0.5666255354881287,2.5925564765930176,0.5122912526130676
1789635380715944700,3.12194482421875,-0.4834740459918976,2.8423378467559814,0.04627220705151558
1789635380725984800,3.13198486328125,-0.2918907403945923,2.901613712310791,-0.5185839533805847
1789635380736024800,3.14202490234375,-0.27529531717300415,2.936525344848633,-0.9417651295661926
1789635380746064000,3.15206396484375,-0.36934003233909607,2.9309115409851074,-0.8577911257743835
1789635380756103700,3.162103759765625,-0.4878363013267517,2.050410509109497,-0.6463358402252197
1789635380766143700,3.172143798828125,-0.8551818132400513,1.6259338855743408,-0.32474765181541443
1789635380776182800,3.182182861328125,-1.227569580078125,1.5427221059799194,0.2983916401863098
1789635380786222800,3.192222900390625,-1.2210880517959595,1.2499903440475464,0.6737804412841797
1789635380796262700,3.2022626953125,-0.8599835634231567,1.116605281829834,0.8220231533050537
1789635380806302000,3.212302001953125,-0.6026026606559753,1.241468071937561,1.0404285192489624
1789635380816341800,3.222341796875,-0.6037649512290955,1.5301570892333984,1.289691686630249
1789635380826381800,3.2323818359375,-0.6797100305557251,1.8135251998901367,1.4952332973480225
1789635380836420900,3.2424208984375,-0.6103932857513428,1.9011149406433105,1.5656036138534546
1789635380846461000,3.2524609375,-0.409494012594223,1.9074548482894897,1.5414886474609375
1789635380856501000,3.2625009765625,-0.15164457261562347,1.7679781913757324,1.4648942947387695
1789635380866539800,3.272539794921875,0.09296038746833801,1.5812381505966187,1.4407484531402588
1789635380876579800,3.282579833984375,0.33321115374565125,1.4039596319198608,1.4567792415618896
1789635380886620000,3.292619873046875,0.5510947704315186,1.2971746921539307,1.4631907939910889
1789635380896659000,3.302658935546875,0.7440023422241211,1.2751661539077759,1.4663279056549072
1789635380906699000,3.312698974609375,0.8179394006729126,1.3359192609786987,1.4207321405410767
1789635380916738800,3.32273876953125,0.790172815322876,1.3425052165985107,1.3844074010849
1789635380926777900,3.33277783203125,0.7507665157318115,1.3101576566696167,1.3304897546768188
1789635380936818000,3.34281787109375,0.751401960849762,1.241491436958313,1.2372608184814453
1789635380946858000,3.35285791015625,0.7412683367729187,1.084936261177063,1.1646316051483154
1789635380956896800,3.362896728515625,0.7055395841598511,0.8732025027275085,1.114784598350525
1789635380966936800,3.372936767578125,0.6324629783630371,0.6906792521476746,1.0305842161178589
1789635380976977000,3.382976806640625,0.5386509299278259,0.5798228979110718,0.9508851766586304
1789635380987015700,3.393015625,0.49109378457069397,0.5274507403373718,0.8576154112815857
1789635380997055700,3.4030556640625,0.41363662481307983,0.5701401829719543,0.7411448359489441
1789635381007095800,3.413095703125,0.3184557855129242,0.5484750866889954,0.6801486015319824
1789635381017134800,3.423134765625,0.19637013971805573,0.5677623748779297,0.7542978525161743
1789635381027175000,3.4331748046875,0.037868909537792206,0.6217235922813416,0.8920767903327942
1789635381037214700,3.443214599609375,-0.16216669976711273,0.6923784613609314,1.014012336730957
1789635381047253800,3.453253662109375,-0.33581677079200745,0.721464991569519,1.1038564443588257
1789635381057293800,3.4632939453125,-0.4325008988380432,0.7464184165000916,1.1541614532470703
1789635381067334000,3.473333984375,-0.49706709384918213,0.8282935619354248,1.195576548576355
1789635381077372700,3.48337255859375,-0.5959107279777527,0.9131394028663635,1.241665005683899
1789635381087412700,3.493412841796875,-0.7240772247314453,0.845257043838501,1.276696801185608
1789635381097452800,3.503452880859375,-0.7719224095344543,0.5833625793457031,1.2675241231918335
1789635381107492900,3.513492919921875,-0.71321702003479,0.34009668231010437,1.249688982963562
1789635381117532000,3.523531982421875,-0.6323885321617126,0.23089249432086945,1.2083725929260254
1789635381127571700,3.53357177734375,-0.5951436758041382,0.17554481327533722,1.1927284002304077
1789635381137611800,3.54361181640625,-0.5732641816139221,0.09045375138521194,1.2212282419204712
1789635381147650800,3.55365087890625,-0.5091752409934998,0.04070856794714928,1.294298768043518
1789635381157691400,3.56369140625,-0.4107721149921417,0.0821455866098404,1.3558763265609741
1789635381167731500,3.5737314453125,-0.2694014012813568,0.12656764686107635,1.3572800159454346
1789635381177770500,3.5837705078125,-0.14237064123153687,0.09463199973106384,1.2475947141647339
1789635381187810300,3.593810302734375,-0.08389907330274582,-0.0213763564825058,1.052595615386963
1789635381197850400,3.603850341796875,-0.09832592308521271,-0.12492989003658295,0.8681312799453735
1789635381207889400,3.613889404296875,-0.11042679101228714,-0.14938916265964508,0.7792091369628906
1789635381217929500,3.623929443359375,-0.08475854992866516,-0.14904606342315674,0.7772110104560852
1789635381227969500,3.633969482421875,3.197300247848034e-05,-0.13915854692459106,0.7785351872444153
1789635381238008600,3.644008544921875,0.1360500454902649,-0.09940767288208008,0.7521172761917114
1789635381248048400,3.65404833984375,0.2892917990684509,0.1654820442199707,0.7399095892906189
1789635381258088400,3.66408837890625,0.3914441168308258,0.44920411705970764,0.6905134916305542
1789635381268127500,3.67412744140625,0.4118386209011078,0.2551049590110779,0.5533425807952881
1789635381278167600,3.68416748046875,0.4352569282054901,-0.008094970136880875,0.4359745383262634
1789635381288207600,3.69420751953125,0.44065356254577637,0.015654832124710083,0.3989270329475403
1789635381298246400,3.704246337890625,0.3618345260620117,-0.12248904258012772,0.3260522782802582
1789635381308286500,3.714286376953125,0.2325516641139984,-0.34573492407798767,0.17196416854858398
1789635381318326500,3.724326416015625,0.15615570545196533,-0.06857100129127502,0.15842558443546295
1789635381328365300,3.734365234375,0.20136100053787231,0.48035818338394165,0.3692384660243988
1789635381338405400,3.7444052734375,0.3621087670326233,0.6590834259986877,0.575890064239502
1789635381348445400,3.754445556640625,0.5828081369400024,0.5122390985488892,0.645289957523346
1789635381358484500,3.764484375,0.646300196647644,0.3486195504665375,0.679478645324707
1789635381368524300,3.774524169921875,0.5532059669494629,0.28817218542099,0.7164105772972107
1789635381378564400,3.784564453125,0.3891070485115051,-0.12530341744422913,0.6094459891319275
1789635381388603400,3.794603271484375,0.22890859842300415,-0.588379979133606,0.47944778203964233
1789635381398643500,3.8046435546875,0.09929917752742767,-0.1716814786195755,0.5052856802940369
1789635381408683300,3.814683349609375,0.065670907497406,0.8458966016769409,0.6387888789176941
1789635381418722300,3.824722412109375,0.12616772949695587,1.1801468133926392,0.7322463393211365
1789635381428762400,3.834762451171875,0.28968051075935364,0.8586457371711731,0.7343603372573853
1789635381438802400,3.844802490234375,0.4609314203262329,0.5029576420783997,0.6543720960617065
1789635381448841200,3.85484130859375,0.4973011612892151,0.37419572472572327,0.6243873238563538
1789635381458881300,3.86488134765625,0.36049264669418335,0.3446855843067169,0.6203977465629578
1789635381468921300,3.87492138671875,0.22231639921665192,0.3032510578632355,0.5664737820625305
1789635381478960600,3.884960693359375,0.17885491251945496,0.18156829476356506,0.5107111930847168
1789635381489000400,3.89500048828125,0.18682442605495453,0.14331571757793427,0.5203709602355957
1789635381499040300,3.905040283203125,0.24907071888446808,0.2748367190361023,0.5892640948295593
1789635381509079600,3.91507958984375,0.3381209671497345,0.28465551137924194,0.6202254891395569
1789635381519119600,3.92511962890625,0.36354291439056396,0.2311488837003708,0.6572267413139343
1789635381529159400,3.935159423828125,0.31950461864471436,0.2812993824481964,0.7522369027137756
1789635381539198500,3.945198486328125,0.25817739963531494,0.3591899573802948,0.8742501735687256
1789635381549238500,3.955238525390625,0.16926003992557526,0.4755735695362091,0.9296095371246338
1789635381559278600,3.965278564453125,0.13020852208137512,0.492406964302063,0.9016386866569519
1789635381569317400,3.9753173828125,0.2038707584142685,0.2442733347415924,0.7736024260520935
1789635381579357400,3.985357421875,0.30383676290512085,-0.13747096061706543,0.6196067929267883
1789635381589397500,3.9953974609375,0.3293197453022003,-0.19962036609649658,0.527870774269104
1789635381599437600,4.0054375,0.1825568825006485,0.11091923713684082,0.4714658856391907
1789635381609476400,4.015476318359375,-0.015382829122245312,0.507066011428833,0.3986659646034241
1789635381619516400,4.025516357421875,-0.0454658605158329,0.6058734655380249,0.3326570391654968
1789635381629556500,4.035556396484375,-0.02528735250234604,0.5356237888336182,0.2737676203250885
1789635381639595500,4.045595458984375,0.04010092839598656,0.5235987901687622,0.21499155461788177
1789635381649635300,4.05563525390625,0.16062840819358826,0.2669236660003662,0.10640940070152283
1789635381659675400,4.06567529296875,0.2568139135837555,-0.024065827950835228,-0.03048669919371605
1789635381669714400,4.07571435546875,0.24437668919563293,-0.04792668670415878,-0.050910480320453644
1789635381679754500,4.08575439453125,0.14145427942276,0.22890028357505798,0.08026906102895737
1789635381689794300,4.095794189453125,0.03778061643242836,0.6738391518592834,0.19258281588554382
1789635381699833300,4.105833251953125,0.1003015860915184,0.7542071342468262,0.2362913340330124
1789635381709873400,4.115873291015625,0.2345573902130127,0.32814711332321167,0.19671329855918884
1789635381719913500,4.12591357421875,0.2788562774658203,0.03322526812553406,0.12255687266588211
1789635381729952300,4.1359521484375,0.1848384439945221,0.22805440425872803,0.08111276477575302
1789635381739992300,4.145992431640625,0.04477505013346672,0.6476657390594482,0.06547574698925018
1789635381750032400,4.156032470703125,0.01660333387553692,0.7902956008911133,0.04583919793367386
1789635381760071400,4.166071533203125,0.09088042378425598,0.3388102948665619,-0.005278229713439941
1789635381770111200,4.176111328125,0.10091841220855713,0.07102598994970322,-0.06987480074167252
1789635381780151300,4.1861513671875,0.0894027054309845,0.02337634190917015,-0.13243652880191803
1789635381790190300,4.1961904296875,0.052794892340898514,-0.036233726888895035,-0.1869889795780182
1789635381800230400,4.20623046875,-0.07043556123971939,-0.043132051825523376,-0.24369531869888306
1789635381810270200,4.216270263671875,-0.16126692295074463,0.0714523196220398,-0.294318825006485
1789635381820309500,4.2263095703125,-0.19946740567684174,0.2490580677986145,-0.30842018127441406
1789635381830349600,4.236349609375,-0.1658085137605667,0.26379600167274475,-0.30914241075515747
1789635381840389400,4.246389404296875,-0.1406552493572235,-0.0013392642140388489,-0.26938992738723755
1789635381850428400,4.256428466796875,-0.20302967727184296,-0.15337486565113068,-0.18389740586280823
1789635381860468500,4.266468505859375,-0.2658737301826477,-0.18874980509281158,-0.08777356147766113
1789635381870508500,4.276508544921875,-0.3002498149871826,-0.2671807110309601,-0.026332303881645203
1789635381880547600,4.286547607421875,-0.3612370193004608,-0.37725117802619934,-0.018495485186576843
1789635381890587400,4.29658740234375,-0.39199039340019226,-0.40942057967185974,-0.028667427599430084
1789635381900627500,4.30662744140625,-0.4431343972682953,-0.30434665083885193,-0.04447925463318825
1789635381910666500,4.31666650390625,-0.4699084758758545,-0.1500667929649353,-0.10326506942510605
1789635381920706600,4.32670654296875,-0.4929838478565216,-0.03994221240282059,-0.1881941705942154
1789635381930746400,4.336746337890625,-0.45126011967658997,-0.08053650707006454,-0.2724184989929199
1789635381940785400,4.346785400390625,-0.42818886041641235,-0.11563923209905624,-0.3399510085582733
1789635381950825500,4.356825439453125,-0.4381679892539978,0.04713636636734009,-0.3816414773464203
1789635381960865500,4.366865478515625,-0.4099751114845276,0.2063492387533188,-0.4104922115802765
1789635381970905300,4.3769052734375,-0.342433363199234,0.25217530131340027,-0.4370338022708893
1789635381980944400,4.3869443359375,-0.2600642442703247,0.21510381996631622,-0.44298169016838074
1789635381990984400,4.396984375,-0.1517271101474762,0.09956575930118561,-0.4364880919456482
1789635382001024500,4.4070244140625,-0.020250584930181503,-0.07302984595298767,-0.4126063883304596
1789635382011063300,4.417063232421875,0.07616330683231354,-0.2838565707206726,-0.4143366515636444
1789635382021103400,4.427103271484375,0.12917575240135193,-0.5164613127708435,-0.4520746171474457
1789635382031143400,4.437143310546875,0.12109013646841049,-0.7430787086486816,-0.5102382898330688
1789635382041182500,4.447182373046875,0.030981246381998062,-0.8425106406211853,-0.603571891784668
1789635382051222300,4.45722216796875,-0.09165332466363907,-0.697421669960022,-0.6722273826599121
1789635382061262300,4.467262451171875,-0.20257152616977692,-0.3933924436569214,-0.6876998543739319
1789635382071301400,4.47730126953125,-0.2882603406906128,-0.1322479546070099,-0.6111036539077759
1789635382081341400,4.487341552734375,-0.3333677053451538,0.0015055406838655472,-0.4564407765865326
1789635382091381200,4.49738134765625,-0.34721294045448303,-0.006550787948071957,-0.2735394239425659
1789635382101420300,4.507420166015625,-0.3223550021648407,-0.007835229858756065,-0.13353756070137024
1789635382111460400,4.51746044921875,-0.2635401487350464,-0.027074705809354782,-0.0804317370057106
1789635382121500400,4.52750048828125,-0.18178464472293854,-0.14172130823135376,-0.08055627346038818
1789635382131539500,4.53753955078125,-0.11147773265838623,-0.27887436747550964,-0.12546409666538239
1789635382141579300,4.547579345703125,-0.05297807231545448,-0.4193657636642456,-0.22269967198371887
1789635382151619300,4.557619384765625,-0.041861772537231445,-0.5926717519760132,-0.3424755930900574
1789635382161659000,4.567658935546875,-0.06688306480646133,-0.6609035134315491,-0.45334798097610474
1789635382171698700,4.57769873046875,-0.07019124180078506,-0.6051384806632996,-0.5451796054840088
1789635382181738500,4.587738525390625,-0.08182020485401154,-0.4321643114089966,-0.6199795603752136
1789635382191777800,4.59777783203125,-0.05052027106285095,-0.18057239055633545,-0.7171155214309692
1789635382201817900,4.60781787109375,0.00398600660264492,-0.039762843400239944,-0.8104844689369202
1789635382211857700,4.617857666015625,0.07867542654275894,-0.085760697722435,-0.9267197251319885
1789635382221896700,4.627896728515625,0.11187253147363663,-0.10675427317619324,-1.0073888301849365
1789635382231936800,4.637936767578125,0.09149136394262314,0.0714317113161087,-1.0408103466033936
1789635382241976800,4.647976806640625,0.04182334244251251,0.2863720655441284,-1.020678162574768
1789635382252015600,4.658015625,-0.010858513414859772,0.32550108432769775,-0.9758602976799011
1789635382262055700,4.6680556640625,-0.054290372878313065,0.26426640152931213,-0.9256563782691956
1789635382272095700,4.678095703125,-0.08501579612493515,0.18269748985767365,-0.8983219265937805
1789635382282135800,4.6881357421875,-0.08714888989925385,-0.0255332849919796,-0.8881809711456299
1789635382292174600,4.698174560546875,-0.0478275790810585,-0.3698374032974243,-0.8706547021865845
1789635382302214700,4.708214599609375,-0.028447892516851425,-0.5648871064186096,-0.8109081387519836
1789635382312254700,4.718254638671875,-0.03240535035729408,-0.4717148244380951,-0.7471826672554016
1789635382322293800,4.728293701171875,-0.05371354520320892,-0.33775418996810913,-0.7281625866889954
1789635382332333600,4.73833349609375,-0.07906071841716766,-0.3424094021320343,-0.750458300113678
1789635382342373600,4.74837353515625,-0.11389996856451035,-0.36604592204093933,-0.8097637891769409
1789635382352412700,4.75841259765625,-0.14878977835178375,-0.31145113706588745,-0.8971958756446838
1789635382362452700,4.76845263671875,-0.16105149686336517,-0.23710647225379944,-0.9195864796638489
1789635382372492500,4.778492431640625,-0.13497649133205414,-0.2474997192621231,-0.8671853542327881
1789635382382531600,4.788531494140625,-0.10869099944829941,-0.3490188419818878,-0.7625012397766113
1789635382392571600,4.798571533203125,-0.13162560760974884,-0.3917660415172577,-0.6583250761032104
1789635382402611700,4.80861181640625,-0.19821707904338837,-0.43077558279037476,-0.6203098297119141
1789635382412650500,4.818650390625,-0.26160991191864014,-0.5592901706695557,-0.6224971413612366
1789635382422690600,4.828690673828125,-0.3206624686717987,-0.6395719647407532,-0.6374296545982361
1789635382432730600,4.838730712890625,-0.3696632981300354,-0.5072888135910034,-0.6232291460037231
1789635382442769700,4.848769775390625,-0.40647685527801514,-0.44176924228668213,-0.5936925411224365
1789635382452809500,4.8588095703125,-0.40903162956237793,-0.5774456262588501,-0.5828148722648621
1789635382462849500,4.868849609375,-0.38756197690963745,-0.7061755061149597,-0.6024957299232483
1789635382472888800,4.878888916015625,-0.3618299961090088,-0.6369399428367615,-0.6146439909934998
1789635382482928600,4.8889287109375,-0.306667685508728,-0.49883708357810974,-0.6563137769699097
1789635382492968400,4.898968505859375,-0.2347295731306076,-0.4559980034828186,-0.700373649597168
1789635382503007700,4.9090078125,-0.19613498449325562,-0.5296584963798523,-0.7418189644813538
1789635382513047800,4.9190478515625,-0.22739197313785553,-0.6057977080345154,-0.8131240606307983
1789635382523087600,4.929087646484375,-0.27370044589042664,-0.6117146611213684,-0.9237002730369568
1789635382533126700,4.939126708984375,-0.26812008023262024,-0.54413241147995,-0.9903964996337891
1789635382543166700,4.949166748046875,-0.2252354770898819,-0.44189485907554626,-0.995089054107666
1789635382553206800,4.959206787109375,-0.21157719194889069,-0.3646692931652069,-0.9463132619857788
1789635382563245800,4.969245849609375,-0.19892257452011108,-0.3594086766242981,-0.8857805132865906
1789635382573285600,4.97928564453125,-0.17741967737674713,-0.3732142448425293,-0.830668032169342
1789635382583325700,4.98932568359375,-0.17163239419460297,-0.3250424861907959,-0.7786471843719482
1789635382593365800,4.99936572265625,-0.14520078897476196,-0.2759098410606384,-0.7832847833633423
1789635382603404800,5.00940478515625,-0.08693862706422806,-0.2809703052043915,-0.829230785369873
1789635382613444600,5.019444580078125,-0.021507952362298965,-0.34033694863319397,-0.8850650191307068
1789635382623484700,5.029484619140625,0.019612081348896027,-0.3063260018825531,-0.9784668684005737
1789635382633523700,5.039523681640625,0.08578790724277496,-0.1032855212688446,-1.076982855796814
1789635382643563800,5.049563720703125,0.16561953723430634,-0.1519995629787445,-1.1053026914596558
1789635382653603600,5.059603515625,0.17255787551403046,-0.38940170407295227,-1.057394027709961
1789635382663642600,5.069642578125,0.06880157440900803,-0.48368898034095764,-1.0152791738510132
1789635382673682700,5.0796826171875,-0.0031786090694367886,-0.4293711483478546,-1.0406574010849
1789635382683722800,5.08972265625,0.05870212987065315,-0.32054904103279114,-1.0606706142425537
1789635382693761500,5.099761474609375,0.16146445274353027,-0.4296875298023224,-0.9920936226844788
1789635382703801600,5.109801513671875,0.20944905281066895,-0.4140496850013733,-0.837788999080658
1789635382713841700,5.119841552734375,0.21932671964168549,-0.2091713696718216,-0.7327907085418701
1789635382723880700,5.129880615234375,0.24105164408683777,0.006752089597284794,-0.7755277752876282
1789635382733920500,5.13992041015625,0.27003881335258484,0.059315431863069534,-0.8707291483879089
1789635382743960600,5.149960693359375,0.2799178659915924,-0.03909473493695259,-0.9770390391349792
1789635382753999600,5.15999951171875,0.22336271405220032,-0.26530709862709045,-1.056161880493164
1789635382764039700,5.170039794921875,0.1050829365849495,-0.43675515055656433,-1.0872488021850586
1789635382774079500,5.18007958984375,-0.010663372464478016,-0.4407655894756317,-1.0978825092315674
1789635382784118500,5.190118408203125,-0.11425366997718811,-0.36987876892089844,-1.1115039587020874
1789635382794158600,5.20015869140625,-0.1797964721918106,-0.2861649692058563,-1.1350297927856445
1789635382804198700,5.21019873046875,-0.23603391647338867,-0.2278091311454773,-1.1432204246520996
1789635382814238500,5.220238525390625,-0.26618701219558716,0.020149551331996918,-1.128521203994751
1789635382824277800,5.23027783203125,-0.212341770529747,0.32922080159187317,-1.085328459739685
1789635382834317600,5.240317626953125,-0.1467403918504715,0.42778465151786804,-1.0524640083312988
1789635382844357600,5.250357666015625,-0.13182593882083893,0.4651471674442291,-0.9840019941329956
1789635382854396700,5.260396728515625,-0.13877332210540771,0.6611393094062805,-0.944970965385437
1789635382864436700,5.270436767578125,-0.13064464926719666,0.6548781394958496,-0.9739795923233032
1789635382874476500,5.2804765625,-0.1405598670244217,0.4380805790424347,-1.0049188137054443
1789635382884515800,5.290515869140625,-0.1439831703901291,0.31957149505615234,-0.8709837794303894
1789635382894555600,5.3005556640625,-0.15898317098617554,0.31962502002716064,-0.5463929176330566
1789635382904595700,5.310595703125,-0.2149835079908371,0.5036806464195251,-0.24233894050121307
1789635382914634800,5.320634765625,-0.16736990213394165,0.6550232768058777,-0.05314239114522934
1789635382924674800,5.3306748046875,-0.053979046642780304,0.6204751133918762,0.07312436401844025
1789635382934714600,5.340714599609375,-0.03807145357131958,0.5106096267700195,0.19228938221931458
1789635382944753700,5.350753662109375,-0.04519340768456459,0.6052746176719666,0.33553236722946167
1789635382954793700,5.360793701171875,-0.09050123393535614,0.5873308181762695,0.44808661937713623
1789635382964833800,5.370833740234375,-0.17133577167987823,0.48873597383499146,0.5190504789352417
1789635382974872600,5.38087255859375,-0.21234339475631714,0.40838414430618286,0.5876159071922302
1789635382984912600,5.39091259765625,-0.24503691494464874,0.3901461362838745,0.6507972478866577
1789635382994952700,5.40095263671875,-0.27561211585998535,0.3744649291038513,0.6483487486839294
1789635383004991700,5.41099169921875,-0.24989809095859528,0.35416024923324585,0.5977079272270203
1789635383015031600,5.421031494140625,-0.16656963527202606,0.26574546098709106,0.5929278135299683
1789635383025071600,5.431071533203125,-0.10342053323984146,0.2209148406982422,0.8067306280136108
1789635383035111700,5.441111572265625,-0.07994823157787323,0.46918269991874695,1.1619372367858887
1789635383045150700,5.451150634765625,-0.02186451107263565,0.7420469522476196,1.3824867010116577
1789635383055190500,5.4611904296875,0.06501978635787964,0.7595180869102478,1.3764327764511108
1789635383065230600,5.471230712890625,0.12968648970127106,0.7539313435554504,1.333695888519287
1789635383075269600,5.48126953125,0.17545637488365173,0.6507136225700378,1.337717056274414
1789635383085309700,5.491309814453125,0.16399329900741577,0.6299514770507812,1.4054499864578247
1789635383095349500,5.501349609375,0.14635224640369415,0.6978591084480286,1.4457277059555054
1789635383105388500,5.511388427734375,0.16460083425045013,0.655038595199585,1.4251933097839355
1789635383115428600,5.5214287109375,0.21282029151916504,0.5910939574241638,1.425994634628296
1789635383125468700,5.53146875,0.26552554965019226,0.6263973712921143,1.4717848300933838
1789635383135507500,5.541507568359375,0.3535161018371582,0.5691468715667725,1.4931108951568604
1789635383145547500,5.551547607421875,0.44028735160827637,0.4629734754562378,1.4806662797927856
1789635383155587000,5.561587158203125,0.4803479313850403,0.4369663894176483,1.4416522979736328
1789635383165626000,5.571626220703125,0.47211140394210815,0.40939486026763916,1.3926665782928467
1789635383175666200,5.581666259765625,0.44765347242355347,0.38876280188560486,1.3536113500595093
1789635383185706200,5.591706298828125,0.4012109339237213,0.3111880123615265,1.2702606916427612
1789635383195745300,5.601745361328125,0.3595902621746063,0.1404050886631012,1.1743501424789429
1789635383205785300,5.611785400390625,0.3038720488548279,0.18583416938781738,1.1730729341506958
1789635383215825200,5.6218251953125,0.24598583579063416,0.3307812213897705,1.2728158235549927
1789635383225864200,5.6318642578125,0.2514493763446808,0.27742165327072144,1.3800500631332397
1789635383235904300,5.641904296875,0.3269835412502289,0.162801593542099,1.4265233278274536
1789635383245944300,5.6519443359375,0.38861480355262756,0.2224191576242447,1.453194499015808
1789635383255984000,5.661984130859375,0.4431017339229584,0.35449305176734924,1.4624327421188354
1789635383266023200,5.672023193359375,0.48009806871414185,0.21921829879283905,1.449218511581421
1789635383276063200,5.682063232421875,0.4308684766292572,0.12559379637241364,1.4806240797042847
1789635383286103300,5.692103271484375,0.3701446056365967,0.06796509027481079,1.4985532760620117
1789635383296142000,5.70214208984375,0.3795873522758484,-0.08202467113733292,1.4868769645690918
1789635383306182100,5.71218212890625,0.4315871298313141,-0.18981599807739258,1.5013363361358643
1789635383316222200,5.72222216796875,0.4232724905014038,-0.057389263063669205,1.5175819396972656
1789635383326261200,5.73226123046875,0.36491668224334717,0.06684916466474533,1.486902117729187
1789635383336301000,5.742301025390625,0.3196096420288086,0.012285522185266018,1.4417047500610352
1789635383346341000,5.752341064453125,0.2974292039871216,-0.07825440168380737,1.4432806968688965
1789635383356380200,5.762380126953125,0.2672595679759979,-0.06485550105571747,1.47799551486969
1789635383366420200,5.772420166015625,0.2451592981815338,-0.12025979161262512,1.4582582712173462
1789635383376460000,5.7824599609375,0.2151329517364502,-0.20383724570274353,1.4105688333511353
1789635383386499000,5.7924990234375,0.20469512045383453,-0.22728215157985687,1.3973764181137085
1789635383396539100,5.8025390625,0.20425650477409363,-0.1305641382932663,1.4360705614089966
1789635383406579200,5.8125791015625,0.19632135331630707,0.06472881138324738,1.4995412826538086
1789635383416618000,5.822617919921875,0.18684743344783783,0.1753397434949875,1.5127696990966797
1789635383426658000,5.832657958984375,0.18420331180095673,-0.00794881209731102,1.4357258081436157
1789635383436698000,5.842697998046875,0.14816966652870178,-0.22413091361522675,1.3577133417129517
1789635383446737200,5.852737060546875,0.09910500794649124,-0.02760275825858116,1.3768293857574463
1789635383456777200,5.862777099609375,0.10797040909528732,0.2566241919994354,1.4247311353683472
1789635383466817000,5.872817138671875,0.16045698523521423,0.2650177478790283,1.3530114889144897
1789635383476857000,5.882857177734375,0.19025428593158722,0.0030388720333576202,1.1520700454711914
1789635383486896400,5.892896484375,0.23397260904312134,-0.10281439125537872,0.9594981670379639
1789635383496936200,5.902936279296875,0.25531652569770813,0.03988576680421829,0.9004713296890259
1789635383506976000,5.91297607421875,0.21046395599842072,0.16448768973350525,0.8016923666000366
1789635383517015300,5.923015380859375,0.14584209024906158,0.08488047868013382,0.5865821838378906
1789635383527055400,5.933055419921875,0.12211192399263382,-0.03913244977593422,0.34693479537963867
1789635383537095200,5.94309521484375,0.13851965963840485,0.08374074846506119,0.2369805872440338
1789635383547134200,5.95313427734375,0.14938123524188995,0.3392965495586395,0.22192203998565674
1789635383557174300,5.96317431640625,0.17762619256973267,0.5220801830291748,0.2120092213153839
1789635383567214300,5.97321435546875,0.2068796008825302,0.5077326893806458,0.18751761317253113
1789635383577253000,5.983253173828125,0.22369639575481415,0.4573051631450653,0.1529015749692917
1789635383587293200,5.993293212890625,0.23021535575389862,0.4089013338088989,0.12792423367500305
1789635383597333200,6.003333251953125,0.2043435424566269,0.3082359731197357,0.11351440846920013
1789635383607372300,6.013372314453125,0.17592604458332062,0.1607288420200348,0.10522358119487762
1789635383617412000,6.023412109375,0.19546246528625488,-0.1397753357887268,0.09687163680791855
1789635383627452200,6.0334521484375,0.1870904564857483,-0.44391369819641113,0.10137839615345001
1789635383637491200,6.0434912109375,0.0901612639427185,-0.37399986386299133,0.10365140438079834
1789635383647531300,6.05353125,0.01111342292279005,-0.2095205932855606,0.10171192139387131
1789635383657571000,6.063571044921875,-0.003812529845163226,-0.1666564792394638,0.08691033720970154
1789635383667611100,6.073611083984375,-0.04784068837761879,-0.09065292775630951,0.013560029678046703
1789635383677650200,6.083650146484375,-0.11252620816230774,0.09213552623987198,-0.15029467642307281
1789635383687690200,6.093690185546875,-0.1542404294013977,0.2930589020252228,-0.33399999141693115
1789635383697730000,6.10372998046875,-0.1841360181570053,0.3928496539592743,-0.4590529799461365
1789635383707769000,6.11376904296875,-0.21790875494480133,0.22048035264015198,-0.505056619644165
1789635383717809200,6.12380908203125,-0.2257714718580246,0.0337754487991333,-0.5000532865524292
1789635383727849200,6.13384912109375,-0.20374709367752075,0.013608677312731743,-0.4721660315990448
1789635383737888000,6.143887939453125,-0.1569870412349701,0.015681948512792587,-0.4241196811199188
1789635383747928000,6.153927978515625,-0.14790746569633484,-0.0277487151324749,-0.37119370698928833
1789635383757968100,6.163968017578125,-0.1604355126619339,-0.05416087806224823,-0.3162473440170288
1789635383768007200,6.174007080078125,-0.158662810921669,-0.15920309722423553,-0.28367799520492554
1789635383778047000,6.184046875,-0.1283901333808899,-0.26205703616142273,-0.26535382866859436
1789635383788087000,6.194087158203125,-0.09986752271652222,-0.1732378602027893,-0.2735481560230255
1789635383798126300,6.204126220703125,-0.08748116344213486,0.06518908590078354,-0.3229662775993347
1789635383808166100,6.214166259765625,-0.08610036224126816,0.24449728429317474,-0.4255271553993225
1789635383818206000,6.2242060546875,-0.11282838135957718,0.32369834184646606,-0.521874725818634
1789635383828245200,6.234245361328125,-0.0945172980427742,0.2714579403400421,-0.5702729225158691
1789635383838285300,6.244285400390625,-0.021504608914256096,-0.0648694857954979,-0.5550862550735474
1789635383848325400,6.254325439453125,-0.008996116928756237,-0.28249508142471313,-0.5422643423080444
1789635383858365200,6.264365234375,-0.026043541729450226,-0.08403632044792175,-0.6216236352920532
1789635383868404200,6.274404296875,-0.004648999311029911,-0.016848597675561905,-0.7126584649085999
1789635383878444300,6.2844443359375,0.02101055718958378,-0.1938910186290741,-0.7601077556610107
1789635383888484400,6.294484375,-0.004015393555164337,-0.16171321272850037,-0.7720233798027039
1789635383898523100,6.304523193359375,0.0014036066131666303,0.037048086524009705,-0.7772298455238342
1789635383908563200,6.314563232421875,0.02097492106258869,0.04184096306562424,-0.7490862011909485
1789635383918603300,6.324603271484375,0.00640236958861351,0.025699809193611145,-0.7113580107688904
1789635383928642300,6.334642333984375,-0.046894002705812454,0.05376586690545082,-0.7293105721473694
1789635383938682000,6.34468212890625,-0.09576966613531113,0.13145799934864044,-0.8071598410606384
1789635383948722200,6.35472216796875,-0.11715556681156158,0.17362307012081146,-0.8936471939086914
1789635383958761200,6.36476123046875,-0.12753631174564362,0.1623600274324417,-0.952342689037323
1789635383968801300,6.37480126953125,-0.1121426448225975,0.09829133003950119,-0.9922691583633423
1789635383978841000,6.384841064453125,-0.07551193237304688,-0.008181852288544178,-0.9917532801628113
1789635383988880100,6.394880126953125,-0.020839549601078033,-0.14426666498184204,-0.9355795979499817
1789635383998920200,6.404920166015625,0.016959762200713158,-0.3438154458999634,-0.8652631044387817
1789635384008960300,6.414960205078125,0.021697603166103363,-0.5155702829360962,-0.7971604466438293
1789635384018999000,6.4249990234375,-0.03493744507431984,-0.5351040363311768,-0.7463513016700745
1789635384029039000,6.4350390625,-0.09895426779985428,-0.4050084948539734,-0.7648153305053711
1789635384039079200,6.4450791015625,-0.13741004467010498,-0.30212393403053284,-0.8133333325386047
1789635384049119200,6.455119140625,-0.1357073187828064,-0.23484960198402405,-0.8594807386398315
1789635384059158000,6.465157958984375,-0.1225462481379509,-0.13033650815486908,-0.9026260375976562
1789635384069198000,6.475197998046875,-0.10035579651594162,-0.10259746015071869,-0.9992401599884033
1789635384079238100,6.485238037109375,-0.08887703716754913,-0.22829225659370422,-1.1228171586990356
1789635384089277200,6.495277099609375,-0.09331438690423965,-0.3011349141597748,-1.2013424634933472
1789635384099317000,6.50531689453125,-0.11572249233722687,-0.4330942928791046,-1.1955788135528564
1789635384109357000,6.515357177734375,-0.17597468197345734,-0.3481578230857849,-1.1153184175491333
1789635384119396000,6.52539599609375,-0.24335798621177673,-0.2038070410490036,-1.0605717897415161
1789635384129436200,6.535436279296875,-0.2813864052295685,-0.34850698709487915,-1.0513485670089722
1789635384139476000,6.54547607421875,-0.3248971402645111,-0.5190798044204712,-1.0358068943023682
1789635384149515300,6.555515380859375,-0.3678571879863739,-0.4877771735191345,-1.0269337892532349
1789635384159555300,6.565555419921875,-0.32931405305862427,-0.4467357397079468,-0.9806277751922607
1789635384169595400,6.575595458984375,-0.276480495929718,-0.3795272707939148,-0.909568190574646
1789635384179634700,6.585634765625,-0.2740226686000824,-0.38031476736068726,-0.8929428458213806
1789635384189674500,6.595674560546875,-0.2710748016834259,-0.5174762606620789,-0.9512133002281189
1789635384199714300,6.60571435546875,-0.28719863295555115,-0.4484548568725586,-1.0637714862823486
1789635384209753600,6.615753662109375,-0.2772650420665741,-0.2856622338294983,-1.1371210813522339
1789635384219793700,6.625793701171875,-0.17472508549690247,-0.2654179334640503,-1.0975099802017212
1789635384229833500,6.63583349609375,-0.055751822888851166,-0.4149755537509918,-0.996250331401825
1789635384239873500,6.64587353515625,-0.01498948223888874,-0.5815166234970093,-0.9337520599365234
1789635384249912600,6.65591259765625,-0.021524492651224136,-0.6452481746673584,-0.95731520652771
1789635384259952600,6.66595263671875,-0.05408936366438866,-0.56085604429245,-1.0604902505874634
1789635384269992400,6.675992431640625,-0.05455320328474045,-0.514542281627655,-1.1797606945037842
1789635384280031500,6.686031494140625,-0.022639747709035873,-0.6203638315200806,-1.2290922403335571
1789635384290071600,6.696071533203125,0.007796802558004856,-0.7105652689933777,-1.2329365015029907
1789635384300111600,6.706111572265625,-0.0025602311361581087,-0.5954530239105225,-1.2468379735946655
1789635384310150400,6.716150390625,-0.003794864285737276,-0.4703598618507385,-1.3356877565383911
1789635384320190500,6.7261904296875,0.0018931148806586862,-0.3892498314380646,-1.4582700729370117
1789635384330230500,6.73623046875,-0.022056711837649345,-0.36711323261260986,-1.610355019569397
1789635384340269600,6.74626953125,-0.1026008203625679,-0.40677061676979065,-1.7820192575454712
1789635384350309400,6.756309326171875,-0.11291296780109406,-0.5978941917419434,-1.8911629915237427
1789635384360349400,6.766349365234375,-0.08498067408800125,-0.8027077913284302,-1.830217957496643
1789635384370388500,6.776388427734375,-0.11568387597799301,-0.7660652995109558,-1.6829959154129028
1789635384380428500,6.786428466796875,-0.15337640047073364,-0.538768470287323,-1.6190032958984375
1789635384390468400,6.79646826171875,-0.1499549001455307,-0.3614961802959442,-1.6210551261901855
1789635384400508400,6.80650830078125,-0.12656329572200775,-0.22684462368488312,-1.6329197883605957
1789635384410547500,6.81654736328125,-0.07390996068716049,-0.200531005859375,-1.603788137435913
1789635384420587500,6.82658740234375,-0.0319550521671772,-0.17322561144828796,-1.545659065246582
1789635384430627300,6.83662744140625,-0.03735165297985077,-0.0643656998872757,-1.4610143899917603
1789635384440666400,6.846666259765625,-0.07686017453670502,-0.005012360401451588,-1.3074456453323364
1789635384450706400,6.85670654296875,-0.13554011285305023,-0.03404554724693298,-1.1090971231460571
1789635384460746500,6.86674658203125,-0.20284351706504822,-0.02577190473675728,-0.9190467596054077
1789635384470785300,6.876785400390625,-0.23828423023223877,0.05038474127650261,-0.7736778855323792
1789635384480825300,6.886825439453125,-0.16891661286354065,0.32231080532073975,-0.6874799132347107
1789635384490865400,6.896865478515625,-0.06944084912538528,0.505763053894043,-0.6639733910560608
1789635384500904400,6.906904541015625,0.006804921198636293,0.44888269901275635,-0.603431761264801
1789635384510944300,6.9169443359375,0.03732500597834587,0.25750941038131714,-0.4592210352420807
1789635384520984300,6.926984375,0.07828149199485779,0.293270081281662,-0.28085821866989136
1789635384531023600,6.937023681640625,0.1049104779958725,0.30558788776397705,-0.15780586004257202
1789635384541063400,6.9470634765625,0.06087830290198326,0.18536826968193054,-0.08329141139984131
1789635384551103200,6.957103271484375,-0.03699706494808197,-0.1254606992006302,0.0504583865404129
1789635384561143300,6.967143310546875,-0.1402030736207962,-0.17365245521068573,0.22936981916427612
1789635384571182600,6.9771826171875,-0.16741052269935608,0.15175771713256836,0.26918694376945496
1789635384581222700,6.98722265625,-0.12127231806516647,0.420836865901947,0.1704861968755722
1789635384591262500,6.997262451171875,-0.05401954799890518,0.34387025237083435,0.14952346682548523
1789635384601301500,7.007301513671875,-0.030166946351528168,0.22075580060482025,0.30841004848480225
1789635384611341600,7.017341552734375,-0.09142207354307175,0.3093191981315613,0.6434397101402283
1789635384621381600,7.027381591796875,-0.16809049248695374,0.5500226020812988,1.0244150161743164
1789635384631420400,7.03742041015625,-0.13440513610839844,0.7700697183609009,1.2596615552902222
1789635384641460500,7.04746044921875,-0.021297750994563103,0.6837377548217773,1.2999202013015747
1789635384651500500,7.05750048828125,-0.017455074936151505,0.4400593042373657,1.3868324756622314
1789635384661539600,7.06753955078125,-0.13172945380210876,0.4302713871002197,1.6666226387023926
1789635384671579400,7.077579345703125,-0.20600128173828125,0.5913041830062866,1.8497040271759033
1789635384681619500,7.087619384765625,-0.23516982793807983,0.5191362500190735,1.737346887588501
1789635384691658500,7.097658447265625,-0.2377811223268509,0.3941131830215454,1.5844935178756714
1789635384701698600,7.107698486328125,-0.19287464022636414,0.3394579291343689,1.5664308071136475
1789635384711738400,7.11773828125,-0.12186536192893982,0.40471768379211426,1.614586353302002
1789635384721778400,7.1277783203125,-0.028360707685351372,0.5807803869247437,1.6462873220443726
1789635384731817500,7.1378173828125,0.10295020043849945,0.701312780380249,1.7045559883117676
1789635384741857500,7.147857421875,0.2951068580150604,0.5794992446899414,1.7766247987747192
1789635384751897600,7.157897705078125,0.4989342987537384,0.5540457963943481,1.9257093667984009
1789635384761936400,7.167936279296875,0.6851117610931396,0.7186246514320374,2.0974245071411133
1789635384771976400,7.1779765625,0.7877079844474792,0.8552601933479309,2.1812117099761963
1789635384782016500,7.1880166015625,0.8120865225791931,0.8585494756698608,2.0386035442352295
1789635384792055300,7.19805517578125,0.71634840965271,0.789864718914032,1.7760775089263916
1789635384802095400,7.208095458984375,0.5639098286628723,0.5450661778450012,1.578495740890503
1789635384812135400,7.218135498046875,0.4142882525920868,0.12959684431552887,1.5531619787216187
1789635384822174500,7.228174560546875,0.29543164372444153,-0.19890859723091125,1.6550906896591187
1789635384832214300,7.23821435546875,0.3129391074180603,-0.10507017374038696,1.7671829462051392
1789635384842254300,7.24825439453125,0.47234049439430237,0.054563961923122406,1.6970672607421875
1789635384852293400,7.25829345703125,0.5697258710861206,0.049055423587560654,1.4570597410202026
1789635384862333400,7.26833349609375,0.49328485131263733,-0.059069715440273285,1.252997636795044
1789635384872373200,7.278373291015625,0.34160372614860535,-0.12969712913036346,1.1644309759140015
1789635384882413300,7.288413330078125,0.2053595930337906,-0.17783775925636292,1.2335327863693237
1789635384892452400,7.298452392578125,0.14931100606918335,-0.08168485760688782,1.4266095161437988
1789635384902492400,7.308492431640625,0.2327800691127777,0.2192494124174118,1.6058740615844727
1789635384912532500,7.318532470703125,0.35979193449020386,0.4874875843524933,1.6507327556610107
1789635384922571500,7.328571533203125,0.42215651273727417,0.4437299966812134,1.513323426246643
1789635384932611600,7.338611572265625,0.453138142824173,0.045204728841781616,1.2396396398544312
1789635384942651400,7.3486513671875,0.4659314453601837,-0.39243918657302856,1.0777610540390015
1789635384952690400,7.3586904296875,0.39972469210624695,-0.28399527072906494,1.192923903465271
1789635384962730500,7.36873046875,0.22839342057704926,0.1963399201631546,1.4509104490280151
1789635384972770600,7.3787705078125,0.06648540496826172,0.5179030895233154,1.6159234046936035
1789635384982809600,7.3888095703125,0.015966570004820824,0.2906138002872467,1.5845788717269897
1789635384992849400,7.398849365234375,0.06144547089934349,-0.04820005223155022,1.4385958909988403
1789635385002889500,7.408889404296875,0.1034749448299408,0.05637136474251747,1.3833614587783813
1789635385012929500,7.418929443359375,0.06179405748844147,0.5013039708137512,1.4359865188598633
1789635385022968600,7.428968505859375,0.034276947379112244,0.5454187393188477,1.4324759244918823
1789635385033008600,7.439008544921875,0.09357063472270966,-0.07292627543210983,1.315125823020935
1789635385043048400,7.44904833984375,0.1327127069234848,-0.5068076848983765,1.222904920578003
1789635385053087500,7.45908740234375,0.09157317876815796,-0.1604820340871811,1.278756022453308
1789635385063127600,7.46912744140625,0.03997204080224037,0.3472195565700531,1.3510382175445557
1789635385073167600,7.479167724609375,0.01842503249645233,0.3215298056602478,1.3153575658798218
1789635385083206400,7.489206298828125,0.007459733635187149,-0.10076446086168289,1.1845241785049438
1789635385093246500,7.49924658203125,-0.06501686573028564,-0.2783608138561249,1.0752456188201904
1789635385103286500,7.50928662109375,-0.16793711483478546,0.04540713131427765,1.0308401584625244
1789635385113325300,7.5193251953125,-0.2509791851043701,0.46742114424705505,0.9714726209640503
1789635385123365400,7.529365478515625,-0.26519113779067993,0.354711651802063,0.8392160534858704
1789635385133405400,7.539405517578125,-0.24832022190093994,-0.1631312370300293,0.7153425216674805
1789635385143444500,7.549444580078125,-0.25210776925086975,-0.4091777801513672,0.6595120429992676
1789635385153484300,7.559484375,-0.24069413542747498,-0.1911201924085617,0.6554766893386841
1789635385163523600,7.569523681640625,-0.22273698449134827,0.1941731721162796,0.6297398805618286
1789635385173563600,7.579563720703125,-0.1434871405363083,0.36744189262390137,0.5556305050849915
1789635385183602700,7.589602783203125,-0.04023399204015732,0.45559173822402954,0.4732605218887329
1789635385193642800,7.599642822265625,0.06296446919441223,0.6381238102912903,0.3651384115219116
1789635385203682800,7.609682861328125,0.1425197571516037,0.3982486426830292,0.24016159772872925
1789635385213721900,7.619721923828125,0.1664426624774933,-0.22382567822933197,0.12022126466035843
1789635385223762000,7.629761962890625,0.07707976549863815,-0.6598362326622009,-0.0009757355437614024
1789635385233801700,7.6398017578125,-0.01582864299416542,-0.796491265296936,-0.11044995486736298
1789635385243840800,7.6498408203125,-0.11768309772014618,-0.5597636699676514,-0.21370576322078705
1789635385253880800,7.659880859375,-0.1687873750925064,-0.049663010984659195,-0.38047707080841064
1789635385263921000,7.6699208984375,-0.11179039627313614,0.3920837640762329,-0.5212094187736511
1789635385273960000,7.6799599609375,-0.06058463081717491,0.7278619408607483,-0.6224240064620972
1789635385283999700,7.689999755859375,-0.013924986124038696,0.9032667875289917,-0.7238012552261353
1789635385294039800,7.700039794921875,-0.002249786863103509,0.7512943744659424,-0.8055945634841919
1789635385304078800,7.710078857421875,-0.03171739727258682,0.37993815541267395,-0.827481746673584
1789635385314119000,7.720118896484375,-0.05326094105839729,0.06541714817285538,-0.778150737285614
1789635385324159000,7.730158935546875,-0.07609141618013382,-0.06110403686761856,-0.6949959397315979
1789635385334198800,7.74019873046875,-0.12087935954332352,-0.02434079721570015,-0.650497317314148
1789635385344237800,7.75023779296875,-0.14762574434280396,0.07505635917186737,-0.6529442071914673
1789635385354278000,7.76027783203125,-0.12983787059783936,0.2189563661813736,-0.6524519920349121
1789635385364318000,7.77031787109375,-0.046464670449495316,0.3296269476413727,-0.6440179944038391
1789635385374356700,7.780356689453125,0.09536004811525345,0.2957947254180908,-0.6344820857048035
1789635385384396800,7.790396728515625,0.14318428933620453,0.215681254863739,-0.6383316516876221
1789635385394436900,7.800436767578125,0.0736793726682663,0.2928561568260193,-0.7360557913780212
1789635385404475600,7.8104755859375,0.0003204699605703354,0.33332499861717224,-0.8320073485374451
1789635385414515700,7.820515625,-0.01133027859032154,0.22900806367397308,-0.8253499269485474
1789635385424555800,7.8305556640625,0.0003173225559294224,0.11520799249410629,-0.7719641923904419
1789635385434594800,7.8405947265625,-0.004380709957331419,0.1131741851568222,-0.8187786936759949
1789635385444634600,7.850634521484375,0.019817039370536804,0.1703740954399109,-0.9034754633903503
1789635385454674700,7.8606748046875,0.08368450403213501,0.13398216664791107,-0.904143750667572
1789635385464714800,7.87071484375,0.1431153267621994,0.039485491812229156,-0.8430497646331787
1789635385474753800,7.88075390625,0.1832215040922165,0.053512901067733765,-0.8419567942619324
1789635385484793900,7.8907939453125,0.1656923145055771,0.10926911234855652,-0.9306265115737915
1789635385494833700,7.900833740234375,0.10648594796657562,0.15485107898712158,-1.0616483688354492
1789635385504872700,7.910872802734375,0.0661744773387909,0.21472425758838654,-1.1290204524993896
1789635385514912800,7.920912841796875,0.07137712836265564,0.2766319215297699,-1.1325448751449585
1789635385524952800,7.930952880859375,0.11481036245822906,0.21984320878982544,-1.136232852935791
1789635385534991600,7.94099169921875,0.1811343878507614,0.0361458957195282,-1.1768957376480103
1789635385545031700,7.95103173828125,0.23560401797294617,-0.13526500761508942,-1.1953299045562744
1789635385555071700,7.96107177734375,0.2445143610239029,-0.24260975420475006,-1.1742210388183594
1789635385565110800,7.97111083984375,0.21177107095718384,-0.3066188097000122,-1.1394380331039429
1789635385575150800,7.98115087890625,0.13083739578723907,-0.37421563267707825,-1.1332371234893799
1789635385585190700,7.991190673828125,0.016943063586950302,-0.4212912619113922,-1.1819261312484741
1789635385595230000,8.00122998046875,-0.07452142238616943,-0.4390098750591278,-1.230594515800476
1789635385605270000,8.01127001953125,-0.12086175382137299,-0.42549166083335876,-1.2411872148513794
1789635385615309800,8.021309814453126,-0.16114762425422668,-0.35084211826324463,-1.2283490896224976
1789635385625350000,8.031349853515625,-0.19455911219120026,-0.3696190118789673,-1.241185188293457
1789635385635389000,8.041388916015626,-0.19775883853435516,-0.5162478089332581,-1.2516167163848877
1789635385645429000,8.051428955078125,-0.15384118258953094,-0.6497938632965088,-1.2422754764556885
1789635385655468800,8.06146875,-0.1056056022644043,-0.6242982745170593,-1.2180949449539185
1789635385665507800,8.0715078125,-0.05830119922757149,-0.5861812233924866,-1.206198811531067
1789635385675548000,8.0815478515625,-0.046777937561273575,-0.7077875137329102,-1.2185168266296387
1789635385685588000,8.091587890625,-0.08123231679201126,-0.7787432074546814,-1.239801049232483
1789635385695626800,8.101626708984375,-0.11254500597715378,-0.7411059737205505,-1.2269355058670044
1789635385705666800,8.111666748046876,-0.13038258254528046,-0.7211282849311829,-1.1933319568634033
1789635385715707000,8.121706787109375,-0.11580877006053925,-0.7662281394004822,-1.1679555177688599
1789635385725745700,8.13174560546875,-0.08306360244750977,-0.8055193424224854,-1.1607666015625
1789635385735785700,8.14178564453125,-0.07590599358081818,-0.657806932926178,-1.147802472114563
1789635385745825800,8.15182568359375,-0.08556554466485977,-0.44058141112327576,-1.1604384183883667
1789635385755865900,8.161865966796874,-0.055160000920295715,-0.5197681188583374,-1.2626203298568726
1789635385765905000,8.17190478515625,-0.008261468261480331,-0.7896395325660706,-1.430985927581787
1789635385775944700,8.18194482421875,-0.024166930466890335,-0.8118460774421692,-1.5356558561325073
1789635385785984800,8.19198486328125,-0.06716872751712799,-0.6928488612174988,-1.5457217693328857
1789635385796023800,8.20202392578125,-0.09278503805398941,-0.6317578554153442,-1.522102952003479
1789635385806063900,8.21206396484375,-0.09335654973983765,-0.6375515460968018,-1.5099011659622192
1789635385816103700,8.222103759765625,-0.08989280462265015,-0.567496657371521,-1.5178346633911133
1789635385826142700,8.232142822265626,-0.04136895015835762,-0.43573519587516785,-1.5900154113769531
1789635385836182800,8.242182861328125,0.0012989152455702424,-0.38339129090309143,-1.6181620359420776
1789635385846222800,8.252222900390626,0.035825464874506,-0.4195636808872223,-1.6527272462844849
1789635385856261600,8.26226171875,0.04606732726097107,-0.5293843746185303,-1.7044566869735718
1789635385866301700,8.2723017578125,-0.0012245574034750462,-0.5536963939666748,-1.7022885084152222
1789635385876341800,8.282341796875,-0.07328695803880692,-0.3978908956050873,-1.6939152479171753
1789635385886381800,8.2923818359375,-0.14342635869979858,-0.31418853998184204,-1.6514966487884521
1789635385896420600,8.302420654296874,-0.20890015363693237,-0.2831498980522156,-1.5719010829925537
1789635385906460700,8.312460693359375,-0.2534710764884949,-0.20880989730358124,-1.494680643081665
1789635385916500700,8.322500732421876,-0.23964516818523407,-0.1370362788438797,-1.3924592733383179
1789635385926539800,8.332539794921875,-0.17659376561641693,-0.10145805031061172,-1.3099149465560913
1789635385936579600,8.34257958984375,-0.15389591455459595,-0.12501902878284454,-1.2181141376495361
1789635385946619600,8.35261962890625,-0.16899071633815765,-0.06674321740865707,-1.0652620792388916
1789635385956659000,8.362658935546875,-0.20787158608436584,0.16115058958530426,-0.9066972732543945
1789635385966699000,8.372698974609374,-0.15473033487796783,0.32109206914901733,-0.8542303442955017
1789635385976738800,8.38273876953125,-0.1432720124721527,0.1454319953918457,-0.7939942479133606
1789635385986777900,8.39277783203125,-0.17851735651493073,-0.022689372301101685,-0.5757333040237427
1789635385996818000,8.40281787109375,-0.1484358310699463,-0.04355522245168686,-0.3153075873851776
1789635386006858000,8.41285791015625,-0.05959117412567139,0.09297465533018112,-0.1419440507888794
1789635386016897800,8.422897705078125,-0.05353163182735443,0.20173822343349457,-0.056844234466552734
1789635386026936800,8.432936767578125,-0.04636959359049797,0.20346873998641968,0.0684545710682869
1789635386036977000,8.442976806640624,0.05087585747241974,0.15671420097351074,0.19260145723819733
1789635386047017000,8.453016845703125,0.17035777866840363,0.3379630744457245,0.2890499532222748
1789635386057055700,8.4630556640625,0.22653576731681824,0.5005888342857361,0.3289377987384796
1789635386067095800,8.473095703125,0.24585406482219696,0.4532199800014496,0.39465317130088806
1789635386077136000,8.483135986328126,0.20946010947227478,0.21963146328926086,0.5544713139533997
1789635386087175000,8.4931748046875,0.12731944024562836,0.1562730073928833,0.7294215559959412
1789635386097214700,8.503214599609375,0.03422437608242035,0.1883915364742279,0.8715803027153015
1789635386107254800,8.5132548828125,-0.07173028588294983,0.16587981581687927,0.9981502294540405
1789635386117293800,8.5232939453125,-0.1475234031677246,0.22493377327919006,1.130325198173523
1789635386127334000,8.533333984375,-0.14547862112522125,0.4929782748222351,1.215050220489502
1789635386137373700,8.543373779296875,-0.09424897283315659,0.6822568774223328,1.2177881002426147
1789635386147413800,8.553413818359376,0.00953628122806549,0.5643177032470703,1.1785727739334106
1789635386157453600,8.56345361328125,0.09896048903465271,0.4184974133968353,1.2341763973236084
1789635386167493600,8.57349365234375,0.12237393856048584,0.49318739771842957,1.4453704357147217
1789635386177533700,8.58353369140625,0.0753147229552269,0.6213526129722595,1.689394235610962
1789635386187572500,8.593572509765625,0.01466548815369606,0.7441882491111755,1.8719114065170288
1789635386197612500,8.603612548828124,0.01914411596953869,0.8081484436988831,1.9624032974243164
1789635386207652600,8.613652587890625,0.0637051910161972,0.7372095584869385,1.918742060661316
1789635386217691600,8.623691650390626,0.06461554020643234,0.6977404952049255,1.860721230506897
1789635386227731500,8.6337314453125,0.05621619522571564,0.5804735422134399,1.8243166208267212
1789635386237771500,8.643771484375,0.07818818837404251,0.38500499725341797,1.8537272214889526
1789635386247810600,8.653810546875,0.10384801030158997,0.364082932472229,1.9801445007324219
1789635386257850600,8.6638505859375,0.1264994740486145,0.48976364731788635,2.120354175567627
1789635386267890400,8.673890380859374,0.18348392844200134,0.5483055114746094,2.217270851135254
1789635386277930500,8.683930419921875,0.27990880608558655,0.47545960545539856,2.2312939167022705
1789635386287969500,8.693969482421876,0.35393136739730835,0.34046050906181335,2.198485851287842
1789635386298009600,8.704009521484375,0.3118971288204193,0.32992956042289734,2.171725034713745
1789635386308049400,8.71404931640625,0.2244328111410141,0.5254628658294678,2.135706663131714
1789635386318088400,8.72408837890625,0.16543295979499817,0.3138958513736725,1.9765654802322388
1789635386328128500,8.73412841796875,0.20297980308532715,-0.35084620118141174,1.700232982635498
1789635386338168600,8.74416845703125,0.18792767822742462,-0.6011878252029419,1.6076945066452026
1789635386348207400,8.754207275390625,0.11660849303007126,-0.24015182256698608,1.7728238105773926
1789635386358247400,8.764247314453126,0.0647919699549675,0.09053917974233627,1.938818097114563
1789635386368287500,8.77428759765625,0.046106431633234024,0.037598203867673874,1.9500770568847656
1789635386378326500,8.784326416015626,0.012108813039958477,-0.1995490938425064,1.8322854042053223
1789635386388366300,8.794366455078125,-0.014671934768557549,-0.1157521978020668,1.7788258790969849
1789635386398406400,8.804406494140625,0.01302091684192419,0.1656073033809662,1.7820109128952026
1789635386408446500,8.814446533203125,0.09907350689172745,0.020518817007541656,1.6751922369003296
1789635386418485800,8.82448583984375,0.16957618296146393,-0.49748384952545166,1.5055947303771973
1789635386428525600,8.834525634765624,0.1034429594874382,-0.5275493264198303,1.519298791885376
1789635386438565400,8.8445654296875,0.023331936448812485,0.08319099992513657,1.6573467254638672
1789635386448604700,8.854604736328126,-0.003916994668543339,0.5052958726882935,1.6657007932662964
1789635386458644700,8.864644775390625,0.08472953736782074,0.2101772576570511,1.5111522674560547
1789635386468684500,8.8746845703125,0.18258632719516754,-0.2869960367679596,1.3130418062210083
1789635386478723600,8.8847236328125,0.2049228996038437,-0.16699014604091644,1.294638752937317
1789635386488763600,8.894763671875,0.19517093896865845,0.38203325867652893,1.3893578052520752
1789635386498803700,8.9048037109375,0.22005096077919006,0.5347825288772583,1.3789218664169312
1789635386508842500,8.914842529296875,0.24854092299938202,0.11013640463352203,1.2539136409759521
1789635386518882600,8.924882568359376,0.19252127408981323,-0.18248960375785828,1.1724501848220825
1789635386528922600,8.934922607421875,0.09306180477142334,0.056995946913957596,1.1955547332763672
1789635386538962700,8.944962646484376,0.06966827809810638,0.44434627890586853,1.19010329246521
1789635386549001500,8.95500146484375,0.15542978048324585,0.42058369517326355,1.08889901638031
1789635386559041500,8.96504150390625,0.2789549231529236,0.11908780783414841,0.9139392375946045
1789635386569081600,8.97508154296875,0.32748863101005554,-0.042716264724731445,0.736508309841156
1789635386579120600,8.98512060546875,0.23013225197792053,0.0450090616941452,0.609199583530426
1789635386589160400,8.995160400390626,0.12124305218458176,-0.10518283396959305,0.4973585307598114
1789635386599200500,9.005200439453125,0.07719527930021286,-0.4661508798599243,0.4219481647014618
1789635386609239600,9.015239501953126,-0.015410556457936764,-0.42624688148498535,0.3353363275527954
1789635386619279600,9.025279541015625,-0.10253261029720306,0.09278405457735062,0.2342989146709442
1789635386629319400,9.0353193359375,-0.08508437871932983,0.4806804060935974,0.1530836820602417
1789635386639358500,9.0453583984375,-0.04182635247707367,0.610007107257843,0.1342875361442566
1789635386649398500,9.0553984375,-0.025933407247066498,0.7137998342514038,0.09876789897680283
1789635386659438600,9.0654384765625,0.048710767179727554,0.5084072947502136,0.03440488129854202
1789635386669478700,9.075478759765625,0.06795050948858261,0.15773525834083557,-0.0845920741558075
1789635386679517400,9.085517333984376,-0.001192934811115265,-0.06192093342542648,-0.273660808801651
1789635386689557500,9.0955576171875,-0.004922425374388695,-0.4711662232875824,-0.4141460061073303
1789635386699597600,9.10559765625,-0.05762721970677376,-0.6056398153305054,-0.47350218892097473
1789635386709636400,9.11563623046875,-0.1221444308757782,-0.174554705619812,-0.5162898302078247
1789635386719676400,9.125676513671875,-0.10982649773359299,0.01703725941479206,-0.5404160618782043
1789635386729716500,9.135716552734374,-0.09589550644159317,-0.10942533612251282,-0.46892160177230835
1789635386739755500,9.145755615234375,-0.16157107055187225,0.01973080262541771,-0.5051941275596619
1789635386749795300,9.15579541015625,-0.16855734586715698,0.35525208711624146,-0.7029799222946167
1789635386759835400,9.16583544921875,-0.12041110545396805,0.6083604097366333,-0.9018737077713013
1789635386769874700,9.175874755859375,-0.07265955954790115,0.7744913101196289,-0.9762179851531982
1789635386779914500,9.18591455078125,-0.05945818871259689,0.7579052448272705,-0.9489441514015198
1789635386789954300,9.195954345703125,-0.05545146390795708,0.5934550166130066,-0.9016548991203308
1789635386799994400,9.205994384765624,0.0002316012978553772,0.30366653203964233,-0.8675188422203064
1789635386810033700,9.21603369140625,0.07111456245183945,-0.12273697555065155,-0.7972018122673035
1789635386820073700,9.22607373046875,0.050543032586574554,-0.43061116337776184,-0.6995733380317688
1789635386830113500,9.236113525390625,-0.046939313411712646,-0.3404304087162018,-0.7022039890289307
1789635386840152600,9.246152587890625,-0.10413214564323425,-0.11998029798269272,-0.8048877716064453
1789635386850192600,9.256192626953125,-0.17982052266597748,0.027120467275381088,-0.9112922549247742
1789635386860232700,9.266232666015625,-0.21494734287261963,0.00011430401355028152,-0.9390528202056885
1789635386870271500,9.276271484375,-0.1780814677476883,-0.12262919545173645,-0.8452562689781189
1789635386880311600,9.2863115234375,-0.13210345804691315,-0.0742594450712204,-0.745287299156189
1789635386890351600,9.2963515625,-0.10373865067958832,-0.08450116217136383,-0.7568312883377075
1789635386900391700,9.3063916015625,-0.10296837985515594,-0.09115958213806152,-0.8949675559997559
1789635386910430500,9.316430419921875,-0.22441065311431885,0.06618449836969376,-1.0919981002807617
1789635386920470500,9.326470458984375,-0.3871254622936249,0.27657634019851685,-1.2566133737564087
1789635386930510600,9.336510498046875,-0.4833550453186035,0.30084386467933655,-1.2538530826568604
1789635386940549600,9.346549560546874,-0.4418511688709259,0.05048336833715439,-1.1192845106124878
1789635386950589700,9.356589599609375,-0.34503889083862305,-0.26278239488601685,-1.0423237085342407
1789635386960629500,9.36662939453125,-0.30380240082740784,-0.44665706157684326,-1.061850905418396
1789635386970668500,9.37666845703125,-0.3213835060596466,-0.37085363268852234,-1.0829697847366333
1789635386980708600,9.38670849609375,-0.3385590612888336,-0.27018192410469055,-1.0757111310958862
1789635386990748700,9.396748779296875,-0.2810502350330353,-0.41172999143600464,-1.0908477306365967
1789635387000787500,9.406787353515625,-0.20328816771507263,-0.5136029720306396,-1.143933653831482
1789635387010827500,9.41682763671875,-0.19468721747398376,-0.5571099519729614,-1.2082527875900269
1789635387020867600,9.42686767578125,-0.1941639482975006,-0.7057220935821533,-1.2540780305862427
1789635387030906400,9.43690625,-0.21294988691806793,-0.8601220846176147,-1.2761119604110718
1789635387040946400,9.446946533203125,-0.2556002736091614,-0.9085051417350769,-1.355408787727356
1789635387050986500,9.456986572265626,-0.35099098086357117,-0.8943898677825928,-1.4790619611740112
1789635387061026600,9.467026611328125,-0.5468251705169678,-0.4880310297012329,-1.518184781074524
1789635387071065300,9.4770654296875,-0.6863138675689697,0.04702305048704147,-1.577431321144104
1789635387081105400,9.48710546875,-0.6607744097709656,0.151027649641037,-1.657862901687622
1789635387091145500,9.4971455078125,-0.5162526369094849,-0.04425236955285072,-1.57807457447052
1789635387101184500,9.5071845703125,-0.3909197151660919,-0.06962110847234726,-1.5033856630325317
1789635387111224600,9.517224609375,-0.2965269088745117,0.11424726247787476,-1.4757421016693115
1789635387121264400,9.527264404296876,-0.2950912117958069,0.3236806392669678,-1.4999816417694092
1789635387131303400,9.537303466796875,-0.2848130166530609,0.19270823895931244,-1.6429632902145386
1789635387141343500,9.547343505859375,-0.29067638516426086,-0.1041373610496521,-1.7583060264587402
1789635387151383600,9.557383544921874,-0.26182714104652405,-0.5119736194610596,-1.823996901512146
1789635387161421800,9.567421875,-0.24610650539398193,-0.7782290577888489,-1.8216246366500854
1789635387171461600,9.577461669921876,-0.26813805103302,-0.6497980952262878,-1.7582786083221436
1789635387181501700,9.587501708984375,-0.2731494605541229,-0.4087403118610382,-1.6684595346450806
1789635387191541800,9.597541748046876,-0.27870455384254456,-0.35629788041114807,-1.5690711736679077
1789635387201580800,9.607580810546875,-0.277923047542572,-0.44572675228118896,-1.5006606578826904
1789635387211620600,9.61762060546875,-0.22261479496955872,-0.5551028251647949,-1.5003045797348022
1789635387221660700,9.62766064453125,-0.10723843425512314,-0.6468172669410706,-1.5111522674560547
1789635387231699700,9.63769970703125,-0.04585443064570427,-0.6426464319229126,-1.4362859725952148
1789635387241739800,9.64773974609375,0.013788845390081406,-0.6848600506782532,-1.4050567150115967
1789635387251779600,9.657779541015625,0.1160595640540123,-0.6597704291343689,-1.4419647455215454
1789635387261818600,9.667818603515625,0.1812903881072998,-0.5416520833969116,-1.4500648975372314
1789635387271858700,9.677858642578125,0.1932077705860138,-0.49155378341674805,-1.3902939558029175
1789635387281898800,9.687898681640625,0.20499511063098907,-0.5086589455604553,-1.3572804927825928
1789635387291938800,9.697938720703124,0.252096563577652,-0.5047483444213867,-1.3355927467346191
1789635387301977600,9.7079775390625,0.24966217577457428,-0.49693772196769714,-1.20964777469635
1789635387312017700,9.718017578125,0.18215662240982056,-0.4280548095703125,-1.070672631263733
1789635387322057700,9.7280576171875,0.11138392239809036,-0.37472978234291077,-0.9608839750289917
1789635387332096500,9.738096435546876,0.10532445460557938,-0.16184353828430176,-0.8914153575897217
1789635387342136600,9.748136474609375,0.13073574006557465,0.061511170119047165,-0.7788990139961243
1789635387352176600,9.7581767578125,0.1552642434835434,0.14649903774261475,-0.720120906829834
1789635387362215700,9.768215576171874,0.1575661152601242,0.0343741811811924,-0.6736598610877991
1789635387372255500,9.77825537109375,0.1308775097131729,-1.103617250919342e-06,-0.5783839225769043
1789635387382295600,9.788295654296874,0.08676672726869583,-0.07775191962718964,-0.5089939832687378
1789635387392335600,9.798335693359375,0.024257546290755272,-0.24407058954238892,-0.4477351903915405
1789635387402374700,9.808374755859376,-0.060504067689180374,-0.29921987652778625,-0.2773626744747162
1789635387412414500,9.81841455078125,-0.09999554604291916,-0.1230887621641159,-0.07954414188861847
1789635387422454500,9.82845458984375,-0.08531699329614639,0.18928980827331543,0.018541602417826653
1789635387432493600,9.83849365234375,-0.03367403894662857,0.3844318687915802,0.11451607197523117
1789635387442533600,9.84853369140625,0.034030281007289886,0.22809535264968872,0.27526456117630005
1789635387452573700,9.85857373046875,0.10641979426145554,0.10864831507205963,0.49637749791145325
1789635387462612700,9.86861279296875,0.07973198592662811,0.20502251386642456,0.6945188641548157
1789635387472652800,9.87865283203125,-0.000889618182554841,0.3033440411090851,0.9070902466773987
1789635387482692600,9.888692626953125,-0.03606366738677025,0.24397435784339905,1.1052364110946655
1789635387492731600,9.898731689453125,-0.057545255869627,0.14872613549232483,1.2694472074508667
1789635387502771700,9.908771728515624,-0.11818080395460129,0.18862472474575043,1.4927051067352295
1789635387512811800,9.918811767578125,-0.15264317393302917,0.30211880803108215,1.6956672668457031
1789635387522850800,9.928850830078124,-0.10720696300268173,0.3577684760093689,1.7361626625061035
1789635387532890600,9.938890625,-0.03932271525263786,0.31390276551246643,1.6443424224853516
1789635387542930700,9.9489306640625,-0.02403043955564499,0.4093654453754425,1.645479679107666
1789635387552970800,9.958970703125,-0.02077525667846203,0.36219900846481323,1.7397053241729736
1789635387563009800,9.969009765625,-0.0561763234436512,0.2791825830936432,1.8360650539398193
1789635387573049900,9.9790498046875,-0.08518480509519577,0.32268932461738586,1.9430409669876099
1789635387583089700,9.989089599609375,-0.09291566908359528,0.429272323846817,2.0393731594085693
1789635387593128700,9.999128662109374,-0.1026519238948822,0.5192163586616516,2.05165696144104
1789635387603168800,10.009168701171875,-0.10189978033304214,0.5266017317771912,1.9611384868621826
1789635387613208800,10.019208740234374,-0.0785963237285614,0.46293115615844727,1.9123506546020508
1789635387623247600,10.02924755859375,-0.0581522174179554,0.48024868965148926,1.9662636518478394
1789635387633287700,10.03928759765625,-0.06616859883069992,0.5734230875968933,2.049109935760498
1789635387643327700,10.04932763671875,-0.061680082231760025,0.5846784114837646,2.0496182441711426
1789635387653367800,10.059367919921876,-0.005687650293111801,0.45299866795539856,1.9977176189422607
1789635387663406600,10.069406494140624,0.002792792394757271,0.5482392907142639,2.0623831748962402
1789635387673446700,10.07944677734375,0.008399545215070248,0.6646223664283752,2.1653645038604736
1789635387683486700,10.08948681640625,0.09974946081638336,0.4415622055530548,2.1474807262420654
1789635387693525500,10.099525390625,0.19919508695602417,0.06457389891147614,2.0559887886047363
1789635387703565600,10.109565673828126,0.20487335324287415,-0.08282116055488586,2.0016071796417236
1789635387713605600,10.119605712890625,0.20626139640808105,-0.020294401794672012,1.9935194253921509
1789635387723644700,10.129644775390625,0.23203854262828827,-0.009285136125981808,2.0194714069366455
1789635387733684700,10.139684814453124,0.23779256641864777,-0.12309025973081589,2.039640188217163
1789635387743724500,10.149724609375,0.20600473880767822,-0.21154068410396576,2.039583444595337
1789635387753764600,10.1597646484375,0.18374738097190857,-0.18770459294319153,2.0067174434661865
1789635387763803600,10.1698037109375,0.17378419637680054,-0.047326184809207916,1.9756635427474976
1789635387773843700,10.17984375,0.14901094138622284,0.08967055380344391,1.9417908191680908
1789635387783883500,10.189883544921875,0.06831283867359161,-0.03599550575017929,1.8753825426101685
1789635387793922600,10.199922607421875,0.03549150377511978,-0.2905244529247284,1.8108221292495728
1789635387803962600,10.209962646484374,0.03995747119188309,-0.38717129826545715,1.8371586799621582
1789635387814002700,10.220002685546875,0.03391529247164726,-0.1266760528087616,1.9545985460281372
1789635387824041700,10.230041748046874,-0.0046709757298231125,0.2666834592819214,2.025026798248291
1789635387834081500,10.24008154296875,-0.04101220518350601,0.2866755425930023,1.8791172504425049
1789635387844121600,10.25012158203125,-0.08866355568170547,-0.09943626821041107,1.5959316492080688
1789635387854161000,10.260160888671875,-0.15537147223949432,-0.43473702669143677,1.397110104560852
1789635387864200700,10.27020068359375,-0.14262039959430695,-0.3054012358188629,1.3652535676956177
1789635387874240500,10.280240478515625,-0.16976892948150635,0.14521999657154083,1.365884780883789
1789635387884280600,10.290280517578125,-0.2716277837753296,0.614159882068634,1.2559953927993774
1789635387894319900,10.30031982421875,-0.3742462992668152,0.7925583720207214,1.0864430665969849
1789635387904359700,10.310359619140625,-0.414265513420105,0.7044157385826111,0.9431522488594055
1789635387914399700,10.320399658203126,-0.34411945939064026,0.5025092959403992,0.8500603437423706
1789635387924438800,10.330438720703125,-0.24432317912578583,0.3771303594112396,0.8211260437965393
1789635387934478800,10.340478759765626,-0.15680424869060516,0.32686400413513184,0.7655420899391174
1789635387944518700,10.3505185546875,-0.09531233459711075,0.16332584619522095,0.6598781943321228
1789635387954557700,10.3605576171875,-0.10957090556621552,0.05569073557853699,0.5706170201301575
1789635387964597800,10.37059765625,-0.2105734497308731,0.11413460224866867,0.4891139268875122
1789635387974637800,10.380637939453125,-0.24049273133277893,0.06850746273994446,0.38570043444633484
1789635387984676600,10.390676513671876,-0.11685026437044144,-0.08820527046918869,0.2720339596271515
1789635387994716700,10.400716552734375,-0.003955136518925428,-0.010569858364760876,0.0786045715212822
1789635388004756700,10.4107568359375,0.04355702921748161,0.4064011871814728,-0.18263962864875793
1789635388014796800,10.420796875,0.08488502353429794,0.7438760995864868,-0.4264751970767975
1789635388024835600,10.430835693359375,0.19610948860645294,0.4271174669265747,-0.5841044187545776
1789635388034875600,10.440875732421874,0.2853908836841583,-0.22270183265209198,-0.5769360065460205
1789635388044915700,10.450915771484375,0.2996542453765869,-0.5033097863197327,-0.5874218940734863
1789635388054954800,10.460954833984376,0.24696999788284302,-0.418816477060318,-0.6649500131607056
1789635388064994600,10.47099462890625,0.08747517317533493,-0.13648463785648346,-0.7522902488708496
1789635388075034600,10.48103466796875,-0.10704690217971802,0.2504657208919525,-0.8073622584342957
1789635388085073700,10.49107373046875,-0.21070924401283264,0.3950110077857971,-0.8096780776977539
1789635388095113700,10.50111376953125,-0.271801620721817,0.2994868755340576,-0.7376667261123657
1789635388105153500,10.511153564453124,-0.2887052595615387,0.31917881965637207,-0.6812900304794312
1789635388115192600,10.521192626953125,-0.23411206901073456,0.5875764489173889,-0.6883338093757629
1789635388125232600,10.531232666015624,-0.12085745483636856,0.7851351499557495,-0.6690217852592468
1789635388135272700,10.541272705078125,-0.04051254689693451,0.7990366220474243,-0.6324909329414368
1789635388145312800,10.551312744140626,-0.004251297563314438,0.7841537594795227,-0.6859562397003174
1789635388155351600,10.5613515625,-0.03387816622853279,0.7675049901008606,-0.8091338276863098
1789635388165392400,10.571392333984376,-0.02584964409470558,0.42107269167900085,-0.9116076231002808
1789635388175432200,10.58143212890625,0.07334751635789871,-0.26412296295166016,-0.9375742673873901
1789635388185471200,10.59147119140625,0.09235631674528122,-0.6707099676132202,-0.9310474395751953
1789635388195511300,10.60151123046875,-0.022679727524518967,-0.5766431093215942,-0.9197577238082886
1789635388205551400,10.61155126953125,-0.1247297152876854,-0.22089549899101257,-0.8571275472640991
1789635388215590100,10.621590087890626,-0.1903364211320877,0.19687937200069427,-0.8265613317489624
1789635388225630200,10.631630126953125,-0.24062487483024597,0.5318314433097839,-0.8814299702644348
1789635388235670300,10.641670166015626,-0.24618636071681976,0.6512272953987122,-0.9797559976577759
1789635388245709000,10.651708984375,-0.15004223585128784,0.5400729775428772,-1.0631678104400635
1789635388255749000,10.6617490234375,-0.028017526492476463,0.23331861197948456,-1.2062913179397583
1789635388265789200,10.6717890625,0.027950581163167953,-0.24233846366405487,-1.4037871360778809
1789635388275829200,10.681829345703125,0.07214600592851639,-0.6135978102684021,-1.5390071868896484
1789635388285868300,10.691868408203124,0.008010417222976685,-0.4421401917934418,-1.5499370098114014
1789635388295908000,10.701908203125,-0.15340563654899597,0.1666392683982849,-1.5458616018295288
1789635388305948200,10.7119482421875,-0.25003495812416077,0.6349357962608337,-1.5384759902954102
1789635388315987500,10.721987548828125,-0.23831622302532196,0.7795763611793518,-1.5647094249725342
1789635388326027500,10.732027587890625,-0.1520213931798935,0.514082670211792,-1.5970309972763062
1789635388336067000,10.742067138671874,-0.002736028516665101,0.39550361037254333,-1.6260576248168945
1789635388346106400,10.7521064453125,0.11932497471570969,0.423665314912796,-1.6610299348831177
1789635388356146400,10.762146484375,0.22685250639915466,0.018154814839363098,-1.7467384338378906
1789635388366186500,10.7721865234375,0.22127261757850647,-0.14678192138671875,-1.8732439279556274
1789635388376226300,10.782226318359376,-0.005183160305023193,0.19307951629161835,-1.9977693557739258
1789635388386265300,10.792265380859375,-0.1889529526233673,0.1358499377965927,-2.020756721496582
1789635388396305400,10.802305419921876,-0.2786239683628082,-0.22519241273403168,-1.8926148414611816
1789635388406345500,10.812345458984375,-0.3112730085849762,-0.6219393014907837,-1.6934312582015991
1789635388416384300,10.82238427734375,-0.31529250741004944,-1.0107883214950562,-1.5044666528701782
1789635388426424300,10.83242431640625,-0.3237740695476532,-1.003706455230713,-1.381057858467102
1789635388436464400,10.84246435546875,-0.20393899083137512,-0.8866532444953918,-1.3853062391281128
1789635388446503400,10.85250341796875,-0.007237858138978481,-0.8044356107711792,-1.4007200002670288
1789635388456543200,10.862543212890625,0.1592392772436142,-0.8412761688232422,-1.497847318649292
1789635388466583300,10.872583251953126,0.3187595307826996,-0.9271677136421204,-1.6384978294372559
1789635388476623400,10.882623291015625,0.45146217942237854,-0.9241594076156616,-1.7204121351242065
1789635388486662400,10.892662353515625,0.510445773601532,-0.8780478835105896,-1.7499620914459229
1789635388496702200,10.9027021484375,0.4747157692909241,-0.8235052824020386,-1.741776704788208
1789635388506742300,10.9127421875,0.3888074457645416,-0.6661673784255981,-1.711610198020935
1789635388516781300,10.92278125,0.31870824098587036,-0.47593265771865845,-1.6924948692321777
1789635388526821400,10.9328212890625,0.2919739782810211,-0.4350280165672302,-1.7423797845840454
1789635388536861200,10.942861083984376,0.315663605928421,-0.4532054364681244,-1.8165117502212524
1789635388546900200,10.952900146484374,0.3650760054588318,-0.49102693796157837,-1.85872220993042
1789635388556940300,10.962940185546875,0.399199903011322,-0.5773978233337402,-1.8743078708648682
1789635388566980400,10.97298046875,0.36941540241241455,-0.558958113193512,-1.826187252998352
1789635388577019100,10.98301904296875,0.28770536184310913,-0.31647518277168274,-1.7628320455551147
1789635388587059200,10.99305908203125,0.21777774393558502,-0.2102031707763672,-1.6601015329360962
1789635388597099300,11.003099365234375,0.16658379137516022,-0.3361978530883789,-1.574797511100769
1789635388607139300,11.013139404296876,0.13423025608062744,-0.45303285121917725,-1.4299522638320923
1789635388617178000,11.02317822265625,0.14442777633666992,-0.40086498856544495,-1.2023675441741943
1789635388627218200,11.03321826171875,0.19215480983257294,-0.28503862023353577,-0.9988437294960022
1789635388637258200,11.04325830078125,0.22544218599796295,-0.24134865403175354,-0.8424962162971497
1789635388647297300,11.05329736328125,0.17238053679466248,-0.07530456781387329,-0.6798158884048462
1789635388657337000,11.063337158203124,0.15149575471878052,-0.006004588678479195,-0.6286230087280273
1789635388667377200,11.073377197265625,0.10862524062395096,-0.13933512568473816,-0.6050941944122314
1789635388677416400,11.08341650390625,0.037421371787786484,-0.29755672812461853,-0.44262009859085083
1789635388687456300,11.093456298828125,-0.06494617462158203,-0.28866052627563477,-0.22296343743801117
1789635388697496000,11.10349609375,-0.01820157840847969,-0.18309921026229858,-0.06633573770523071
1789635388707536100,11.1135361328125,0.0012348141754046082,-0.20070978999137878,0.008526613935828209
1789635388717575400,11.123575439453125,-0.06507230550050735,-0.25694724917411804,0.0708421841263771
1789635388727615200,11.133615234375,-0.15961042046546936,-0.23623432219028473,0.1005464643239975
1789635388737655300,11.1436552734375,-0.20320050418376923,-0.2405579686164856,0.0850074514746666
1789635388747694300,11.1536943359375,-0.2263440489768982,-0.27851858735084534,0.11314357072114944
1789635388757734400,11.163734375,-0.26655882596969604,-0.26240405440330505,0.22867843508720398
1789635388767774500,11.1737744140625,-0.286003440618515,-0.1543985903263092,0.43393000960350037
1789635388777813200,11.183813232421874,-0.20356957614421844,0.23295313119888306,0.6890983581542969
1789635388787853300,11.193853271484375,-0.07721611112356186,0.5539871454238892,0.792457103729248
1789635388797893400,11.203893310546874,-0.008961421437561512,0.5947023630142212,0.7552589178085327
1789635388807932400,11.213932373046875,0.0379924513399601,0.4353906512260437,0.8257228136062622
1789635388817972200,11.22397216796875,0.023836685344576836,0.3300788700580597,1.0796905755996704
1789635388828012300,11.23401220703125,-0.17670506238937378,0.4690057933330536,1.3381037712097168
1789635388838052400,11.24405224609375,-0.45717722177505493,0.561069130897522,1.5404222011566162
1789635388848091400,11.25409130859375,-0.6020351648330688,0.5415512919425964,1.6650007963180542
1789635388858131500,11.26413134765625,-0.5198338031768799,0.5115398168563843,1.7295066118240356
1789635388868171300,11.274171142578124,-0.3022410273551941,0.618171215057373,1.811071753501892
1789635388878210300,11.284210205078125,-0.073442742228508,0.6763207912445068,1.863077163696289
1789635388888250400,11.29425048828125,0.06581763178110123,0.6375190019607544,1.9336920976638794
1789635388898290400,11.30429052734375,0.08391807228326797,0.733259379863739,2.0819618701934814
1789635388908329200,11.3143291015625,0.06766484677791595,0.8287526965141296,2.2009687423706055
1789635388918369300,11.324369384765625,0.0683886930346489,0.8086863160133362,2.2460787296295166
1789635388928409300,11.334409423828125,0.10638029873371124,0.6648350954055786,2.2280569076538086
1789635388938449400,11.344449462890625,0.21008192002773285,0.4956282675266266,2.1897120475769043
1789635388948488200,11.35448828125,0.3261674642562866,0.543857991695404,2.175478219985962
1789635388958528300,11.3645283203125,0.4348633289337158,0.5449853539466858,2.0933454036712646
1789635388968568300,11.374568359375,0.49182379245758057,0.2802450954914093,1.9511936902999878
1789635388978607000,11.384607177734376,0.4569600820541382,0.05609642714262009,1.9350485801696777
1789635388988647200,11.394647216796875,0.35242560505867004,0.070423424243927,2.027975082397461
1789635388998687200,11.404687255859375,0.24800224602222443,0.16588497161865234,2.109661340713501
1789635389008726300,11.414726318359374,0.24215614795684814,0.05720669776201248,2.0557353496551514
1789635389018766300,11.424766357421875,0.3310638964176178,-0.1109442263841629,1.903956413269043
1789635389028806100,11.43480615234375,0.3941347002983093,-0.09333079308271408,1.750676155090332
1789635389038845200,11.44484521484375,0.4498240351676941,-0.06034780666232109,1.641305685043335
1789635389048885200,11.45488525390625,0.46438097953796387,-0.06922971457242966,1.6160043478012085
1789635389058925300,11.46492529296875,0.4010755121707916,0.0923493281006813,1.6953496932983398
1789635389068965000,11.474965087890626,0.28274697065353394,0.3262782096862793,1.8109701871871948
1789635389079004200,11.485004150390624,0.20389476418495178,0.27995651960372925,1.847812294960022
1789635389089044200,11.495044189453125,0.23872391879558563,0.04012855142354965,1.77830171585083
1789635389099084300,11.505084228515624,0.3416886627674103,0.0030725300312042236,1.6587750911712646
1789635389109123300,11.515123291015625,0.4386293888092041,-0.10024470090866089,1.5407803058624268
1789635389119163400,11.525163330078126,0.49934253096580505,-0.3504188656806946,1.4558534622192383
1789635389129203200,11.535203125,0.42280614376068115,-0.2563380002975464,1.4553308486938477
1789635389139242500,11.545242431640625,0.25305840373039246,0.08111167699098587,1.5151971578598022
1789635389149282300,11.5552822265625,0.08580522239208221,0.4174761176109314,1.5395517349243164
1789635389159322600,11.565322509765625,-0.025565780699253082,0.5255988240242004,1.477270245552063
1789635389169362400,11.575362548828124,-0.027196716517210007,0.37698984146118164,1.3632739782333374
1789635389179401500,11.5854013671875,0.007693090476095676,0.2667994201183319,1.2691584825515747
1789635389189441500,11.595441650390624,0.1011880412697792,0.1818479597568512,1.2026481628417969
1789635389199481600,11.605481689453125,0.24007615447044373,0.024229569360613823,1.1620298624038696
1789635389209520400,11.615520263671876,0.2975156903266907,-0.11963953077793121,1.0984611511230469
1789635389219560400,11.625560546875,0.20530854165554047,-0.1463390439748764,1.0408817529678345
1789635389229600500,11.6356005859375,0.09834221750497818,-0.08247371017932892,0.9959374666213989
1789635389239639600,11.6456396484375,0.11710019409656525,-0.1881932020187378,0.9086912870407104
1789635389249679600,11.6556796875,0.1171407699584961,-0.31655845046043396,0.7998664379119873
1789635389259719400,11.665719482421874,-0.014674517326056957,-0.07239346206188202,0.6411545276641846
1789635389269758500,11.675758544921875,-0.10092976689338684,0.12993931770324707,0.4574829339981079
1789635389279798500,11.685798583984376,-0.07076600193977356,-0.007552771829068661,0.2785555124282837
1789635389289838600,11.695838623046875,-0.05816533789038658,-0.1719101071357727,0.09791587293148041
1789635389299878400,11.70587841796875,-0.11959141492843628,0.03114020824432373,-0.09928347915410995
1789635389309917400,11.71591748046875,-0.12112776935100555,0.24244457483291626,-0.3133895993232727
1789635389319957500,11.72595751953125,-0.11650372296571732,0.38587549328804016,-0.4600807726383209
1789635389329997600,11.73599755859375,-0.19034451246261597,0.538128674030304,-0.589164137840271
1789635389340036400,11.746036376953125,-0.22598639130592346,0.3496786057949066,-0.6885924935340881
1789635389350076400,11.756076416015626,-0.23053577542304993,0.07501046359539032,-0.7361307740211487
1789635389360116500,11.766116455078125,-0.24854619801044464,0.046702656894922256,-0.8138466477394104
1789635389370155500,11.776155517578125,-0.29726338386535645,0.143964946269989,-0.9014859795570374
1789635389380195300,11.7861953125,-0.34392249584198,0.4135817587375641,-0.9347453713417053
1789635389390235400,11.7962353515625,-0.31645897030830383,0.6474481225013733,-0.9028936624526978
1789635389400274400,11.8062744140625,-0.21823599934577942,0.8170944452285767,-0.7748203873634338
1789635389410314500,11.816314453125,-0.093363918364048,0.959936797618866,-0.6554998159408569
1789635389420354300,11.826354248046876,0.005450540222227573,0.8245877623558044,-0.6261270046234131
1789635389430394400,11.836394287109375,0.0507141649723053,0.43495047092437744,-0.6435199975967407
1789635389440433400,11.846433349609375,0.05216718465089798,-0.03433288633823395,-0.7050776481628418
1789635389450473500,11.856473388671875,0.0473589263856411,-0.387258917093277,-0.7666386365890503
1789635389460513300,11.86651318359375,0.04984951391816139,-0.6304023265838623,-0.794603168964386
1789635389470552300,11.87655224609375,0.030445853248238564,-0.646018385887146,-0.7453715205192566
1789635389480592400,11.88659228515625,-0.05299950763583183,-0.30250629782676697,-0.7125970721244812
1789635389490632400,11.896632568359376,-0.13242192566394806,0.1591327041387558,-0.7271195650100708
1789635389500671500,11.90667138671875,-0.1424306184053421,0.28768908977508545,-0.7638762593269348
1789635389510711600,11.916711669921876,-0.0960124209523201,0.10037688910961151,-0.834384024143219
1789635389520751400,11.92675146484375,-0.09496766328811646,0.009587066248059273,-0.9510587453842163
1789635389530791400,11.93679150390625,-0.17767269909381866,0.12311611324548721,-1.1221959590911865
1789635389540830500,11.94683056640625,-0.23086507618427277,0.17055287957191467,-1.2663377523422241
1789635389550870500,11.95687060546875,-0.24714423716068268,0.2437492311000824,-1.3371880054473877
1789635389560910300,11.966910400390624,-0.2288144826889038,0.3813007175922394,-1.3959684371948242
1789635389570949600,11.97694970703125,-0.16015230119228363,0.4160199761390686,-1.4613686800003052
1789635389580989400,11.986989501953126,-0.07747073471546173,0.2670230567455292,-1.4606314897537231
1789635389591029500,11.997029541015625,-0.038925860077142715,-0.08844558149576187,-1.4055098295211792
1789635389601068500,12.007068603515625,-0.017978237941861153,-0.37326371669769287,-1.3475747108459473
1789635389611108600,12.017108642578124,-0.008619737811386585,-0.5570793747901917,-1.2999550104141235
1789635389621148400,12.0271484375,0.0755515992641449,-0.6957176923751831,-1.2945109605789185
1789635389631188500,12.0371884765625,0.16180519759655,-0.6656225323677063,-1.317883014678955
1789635389641227500,12.0472275390625,0.21095862984657288,-0.5553810000419617,-1.41336989402771
1789635389651267600,12.057267578125,0.1767864227294922,-0.4882318675518036,-1.5130877494812012
1789635389661307600,12.0673076171875,0.11681470274925232,-0.5057946443557739,-1.5718587636947632
1789635389671346400,12.077346435546875,0.07431211322546005,-0.7078508734703064,-1.6114996671676636
1789635389681386500,12.087386474609374,-0.01657119020819664,-0.8660748600959778,-1.6522338390350342
1789635389691426600,12.097426513671875,-0.14759796857833862,-0.7639556527137756,-1.6889177560806274
1789635389701465300,12.10746533203125,-0.18072396516799927,-0.6814495921134949,-1.6986489295959473
1789635389711505400,12.11750537109375,-0.18061788380146027,-0.5610775351524353,-1.638507604598999
1789635389721545500,12.12754541015625,-0.14156155288219452,-0.5435411334037781,-1.6172902584075928
1789635389731584500,12.13758447265625,-0.03944897651672363,-0.7616792917251587,-1.629671573638916
1789635389741624300,12.147624267578125,0.025887951254844666,-0.7902171611785889,-1.5884490013122559
1789635389751664400,12.157664306640624,0.036348454654216766,-0.7462001442909241,-1.59026038646698
1789635389761704400,12.167704345703125,-0.020180337131023407,-0.6870065927505493,-1.6602191925048828
1789635389771743500,12.177743408203124,-0.0345921590924263,-0.6336039900779724,-1.751001238822937
1789635389781783300,12.187783203125,-0.0022339532151818275,-0.6866205930709839,-1.8298563957214355
1789635389791823400,12.1978232421875,-0.001652388134971261,-0.7113175988197327,-1.8337575197219849
1789635389801862400,12.2078623046875,-0.02538221888244152,-0.5919967889785767,-1.801530122756958
1789635389811902500,12.21790234375,0.0008819452486932278,-0.5468917489051819,-1.7912472486495972
1789635389821942500,12.227942626953125,0.06046111881732941,-0.7235775589942932,-1.8277626037597656
1789635389831981300,12.237981201171875,0.017634309828281403,-0.9128594994544983,-1.8889271020889282
1789635389842021400,12.248021484375,-0.09977354109287262,-0.9630299806594849,-1.9116129875183105
1789635389852061400,12.2580615234375,-0.185665100812912,-0.8346259593963623,-1.8868061304092407
1789635389862100500,12.2681005859375,-0.21262986958026886,-0.7385793328285217,-1.8036859035491943
1789635389872140300,12.278140380859375,-0.2609155774116516,-0.6192963123321533,-1.681115746498108
1789635389882180400,12.288180419921876,-0.28457510471343994,-0.539385199546814,-1.5897376537322998
1789635389892220400,12.298220458984375,-0.2609693706035614,-0.38965246081352234,-1.5348094701766968
1789635389902259500,12.308259521484375,-0.23738643527030945,-0.30296480655670166,-1.4939391613006592
1789635389912299500,12.318299560546874,-0.23545613884925842,-0.370126873254776,-1.4252240657806396
1789635389922339300,12.32833935546875,-0.2561100125312805,-0.41832584142684937,-1.2862099409103394
1789635389932378600,12.338378662109376,-0.28779423236846924,-0.2715873122215271,-1.096502423286438
1789635389942418700,12.348418701171875,-0.2763570249080658,0.03032645396888256,-0.896173357963562
1789635389952458500,12.35845849609375,-0.22630585730075836,0.3713051676750183,-0.7034628987312317
1789635389962497500,12.36849755859375,-0.12536859512329102,0.5506370663642883,-0.5511947870254517
1789635389972537600,12.37853759765625,-0.04406789317727089,0.5751177072525024,-0.3646187484264374
1789635389982577700,12.38857763671875,0.01002330332994461,0.5582314729690552,-0.12377604097127914
1789635389992617500,12.398617431640625,0.03709538280963898,0.5164274573326111,0.10316382348537445
1789635390002656500,12.408656494140626,0.00472998758777976,0.4020465612411499,0.3048407733440399
1789635390012696600,12.418696533203125,-0.05720290169119835,0.2681671380996704,0.4966803193092346
1789635390022736600,12.428736572265626,-0.023827899247407913,0.32526662945747375,0.6482160091400146
1789635390032775400,12.438775390625,0.04615655168890953,0.3793140649795532,0.6875939965248108
1789635390042815500,12.4488154296875,0.08665311336517334,0.3173263370990753,0.6943690776824951
1789635390052855600,12.45885546875,0.11350458115339279,0.28425469994544983,0.7841300964355469
1789635390062894300,12.468894287109375,0.143049418926239,0.2914787828922272,0.8990159034729004
1789635390072934400,12.478934326171874,0.16190221905708313,0.3386842608451843,0.9757832884788513
1789635390082974500,12.488974365234375,0.17739541828632355,0.3657582402229309,1.0622258186340332
