time,seconds_elapsed,z,y,x
1789635441448537900,0.041537841796875,9.287108239746093,4.186261602783203,0.2428618309020996
1789635441458578000,0.051577880859375,9.912443785858153,3.9659950500488277,0.13392565536499024
1789635441468618000,0.061617919921875,9.974543391418456,3.8271313537597655,0.3064578125
1789635441478658000,0.071657958984375,8.952967470550536,3.8609494522094723,0.30346506042480464
1789635441488696800,0.08169677734375,7.7407532424926755,4.215740210723877,0.1906383071899414
1789635441498737000,0.09173681640625,6.785466780090331,4.6538791145324705,0.05087678527832031
1789635441508777000,0.10177685546875,6.228814894104003,4.74351203918457,0.19602526092529296
1789635441518817000,0.111817138671875,6.281337693023681,4.356549195861816,0.35194764404296874
1789635441528857000,0.121857177734375,7.460781285858154,3.6227263870239255,0.3259107009887695
1789635441538897000,0.13189697265625,7.761702507019042,2.7884967460632324,0.23882161560058593
1789635441548937000,0.14193701171875,7.308150930023193,3.022978871154785,-0.13063362808227538
1789635441558976800,0.151976806640625,6.846668560028076,4.0167221977233885,-0.40192660369873046
1789635441569016800,0.162016845703125,7.060201420593262,4.563198726654052,-0.376039298248291
1789635441579057000,0.172056884765625,7.587973249053954,3.8289270050048825,-0.00239420166015625
1789635441589096000,0.182095947265625,6.592583908843994,2.259378179168701,0.20769699401855468
1789635441599136000,0.192135986328125,4.600159214782715,1.6722002220153807,0.1605611488342285
1789635441609175800,0.20217578125,3.12832374420166,1.9809025985717772,0.15562310791015624
1789635441619216000,0.2122158203125,2.420986791229248,2.5912743843078614,0.36092590026855464
1789635441629256000,0.222255859375,3.164236769104004,2.3253683624267576,0.9211690887451172
1789635441639295700,0.232295654296875,5.079149184417724,1.0815805999755859,1.338807640838623
1789635441649335800,0.242335693359375,7.6193971458435055,-0.318578458404541,0.6018424423217773
1789635441659375900,0.2523759765625,9.264961874389648,-0.6474819114685059,1.2078747375488281
1789635441669416000,0.262416015625,8.540865509796141,-0.14260463638305662,3.237559194946289
1789635441679456000,0.2724560546875,7.019350354766845,0.49470191802978514,4.590881683349609
1789635441689494800,0.282494873046875,6.209960556030273,0.718260498046875,5.098302797698974
1789635441699534800,0.292534912109375,6.272509074401855,0.5606921012878417,5.50980620803833
1789635441709575000,0.302574951171875,6.2578445892333985,0.36810850524902344,6.182127961730957
1789635441719615000,0.312614990234375,5.205592959594727,0.38037878875732417,6.449380722045898
1789635441729654800,0.32265478515625,3.8886324089050293,1.055992569732666,6.603357816314697
1789635441739694800,0.33269482421875,4.667196861267089,1.364246033477783,7.111527118682861
1789635441749735000,0.34273486328125,5.915174476623535,-0.24899697265624998,7.505074016571045
1789635441759775000,0.35277490234375,6.550685379791259,-1.3907318893432616,8.392425006866455
1789635441769815000,0.36281494140625,5.6474728034973145,-0.3806780639648437,9.217377116394042
1789635441779853800,0.372853759765625,3.890428060150146,1.1634323692321777,9.740210903930663
1789635441789894000,0.382893798828125,3.001879969024658,1.8881272842407226,10.136600916290282
1789635441799934000,0.392933837890625,3.5748423538208005,1.951723265838623,10.22817912979126
1789635441809974000,0.40297412109375,4.225017742156982,1.8079215286254882,9.95987890625
1789635441820014000,0.41301416015625,3.641730362701416,2.0458453186035155,9.83852280960083
1789635441830054000,0.423053955078125,2.399887889099121,2.447023734283447,10.358663120269775
1789635441840094000,0.433093994140625,0.7224503509521484,3.7057752571105955,11.333701746368407
1789635441850134000,0.443134033203125,-2.039410901641846,5.078400996398925,12.35961715774536
1789635441860173800,0.453173828125,-4.508281726074219,5.16519080657959,11.894992398071288
1789635441870214000,0.4632138671875,-5.8557683479309075,4.575169734954834,10.603320602416991
1789635441880253000,0.4732529296875,-5.615300718688965,4.273350688171386,9.804555073547363
1789635441890293000,0.48329296875,-4.616918626403808,3.752013276672363,9.764452195739745
1789635441900332800,0.493332763671875,-4.4382513275146485,4.013280532836914,9.982025271606444
1789635441910372900,0.503372802734375,-6.114342127227783,4.524442587280273,9.973645565795898
1789635441920412700,0.51341259765625,-8.439860127258301,3.735553140258789,9.037811991882323
1789635441930452700,0.52345263671875,-9.718214176177979,2.8983307472229,7.445967163085937
1789635441940492800,0.533492919921875,-17.663671660614014,3.788524851989746,6.726958477020263
1789635441950532900,0.543532958984375,-28.88125462646484,5.7508723876953125,10.369736302947997
1789635441960573000,0.553572998046875,-33.50535585784912,6.327426074981689,14.054113382720946
1789635441970613000,0.563613037109375,-15.49557241973877,1.961898622894287,10.98639286804199
1789635441980651800,0.57365185546875,-4.0243537155151365,0.9795277542114257,7.723694555664062
1789635441990691800,0.58369189453125,-7.438335645294189,1.9789573097229003,4.676624030303955
1789635442000732000,0.59373193359375,-7.5525091369628905,0.39968203964233395,-0.04548983154296875
1789635442010772000,0.60377197265625,-7.986158912658691,-2.78355870513916,-1.01514150390625
1789635442020811800,0.613811767578125,-4.150647853088379,-2.272247013092041,7.117811898040771
1789635442030851800,0.623851806640625,1.4743793098449707,-0.9201216255187987,12.725780374145508
1789635442040892000,0.633891845703125,4.604947618103027,-0.06853402252197265,18.869451471710203
1789635442050932000,0.643931884765625,7.682095301818848,0.5678747062683105,21.18374665145874
1789635442060972000,0.653971923828125,-0.354341845703125,-2.877231845092773,17.153257794189454
1789635442071010800,0.6640107421875,-12.860603855133055,-6.476165853118896,6.905476138305664
1789635442081051000,0.67405078125,-9.878625687408446,-6.5586161727905266,-3.986944314575195
1789635442091091000,0.684091064453125,-3.2887352554321287,3.91990666809082,4.771045358276367
1789635442101131000,0.694131103515625,2.706345701599121,2.145803237915039,20.555119078063964
1789635442111171000,0.704171142578125,-0.8117840003967285,-2.8950387199401852,12.205789701080322
1789635442121211000,0.7142109375,-9.922469505310058,-1.8704700469970703,9.98486838607788
1789635442131251000,0.7242509765625,-10.207678778076172,-4.548983154296875,9.937433265686035
1789635442141291000,0.734291015625,-7.03566085357666,-5.894524487304687,10.261249040222168
1789635442151331000,0.7443310546875,-8.712499841308594,1.1207856521606445,14.068179317474364
1789635442161371000,0.754370849609375,-2.751087345123291,-2.516605220031738,11.433061115264891
1789635442171410000,0.764409912109375,-1.1254244178771973,-11.66425121307373,3.5558383781433105
1789635442181450000,0.774449951171875,-3.323750454711914,-19.10737526168823,-5.1508255966186525
1789635442191490000,0.784489990234375,-6.16761311416626,-18.301427127838135,-3.6414310874938964
1789635442201529900,0.79452978515625,-5.885097318267822,-13.465139774322509,4.791695347595215
1789635442211569700,0.804569580078125,-2.740762350463867,-8.204929089355469,8.78432589111328
1789635442221609500,0.814609375,-3.6700118698120114,-6.784419316864013,6.589740794372558
1789635442231649300,0.824649169921875,-5.592855078125,-5.737554640960693,5.304054502868652
1789635442241689300,0.834689453125,-7.543231605529785,-4.311508277130127,5.584774647521972
1789635442251729400,0.8447294921875,-8.24952109527588,-3.905840733337402,5.825391914367676
1789635442261769500,0.85476953125,-7.776516629791259,-4.675576567077637,4.286967710113525
1789635442271808500,0.86480859375,-6.996156526184081,-5.78409193572998,3.1482255455017087
1789635442281848300,0.874848388671875,-4.68006569519043,-6.3061775352478024,3.2814030128479
1789635442291888400,0.884888427734375,-3.053654579925537,-6.277447115325927,4.975599962615966
1789635442301928400,0.894928466796875,-4.14975002746582,-6.0324903579711915,6.745214264678955
1789635442311968500,0.904968505859375,-5.496039548492432,-6.142773271942138,7.250540452575684
1789635442322008300,0.91500830078125,-5.387253010559082,-5.130025969696044,6.207267079162597
1789635442332048400,0.92504833984375,-4.53955598526001,-4.295796328735351,5.316025511169434
1789635442342088400,0.93508837890625,-4.490175576019287,-4.752490295410156,5.102492650604248
1789635442352128500,0.94512841796875,-5.6377463592529296,-7.029974624633788,4.508132088470458
1789635442362167300,0.955167236328125,-5.761795932769775,-7.456142520141601,4.836436991119385
1789635442372207400,0.965207275390625,-5.332186372375488,-6.088604459381103,5.5829789962768555
1789635442382247400,0.975247314453125,-5.476437022399902,-4.9534535972595215,5.994033493804931
1789635442392287500,0.98528759765625,-6.594080284881591,-3.9088334854125972,6.452523111724853
1789635442402327600,0.99532763671875,-8.259995727539062,-3.3527801498413083,6.140827983093262
1789635442412367600,1.00536767578125,-7.671171756744385,-3.797353470611572,5.362113893127441
1789635442422407400,1.015407470703125,-7.146991230773925,-3.8645407546997066,5.210381362915038
1789635442432447500,1.025447509765625,-6.14816022567749,-2.494907767486572,5.446060588836669
1789635442442487600,1.035487548828125,-5.135263285827636,-3.6631285400390623,4.772841009521484
1789635442452526600,1.045526611328125,-3.806331726837158,-5.394136340332031,5.492298608398437
1789635442462566400,1.05556640625,-4.454711463928223,-6.852205151367187,6.618171939086913
1789635442472606500,1.0656064453125,-7.256974869537353,-7.930044811248779,5.597194568634033
1789635442482646500,1.075646484375,-7.676409072875976,-7.473799757385254,4.606593631744384
1789635442492686600,1.0856865234375,-6.196642809295654,-6.611587884521484,4.601057040405273
1789635442502726700,1.0957265625,-5.484816728210449,-6.1727007926940916,5.3193175384521485
1789635442512766500,1.105766357421875,-5.793818379974365,-7.100304298400879,5.365106645202636
1789635442522806500,1.115806640625,-5.957372280883789,-8.007257814788819,5.039345581817627
1789635442532846300,1.125846435546875,-6.278195303344726,-8.075193286895752,4.439448428344726
1789635442542886400,1.135886474609375,-5.942558158111572,-5.559336254882812,3.608361177062988
1789635442552925700,1.14592578125,-6.176142457580566,-1.6566379112243652,4.048744644927979
1789635442562965500,1.155965576171875,-6.593930647277832,-2.0037971519470212,4.7673044181823725
1789635442573005300,1.16600537109375,-5.7520694885253905,-3.819050923156738,4.8795326210021965
1789635442583045400,1.17604541015625,-6.0531403472900385,-5.5647232086181635,4.737825810241699
1789635442593085400,1.18608544921875,-6.834099001312255,-8.21719937286377,4.011185606384277
1789635442603125500,1.19612548828125,-6.467786147308349,-10.351181240081786,4.386177441406249
1789635442613165300,1.206165283203125,-5.919513967132568,-10.36779101409912,5.048174200439453
1789635442623205400,1.216205322265625,-5.0775031707763665,-8.189666053771973,5.016600666046142
1789635442633245400,1.226245361328125,-5.19018028640747,-8.91899973449707,3.19236863861084
1789635442643284500,1.236284423828125,-5.30495232849121,-8.536526019287109,3.9610570091247554
1789635442653324300,1.24632421875,-5.623979699707031,-6.233752935028075,5.761047744750976
1789635442663364400,1.2563642578125,-7.090428216552734,-4.470872325134277,6.5695397178649895
1789635442673404400,1.266404296875,-7.48232910079956,-3.8652889427185055,5.572803639221191
1789635442683444500,1.276444580078125,-7.040000344085693,-0.020051438903808592,6.369773516845703
1789635442693484500,1.286484619140625,-7.164947743225097,-0.7558195365905761,6.502502071380615
1789635442703524600,1.296524658203125,-9.925611894989013,-4.693682717132568,3.801393685913086
1789635442713564400,1.306564453125,-5.220107807159423,-8.230666757202147,3.0247745223999023
1789635442723604500,1.3166044921875,-0.9934440513610839,-8.754847283172607,5.543474668884277
1789635442733643500,1.3266435546875,-3.6373908721923827,-7.7967177062988275,7.733720275115966
1789635442743683600,1.33668359375,-7.622988448333739,-5.7715223770141595,7.072022791290283
1789635442753723400,1.346723388671875,-8.017283534240722,-4.040664214324951,5.044732535552979
1789635442763763500,1.356763427734375,-6.625953094482422,-1.88977329788208,4.4662335594177245
1789635442773803500,1.366803466796875,-6.021716450500488,-1.4407108489990235,3.9618051971435544
1789635442783843600,1.376843505859375,-5.427505525970458,-1.473481484222412,4.289511549377441
1789635442793883600,1.386883544921875,-5.827636478424072,-1.045667575073242,4.687248300170898
1789635442803923500,1.39692333984375,-5.884498767852783,-0.5994482406616211,5.114762934112549
1789635442813963500,1.406963623046875,-6.9521630706787105,-0.41374797439575195,3.680636139678955
1789635442824003600,1.417003662109375,-7.5080667686462395,-0.5403413871765136,3.214515003967285
1789635442834042600,1.427042724609375,-6.491728163909912,-3.935917891693115,4.329464789581299
1789635442844082700,1.437082763671875,-5.72678073348999,-6.351817004394531,5.459976885986328
1789635442854122500,1.44712255859375,-9.107393477630614,-9.431508527374268,4.721664949035644
1789635442864162600,1.45716259765625,-7.996334269714355,-8.79674581222534,5.623081874084472
1789635442874202400,1.467202392578125,-6.206219615936279,-9.899874227142334,5.832724156951904
1789635442884242400,1.477242431640625,-2.841468457794189,-5.105635040283203,5.692214447021484
1789635442894282500,1.487282470703125,-3.0819360870361328,-5.79082562789917,6.4469865203857415
1789635442904322300,1.497322265625,-7.033416289520264,-6.221482651519775,5.2837037887573235
1789635442914362400,1.5073623046875,-8.097040377044678,-2.0962731910705563,5.1228433647155756
1789635442924401400,1.5174013671875,-7.7519760627746574,-5.083488674926757,4.417451700592041
1789635442934441500,1.52744140625,-6.919990985870361,-9.57695627822876,2.657264567565918
1789635442944481300,1.537481201171875,-6.914604032135009,-10.395025057983398,3.1569045265197753
1789635442954521300,1.547521240234375,-6.751798319244385,-10.328585961914062,3.310133432769775
1789635442964561400,1.5575615234375,-6.438307539367675,-8.813355586242675,3.038241906738281
1789635442974601500,1.5676015625,-7.09940647277832,-4.719719660186767,2.0554221252441405
1789635442984641500,1.5776416015625,-6.769156281280517,-1.2668319534301757,3.393032665252685
1789635442994681300,1.587681396484375,-6.749104842376709,-0.8406640579223632,3.3156700241088863
1789635443004721400,1.597721435546875,-5.859359650421142,0.5873275947570801,5.1791071037292475
1789635443014760400,1.607760498046875,-6.205770703124999,-2.897881834411621,5.397428367614745
1789635443024800500,1.617800537109375,-8.277952239990235,-3.7442321212768555,3.8697780708312988
1789635443034840600,1.627840576171875,-8.974964198303223,-4.339340871429443,3.7701194267272946
1789635443044880400,1.63788037109375,-7.814823856353759,-5.3405660781860345,3.177255240631103
1789635443054920400,1.64792041015625,-8.05080235748291,-4.664204109191894,2.187252854156494
1789635443064960500,1.65796044921875,-8.423549628448486,-4.703558798980713,1.5391723922729492
1789635443075000600,1.66800048828125,-7.619247508239746,-6.39057314376831,1.7823334983825683
1789635443085040600,1.67804052734375,-8.397961598205566,-5.061940859985351,2.485330960845947
1789635443095080400,1.68808056640625,-10.78303536453247,-4.294898503112793,4.103063095092773
1789635443105119500,1.698119384765625,-8.805424793243407,-6.417657550048828,5.213523752593994
1789635443115159600,1.70815966796875,-4.631134198760986,-7.660248211669922,5.2828059631347655
1789635443125199600,1.71819970703125,-8.615085761260985,-5.697002850341796,3.3132758224487304
1789635443135239400,1.728239501953125,-9.105897101593017,-3.997718222045898,0.4101566719055176
1789635443145279500,1.738279541015625,-9.531167171478272,-2.4622867698669433,-1.6597803009033203
1789635443155319600,1.748319580078125,-6.804470755767822,-1.378311968231201,-1.142183829498291
1789635443165359600,1.758359619140625,-8.77849002456665,-3.4522891563415525,1.3549685020446776
1789635443175399400,1.7683994140625,-9.023446781921386,-4.09258846282959,4.281431118774414
1789635443185439500,1.778439453125,-9.16186156539917,-6.668150898742676,4.1103953376770015
1789635443195479300,1.788479248046875,-7.431901228332519,-8.698284268951415,3.1797990798950195
1789635443205518600,1.7985185546875,-6.72291826171875,-8.77819074935913,3.120542588806152
1789635443215558700,1.80855859375,-8.643367268371582,-9.922619142913819,3.1754595893859863
1789635443225598500,1.818598388671875,-7.707683332061767,-9.296535408782958,2.0860978340148923
1789635443235638500,1.828638427734375,-7.994538618469238,-8.421903614807128,0.04144961624145507
1789635443245678300,1.83867822265625,-8.551489779663086,-7.761103956604003,-0.6896797157287597
1789635443255718400,1.848718505859375,-9.198373140716551,-7.168838320922851,-0.030526071166992186
1789635443265758500,1.858758544921875,-9.370306747436523,-5.296572622680664,0.4707599014282226
1789635443275798500,1.868798583984375,-9.69187795791626,-3.3918355644226073,0.41793782730102536
1789635443285838600,1.878838623046875,-9.42986251373291,-2.032527571868896,-0.4756979423522949
1789635443295878400,1.88887841796875,-9.07207900314331,-2.542193250274658,-1.4312836799621582
1789635443305917400,1.89891748046875,-8.236502623748779,-3.824587514495849,-0.5681739814758301
1789635443315957500,1.90895751953125,-8.03119983139038,-5.297620085906982,0.09382277755737305
1789635443325997600,1.91899755859375,-7.561637030792236,-6.6629135826110835,0.5214870491027832
1789635443336037600,1.92903759765625,-7.92929662322998,-7.298125210571289,-0.40072950286865233
1789635443346077400,1.939077392578125,-8.897900832366943,-7.124395952606201,-0.8875006278991698
1789635443356117500,1.949117431640625,-9.788543849945068,-6.3347583175659175,-0.12823942642211913
1789635443366157600,1.959157470703125,-9.875483297729492,-5.114912571716308,0.9528922607421875
1789635443376197600,1.96919775390625,-9.46158568572998,-4.134337354278564,1.5126865364074706
1789635443386237700,1.97923779296875,-9.245808261108397,-3.708169458770752,1.3926771781921385
1789635443396277500,1.989277587890625,-8.806322618865966,-3.6189854469299316,0.9804255798339843
1789635443406316500,1.999316650390625,-8.529193776702881,-3.5679590240478514,-0.046238019561767575
1789635443416356600,2.009356689453125,-7.848193041992187,-3.0635306617736813,-0.7234978141784667
1789635443426396700,2.019396728515625,-7.54607472000122,-3.014150252532959,-0.36810850524902344
1789635443436436500,2.0294365234375,-8.237849362182617,-3.599382920837402,0.03950432739257812
1789635443446476500,2.0394765625,-8.56211404953003,-4.518457083129882,0.39220015945434566
1789635443456516600,2.0495166015625,-9.473855969238281,-5.705681831359863,0.2685994987487793
1789635443466556700,2.059556640625,-10.20932479171753,-7.600991720581054,-0.38037878875732417
1789635443476596500,2.069596435546875,-9.470563941955566,-6.010942543029785,1.0404302589416503
1789635443486636300,2.07963623046875,-8.097788565063476,-5.446958414459228,0.05162497329711914
1789635443496676400,2.08967626953125,-7.965209648132324,-5.539733728790283,-0.7248445526123046
1789635443506715600,2.099715576171875,-8.680178118896483,-5.467009853363037,-0.6917746421813964
1789635443516755500,2.10975537109375,-8.812008847808837,-5.297919361114501,-0.9231143775939941
1789635443526795500,2.11979541015625,-9.243414059448241,-5.491400782775878,-1.3093290328979492
1789635443536835300,2.12983544921875,-9.382577030944823,-5.542876118469238,-1.418714121246338
1789635443546875400,2.13987548828125,-9.118616297912597,-6.142174721527099,-2.204461178588867
1789635443556915500,2.14991552734375,-9.361627766418456,-6.129904438018799,-2.4103625213623046
1789635443566955500,2.15995556640625,-8.752453081512451,-5.479729049682617,-1.7501614135742187
1789635443576995600,2.16999560546875,-8.217498648071288,-4.41790061340332,-1.333719962310791
1789635443587035400,2.180035400390625,-7.9931918800354,-4.742464575958252,-0.20575170516967772
1789635443597075500,2.190075439453125,-6.986280444335937,-5.186738621520996,0.12764087600708007
1789635443607114500,2.200114501953125,-6.660968293762207,-5.251980616760253,0.14784195251464843
1789635443617154600,2.210154541015625,-7.839364423370361,-4.8415246696472165,-0.3072060005187988
1789635443627194400,2.2201943359375,-9.714173960876463,-3.4395699600219722,-0.4896142395019531
1789635443637234400,2.230234375,-10.465654006958006,-1.665616167449951,0.47210663986206053
1789635443647274500,2.2402744140625,-9.99175171585083,0.39010523300170896,1.7938555938720702
1789635443657314600,2.250314453125,-8.902389960479736,1.9479823257446287,3.2612019363403317
1789635443667354600,2.260354736328125,-8.983343904113768,1.8261773162841797,2.6876410011291503
1789635443677394700,2.270394775390625,-9.026738809204101,-1.1962030044555663,0.3124433166503906
1789635443687434500,2.2804345703125,-8.560318398284911,-4.709693940734863,-0.6512228515624999
1789635443697474600,2.290474609375,-8.399308336639404,-5.814468369293213,-0.6299743118286133
1789635443707513600,2.300513671875,-8.735693669891356,-6.067355919647216,-0.31588498153686523
1789635443717553700,2.3105537109375,-9.0021982421875,-6.4728738258361815,-0.3098994773864746
1789635443727593500,2.320593505859375,-8.998307664489746,-5.847239004516601,-0.1836053398132324
1789635443737633500,2.330633544921875,-9.108291303253173,-4.787655132293701,-0.48108489608764643
1789635443747673600,2.340673583984375,-8.889670764160156,-3.9311294883728025,-0.750133307647705
1789635443757713700,2.350713623046875,-8.546102825927735,-4.004751189422607,-0.8123825508117676
1789635443767753700,2.360753662109375,-8.219743212127685,-4.327818775939941,-0.47315410308837885
1789635443777793300,2.370793212890625,-8.314314177703857,-4.408174169158936,-0.2720411636352539
1789635443787833300,2.380833251953125,-8.63827958984375,-4.55182626876831,-0.361374813079834
1789635443797872600,2.39087255859375,-8.482506844329833,-5.393986702728271,-0.5123591552734374
1789635443807912700,2.40091259765625,-8.605209679412841,-5.930138236999511,-0.3850175544738769
1789635443817952500,2.410952392578125,-8.700379195404052,-5.764040496826172,-0.1854009910583496
1789635443827992300,2.420992431640625,-9.067440237426757,-5.798307508087158,-0.5403413871765136
1789635443838032400,2.431032470703125,-9.178471339416504,-5.193771588897705,-0.8702923034667969
1789635443848072400,2.441072509765625,-8.645312557220459,-4.511124840545654,-1.093701245880127
1789635443858112500,2.451112548828125,-8.106467546081543,-4.657620054626465,-1.1237784042358399
1789635443868152600,2.461152587890625,-8.186673301696777,-4.971709384918213,-0.7032967376708984
1789635443878192400,2.4711923828125,-8.712649478912352,-4.794239186859131,-0.3794809631347656
1789635443888232400,2.481232421875,-9.343072703552245,-5.167585008239746,-0.4745008415222168
1789635443898271500,2.491271484375,-9.681702600860595,-5.297769723510742,-0.5096656784057617
1789635443908311600,2.5013115234375,-9.10320362472534,-5.34325955505371,-0.7656956184387207
1789635443918351400,2.511351318359375,-8.40738876724243,-4.91604419631958,-0.7727285858154297
1789635443928391400,2.521391357421875,-7.87812056274414,-4.509778102111816,-0.7018003616333007
1789635443938431500,2.531431396484375,-7.745840921020507,-4.258985478210449,-0.5865794067382812
1789635443948471600,2.541471435546875,-8.29905114212036,-4.091989912414551,-0.6386532928466796
1789635443958511600,2.55151171875,-8.590844469451904,-3.982006273651123,-0.6546645164489746
1789635443968551700,2.5615517578125,-8.516474580383301,-3.905990370941162,-0.6498761131286621
1789635443978591500,2.571591552734375,-8.77774183654785,-3.720739017486572,-0.5309142181396485
1789635443988631600,2.581631591796875,-9.144353965759278,-3.665822016906738,-0.3794809631347656
1789635443998670600,2.591670654296875,-9.455001631164551,-3.829226280212402,-0.3389291725158691
1789635444008710700,2.601710693359375,-9.685443540954589,-3.884891468811035,-0.4267664459228515
1789635444018750500,2.61175048828125,-9.444676636505127,-3.8066310020446776,-0.5805939025878906
1789635444028790500,2.62179052734375,-8.767716117095947,-3.5872622749328613,-0.7662941688537597
1789635444038830600,2.63183056640625,-8.513631465911864,-3.10917013092041,-0.8505401397705078
1789635444048870700,2.64187060546875,-8.623615104675292,-2.789544209289551,-1.194407353210449
1789635444058910700,2.65191064453125,-9.123404701232909,-2.609979084777832,-1.636885747528076
1789635444068950500,2.661950439453125,-9.331550608062743,-2.486079148864746,-1.9735703559875488
1789635444078990300,2.671990234375,-8.93875189819336,-2.48323603439331,-2.236633263397217
1789635444089030400,2.682030517578125,-8.083722630310058,-2.227655007171631,-2.232443410491943
1789635444099069700,2.692069580078125,-7.574655502319335,-1.7169418655395507,-2.1812673500061033
1789635444109109500,2.702109619140625,-8.092251973724364,-1.3952210174560546,-2.2221184158325196
1789635444119149600,2.712149658203125,-9.077316319274901,-1.792059942626953,-0.6938695686340332
1789635444129189400,2.722189453125,-10.002226348114013,-2.429067221832275,-0.3929483474731445
1789635444139229400,2.7322294921875,-10.360159496307373,-2.6421511695861817,-1.1219827529907227
1789635444149269500,2.74226953125,-9.824157599639893,-2.512714642333984,-1.712303099822998
1789635444159309600,2.7523095703125,-8.919448647308348,-2.547879479217529,-2.026990980529785
1789635444169349400,2.762349365234375,-8.500912269592284,-2.66220260848999,-1.9367595054626463
1789635444179389400,2.772389404296875,-8.88667801208496,-2.7365724975585937,-1.5285481224060058
1789635444189428500,2.782428466796875,-10.071658196258545,-3.014748802947998,-1.4754267730712889
1789635444199468500,2.792468505859375,-11.220426080322264,-3.3828573081970212,-1.5664064361572265
1789635444209508600,2.802508544921875,-11.096526144409179,-4.152742779541016,-1.2753612968444823
1789635444219548700,2.812548583984375,-9.67242506942749,-4.988019883728027,-1.2671312286376952
1789635444229588700,2.822588623046875,-8.582315126037598,-4.894197106170654,-1.5310919616699217
1789635444239628800,2.83262890625,-7.998878108978271,-4.182969575500488,-1.1595417915344237
1789635444249668900,2.8426689453125,-7.841010437011718,-3.858854525756836,-0.38307226562499996
1789635444259708700,2.852708740234375,-7.459883460235595,-3.7633857345581054,-0.19018939437866209
1789635444269748700,2.862748779296875,-7.549965297698974,-3.611503566741943,-0.8228571830749511
1789635444279788800,2.872788818359375,-8.58022019958496,-3.255366069793701,-1.7694646644592285
1789635444289827800,2.882827880859375,-9.488221179199218,-2.9885622222900388,-2.4193407775878906
1789635444299867600,2.89286767578125,-9.958681805419921,-2.7971757270812985,-2.207154655456543
1789635444309907700,2.90290771484375,-9.747842421722412,-2.823063032531738,-1.0205284576416016
1789635444319947800,2.91294775390625,-8.737489321136474,-3.365050433349609,0.1288379768371582
1789635444329987800,2.92298779296875,-7.8906901214599605,-3.878606689453125,0.35149873123168945
1789635444340028000,2.93302783203125,-7.86540136642456,-4.089446073150635,-0.3437175758361816
1789635444350067700,2.943067626953125,-8.458265552520752,-4.204068477630615,-1.1745055519104004
1789635444360107800,2.953107666015625,-8.941744650268554,-4.312406102752686,-1.6925509361267088
1789635444370147600,2.963147705078125,-9.35878465194702,-4.543296925354004,-2.0412065528869627
1789635444380187000,2.973186767578125,-9.213785813903808,-4.712237779998779,-2.225560080718994
1789635444390227000,2.98322705078125,-8.871414976501464,-4.498555281829834,-2.070236248016357
1789635444400266800,2.993266845703125,-8.744971201324462,-4.184166676330566,-1.7322049011230467
1789635444410306800,3.003306884765625,-8.48445213317871,-4.143016335296631,-1.0634744499206543
1789635444420346600,3.0133466796875,-7.7790604690551755,-4.3926118583679195,-0.3311480171203613
1789635444430386700,3.02338671875,-7.726088757324218,-4.646846147155761,0.0282815071105957
1789635444440426800,3.0334267578125,-7.374739663696289,-4.993406837463379,0.04025251541137695
1789635444450466600,3.043466552734375,-6.975207261657714,-5.256469744873047,-0.19512743530273435
1789635444460506600,3.053506591796875,-6.949918506622314,-5.322459928131103,-0.6970119583129882
1789635444470546700,3.063546630859375,-7.0567597557067865,-5.03111551361084,-1.3646949462890625
1789635444480585700,3.073585693359375,-6.515520542907715,-4.454112913513184,-1.8981530036926269
1789635444490625500,3.08362548828125,-6.088903734588623,-4.0155250968933105,-1.9436428352355957
1789635444500665600,3.09366552734375,-5.710021321868896,-3.8926726242065426,-1.3530232131958007
1789635444510705700,3.10370556640625,-5.239710333251953,-4.154388793182373,-0.8276455863952636
1789635444520745700,3.113745849609375,-5.8749219612121575,-4.685303011322021,-0.8942343200683593
1789635444530785800,3.123785888671875,-7.68015001296997,-5.662286926269531,-0.963366893005371
1789635444540825900,3.133825927734375,-9.457246195220947,-6.928370691680907,-0.445620783996582
1789635444550865700,3.14386572265625,-10.270077658843993,-8.0062103515625,0.4465186096191406
1789635444560905700,3.15390576171875,-10.013898081207275,-8.409184418487548,1.4125789794921875
1789635444570944800,3.16394482421875,-9.456498007202148,-8.055141847991942,1.897404815673828
1789635444580984800,3.17398486328125,-9.44213279724121,-6.953509809112548,1.7381904052734374
1789635444591024600,3.184024658203125,-9.945663333892822,-5.553650025939941,1.0039186836242675
1789635444601064700,3.194064697265625,-10.101436079406737,-4.582053064727783,0.5995978782653808
1789635444611104800,3.204104736328125,-10.382754774475098,-4.547187503051758,0.9343371978759765
1789635444621144800,3.214144775390625,-10.433182646942138,-5.303605590057373,1.8583494010925292
1789635444631185000,3.224184814453125,-9.596858079528808,-6.1924529563903805,2.958634701538086
1789635444641224700,3.234224609375,-8.270320722198486,-6.478709692382812,3.1688755348205566
1789635444651264800,3.2442646484375,-7.32266577758789,-6.221931564331054,2.067991683959961
1789635444661303800,3.2543037109375,-7.171082884979247,-5.674706847381591,0.5274725532531738
1789635444671343900,3.26434375,-7.7693340248107905,-5.693112272644043,-0.37768531188964843
1789635444681383700,3.2743837890625,-8.448838383483887,-6.405536904144287,-0.2302922721862793
1789635444691423700,3.284423828125,-8.366238426208495,-7.464073313140869,0.3006219459533691
1789635444701463800,3.2944638671875,-8.033743670654296,-8.02566324005127,0.7909843734741211
1789635444711504000,3.30450390625,-7.491008081817626,-7.788038725280761,1.2312182037353514
1789635444721543700,3.314543701171875,-7.128436167907714,-7.200411855316162,1.2624924629211425
1789635444731583700,3.324583740234375,-6.944980465698242,-6.407631830596923,0.8889970039367675
1789635444741623600,3.33462353515625,-7.342866854095458,-5.6015340591430665,0.5524620330810547
1789635444751663600,3.34466357421875,-7.659948936462402,-5.153668711090088,0.6733692169189452
1789635444761702700,3.35470263671875,-8.044816853332518,-5.059097745513916,1.5034090049743651
1789635444771742700,3.36474267578125,-7.585429409790039,-5.293280595397949,2.5719711334228514
1789635444781782500,3.374782470703125,-6.612485710144043,-5.864746604156494,2.525733113861084
1789635444791822600,3.384822509765625,-6.373215181732177,-6.074538524627685,1.9155109657287597
1789635444801862700,3.394862548828125,-6.757634185791015,-5.795314756011963,1.480514451599121
1789635444811902700,3.40490283203125,-7.78893655090332,-5.4792801368713375,1.2173019065856934
1789635444821942800,3.41494287109375,-8.805125518035888,-5.373486351013184,1.1876736610412597
1789635444831982600,3.424982666015625,-9.286808964538574,-5.437381607818603,1.2556091331481933
1789635444842022700,3.435022705078125,-9.633369654846192,-5.76493832244873,1.2469301521301268
1789635444852061700,3.445061767578125,-9.702053314971923,-6.6072483940124505,1.2123638656616211
1789635444862101800,3.455101806640625,-9.14824454345703,-7.697208699798583,1.389834063720703
1789635444872141800,3.465141845703125,-7.809586540222168,-8.29950005493164,1.6502034942626953
1789635444882181600,3.475181640625,-6.1179334297180175,-8.058134600067138,1.609502066040039
1789635444892221700,3.4852216796875,-5.475838471984863,-7.161805353546142,1.3015478775024414
1789635444902261800,3.49526171875,-5.330241083526611,-6.315455066680908,0.8358756546020507
1789635444912301800,3.5053017578125,-5.9783215454101555,-5.600336958312988,0.5623381149291992
1789635444922342000,3.515341796875,-6.321440570831299,-5.219359619140625,0.5494692810058593
1789635444932381700,3.525381591796875,-6.183474700164795,-5.344157380676269,1.0277110626220702
1789635444942420700,3.535420654296875,-5.366154108428955,-6.232855109405517,1.5596727439880371
1789635444952460800,3.545460693359375,-4.533271205902099,-7.5065703926086425,1.445499252319336
1789635444962500900,3.5555009765625,-4.509478826904297,-8.230217844390868,0.9463082061767577
1789635444972540700,3.565540771484375,-5.13945313873291,-8.457667002105712,0.6189011291503906
1789635444982580700,3.575580810546875,-5.9376201171875,-8.502109370422362,0.3510498184204101
1789635444992620800,3.585620849609375,-6.342539472961425,-8.605060041809082,0.229843359375
1789635445002660900,3.595660888671875,-5.976675531768798,-8.539967684173584,0.21293431015014647
1789635445012700700,3.60570068359375,-6.353911930847167,-8.144475497436522,0.29433716659545894
1789635445022740700,3.61574072265625,-6.629544396972656,-7.902810767364501,0.650624301147461
1789635445032779800,3.62577978515625,-5.66902061843872,-7.861361151123046,0.7900865478515624
1789635445042819800,3.63581982421875,-4.676025479888915,-7.840711161804199,0.6425438705444335
1789635445052860000,3.64585986328125,-4.50050057067871,-7.934833214569092,0.5961562133789062
1789635445062899700,3.655899658203125,-5.195866515350342,-8.425494917297362,0.910395181274414
1789635445072939500,3.665939453125,-4.901978261566162,-9.28246947402954,1.331026485443115
1789635445082979600,3.6759794921875,-4.084059119415283,-10.098144052124022,0.8738836059570312
1789635445093019600,3.68601953125,-4.6447512207031245,-10.091260722351073,0.2715922508239746
1789635445103059700,3.696059814453125,-6.433219860839843,-9.368810371398926,0.7996633544921875
1789635445113099800,3.706099853515625,-7.015160501861572,-8.898798657989502,2.34960965423584
1789635445123139600,3.7161396484375,-6.20592034072876,-8.660725230407714,3.512144197845459
1789635445133178600,3.7261787109375,-5.15860675201416,-8.601768014526368,3.097049485015869
1789635445143218700,3.73621875,-5.4266077003479,-8.731952729797364,2.2635680320739744
1789635445153258800,3.7462587890625,-6.354360843658447,-8.939350448608398,2.0437503921508786
1789635445163298800,3.756298828125,-6.316951442718506,-9.279027809143066,2.1082441993713377
1789635445173338600,3.766338623046875,-4.965424605560303,-9.50647696685791,1.7497125007629393
1789635445183378700,3.776378662109375,-3.99652112121582,-9.05891089401245,1.1526584617614746
1789635445193418800,3.786418701171875,-4.124610910034179,-8.476521340179444,0.9992799179077148
1789635445203458800,3.796458740234375,-4.978891989898681,-8.103774069213866,1.111508120727539
1789635445213499000,3.806498779296875,-5.691166983795165,-8.120084568023682,1.2105682144165038
1789635445223537700,3.81653759765625,-5.810278516387939,-8.601019826507567,1.2389993591308592
1789635445233577700,3.82657763671875,-5.768080712127685,-9.113528619384764,1.5919944664001464
1789635445243617800,3.83661767578125,-5.63729744644165,-9.288305340576171,1.7714099533081054
1789635445253657900,3.846657958984375,-5.52895982131958,-8.70262375946045,1.3181576515197753
1789635445263697700,3.85669775390625,-5.108777429962158,-7.696610149383544,0.8991723609924316
1789635445273737700,3.86673779296875,-4.451419436645508,-7.04823041229248,0.7211036125183105
1789635445283777800,3.87677783203125,-4.764012390899658,-7.007977896881103,0.7118260810852051
1789635445293817900,3.88681787109375,-5.990891104125976,-7.588122886657715,0.7627028663635254
1789635445303858000,3.89685791015625,-6.495020191192626,-8.279298978424071,1.119139638519287
1789635445313896700,3.906896728515625,-5.54766452178955,-8.4651488822937,1.7357962036132812
1789635445323936800,3.916936767578125,-4.318990157318115,-7.913435037231445,2.296338667297363
1789635445333976800,3.926976806640625,-3.4344822814941405,-6.823025818634033,2.145653600311279
1789635445344017000,3.937016845703125,-3.093009269714355,-6.241983003234863,1.561618032836914
1789635445354057000,3.947056884765625,-3.2282816635131835,-6.492476351928711,0.9832686943054199
1789635445364096800,3.9570966796875,-3.695300624847412,-7.015310139465331,0.4068646446228027
1789635445374136600,3.967136474609375,-4.045153342437744,-7.588422161865234,-0.016160861206054686
1789635445384176600,3.9771767578125,-4.164713787841797,-8.188169677734374,-0.1301847152709961
1789635445394216700,3.987216796875,-4.183568125915527,-8.566453540039062,0.15128361740112303
1789635445404255700,3.997255859375,-4.457554578399658,-8.819939640808105,0.7861959701538086
1789635445414295600,4.007295654296875,-4.94776736831665,-9.018658378601074,1.4924854598999022
1789635445424335600,4.017335693359375,-4.965723880767822,-9.098714496612548,1.5454571716308594
1789635445434375700,4.027375732421875,-5.415983430480956,-9.215132552337646,0.7832032180786133
1789635445444415700,4.037415771484375,-6.259490602874756,-9.325864379119873,0.19946692581176756
1789635445454455600,4.04745556640625,-6.311115576171875,-9.138518099212646,0.66394204788208
1789635445464495600,4.05749560546875,-5.835567271423339,-8.685864347839354,1.493383285522461
1789635445474535700,4.06753564453125,-5.587318486785889,-8.4666452583313,1.4668974296569823
1789635445484575700,4.07757568359375,-5.578639505767822,-8.616731774902343,0.9276035057067871
1789635445494614800,4.08761474609375,-5.431096828460693,-8.652794437408447,0.49634793167114255
1789635445504654600,4.097654541015625,-5.122394451904297,-8.586953891754149,0.3416226493835449
1789635445514694700,4.107694580078125,-5.26065959777832,-8.635885388183594,0.7463923675537109
1789635445524734700,4.117734619140625,-5.871779571533203,-8.636483938598632,1.261594637298584
1789635445534774800,4.12777490234375,-6.474968752288818,-8.52246008453369,1.230320378112793
1789635445544814800,4.13781494140625,-6.90787033996582,-8.294562014007568,0.9683049339294433
1789635445554854700,4.147854736328125,-7.433098329162597,-7.979275582885742,1.0395324333190918
1789635445564894700,4.157894775390625,-7.813177842712402,-7.6190978706359855,1.2594997108459471
1789635445574934800,4.167934814453125,-7.8067434257507315,-7.177666939544677,1.0859200904846191
1789635445584974800,4.177974853515625,-7.480234174346923,-7.020996368408203,0.9864110839843749
1789635445595013600,4.188013671875,-7.735815201568603,-6.959345675659179,1.2957120109558105
1789635445605053700,4.1980537109375,-8.149862451171874,-6.870909851837157,1.978508396911621
1789635445615093800,4.20809375,-8.374019581604003,-6.809857709503174,2.7398645248413085
1789635445625133800,4.2181337890625,-8.559270935058594,-6.507739387512206,3.228431301116943
1789635445635174000,4.228173828125,-8.86827258682251,-5.857414361572265,3.5384804161071775
1789635445645214000,4.2382138671875,-9.190891260528565,-5.23492192993164,3.842693664550781
1789635445655253800,4.248253662109375,-9.146598529815673,-4.8323967758178705,3.964049761199951
1789635445665293600,4.25829345703125,-8.42010796356201,-4.979640177917481,3.5996821960449217
1789635445675333600,4.268333740234375,-7.161356440734862,-5.358223315429687,2.790591672515869
1789635445685373000,4.278373046875,-6.171204416656494,-5.347000495147705,2.2596774543762206
1789635445695412700,4.288412841796875,-5.4512979049682615,-5.476137747192382,1.9698294158935545
1789635445705452800,4.298452880859375,-5.146785381317138,-6.086359895324707,1.6935983993530273
1789635445715492600,4.30849267578125,-5.632209767913818,-6.577620148468017,1.3479355346679687
1789635445725532700,4.31853271484375,-6.253954011535644,-6.789656632995605,1.1183914505004882
1789635445735572700,4.32857275390625,-6.635529901123046,-6.780678376770019,1.1592425163269042
1789635445745612500,4.338612548828125,-7.068730764007568,-6.4178071876525875,1.077690022277832
1789635445755652600,4.348652587890625,-8.042721926879882,-5.903802018737792,1.206079086303711
1789635445765692700,4.358692626953125,-8.901791410064696,-6.086359895324707,1.449838742828369
1789635445775731700,4.368731689453125,-9.633369654846192,-6.457760427856445,1.5515923133850096
1789635445785771500,4.378771484375,-9.805003986358642,-6.632836424255371,1.4800655387878416
1789635445795811600,4.3888115234375,-9.059958357238768,-6.684012484741211,1.2198457458496093
1789635445805851600,4.3988515625,-7.931241912078857,-6.481103894042969,0.7942764007568359
1789635445815891700,4.4088916015625,-6.864026522064209,-6.3609448982238765,0.5312134933471679
1789635445825931800,4.418931884765625,-5.642534762573242,-6.10955372390747,0.6504746635437011
1789635445835971800,4.428971923828125,-5.1988592674255365,-5.608267751312256,1.1417349166870117
1789635445846011600,4.43901171875,-5.569810887145996,-5.008520235443115,1.4935329231262207
1789635445856051700,4.4490517578125,-6.575076309204102,-4.668992512512207,1.8466776679992676
1789635445866090800,4.4590908203125,-7.544129431152343,-4.717175820922852,2.0322282966613767
1789635445876130800,4.469130859375,-8.057835324859619,-5.198111079406738,1.8285715179443358
1789635445886170600,4.479170654296875,-8.713098391723632,-5.539434453582763,1.8236334770202636
1789635445896210700,4.489210693359375,-9.091681529235839,-5.772420202636718,2.1492449028015135
1789635445906250800,4.499250732421875,-8.451082947540282,-5.932831713867187,2.1773767723083495
1789635445916290800,4.509290771484375,-7.836970221710205,-5.799055696105957,2.1848586524963376
1789635445926331000,4.519330810546875,-7.773374240112304,-5.576394941711426,2.389413256835937
1789635445936370700,4.52937060546875,-7.58438194656372,-5.404910247802734,2.2758383155822752
1789635445946410800,4.53941064453125,-7.940519443511962,-5.345653756713867,2.1517887420654294
1789635445956449800,4.54944970703125,-8.513182553100586,-5.598840582275391,2.268805348205566
1789635445966489900,4.55948974609375,-8.831162461090088,-6.131999364471435,2.096123553466797
1789635445976530000,4.569530029296875,-9.147197080230713,-6.489184324645996,1.846976943206787
1789635445986569700,4.57956982421875,-9.430311426544188,-6.418256100463867,1.4905401710510253
1789635445996609800,4.58960986328125,-9.64578957595825,-6.00794979095459,1.140238540649414
1789635446006649900,4.59964990234375,-9.641300447845458,-5.6103626777648925,1.1065700798034668
1789635446016689700,4.609689697265625,-9.072378278350829,-5.5647232086181635,1.064970825958252
1789635446026729700,4.619729736328125,-8.199392498016357,-5.834819083404541,1.0039186836242675
1789635446036769500,4.62976953125,-7.480533449554443,-6.164321086883545,0.9983820922851562
1789635446046808800,4.639808837890625,-7.357830614471435,-6.260687703704834,0.97039986038208
1789635446056848600,4.6498486328125,-7.969249863433838,-6.077531276702881,0.9879074600219726
1789635446066888700,4.659888671875,-8.612990834808349,-5.843348426818848,0.8761281700134277
1789635446076928500,4.669928466796875,-8.601319101715088,-5.508908382415771,0.5403413871765136
1789635446086968600,4.679968505859375,-8.335263442230223,-4.906168114471435,0.35523967132568357
1789635446097008600,4.690008544921875,-8.059780613708496,-4.100519255828857,0.4982932205200195
1789635446107048700,4.700048583984375,-7.871386870574951,-3.499125726318359,0.4697124382019043
1789635446117088800,4.7100888671875,-8.141632382965087,-3.4741362464904784,0.6189011291503906
1789635446127128800,4.72012890625,-8.949525805664061,-3.971681278991699,1.0287585258483887
1789635446137167600,4.730167724609375,-9.536404487609863,-4.873098204040527,1.2702736183166503
1789635446147207700,4.740207763671875,-9.632471829223633,-5.792022728729248,1.3207014907836914
1789635446157247700,4.750247802734375,-9.338284300231933,-6.358251421356201,1.2328642173767088
1789635446167287800,4.760287841796875,-9.164854317474365,-6.39745647354126,1.128117894744873
1789635446177327600,4.77032763671875,-9.191789086151122,-6.131400814056396,1.0516530792236327
1789635446187367700,4.78036767578125,-8.692448402404784,-5.434837768554687,0.8355763793945312
1789635446197407700,4.79040771484375,-8.233659509277343,-4.4835915214538575,0.7812579292297362
1789635446207447800,4.80044775390625,-8.160187445831298,-3.861847277832031,0.9377788627624511
1789635446217487000,4.810487060546875,-8.33780728149414,-3.8070799148559566,1.2038345222473144
1789635446227526100,4.820526123046875,-8.552986155700683,-4.312406102752686,1.32144967880249
1789635446237566000,4.83056591796875,-8.65728356552124,-4.704157349395752,1.0812813247680664
1789635446247606000,4.84060595703125,-8.885031998443603,-4.7584757995605464,0.7986158912658691
1789635446257646000,4.85064599609375,-8.810213196563721,-4.645499408721924,0.505625463104248
1789635446267686100,4.86068603515625,-8.226925817108153,-4.492569777679443,0.35149873123168945
1789635446277726200,4.870726318359375,-7.562385218811035,-4.279635467529297,0.5006874221801757
1789635446287766300,4.880766357421875,-7.726088757324218,-4.195688771820068,0.8511386901855468
1789635446297806000,4.89080615234375,-8.632593360900879,-4.367622378540039,1.1420341918945311
1789635446307846100,4.90084619140625,-9.01386997528076,-4.579509225463867,1.0013748443603514
1789635446317885200,4.91088525390625,-9.010727585601806,-4.609885659027099,0.5337573326110839
1789635446327925200,4.92092529296875,-9.184157568359375,-4.217685499572753,0.12120645904541015
1789635446337965000,4.930965087890625,-9.125499627685546,-3.8838440055847165,0.003142389678955078
1789635446348005000,4.941005126953125,-9.141361213684082,-4.014178358459472,0.1327285545349121
1789635446358045200,4.951045166015625,-9.434650917053222,-4.540004898071289,0.28730419921875
1789635446368085200,4.961085205078125,-9.728539170837402,-4.8136920753479,-0.1288379768371582
1789635446378125300,4.971125244140625,-9.611971477508545,-4.534767581939697,-0.6040870063781738
1789635446388165000,4.9811650390625,-8.562862237548828,-4.231601796722412,-0.24869769744873046
1789635446398205000,4.991204833984375,-7.438485282897949,-3.956867156219482,0.598251139831543
1789635446408245000,5.001244873046875,-7.435492530822754,-3.755903854370117,1.1718120750427246
1789635446418284300,5.0112841796875,-8.888324025726318,-3.7587469688415527,1.025915411376953
1789635446428324000,5.021323974609375,-9.869048880767822,-3.1926679138183593,0.1423053611755371
1789635446438364000,5.031364013671875,-10.650007534790038,-3.0027777946472165,-0.47105917663574215
1789635446448404000,5.041404052734375,-9.662548987579346,-3.4555811836242674,-0.6877344268798827
1789635446458444000,5.051444091796875,-7.65456198272705,-3.5564369285583495,-0.7110778930664062
1789635446468484000,5.061484130859375,-7.261613635253906,-3.334524362182617,-0.5596446380615234
1789635446478524200,5.071524169921875,-7.951742263793945,-2.8866590141296387,-0.11028291397094726
1789635446488564000,5.08156396484375,-7.949796974945068,-2.5213936233520506,-0.052073886108398436
1789635446498603000,5.09160302734375,-7.523180166625976,-2.510918991088867,-0.4337994132995605
1789635446508643000,5.10164306640625,-6.983138054656982,-2.4769512550354,-0.6944681190490722
1789635446518683100,5.11168310546875,-6.991517760467529,-2.133682592010498,-0.25468320159912106
1789635446528723000,5.121722900390625,-8.252663484954834,-2.1633108375549317,0.20425532913208005
1789635446538763000,5.131762939453125,-9.49959363708496,-2.6307787117004393,0.6868366012573242
1789635446548803000,5.141802978515625,-9.599102643585205,-3.044676323699951,0.5799953521728515
1789635446558843100,5.151843017578125,-9.312546632385253,-2.3882161560058592,-0.15307926864624022
1789635446568883200,5.16188330078125,-8.847173684692383,-1.5014637161254882,-0.06509235763549805
1789635446578923000,5.171923095703125,-7.24021545791626,-1.3569137908935547,0.9859621711730956
1789635446588962000,5.181962158203125,-5.468206954193115,-1.8168997848510742,1.2005424949645995
1789635446599002000,5.192002197265625,-7.023240932464599,-2.130540202331543,0.06284779357910156
1789635446609042200,5.202042236328125,-10.805181729888915,-2.1423615730285643,-1.2369044326782226
1789635446619082200,5.212082275390625,-13.240384093475342,-1.460762287902832,-1.6769886253356932
1789635446629122000,5.2221220703125,-13.146411678314209,-0.9246107536315917,-0.13093290328979493
1789635446639162000,5.232162109375,-10.231022244262695,-1.3848960227966307,2.319981408691406
1789635446649202200,5.2422021484375,-8.257152613067626,-2.4187422271728516,1.961300072479248
1789635446659242200,5.2522421875,-8.708908538818358,-2.072331174468994,-0.32606033859252925
1789635446669282300,5.2622822265625,-9.605237785339355,-0.9460089309692382,-1.416020644378662
1789635446679321000,5.272321044921875,-10.341454795837402,-0.3468599655151367,-0.7805097412109374
1789635446689361200,5.282361083984375,-10.587159741210938,-0.619948592376709,-0.27293898925781246
1789635446699401200,5.292401123046875,-10.649558621978759,-0.9838672447204589,-0.244507844543457
1789635446709441300,5.302441162109375,-10.363601161193847,-0.7659948936462402,-0.241964005279541
1789635446719481000,5.312481201171875,-9.387963984680175,-0.06389525680541992,0.2305915473937988
1789635446729521200,5.322521240234375,-7.498938874816894,0.0948702407836914,1.1903671379089356
1789635446739561000,5.33256103515625,-6.048800856781005,-0.3796306007385254,0.21068974609375
1789635446749601000,5.34260107421875,-7.70543876800537,-0.24435820693969726,-1.9047370582580565
1789635446759641000,5.35264111328125,-10.96170266342163,0.5593453628540038,-2.0536264739990235
1789635446769681200,5.36268115234375,-11.342231089782715,0.60648120803833,-0.014664485168457031
1789635446779720200,5.37272021484375,-9.420435344696044,-0.3298012786865234,2.370409281158447
1789635446789760000,5.382760009765625,-7.9295958984374995,-1.0404302589416503,3.306392492675781
1789635446799800000,5.392800048828125,-8.36384422454834,-0.7619546783447265,2.673724703979492
1789635446809840000,5.402840087890625,-8.883086709594727,0.10848726272583008,1.0152911415100097
1789635446819880000,5.4128798828125,-8.161983097076416,1.10447515335083,-0.469862075805664
1789635446829920000,5.422919921875,-8.278850065612792,1.5090952339172363,-0.7218518005371093
1789635446839960000,5.4329599609375,-9.507674067687988,0.7350199096679687,0.3724479957580566
1789635446850000100,5.443000244140625,-10.065672692108153,-0.7567173622131347,1.9158102409362792
1789635446860040200,5.453040283203125,-9.70459715423584,-1.9846435386657715,2.7825112419128417
1789635446870079000,5.463078857421875,-8.583212951660157,-2.501342184448242,2.5176526832580564
1789635446880119000,5.473119140625,-7.222109307861328,-2.461388944244385,1.3462895210266113
1789635446890159000,5.4831591796875,-7.091625317382812,-2.351854218292236,0.016609774017333982
1789635446900199200,5.49319921875,-7.799411183166503,-2.300827795410156,-0.604535919189453
1789635446910239200,5.5032392578125,-8.175749756622315,-2.316240468597412,-0.30466216125488277
1789635446920279000,5.513279052734375,-8.416666298675537,-2.3282114768981934,0.5764040496826172
1789635446930319000,5.523319091796875,-8.430582595825195,-2.360233924102783,1.3793594314575195
1789635446940359200,5.533359130859375,-8.196549383544921,-2.756175023651123,1.5638625968933104
1789635446950399200,5.543399169921875,-7.924807495117187,-3.506906881713867,1.0016741195678711
1789635446960438000,5.55343798828125,-7.849240505218505,-4.022857339477539,0.29703064346313474
1789635446970478000,5.56347802734375,-8.092551248931885,-3.802590786743164,0.056712651824951166
1789635446980518100,5.57351806640625,-8.736591495513915,-3.3660978965759276,0.23687632675170897
1789635446990558200,5.58355810546875,-9.064297847747802,-3.446453289794922,0.6790554458618163
1789635447000598300,5.593598388671875,-8.540865509796141,-4.143764523315429,1.0203788200378416
1789635447010638000,5.60363818359375,-7.804199586486816,-4.789600421142578,0.8885480911254883
1789635447020678100,5.61367822265625,-8.774150534057616,-4.890905078887939,0.7484872940063476
1789635447030718200,5.62371826171875,-10.296713152313233,-4.52683678894043,1.1079168182373047
1789635447040758000,5.633758056640625,-9.868300692749022,-4.369418029785156,1.537975291442871
1789635447050797000,5.643797119140625,-8.571990131378174,-4.300435094451904,1.4329296936035156
1789635447060837000,5.653837158203125,-8.471583299255371,-4.0800189041137696,1.0200795448303221
1789635447070877200,5.663877197265625,-9.693374333953857,-3.8640918418884276,0.716913759613037
1789635447080917000,5.6739169921875,-11.334749209594726,-4.12401235961914,1.1299135459899903
1789635447090957000,5.68395703125,-11.282376048278808,-5.086481427001953,2.203862628173828
1789635447100997000,5.6939970703125,-10.740987197875976,-5.9400143188476555,3.688118019866943
1789635447111037000,5.704036865234375,-10.740687922668457,-6.338798532867432,4.706850826263428
1789635447121077000,5.714076904296875,-9.333046984100342,-6.053289984893799,3.6456209403991697
1789635447131117000,5.724116943359375,-7.560290292358398,-5.022735807800292,1.8537106353759765
1789635447141156000,5.734156005859375,-8.872462439727782,-4.121019607543945,0.2736871772766113
1789635447151196000,5.74419580078125,-10.036343721771239,-3.6822821533203123,-0.1815104133605957
1789635447161236000,5.754236083984375,-8.232911321258545,-3.716399526977539,1.2779051361083984
1789635447171276000,5.764276123046875,-6.239439163970947,-4.28382532043457,2.996193740081787
1789635447181316000,5.774316162109375,-5.984606324768066,-5.064335061645507,3.3295863212585446
1789635447191356200,5.784356201171875,-6.37815322265625,-5.811475617218017,2.582445765686035
1789635447201396000,5.79439599609375,-6.821828717803955,-6.183773975372314,1.4791677131652832
1789635447211436000,5.80443603515625,-7.736862664794922,-6.119878718566894,0.821061531829834
1789635447221476000,5.81447607421875,-8.444498892974853,-5.983558861541748,0.9612719665527343
1789635447231515000,5.824514892578125,-7.991994779205322,-5.84155277557373,1.1692682357788085
1789635447241555000,5.834554931640625,-6.677578067779541,-5.588365950012206,1.0479121391296387
1789635447251595000,5.844594970703125,-5.584924285125732,-5.202001657104492,0.7454945419311523
1789635447261635000,5.854635009765625,-5.004031107330322,-4.712387417602539,0.4445733207702636
1789635447271675000,5.8646748046875,-5.26739328994751,-4.416104962158203,0.08948328704833984
1789635447281715000,5.87471484375,-6.225373229217529,-4.463240807342529,-0.0073322425842285155
1789635447291755000,5.884755126953125,-6.8673185493469235,-4.910357967376709,0.6618471214294434
1789635447301795000,5.894795166015625,-6.528688652038574,-5.651213743591308,1.6733973228454588
1789635447311835100,5.904835205078125,-6.146963124847412,-6.647351271820068,2.6241946571350097
1789635447321874000,5.9148740234375,-6.101024380493164,-7.864653178405761,2.5864859809875487
1789635447331914000,5.9249140625,-6.718728408813476,-8.806322618865966,1.6756418869018554
1789635447341954000,5.9349541015625,-7.706935144042968,-9.128492379760742,0.951844797515869
1789635447351994000,5.944994140625,-8.633790461730957,-9.082703273010253,0.751480046081543
1789635447362034200,5.9550341796875,-8.306533022308349,-9.109338766479492,0.29613281784057616
1789635447372074000,5.965073974609375,-8.960299713134765,-8.904484886932373,0.21757307586669922
1789635447382114000,5.975114013671875,-9.970652813720703,-8.600271638488769,1.055992569732666
1789635447392153900,5.98515380859375,-9.473257418823241,-8.61239228439331,2.225560080718994
1789635447402194000,5.99519384765625,-9.1163717338562,-8.901641772460938,2.855085479736328
1789635447412233000,6.00523291015625,-9.54403600540161,-9.688286655426024,3.1304186706542967
1789635447422273000,6.01527294921875,-9.607033436584473,-10.611999583435058,3.1473277198791503
1789635447432313000,6.02531298828125,-10.001927072906494,-11.03831711654663,3.9160160903930663
1789635447442353000,6.035352783203125,-9.099013771820069,-10.791714345550536,5.131073432922363
1789635447452393000,6.04539306640625,-5.959467207336425,-9.769689511871338,4.540154535675049
1789635447462432800,6.055432861328125,-4.050989208984375,-7.9667060241699215,2.387168692779541
1789635447472472800,6.065472900390625,-3.859303438568115,-6.520308946228027,0.6931213806152343
1789635447482513000,6.075512939453125,-4.774935935974121,-6.369324604034423,0.6851905876159667
1789635447492553000,6.085552978515625,-5.639392372894287,-7.195922727203369,1.6799813774108885
1789635447502592000,6.095592041015625,-4.848856912231445,-7.981669784545898,1.7666215499877929
1789635447512631800,6.1056318359375,-4.1301475013732905,-8.452130410766602,1.4387655601501463
1789635447522671900,6.115671875,-4.191349281311035,-8.587851717376708,1.3578116165161132
1789635447532712000,6.1257119140625,-4.238036213684082,-8.220042487335204,1.559074193572998
1789635447542752000,6.135751953125,-4.300734369659423,-7.742399256134033,1.513733999633789
1789635447552792000,6.1457919921875,-4.281580756378173,-6.989572471618652,1.093701245880127
1789635447562832000,6.155831787109375,-4.295347415924072,-6.087257720947266,0.5038298118591308
1789635447572872000,6.165871826171875,-4.30926371307373,-5.609913764953613,0.11851298217773437
1789635447582912000,6.175912109375,-5.137507849884033,-5.516839175415039,-0.14769231491088866
1789635447592951000,6.185950927734375,-6.246472131347656,-6.1167363288879395,0.18106150054931638
1789635447602990800,6.195990966796875,-6.790704096221924,-7.193977438354492,0.7582137382507323
1789635447613031000,6.206031005859375,-7.098658284759521,-8.100482041931151,0.7972691528320313
1789635447623071000,6.216071044921875,-7.803002485656738,-8.861838169860839,0.47120881423950195
1789635447633111000,6.226111083984375,-7.957278855133056,-9.39080709915161,0.7638999671936034
1789635447643151000,6.236151123046875,-7.401973707580566,-9.35953283996582,1.7004817291259764
1789635447653191200,6.246191162109375,-5.980117196655273,-8.820238916015624,1.9538181922912596
1789635447663231000,6.25623095703125,-4.893748193359374,-7.880814039611816,1.3192051147460937
1789635447673270000,6.26627001953125,-5.251980616760253,-6.993463049316406,1.4022539848327635
1789635447683310000,6.27631005859375,-5.749376011657715,-7.224204234313964,2.3784897117614743
1789635447693350100,6.28635009765625,-5.408651187896728,-8.269273258972168,3.0493150894165035
1789635447703390000,6.296389892578125,-5.207238973236084,-8.998457302093506,2.7163714210510252
1789635447713430000,6.306429931640625,-5.501426502227783,-9.093776455688475,1.79400523147583
1789635447723470000,6.316469970703125,-6.669347999572754,-9.05876125640869,1.1520599113464354
1789635447733510100,6.32651025390625,-8.130559200286864,-9.300575624084471,1.495777487182617
1789635447743550000,6.336550048828125,-8.734496569061278,-9.509020806121825,2.2896049751281735
1789635447753589800,6.34658984375,-9.214234726715087,-9.75502502670288,2.6804583961486816
1789635447763629000,6.356629150390625,-9.287557152557373,-9.865607215881347,2.3783400741577148
1789635447773669000,6.366669189453125,-8.303839545440674,-9.11023659210205,1.8926164123535154
1789635447783709000,6.376708984375,-6.9056257759094235,-7.997980283355712,1.4199112220764158
1789635447793749000,6.3867490234375,-5.779004257202148,-6.887968538665771,0.8047510330200195
1789635447803788800,6.396788818359375,-5.269637854003906,-5.889586446380615,0.33354221878051754
1789635447813828900,6.406828857421875,-5.3676504844665525,-5.117157135772705,0.4560954162597656
1789635447823869000,6.416868896484375,-5.6940100982666015,-4.907963765716552,1.3539210388183593
1789635447833909000,6.426908935546875,-5.501725777435302,-5.6872764060974115,1.8203414497375487
1789635447843949000,6.436948974609375,-5.550208361053467,-6.367977865600586,1.7335516395568846
1789635447853988900,6.44698876953125,-6.091746849060058,-6.385934378051758,1.4049474617004394
1789635447864028000,6.45702783203125,-6.813897924804687,-5.9850552375793455,1.2030863342285156
1789635447874068000,6.46706787109375,-7.3271549057006835,-5.86055675125122,1.1418845542907714
1789635447884108000,6.47710791015625,-7.668627917480468,-6.082768592834472,1.2427402992248535
1789635447894147800,6.48714794921875,-7.640795323181152,-6.458508615875243,1.4993687896728514
1789635447904188000,6.49718798828125,-7.312041507720947,-6.905326500701904,1.6760907997131347
1789635447914228000,6.50722802734375,-7.217470542144775,-7.051522439575195,1.8950106140136718
1789635447924268000,6.51726806640625,-7.765144171905517,-6.8858736122131345,2.2583307159423827
1789635447934308000,6.52730810546875,-8.365939151000976,-6.851307325744629,2.427121932983398
1789635447944347000,6.537346923828125,-8.583063314056396,-6.8822823097229,2.2948422912597657
1789635447954387000,6.547386962890625,-8.390479718017577,-7.129034718322753,1.9541174674987791
1789635447964427000,6.557427001953125,-8.380453998565674,-7.3928458137512205,1.3956699302673339
1789635447974467000,6.567467041015625,-8.733598743438721,-7.378031690979004,1.031751277923584
1789635447984507100,6.577507080078125,-8.916904808044434,-7.02892716140747,1.0919055946350098
1789635447994547000,6.587546875,-8.725069400024413,-6.315305429077148,1.4018050720214843
1789635448004587000,6.5975869140625,-8.56166513671875,-5.427804801177978,1.7313070755004882
1789635448014627000,6.607626953125,-8.775048359680175,-4.721515311431885,1.8791490280151366
1789635448024667100,6.617667236328125,-9.132233319854736,-4.5708302444458,1.695094775390625
1789635448034706000,6.627705810546875,-8.489240536499024,-5.03695138015747,1.1846809089660644
1789635448044746000,6.63774609375,-7.481281637573241,-5.462221450042724,1.158793603515625
1789635448054786000,6.6477861328125,-7.022941657257079,-5.252878442382812,1.4579191734313963
1789635448064826000,6.657826171875,-7.6114663528442374,-4.503044409942627,2.087145297241211
1789635448074866200,6.6678662109375,-8.786121542358398,-3.8781577766418454,2.9988872169494627
1789635448084906000,6.677906005859375,-9.411157813262939,-4.180276098632812,3.439869235229492
1789635448094945800,6.68794580078125,-9.47475379486084,-5.234024104309082,2.78355870513916
1789635448104985900,6.69798583984375,-9.546579844665526,-5.863549503326416,1.301098964691162
1789635448115026000,6.70802587890625,-9.499443999481201,-5.536591339111328,0.31573534393310543
1789635448125065200,6.718065185546875,-8.155997592926026,-4.393060771179199,0.06988076095581054
1789635448135104800,6.728104736328125,-7.471704830932617,-3.0609868225097654,0.6443395217895508
1789635448145144800,6.738144775390625,-8.50360574645996,-2.984073094177246,1.5818191093444822
1789635448155185000,6.748184814453125,-9.17383257369995,-4.041861315155029,1.5412673187255859
1789635448165225000,6.758224853515625,-8.46574743270874,-5.148581032562255,0.9377788627624511
1789635448175265000,6.76826513671875,-8.074894011688231,-5.545120682525634,0.4978443077087402
1789635448185304800,6.778304931640625,-8.250568558502197,-4.662857370758056,0.25348610076904293
1789635448195345000,6.788344970703125,-9.865457578277587,-3.5681086616516113,0.6751648681640625
1789635448205385000,6.798385009765625,-11.373056436157226,-3.6529531829833983,1.00870708694458
1789635448215424300,6.80842431640625,-11.029488497924804,-4.735281970977783,0.7612064903259277
1789635448225464300,6.81846435546875,-9.750236623382568,-5.8283846664428705,0.07511807708740234
1789635448235504000,6.828504150390625,-7.9649103729248045,-5.443067836761474,-0.3960907371520996
1789635448245544200,6.838544189453125,-6.599616876220702,-3.896413564300537,-0.20919337005615232
1789635448255584300,6.848584228515625,-5.802347723388672,-2.4889222633361814,0.15741875915527342
1789635448265624300,6.858624267578125,-5.430199002838134,-1.7369933044433592,0.30840310134887694
1789635448275664400,6.868664306640625,-5.7897781646728514,-1.8700211341857909,0.23433248748779295
1789635448285704200,6.8787041015625,-6.8411319686889644,-2.5252842010498044,-0.16265607528686524
1789635448295744300,6.888744140625,-8.335413079833984,-2.864213373565674,-0.870142665863037
1789635448305783300,6.898783203125,-9.617956981658935,-2.9331963088989257,-1.034893667602539
1789635448315823400,6.9088232421875,-9.266458250427245,-3.5173815139770506,-0.11103110198974608
1789635448325863200,6.91886328125,-7.6765587104797355,-4.185513414764404,0.45923780593872066
1789635448335903200,6.9289033203125,-7.195623451995849,-4.0475475440979,0.3215712104797363
1789635448345943300,6.938943359375,-8.202534887695313,-2.8603227958679196,0.1470937644958496
1789635448355983400,6.9489833984375,-8.900893584442137,-2.165555401611328,0.316034619140625
1789635448366023400,6.9590234375,-8.562712599945067,-2.292747364807129,0.1958756233215332
1789635448376063200,6.969063232421875,-8.0184806350708,-2.252345211791992,-0.7806593788146973
1789635448386103000,6.97910302734375,-8.030750918579102,-1.3691840744018553,-1.0531494552612304
1789635448396142300,6.989142333984375,-8.69454332885742,-0.4748001167297363,0.33922844772338867
1789635448406182400,6.999182373046875,-8.670750949859618,-1.1323077476501464,1.6130933685302733
1789635448416222200,7.00922216796875,-8.190563879394531,-2.0341735855102536,1.3184569267272948
1789635448426262000,7.019261962890625,-9.617208793640136,-1.5795745452880858,0.36017771224975587
1789635448436302000,7.029302001953125,-12.182595872497558,-0.6513724891662598,0.06209960556030273
1789635448446342100,7.039342041015625,-12.673856125640869,-0.3576338729858398,0.1475426773071289
1789635448456382200,7.04938232421875,-11.133037719726563,0.0040402153015136714,-0.7080851409912109
1789635448466422300,7.05942236328125,-10.736198794555664,-0.0570119270324707,-0.5020341606140136
1789635448476462000,7.069462158203125,-9.392303475189209,-0.5427355888366698,1.0194809944152832
1789635448486501000,7.079501220703125,-5.774066216278076,-1.0532990928649901,0.9989806427001953
1789635448496541200,7.089541259765625,-4.161870673370361,-1.1041758781433104,-0.6431424209594726
1789635448506581200,7.099581298828125,-6.737283471679687,-1.088463929748535,-1.5288473976135253
1789635448516621000,7.10962109375,-9.25134485244751,-1.4395137481689453,-1.6035165618896483
1789635448526661000,7.1196611328125,-9.548824408721924,-1.2240355987548828,-1.5719430274963377
1789635448536701200,7.129701171875,-8.604012578582763,-0.3416226493835449,-0.8041524826049804
1789635448546741200,7.1397412109375,-8.690952026367187,-0.3103483901977539,0.5660790550231933
1789635448556781300,7.14978125,-9.24416224746704,-0.6153098266601562,0.9181763366699218
1789635448566821400,7.1598212890625,-9.351751684570312,-0.3854664672851562,0.7612064903259277
1789635448576860200,7.169860107421875,-8.993369623565673,0.022296002960205077,0.38202480239868164
1789635448586900200,7.179900146484375,-9.1041014503479,-0.12599486236572266,0.7728782234191894
1789635448596940300,7.189940185546875,-8.665812908935546,-1.4163199195861815,1.3563152404785155
1789635448606980400,7.19998046875,-8.250119645690917,-2.9803321540832517,0.7987655288696288
1789635448617020200,7.210020263671875,-8.827122245788575,-3.264793238830566,-0.37708676147460934
1789635448627060200,7.220060302734375,-10.288632721710204,-1.9621978981018064,-0.529268204498291
1789635448637100300,7.230100341796875,-9.560196866607665,-0.626981559753418,0.4682160621643066
1789635448647140400,7.240140380859375,-6.768557730865478,-0.6965630455017089,1.1956044540405273
1789635448657180400,7.250180419921875,-5.270834954833984,-1.4188637588500976,0.6826467483520507
1789635448667219200,7.26021923828125,-7.2809168861389155,-1.758241844177246,-0.5409399375915527
1789635448677259300,7.27025927734375,-9.97828433151245,-1.6210241615295409,-1.3245920684814452
1789635448687299300,7.28029931640625,-9.497349073028564,-1.580023458099365,-1.0305541770935058
1789635448697339400,7.29033935546875,-7.121702475738525,-1.999008748626709,-0.08274959487915039
1789635448707379500,7.30037939453125,-6.109254448699951,-2.431760698699951,0.7275380294799805
1789635448717419300,7.310419189453125,-7.945906397247314,-2.300378882598877,1.1843816337585449
1789635448727459000,7.320458984375,-9.683947164916992,-2.048987708282471,1.0917559570312498
1789635448737499100,7.3304990234375,-8.915558069610595,-2.1815666252136228,0.49155952835083006
1789635448747539200,7.340539306640625,-7.932738288116455,-2.625242120361328,-0.037110125732421874
1789635448757578200,7.350578125,-9.07851342010498,-2.8280010734558103,-0.06299743118286133
1789635448767618300,7.360618408203125,-11.40881982345581,-2.7551275604248047,0.8828618621826171
1789635448777658000,7.370658203125,-11.452214728546142,-3.225887461853027,2.241421666717529
1789635448787698200,7.3806982421875,-9.354594799041747,-4.442441180419921,2.6850971618652344
1789635448797738200,7.39073828125,-8.224830890655516,-5.1894320983886715,1.7429788085937499
1789635448807778000,7.400778076171875,-9.570821136474608,-5.333682748413086,0.9364321243286132
1789635448817818000,7.410818115234375,-12.035053195190429,-4.89644167022705,1.255758770751953
1789635448827858200,7.420858154296875,-11.410166561889648,-4.548534241485595,2.401084989929199
1789635448837897200,7.430897216796875,-8.236951536560058,-4.947019180297851,2.721608737182617
1789635448847937300,7.440937255859375,-6.975356899261474,-5.62427897491455,1.932569652557373
1789635448857977000,7.45097705078125,-8.226177629089355,-5.843946977233887,1.1665747589111328
1789635448868017200,7.46101708984375,-9.529820433044433,-5.591657977294922,1.2928688964843749
1789635448878057200,7.47105712890625,-8.854057014465331,-5.221604183197021,1.7709610404968261
1789635448888097300,7.48109716796875,-7.498489962005615,-5.339668252563476,2.1912930694580077
1789635448898137300,7.491137451171875,-6.17344898071289,-5.69505756149292,2.0036475143432617
1789635448908177200,7.50117724609375,-5.329492895507812,-5.549011260223389,1.5155296508789062
1789635448918217200,7.51121728515625,-6.08456424407959,-4.9257706405639645,1.1617863555908203
1789635448928257300,7.52125732421875,-8.092551248931885,-4.397699536895752,0.9913491249084472
1789635448938296300,7.53129638671875,-8.927379440307616,-4.255992726135253,1.171512799835205
1789635448948336000,7.541336181640625,-7.333738960266113,-4.53925671005249,1.582118384552002
1789635448958376200,7.551376220703125,-5.6298155662536615,-5.143044441223144,1.7145476638793944
1789635448968416300,7.561416259765625,-6.1367877677917475,-5.868337906646728,1.4698901817321777
1789635448978456300,7.571456298828125,-6.777087074279785,-6.40314270248413,0.6808510971069336
1789635448988496400,7.581496337890625,-7.955932116699218,-7.150881808471679,-0.06943184814453125
1789635448998536200,7.5915361328125,-10.184185674285889,-7.845050652313232,0.08349778289794921
1789635449008576300,7.601576171875,-9.801562321472167,-8.52320827255249,0.9843161575317382
1789635449018616300,7.6116162109375,-6.956801836395263,-8.82951644744873,1.8604443275451659
1789635449028655400,7.6216552734375,-6.60126288986206,-8.813355586242675,2.4166473007202147
1789635449038695400,7.6316953125,-7.996034994506836,-8.443152154541016,2.2909517135620114
1789635449048735200,7.6417353515625,-8.486247784423828,-7.961767983245849,1.8842367065429686
1789635449058775300,7.651775390625,-7.023390570068359,-7.538742477416991,1.7004817291259764
1789635449068815000,7.661815185546875,-5.270685317230225,-7.242310384368896,1.641973426055908
1789635449078855200,7.671855224609375,-5.2433016357421875,-7.066486199951171,1.3350667007446289
1789635449088895200,7.681895263671875,-6.400898138427734,-7.1881415718078605,0.8060977714538574
1789635449098935000,7.69193505859375,-7.032817739105224,-7.85896694946289,0.39444472351074217
1789635449108975000,7.70197509765625,-6.753893245697021,-8.67673645401001,0.6977601463317871
1789635449119014100,7.71201416015625,-6.158185945129394,-9.068038787841797,1.5480010108947753
1789635449129054200,7.72205419921875,-6.44144992904663,-9.330503144836426,2.133682592010498
1789635449139094000,7.732093994140625,-7.056610118103027,-9.43524946746826,2.480392919921875
1789635449149134000,7.742134033203125,-7.161655715942382,-9.521590364837646,2.460491118621826
1789635449159174100,7.752174072265625,-7.302614338684082,-9.567828384399414,2.427121932983398
1789635449169214200,7.762214111328125,-7.370849085998535,-9.267505713653565,2.570923670196533
1789635449179254300,7.772254150390625,-6.76122548828125,-8.563011875152588,2.283769108581543
1789635449189294300,7.78229443359375,-6.732345430755615,-7.971045514678955,1.7706617652893066
1789635449199333000,7.7923330078125,-7.648875753784179,-7.420678408050537,1.5855600494384765
1789635449209373200,7.802373291015625,-7.793724954223633,-6.9330094573974606,1.9101240119934082
1789635449219413500,7.81241357421875,-6.77349577178955,-6.974459073638916,1.4836568412780762
1789635449229453600,7.82245361328125,-6.894103680419922,-8.020425923919678,0.5690718070983887
1789635449239493400,7.832493408203125,-7.211036125183105,-8.752453081512451,0.43679216537475585
1789635449249533400,7.842533447265625,-6.542455311584472,-8.410381519317626,0.6552630668640136
1789635449259573500,7.852573486328125,-6.763619689941406,-7.76289960784912,1.5086463211059569
1789635449269613600,7.862613525390625,-6.6820671958923334,-8.302642444610596,2.5252842010498044
1789635449279653600,7.872653564453125,-5.762693758392333,-9.038709817504882,2.530072604370117
1789635449289692400,7.8826923828125,-5.6492684547424314,-9.23862565612793,2.2726959259033204
1789635449299732500,7.892732421875,-4.6918870658874505,-8.611943371582031,1.936310592651367
1789635449309772500,7.9027724609375,-3.988291053009033,-7.735216651153564,1.084722989654541
1789635449319812600,7.9128125,-4.965574243164062,-7.234229953765869,0.9977835418701171
1789635449329852700,7.922852783203125,-5.471648619079589,-7.804049948883057,1.3904326141357422
1789635449339892500,7.932892578125,-5.492897158813476,-8.270171084594725,1.9934721572875975
1789635449349932500,7.9429326171875,-5.609464852142334,-8.3249384475708,2.1574749710083005
1789635449359972400,7.952972412109375,-6.112845751190185,-8.03778388595581,1.610848804473877
1789635449370012400,7.963012451171875,-7.105990527343749,-7.713369561004638,1.3353659759521483
1789635449380051500,7.973051513671875,-7.690026094818115,-7.996483907318114,1.548898836517334
1789635449390091500,7.983091552734375,-7.612064903259277,-8.500912269592284,1.6370353851318358
1789635449400131600,7.993131591796875,-7.6170029441833496,-8.14073455734253,1.7513585144042967
1789635449410171400,8.00317138671875,-7.223605683898925,-7.164349192810058,1.7796400215148924
1789635449420211500,8.01321142578125,-6.6157777374267575,-6.345232949829101,2.1549311317443847
1789635449430251300,8.023251220703125,-5.9020063674926755,-5.872378121948242,2.6611551452636717
1789635449440291300,8.033291259765624,-5.390245762634277,-5.899312890625,2.7486931434631345
1789635449450331400,8.043331298828125,-5.056703543853759,-6.216993523406982,2.4806921951293943
1789635449460370400,8.053370361328126,-4.9461213546752925,-6.254103649139404,1.8375497741699218
1789635449470410500,8.063410400390625,-5.771971289825439,-6.088005908966064,0.9513958847045898
1789635449480450300,8.0734501953125,-7.406762110900878,-6.203526139068603,0.5315127685546874
1789635449490490400,8.083490478515625,-8.923339225006103,-6.74192223739624,0.6364087287902832
1789635449500530400,8.093530517578126,-9.950002824401855,-7.447014626312256,1.1541548377990722
1789635449510570500,8.103570556640625,-10.647912608337402,-8.179640334320068,1.7075146965026855
1789635449520610600,8.113610595703125,-11.01916350326538,-8.360701834869385,2.325667637634277
1789635449530650400,8.123650390625,-10.59793364868164,-7.954286103057861,2.9296050064086914
1789635449540690400,8.1336904296875,-9.64055225982666,-7.558345003509521,3.1426889541625975
1789635449550730500,8.14373046875,-8.360402559661864,-7.055413017272949,2.926013703918457
1789635449560769500,8.15376953125,-6.8505591377258295,-5.946448735809326,2.4346038131713867
1789635449570809300,8.163809326171876,-5.871929209136963,-4.8041152687072755,1.7485153999328613
1789635449580849400,8.173849365234375,-5.855020159912109,-4.278139091491699,1.3739724777221678
1789635449590889500,8.183889404296876,-5.671564457702637,-4.527584976959228,1.0301052642822266
1789635449600929500,8.193929443359375,-5.863399865722656,-5.027374573516846,0.9735422500610351
1789635449610969600,8.203969482421876,-6.798634889221191,-5.631611217498779,1.1104606575012206
1789635449621009700,8.214009765625,-7.957129217529296,-5.661089825439452,1.0009259315490722
1789635449631049500,8.224049560546876,-10.174908142852782,-5.255871194458008,1.470339094543457
1789635449641089500,8.234089599609375,-11.532869396972655,-5.311237107849121,2.5845406921386718
1789635449651128600,8.244128662109375,-11.63926173324585,-5.434688130950928,2.7596166885375975
1789635449661168600,8.254168701171874,-10.413729758453368,-5.54766452178955,2.1909937942504882
1789635449671208400,8.26420849609375,-9.674669633483886,-5.347748683166504,1.8360533981323242
1789635449681248500,8.27424853515625,-8.659378491973877,-4.923825351715087,1.4375684593200684
1789635449691288600,8.28428857421875,-7.644835538482665,-4.793490998840332,0.8604162216186523
1789635449701328600,8.29432861328125,-7.252186466217041,-4.094234476470947,0.6108206985473632
1789635449711368400,8.304368408203125,-8.565256439208984,-3.2597055603027343,0.7231985389709472
1789635449721408300,8.314408203125,-9.925761532592773,-3.0749031196594236,0.6648398735046386
1789635449731448300,8.3244482421875,-10.385298613739012,-3.6450223899841308,0.26919804916381834
1789635449741487600,8.334487548828125,-10.555586206817626,-4.440645529174804,0.22310966720581055
1789635449751527400,8.34452734375,-9.734524674987792,-5.036502467346191,0.5647323165893554
1789635449761567500,8.3545673828125,-8.052298733520507,-4.990264447784424,0.7565677246093749
1789635449771607300,8.364607177734374,-7.263409286499023,-4.455609289550781,0.826149210357666
1789635449781647400,8.3746474609375,-7.185597732543945,-3.98365228729248,0.9650129066467285
1789635449791687400,8.3846875,-7.335833886718749,-3.9879917778015135,0.9168295982360839
1789635449801727500,8.3947275390625,-7.530362771606445,-4.247613020324707,0.5699696327209473
1789635449811767600,8.404767578125,-7.739256866455078,-4.2886137237548825,0.043245267486572266
1789635449821806300,8.414806396484375,-8.400655075073242,-3.8660371307373045,-0.5636848533630371
1789635449831846400,8.424846435546876,-10.207529140472412,-3.151966485595703,-0.6343138023376464
1789635449841886500,8.434886474609375,-11.448174513244629,-3.2263363746643066,-0.06733692169189452
1789635449851926500,8.444926513671875,-10.344148272705077,-4.515464331054687,0.5541080467224121
1789635449861966300,8.45496630859375,-8.48549959640503,-5.9397150436401365,0.7442974411010742
1789635449872006400,8.46500634765625,-7.2164230789184565,-5.85412233428955,0.4887164138793945
1789635449882046500,8.47504638671875,-7.107786178588867,-3.716399526977539,-0.19946692581176756
1789635449892086500,8.48508642578125,-7.6997525390625,-1.1451765815734862,-0.23702596435546874
1789635449902126600,8.495126708984374,-7.580940281677246,-0.6221931564331055,0.15098434219360352
1789635449912165400,8.505165283203125,-6.669946549987793,-1.9949685333251952,-0.2620154441833496
1789635449922205400,8.515205322265626,-5.934028814697265,-2.7181670722961426,-1.1960533668518065
1789635449932245500,8.52524560546875,-6.586149491882324,-1.8851345321655273,-1.329230834197998
1789635449942285600,8.53528564453125,-7.710825721740722,-0.8845078758239746,-0.6278793853759765
1789635449952325600,8.54532568359375,-8.172757004547119,-0.1396118843078613,0.39968203964233395
1789635449962365400,8.555365478515625,-8.517671681213379,-0.5728127471923827,1.4725836585998535
1789635449972405500,8.565405517578125,-8.487145610046387,-1.9526210914611815,1.8037316757202146
1789635449982445600,8.575445556640625,-7.45704034576416,-2.373701308441162,1.182436344909668
1789635449992485600,8.585485595703124,-7.6014406333923334,-1.284489190673828,-0.10624269866943359
1789635450002524400,8.5955244140625,-8.633640824127196,-0.19318214645385742,-0.6607996582031249
1789635450012564500,8.605564453125,-9.10993731689453,-0.6549637916564941,-0.5172971961975097
1789635450022604500,8.6156044921875,-9.32706147994995,-1.3371616271972655,-1.052251629638672
1789635450032644600,8.62564453125,-9.603292496490479,-1.6819266662597656,-1.2211924842834472
1789635450042684700,8.6356845703125,-9.342773428344726,-1.8772037391662597,-0.7987655288696288
1789635450052724500,8.645724365234376,-9.12280615081787,-1.7449240974426268,-0.3416226493835449
1789635450062764300,8.655764404296875,-10.15710126800537,-1.9907786804199217,0.06150105514526367
1789635450072804400,8.665804443359375,-10.089165795898436,-2.882469161224365,0.3066074501037597
1789635450082844400,8.675844482421875,-8.112153775024414,-2.1149778915405273,-0.011073182678222656
1789635450092883700,8.6858837890625,-7.091326042175292,-0.6257844589233398,-0.4273649963378906
1789635450102923500,8.695923583984374,-6.958148574829101,-0.8608651344299316,-1.1161468864440918
1789635450112963300,8.70596337890625,-6.74162296218872,-1.149815347290039,-1.5342343513488768
1789635450123003400,8.71600341796875,-6.555324145507812,-0.5096656784057617,-1.504755743408203
1789635450133043500,8.72604345703125,-7.022043831634521,-0.06733692169189452,-0.6076783088684081
1789635450143083500,8.73608349609375,-7.4889131553649895,-0.155772745513916,-0.716315209197998
1789635450153123300,8.746123291015625,-8.606855693054198,-0.4132990615844726,-0.7507318580627441
1789635450163163400,8.756163330078126,-9.71731635055542,-0.4933551795959472,0.13916297149658202
1789635450173203500,8.766203369140625,-9.223212982940673,-0.7276876670837402,1.276259122467041
1789635450183242500,8.776242431640625,-7.32910019454956,-1.1258733306884765,1.5894506271362303
1789635450193282300,8.7862822265625,-7.991845141601562,-1.6403274124145506,1.3452420578002928
1789635450203322400,8.796322265625,-9.794978266906737,-2.1013608695983885,0.8348281913757324
1789635450213362400,8.806362548828124,-9.59581061630249,-2.4423849685668944,0.09038111267089843
1789635450223402500,8.816402587890625,-8.35112502822876,-2.564040340423584,-0.7426514274597168
1789635450233442300,8.8264423828125,-8.745869026947021,-2.188001042175293,-1.0293570762634277
1789635450243482400,8.836482421875,-9.839420635223387,-1.6045640251159667,-0.5186439346313476
1789635450253522400,8.8465224609375,-9.26466259918213,-1.2904746948242187,0.24660277099609373
1789635450263562500,8.8565625,-7.996184632110595,-1.5581763679504395,0.46716859893798823
1789635450273601300,8.866601318359375,-8.295609477233887,-2.2774843292236326,0.1575683967590332
1789635450283641300,8.876641357421875,-9.293692294311523,-3.049015814208984,0.06045359191894531
1789635450293681400,8.886681396484375,-8.667010009765624,-3.5603275062561033,0.5684732566833496
1789635450303721500,8.896721435546874,-7.646631189727783,-3.5805285827636717,1.416020644378662
1789635450313761500,8.906761474609375,-7.887248456573486,-3.4771289985656737,1.9621978981018064
1789635450323801300,8.91680126953125,-7.727435495758056,-3.6731542594909667,1.8665794692993163
1789635450333841400,8.92684130859375,-6.98448479309082,-4.257339464569092,1.281346800994873
1789635450343881500,8.936881591796874,-8.01234549331665,-5.099799173736572,0.6789058082580566
1789635450353921500,8.946921630859375,-9.961375282287596,-5.4248120491027825,0.8897451919555663
1789635450363960600,8.956960693359376,-9.819668471527098,-5.350891072845458,2.014271784210205
1789635450374000400,8.96700048828125,-7.358429164886474,-5.424512773895263,2.729838805389404
1789635450384040400,8.97704052734375,-6.124517484283447,-5.417330168914795,2.3096564140319824
1789635450394080500,8.98708056640625,-7.365611769866943,-5.022735807800292,1.4471452659606934
1789635450404120300,8.997120361328125,-8.668057472991944,-4.413261847686767,1.020229182434082
1789635450414160400,9.007160400390624,-8.513481828308105,-4.199130436706542,0.6290764862060546
1789635450424200200,9.0172001953125,-8.346486262512206,-4.64774397277832,0.3284545402526855
1789635450434240300,9.027240234375,-8.062623728179931,-5.444264937591552,0.5122095176696777
1789635450444280300,9.0372802734375,-7.329848382568359,-6.700322983551025,0.8251017471313477
1789635450454319400,9.0473193359375,-8.552986155700683,-8.186523664093016,1.4577695358276366
1789635450464359200,9.057359130859375,-10.16952118911743,-9.329156406402587,2.6595091316223143
1789635450474399200,9.067399169921876,-8.986187018585204,-9.948207173156737,3.5476083099365234
1789635450484439300,9.077439208984375,-8.224681253051758,-10.199598347473144,4.067898258209229
1789635450494479400,9.087479248046876,-9.060706545257569,-9.87727894897461,4.15588516921997
1789635450504519400,9.09751953125,-9.3592335647583,-9.028235185241698,3.695899175262451
1789635450514559500,9.1075595703125,-8.119186742401123,-7.858368399047851,2.574365335083008
1789635450524599300,9.117599365234375,-6.278644216156006,-7.15641839981079,0.8623615104675293
1789635450534639400,9.127639404296875,-4.9546506980895995,-6.850858412933349,-0.859368758392334
1789635450544678400,9.137678466796874,-5.767182886505126,-6.833799726104736,-1.6530466087341307
1789635450554718500,9.147718505859375,-7.1592615142822265,-7.598747156524658,-1.2331634925842285
1789635450564758300,9.15775830078125,-5.947196923828125,-8.654290813446044,0.17507599639892577
1789635450574798300,9.16779833984375,-4.221276802062988,-9.520542901611327,1.6386813987731932
1789635450584838400,9.17783837890625,-4.805312369537353,-9.87638112335205,2.2477064460754392
1789635450594878500,9.18787841796875,-7.607575775146484,-9.953743764495849,2.9685107833862303
1789635450604918500,9.19791845703125,-8.775646910095213,-9.369558559417724,4.190301818084716
1789635450614958300,9.207958251953125,-7.249044076538086,-8.02581287765503,4.703558798980713
1789635450624997400,9.217997314453125,-6.184073250579834,-7.4131965278625485,3.500622102355957
1789635450635037400,9.228037353515624,-6.272060161590576,-7.879467301177978,1.7696143020629882
1789635450645077500,9.238077392578125,-6.445340506744384,-8.278401152801512,0.6634931350708008
1789635450655117600,9.24811767578125,-7.147739418792725,-9.025541708374023,0.4869207626342773
1789635450665157400,9.258157470703125,-8.521711896514892,-9.762506906890868,0.831835439300537
1789635450675197400,9.268197509765624,-9.408613973999023,-10.049661468505859,1.815104133605957
1789635450685237500,9.278237548828125,-9.179518802642821,-9.794678991699218,2.41949041519165
1789635450695277600,9.288277587890626,-8.227075454711914,-9.242965146636962,2.3063643867492676
1789635450705317400,9.2983173828125,-7.5528084121704095,-8.319252218627929,1.9774609336853026
1789635450715356400,9.3083564453125,-6.830657336425781,-7.544279068756103,2.10674782333374
1789635450725396500,9.318396484375,-5.430199002838134,-7.11885936126709,2.0274398933410644
1789635450735436500,9.3284365234375,-4.397549899291992,-6.711396166229248,1.737292579650879
1789635450745476600,9.3384765625,-3.91362188873291,-6.729801591491698,1.069310316467285
1789635450755516400,9.348516357421875,-3.695150987243652,-7.143549565887451,0.19946692581176756
1789635450765556200,9.35855615234375,-4.438999515533447,-7.60353555984497,0.20874445724487303
1789635450775596300,9.36859619140625,-4.961683665466309,-8.304138820648193,0.9901520240783691
1789635450785636400,9.37863623046875,-4.877138419342041,-9.03377177658081,1.4390648353576658
1789635450795676400,9.388676513671875,-5.240757796478271,-9.12415288925171,1.2240355987548828
1789635450805715200,9.398715087890626,-6.468983248138428,-9.02763663482666,1.1896189498901366
1789635450815755300,9.40875537109375,-6.3706713424682615,-8.29860222930908,1.8480244064331053
1789635450825795300,9.41879541015625,-5.98849690246582,-7.359626265716552,2.4307132354736325
1789635450835835400,9.42883544921875,-6.120776544189453,-7.411550514221191,2.1748329330444336
1789635450845875500,9.43887548828125,-5.9676972755432125,-7.339425189208984,1.837400136566162
1789635450855915300,9.448915283203124,-5.715707550811767,-6.615328824615478,1.7298106994628906
1789635450865955300,9.458955322265625,-6.242880828857421,-6.169109490203857,1.6952444129943847
1789635450875995400,9.468995361328124,-6.9807438529968255,-6.730549779510498,1.638831036376953
1789635450886035500,9.479035400390625,-7.278971597290039,-7.100304298400879,1.7604864082336424
1789635450896074200,9.48907421875,-7.665186252593994,-7.293636082458495,1.824680940246582
1789635450906114300,9.4991142578125,-8.255506599426269,-7.247547700500488,1.9648913749694823
1789635450916154400,9.509154296875,-8.499266255950927,-7.127388704681396,2.0766706649780273
1789635450926194400,9.5191943359375,-8.702923034667968,-6.678924806213378,2.2569839775085447
1789635450936234500,9.529234375,-8.543110073852539,-6.461202092742919,2.1507412788391114
1789635450946274300,9.5392744140625,-8.36997936630249,-6.629694034576415,1.9125182136535643
1789635450956314400,9.549314453125,-8.219892849731444,-6.997952177429199,1.5120879859924317
1789635450966354400,9.5593544921875,-8.151658102416992,-7.134870584869384,1.4021043472290038
1789635450976394500,9.56939453125,-8.125471521759033,-7.027131510162353,1.3298293846130371
1789635450986433500,9.57943359375,-8.24144066467285,-6.786214968109131,1.4924854598999022
1789635450996473300,9.589473388671875,-8.413074996185303,-6.530484303283691,1.8902222106933593
1789635451006513400,9.599513427734376,-8.322693883514404,-6.197241359710693,2.4678233612060545
1789635451016553500,9.609553466796875,-8.074594736480712,-5.8922799232482905,2.945017679595947
1789635451026593500,9.619593505859376,-7.6096707015991205,-5.881954928588867,2.926462616729736
1789635451036633600,9.629633544921875,-7.1315785575866695,-5.887940432739257,2.2393267402648926
1789635451046673400,9.63967333984375,-7.372794374847412,-5.972635316467285,1.144727668762207
1789635451056713200,9.649713134765625,-7.800309008789062,-6.332214478302002,0.6408978569030761
1789635451066752500,9.65975244140625,-7.482778013610839,-6.683713209533691,0.74055650100708
1789635451076792600,9.66979248046875,-7.570914562225341,-6.715137106323242,1.172859538269043
1789635451086832400,9.679832275390625,-8.79809255065918,-6.627898383331298,1.9319711021423338
1789635451096872400,9.68987255859375,-9.164405404663086,-6.30782354888916,2.386420504760742
1789635451106912300,9.699912353515625,-8.582614401245117,-5.660940187835693,2.1363760688781737
1789635451116952300,9.709952392578124,-8.217049735260009,-5.073911868286133,1.0823287879943848
1789635451126992400,9.719992431640625,-7.697807250213622,-4.1283518501281735,-0.0665887336730957
1789635451137032400,9.730032470703126,-7.712920648193359,-3.2433950614929197,0.32830490264892576
1789635451147072300,9.740072265625,-8.263736667633056,-3.186981684875488,1.18108960647583
1789635451157111300,9.750111328125,-8.051849820709228,-3.5404257049560544,1.69823716506958
1789635451167151400,9.7601513671875,-8.219144661712646,-3.9950247451782226,1.6319477066040038
1789635451177191400,9.77019140625,-9.502885664367675,-4.356100283050536,1.3817536331176756
1789635451187231200,9.780231201171874,-10.052354945373535,-4.552574456787109,1.1658265708923339
1789635451197271300,9.790271240234375,-9.756521402740479,-4.768651156616211,0.9808744926452636
1789635451207311400,9.800311279296874,-9.077615594482422,-5.040393045043945,0.4927566291809082
1789635451217351200,9.81035107421875,-8.770409593963622,-4.650736724853515,0.37274727096557614
1789635451227391200,9.82039111328125,-9.573364975738524,-4.285620971679688,0.9063549659729003
1789635451237431300,9.830431396484375,-9.551517885589599,-4.543895475769043,1.420509772491455
1789635451247470000,9.840469970703126,-8.832209924316405,-4.932953245544433,1.2515689178466796
1789635451257510100,9.85051025390625,-8.633640824127196,-4.595370811462402,0.9475053070068359
1789635451267550200,9.86055029296875,-8.874707003784179,-3.850624457550049,0.7282862174987793
1789635451277590300,9.87059033203125,-8.772803795623778,-2.77727392578125,0.45010991210937495
1789635451287630300,9.88063037109375,-8.187870402526855,-2.1871032165527344,0.2102408332824707
1789635451297670100,9.890670166015624,-7.871237232971191,-2.334047343444824,-0.06853402252197265
1789635451307710200,9.900710205078125,-7.695413048553466,-2.570325119781494,-0.11252747802734374
1789635451317750300,9.910750244140624,-8.643067993164061,-3.0383915443420406,0.5738602104187012
1789635451327790300,9.920790283203125,-8.650250598144531,-3.9085342102050777,1.2065279991149902
1789635451337829000,9.9308291015625,-7.753771714019775,-4.319289432525634,1.0271125122070313
1789635451347869200,9.940869140625,-7.43773709487915,-3.2945711219787595,0.2659060218811035
1789635451357909200,9.9509091796875,-7.796867343902587,-1.1623849060058593,-0.006284779357910156
1789635451367949300,9.96094921875,-7.5718123878479,0.12823942642211913,-0.12419921112060546
1789635451377989400,9.9709892578125,-7.858817311859131,0.12075754623413085,-0.2328361114501953
1789635451388029400,9.981029541015625,-7.987655288696288,0.051475335693359374,-0.6560112548828124
1789635451398069200,9.9910693359375,-8.600870188903809,-0.3687070556640625,0.20350714111328125
1789635451408109300,10.001109375,-8.647257846069335,-1.2862848419189452,1.2023381462097167
1789635451418149000,10.011149169921875,-8.547000651550292,-1.9847931762695312,1.4282909278869629
1789635451428188400,10.0211884765625,-9.350255308532715,-2.352452768707275,1.0845733520507812
1789635451438228200,10.031228271484375,-9.54448491821289,-1.7981950843811034,0.1997662010192871
1789635451448268300,10.041268310546876,-8.468889822387695,-1.1950059036254883,-0.45295302658081055
1789635451458308000,10.05130810546875,-7.166743394470214,-0.9606734161376953,-1.1773486663818358
1789635451468348200,10.06134814453125,-6.353612655639648,-0.4052186309814453,-1.8900725730895995
1789635451478388200,10.07138818359375,-5.947346561431885,-0.34880525436401366,-1.501613353729248
1789635451488428000,10.081427978515626,-5.566219584655761,-1.0076596237182616,-1.2761094848632812
1789635451498468000,10.091468017578125,-6.530185028076171,-1.1915642387390135,-1.906383071899414
1789635451508508200,10.101508056640625,-8.842834194183348,-0.21727380065917967,-2.623147193908691
1789635451518547200,10.111547119140624,-10.558279683685303,0.22475568084716796,-1.8553566490173339
1789635451528587300,10.121587158203125,-8.860042518615723,-0.35568858413696286,0.004189852905273437
1789635451538627000,10.131626953125,-4.95450106048584,-0.4798877952575683,1.061828436279297
1789635451548667100,10.141667236328125,-3.9854479385375976,0.4608838195800781,1.5381249290466308
1789635451558707200,10.151707275390624,-5.708524945831298,0.4905120651245117,1.0643722755432128
1789635451568747300,10.161747314453125,-7.880215489196777,0.24705168380737302,-0.8376713058471679
1789635451578787300,10.171787353515626,-9.11667100906372,0.16909049224853515,-1.7003320915222166
1789635451588827100,10.1818271484375,-8.920196835327149,0.14110826034545898,-0.9464578437805176
1789635451598867200,10.1918671875,-8.738686421966552,0.14454992523193358,0.6854898628234863
1789635451608906200,10.20190625,-7.632565254974365,-0.2910451393127441,2.171391268157959
1789635451618946300,10.2119462890625,-6.854599353027344,-1.3391069160461424,2.0967221038818358
1789635451628986000,10.221986083984374,-9.064447485351561,-2.278382154846191,0.730979694366455
1789635451639026200,10.232026123046875,-12.53274786529541,-2.9876643966674803,-0.2614168937683105
1789635451649066200,10.242066162109374,-12.617293111419677,-3.3247979179382323,0.3640682899475097
1789635451659106300,10.252106201171875,-9.743652568817138,-3.4885014564514156,2.0992659431457517
1789635451669146400,10.262146484375,-7.214777065277099,-3.2650925140380855,2.8190228172302243
1789635451679186400,10.2721865234375,-7.846547028350829,-2.724900764465332,2.001552587890625
1789635451689226200,10.282226318359376,-10.287136345672607,-2.4646809715270996,0.4354454269409179
1789635451699265300,10.292265380859375,-10.883442196655272,-3.0475194381713866,-0.795473501586914
1789635451709305300,10.302305419921876,-8.86153889465332,-3.9266403602600097,-0.960224503326416
1789635451719345400,10.312345458984375,-8.31835439300537,-5.075108969116211,-0.5626373901367188
1789635451729385200,10.32238525390625,-10.61140103302002,-5.691466259002685,0.4917091659545898
1789635451739425300,10.33242529296875,-11.209352897644042,-5.675155760192871,2.192190895080566
1789635451749465300,10.34246533203125,-7.829189066314697,-5.510554396057128,3.383006945800781
1789635451759505200,10.352505126953124,-4.696974744415283,-6.109254448699951,2.3684639923095703
1789635451769545200,10.362545166015625,-5.9688943763732905,-6.927622503662109,0.11851298217773437
1789635451779584300,10.372584228515626,-11.814038454437256,-7.255179218292236,-0.8622118728637694
1789635451789624300,10.382624267578125,-14.720449632263183,-6.938546048736572,0.4095581214904785
1789635451799664400,10.392664306640626,-10.82179150390625,-6.994510512542724,2.9605799903869627
1789635451809704200,10.4027041015625,-7.217320904541015,-7.005733332824707,4.627991809082031
1789635451819744000,10.412743896484375,-7.156568037414551,-6.581211450958252,4.932803607940674
1789635451829784000,10.4227841796875,-6.2867246467590325,-6.080972941589355,3.775057467651367
1789635451839824100,10.43282421875,-5.26664510192871,-5.652710119628906,2.231096672058105
1789635451849864200,10.4428642578125,-6.1824272369384765,-5.219509256744384,0.5057751007080078
1789635451859904300,10.452904296875,-7.875726361083984,-5.042039058685303,-0.988356372833252
1789635451869943000,10.462943115234374,-8.341997134399413,-5.00477929534912,-1.7507599639892577
1789635451879983000,10.472983154296875,-7.161206803131103,-5.360617517089843,-1.3377601776123047
1789635451890023200,10.483023193359376,-5.417779081726074,-5.762544120788574,0.16385317611694336
1789635451900063200,10.493063232421875,-4.898237321472168,-6.241085177612304,1.8492215072631835
1789635451910103300,10.503103271484376,-5.073612593078613,-6.776488523864746,2.6761189056396484
1789635451920143000,10.51314306640625,-4.389469468688964,-7.104943064117431,2.3388357467651364
1789635451930183200,10.52318310546875,-5.1882349975585935,-7.276427758026123,1.7407342445373535
1789635451940223200,10.53322314453125,-7.436091081237793,-7.311742232513427,1.4088380393981932
1789635451950263300,10.54326318359375,-8.143128759002686,-7.513603359985352,1.3386580032348632
1789635451960302000,10.553302001953124,-8.08866067123413,-8.283339193725585,1.7754501686096191
1789635451970342100,10.563342041015625,-7.576002240753174,-9.030330111694335,2.5043349365234375
1789635451980382200,10.57338232421875,-6.722319711303711,-8.99441708679199,2.790591672515869
1789635451990422300,10.58342236328125,-6.7942953987121575,-8.66356834487915,2.3157915557861326
1789635452000462300,10.59346240234375,-7.909095546722412,-8.971672171020508,1.4966753128051757
1789635452010502400,10.60350244140625,-9.10470000076294,-9.592967501831055,0.8777741836547851
1789635452020542200,10.613542236328126,-10.593893433380126,-10.385298613739012,0.891241567993164
1789635452030582300,10.623582275390625,-11.260080045318603,-10.965742878723145,1.4363713584899902
1789635452040622300,10.633622314453126,-10.547655413818358,-10.648511158752441,2.1486463523864745
1789635452050661400,10.643661376953125,-8.788216468811035,-9.789441675567627,2.803909419250488
1789635452060701200,10.653701171875,-6.476465128326415,-9.236830004882812,2.516904495239258
1789635452070741200,10.6637412109375,-5.148880307769775,-9.452607429504393,0.7312789695739745
1789635452080781300,10.67378125,-5.995529869842529,-9.618854807281494,0.024091654205322263
1789635452090821400,10.6838212890625,-7.39942986831665,-10.22758057937622,1.2184990074157713
1789635452100861200,10.693861083984375,-8.339004382324218,-10.734253505706786,3.068169427490234
1789635452110901000,10.70390087890625,-7.907898445892333,-10.48944638595581,3.793013980102539
1789635452120941000,10.713941162109375,-7.21432815246582,-9.418639693450928,3.578583293914795
1789635452130981000,10.723981201171876,-5.999121172332764,-8.2100167678833,2.874837643432617
1789635452141020400,10.7340205078125,-4.932504332733154,-6.853402252197265,2.2245126174926755
1789635452151060200,10.744060302734376,-4.275744889831543,-5.727528921508789,1.754351266479492
1789635452161100000,10.75410009765625,-3.656993398284912,-5.191975937652588,1.0850222648620604
1789635452171140000,10.76414013671875,-3.4584242980957027,-5.310638557434082,0.3812766143798828
1789635452181180200,10.77418017578125,-3.70951619720459,-5.8925791984558105,0.11417349166870117
1789635452191220200,10.78422021484375,-4.215889848327636,-6.432621310424804,0.07362170104980469
1789635452201260300,10.79426025390625,-5.282357050323486,-6.873004778289794,0.3687070556640625
1789635452211300000,10.804300048828125,-6.393116983032226,-7.447463539123535,0.7276876670837402
1789635452221339600,10.814339599609376,-6.910863092041015,-7.84026224899292,1.260846449279785
1789635452231379500,10.82437939453125,-6.959495313262939,-7.640196772766113,1.7615338714599609
1789635452241419500,10.83441943359375,-6.817189952087402,-7.077709020233154,1.6178817718505858
1789635452251459600,10.84445947265625,-6.417058999633789,-6.555174507904052,1.2065279991149902
1789635452261499600,10.854499755859376,-5.877914713287353,-6.529885752868652,1.0754454582214354
1789635452271539700,10.864539794921875,-5.510853671264648,-6.267122120666504,1.3895347885131835
1789635452281579500,10.87457958984375,-5.437531245422363,-6.144419285583496,1.781884585571289
1789635452291619600,10.88461962890625,-6.07154577255249,-6.637475189971924,1.8953098892211913
1789635452301659600,10.89465966796875,-6.882880860137939,-7.017405065917968,1.9208979194641111
1789635452311698700,10.90469873046875,-8.196549383544921,-7.114070957946777,2.5206454353332517
1789635452321738800,10.91473876953125,-9.821763397979735,-7.733869912719726,3.0343513290405273
1789635452331778600,10.924778564453124,-10.657489414978027,-8.654590088653563,2.8850130004882812
1789635452341818600,10.934818603515625,-11.706748292541503,-9.252093040466308,2.9926024375915525
1789635452351858700,10.944858642578126,-12.086827806091307,-9.61481459197998,3.012653876495361
1789635452361898800,10.954898681640625,-11.560851628875731,-9.434501279449462,2.9040169761657713
1789635452371938800,10.964938720703126,-10.943297238159179,-8.30668265991211,3.0856770271301266
1789635452381978600,10.974978515625,-9.988908601379395,-7.070975328063964,3.130867583465576
1789635452392018400,10.985018310546875,-8.643367268371582,-6.1553428306579585,2.9085061042785645
1789635452402057700,10.9950576171875,-7.783848872375488,-5.455936670684814,2.9740473747253415
1789635452412097800,11.005097900390625,-7.4603323730468745,-4.877138419342041,2.826355059814453
1789635452422137600,11.0151376953125,-7.6744637840270995,-4.712985968017578,2.599055539703369
1789635452432177700,11.025177734375,-7.691372833251953,-4.859930094909668,1.9975123725891113
1789635452442217500,11.035217529296874,-8.162132734680176,-5.08812744064331,1.7140987510681152
1789635452452257500,11.045257568359375,-8.755894746398925,-5.462071812438965,1.5146318252563475
1789635452462297600,11.055297607421876,-8.559420572662352,-5.808482865142822,1.585260774230957
1789635452472337400,11.06533740234375,-7.921216192626953,-5.668870980834961,1.734599102783203
1789635452482377500,11.07537744140625,-7.46347476272583,-5.0097173362731935,1.8867805458068847
1789635452492416500,11.08541650390625,-7.027131510162353,-4.035426898193359,2.0073884544372556
1789635452502456600,11.09545654296875,-6.996755076599121,-3.3605613052368164,2.1088427497863766
1789635452512496600,11.10549658203125,-6.819135240936279,-3.54311918182373,1.6416741508483885
1789635452522536400,11.115536376953125,-5.996726970672607,-4.046051168060303,1.0752958206176757
1789635452532576500,11.125576416015624,-5.446060588836669,-4.37315896987915,0.6866869636535644
1789635452542616600,11.135616455078125,-6.069151570892334,-4.305522772979736,0.7095815170288086
1789635452552656600,11.14565673828125,-7.273734281158447,-3.9363668045043942,0.9030629386901855
1789635452562696700,11.15569677734375,-8.749460329437255,-3.8328175827026363,0.9775824653625488
1789635452572736500,11.165736572265626,-9.85019454269409,-4.190750730895996,0.988356372833252
1789635452582775600,11.175775634765625,-9.90122096557617,-4.656572591400146,1.1043255157470702
1789635452592815600,11.185815673828126,-9.287108239746093,-5.060444483947753,1.1007342132568358
1789635452602855700,11.195855712890625,-8.504653209686278,-4.785111293029785,1.0529998176574706
1789635452612895500,11.2058955078125,-8.320000406646727,-3.814561795043945,1.2077250999450684
1789635452622935600,11.215935546875,-9.004742081451415,-2.816778253173828,1.5001169776916503
1789635452632975600,11.2259755859375,-9.370306747436523,-2.141463747406006,1.0784382102966308
1789635452643015700,11.236015625,-10.122834256744385,-1.9671359390258787,0.3586813362121582
1789635452653055700,11.2460556640625,-11.028291397094726,-2.257881803131103,0.027682956695556638
1789635452663095800,11.256095703125,-10.85920090484619,-2.742857276916504,0.18046295013427732
1789635452673134600,11.266134521484375,-10.1131078125,-3.5461119338989255,0.7562684494018554
1789635452683174700,11.276174560546876,-9.510666819763182,-4.381837950897217,1.174056639099121
1789635452693214700,11.286214599609375,-9.770437699890136,-4.424035755157471,1.2859855667114257
1789635452703254800,11.2962548828125,-9.807847100830077,-4.205564853668212,1.2882301307678221
1789635452713294600,11.306294677734375,-8.449736209106446,-4.248959758758545,0.9828197814941406
1789635452723334700,11.316334716796876,-6.864026522064209,-3.783437173461914,0.08289923248291015
1789635452733374700,11.326374755859375,-6.735787095642089,-2.4637831459045407,-0.9950900650024413
1789635452743414500,11.33641455078125,-6.873902603912353,-0.7146691955566405,-1.3211504035949706
1789635452753453600,11.34645361328125,-5.970690027618408,0.3580827857971191,-1.451784031677246
1789635452763493600,11.35649365234375,-5.395183803558349,0.6510732139587402,-1.3539210388183593
1789635452773533700,11.36653369140625,-6.010643267822266,0.34117373657226563,-0.6994061599731445
1789635452783573500,11.376573486328125,-6.885125424194335,0.16729484100341796,0.17866729888916014
1789635452793613600,11.386613525390626,-7.110479655456542,-0.1662473777770996,0.8488941261291504
1789635452803653600,11.396653564453125,-6.584054565429687,0.47270519027709956,0.6524199523925781
1789635452813693400,11.406693359375,-6.742969700622559,1.7579425689697266,-0.16130933685302734
1789635452823733500,11.4167333984375,-8.141782020568847,1.7823334983825683,0.2141314109802246
1789635452833773600,11.426773681640626,-8.84268455657959,1.6651672546386718,0.2524386375427246
1789635452843812600,11.4368125,-8.243086678314208,1.6735469604492186,-0.3227683113098144
1789635452853852400,11.446852294921875,-7.810634003448486,0.40237551651000975,-0.6625953094482422
1789635452863892500,11.456892578125,-9.158270262908935,-0.5113116920471191,-0.4697124382019043
1789635452873932500,11.4669326171875,-10.409240630340575,-1.1737573638916015,0.42182840499877927
1789635452883972600,11.47697265625,-9.329605319213867,-1.881393592071533,0.23912089080810545
1789635452894012700,11.4870126953125,-8.124274420928955,-1.4431050506591796,0.1788169364929199
1789635452904052500,11.497052490234376,-8.954014933776856,-0.9247603912353515,1.0105027381896972
1789635452914092500,11.507092529296875,-8.91825154647827,-1.128716445159912,1.0284592506408692
1789635452924132600,11.517132568359376,-7.202506781768799,-0.999130280303955,0.8945335952758788
1789635452934171600,11.527171630859375,-6.42903000793457,-1.1047744285583496,1.132607022857666
1789635452944211500,11.53721142578125,-6.296151815795898,-1.7108067237854003,0.41090485992431636
1789635452954251500,11.54725146484375,-7.351695472717284,-2.1646575759887696,-0.589272883605957
1789635452964291600,11.55729150390625,-8.782081327056884,-2.4185925895690916,-0.6579565437316894
1789635452974331600,11.56733154296875,-7.7334209999084464,-2.3919570960998535,-0.43724107818603514
1789635452984371700,11.577371826171875,-7.404517546844482,-1.974019268798828,0.28042086944580075
1789635452994411800,11.587411865234374,-8.639626328277588,-1.3207014907836914,1.2349591438293457
1789635453004451600,11.59745166015625,-9.016862727355957,-1.0307038146972656,1.6189292350769042
1789635453014491600,11.60749169921875,-8.859144692993164,-1.4891934326171874,1.2683283294677734
1789635453024531700,11.61753173828125,-8.705466873931885,-2.4028806411743164,0.49365445480346676
1789635453034570800,11.62757080078125,-9.920524216461182,-3.074603844451904,0.16849194183349608
1789635453044610600,11.637610595703125,-11.37021332168579,-3.381360932159424,0.7018003616333007
1789635453054650600,11.647650634765625,-10.01689083328247,-3.941604120635986,1.199495031738281
1789635453064690700,11.657690673828125,-8.298901504516602,-4.994903213500976,1.1209352897644043
1789635453074730800,11.667730712890625,-9.849595992279053,-6.037877311706542,0.8168716789245605
1789635453084770600,11.6777705078125,-11.692532720184326,-6.517765106964111,1.1768997535705565
1789635453094810400,11.687810302734375,-11.044901171112059,-6.56295566329956,2.3069629371643066
1789635453104850400,11.697850341796874,-8.562413324737548,-6.3709706176757805,2.971952448272705
1789635453114889700,11.7078896484375,-6.4643444824218745,-5.85442160949707,2.516605220031738
1789635453124929800,11.7179296875,-6.088604459381103,-5.320365001678466,1.5448586212158202
1789635453134969600,11.727969482421875,-7.232733577728271,-5.153070160675049,0.47719431838989257
1789635453145009400,11.738009521484376,-8.031050193786621,-4.885967037963867,-0.14724340209960937
1789635453155049500,11.748049560546875,-6.96518154220581,-4.442740455627441,0.21353286056518553
1789635453165089500,11.758089599609375,-5.762544120788574,-4.2329485351562495,1.2333131301879883
1789635453175129600,11.768129638671875,-5.389946487426758,-4.076277964019775,2.1371242568969726
1789635453185169700,11.778169677734375,-5.287594366455078,-4.146757275390625,2.4262241073608397
1789635453195209500,11.78820947265625,-4.469525586700439,-4.619013552856445,1.9725228927612304
1789635453205248500,11.79824853515625,-4.154089517974853,-5.421071109008789,0.9255085792541503
1789635453215288600,11.80828857421875,-6.201131937408447,-6.330269189453125,0.0037409400939941405
1789635453225328400,11.818328369140625,-8.754548007965088,-7.0841434371948235,-0.177470198059082
1789635453235368400,11.828368408203126,-9.744251119232176,-7.498789237213134,0.955735375213623
1789635453245408500,11.838408447265625,-8.322095333099364,-8.281393904876708,2.342127774047851
1789635453255448600,11.848448486328126,-7.499836700439452,-8.940846824645996,3.519177165222168
1789635453265488400,11.85848828125,-8.092850524139404,-9.037063803863525,3.7261259712219235
1789635453275528400,11.868528564453126,-8.969128331756592,-8.848071510314941,3.180696905517578
1789635453285567500,11.8785673828125,-10.257807375335693,-8.551340142059326,2.936189060974121
1789635453295607600,11.888607666015625,-10.228777680206298,-8.52320827255249,2.9034184257507323
1789635453305647400,11.8986474609375,-8.660725230407714,-8.684068696594238,2.7697920455932614
1789635453315687400,11.9086875,-8.057835324859619,-9.347112918853759,2.472611764526367
1789635453325727500,11.9187275390625,-7.719205427551269,-9.578602291870117,1.7727566917419433
1789635453335767600,11.928767578125,-7.894431061553955,-9.530269345855713,1.4282909278869629
1789635453345807600,11.9388076171875,-7.809436902618407,-9.540295065307618,1.5705962890624998
1789635453355847400,11.948847412109375,-6.8405334182739255,-8.6061075050354,1.9865888275146484
1789635453365887500,11.958887451171876,-6.735038907623291,-7.7227967300415035,2.2076035682678223
1789635453375926500,11.968926513671875,-7.4417773101806635,-8.12726717300415,2.1830630012512207
1789635453385966600,11.978966552734375,-6.907122151947021,-8.993519261169434,2.0759224769592284
1789635453396006700,11.989006591796874,-6.3812956123352045,-9.56977367324829,1.801038198852539
1789635453406046500,11.99904638671875,-6.351368091583252,-9.243563697052002,1.0417769973754882
1789635453416086500,12.00908642578125,-7.263110011291504,-8.483703945159911,1.0564414825439452
1789635453426126600,12.019126708984375,-6.929268517303466,-7.873781072235107,1.835604485321045
1789635453436166400,12.02916650390625,-5.664381852722167,-6.926425402832031,2.0232500404357907
1789635453446206500,12.03920654296875,-6.03967296295166,-6.541856761169433,1.9186533554077148
1789635453456246300,12.049246337890626,-6.245723943328857,-7.196222002410888,2.0492869834899903
1789635453466285600,12.05928564453125,-5.355230563354492,-7.2888476791381835,1.2846388282775878
1789635453476325600,12.06932568359375,-5.258415033721923,-6.986878994750976,0.4252700698852539
1789635453486365400,12.079365478515625,-5.756708254241943,-6.922385187530518,0.3908534210205078
1789635453496405200,12.0894052734375,-5.289390017700195,-6.8590884811401365,0.48243163452148435
1789635453506445300,12.0994453125,-4.948216281127929,-6.865971810913085,0.3067570877075195
1789635453516485400,12.1094853515625,-6.086060620117187,-7.268945877838134,0.3790320503234863
1789635453526525400,12.119525390625,-6.835745014953613,-8.102576968383788,1.1372457885742187
1789635453536565500,12.1295654296875,-6.085462069702148,-9.188646696472167,1.7127520126342772
1789635453546605600,12.13960546875,-6.1364884925842285,-10.31047981185913,1.3412018424987793
1789635453556644400,12.149644287109375,-7.646631189727783,-10.621875665283202,1.4082394889831542
1789635453566684400,12.159684326171876,-8.6183777885437,-10.202890374755858,2.4539070640563962
1789635453576724500,12.169724365234375,-8.354267417907714,-9.041702569580078,3.5558383781433105
1789635453586764500,12.1797646484375,-8.194604094696045,-7.648875753784179,3.840299462890625
1789635453596804400,12.189804443359375,-7.959074506378173,-7.048529687499999,3.388992449951172
1789635453606844400,12.199844482421875,-6.527790826416015,-6.846967835235596,2.7635072662353513
1789635453616884500,12.209884521484375,-5.225794036102295,-7.048828962707519,2.1404162841796874
1789635453626924500,12.219924560546875,-6.003759938049316,-7.234678866577148,1.4745289474487304
1789635453636964600,12.229964599609374,-7.749432223510742,-7.141753914642334,0.7351695472717285
1789635453647003400,12.24000341796875,-9.100809423065185,-7.48906279296875,0.5903203468322754
1789635453657043500,12.25004345703125,-9.513809209442138,-8.3639938621521,1.0422259101867675
1789635453667083500,12.26008349609375,-9.062651834106445,-8.80482624282837,1.7790414710998534
1789635453677123600,12.27012353515625,-8.879645044708251,-7.794772417449951,2.4627356826782223
1789635453687163600,12.28016357421875,-7.294683545684814,-6.369773516845703,2.872293804168701
1789635453697203500,12.290203369140626,-5.838709661102294,-5.716605376434326,2.5686791061401366
1789635453707243500,12.300243408203125,-6.054187810516357,-5.513247872924804,1.7149965766906736
1789635453717283600,12.31028369140625,-7.219565468597412,-5.382464607238769,1.132008472442627
1789635453727322600,12.320322509765624,-7.84026224899292,-5.381267506408691,0.9584288520812988
1789635453737362400,12.330362548828125,-7.890390846252441,-5.569062699127197,1.507449220275879
1789635453747402500,12.340402587890624,-7.853729633331298,-6.099228729248047,2.0501848091125487
1789635453757442600,12.350442626953125,-7.692121021270752,-6.51851329498291,2.2282535575866698
1789635453767482600,12.360482666015624,-7.308749480438232,-6.4739212890625,2.2789807052612305
1789635453777522700,12.370522705078125,-7.119607549285888,-6.166266375732421,2.080561242675781
1789635453787562500,12.3805625,-6.714388918304443,-5.646126065063476,1.4257470886230468
1789635453797602300,12.390602294921875,-6.865822173309326,-4.805761282348633,0.7716811225891113
1789635453807642400,12.400642333984376,-7.091326042175292,-4.357596659088134,0.5762544120788574
1789635453817681700,12.410681640625,-8.031050193786621,-4.216937311553955,1.3175591011047363
1789635453827721500,12.420721435546875,-9.192237998962401,-4.161721035766601,2.166902140045166
1789635453837761300,12.43076123046875,-10.560823522949217,-4.14391416091919,2.87289235458374
1789635453847801300,12.44080126953125,-11.978041268157959,-5.116109672546386,3.453186981964111
1789635453857841400,12.45084130859375,-11.363329991912842,-6.396109735107421,2.8217162940979
1789635453867881500,12.460881591796875,-10.768670154571533,-6.834248638916015,2.0670938583374023
1789635453877921500,12.470921630859374,-10.295216776275634,-6.63957011642456,1.8267758666992187
1789635453887961300,12.48096142578125,-9.924564431762695,-5.740996305847168,2.1257517990112302
1789635453898000400,12.49100048828125,-10.371831229400634,-4.627542896270752,2.351854218292236
1789635453908040400,12.50104052734375,-10.673201363372803,-4.130297138977051,1.7470190238952636
1789635453918080500,12.51108056640625,-9.789441675567627,-3.5429695442199707,0.40880993347167965
1789635453928120300,12.521120361328125,-9.051129738616943,-2.5475802040100097,-0.14829086532592772
1789635453938160400,12.531160400390625,-7.438036370086669,-2.4429835189819333,-0.2120364845275879
1789635453948200400,12.541200439453124,-6.074538524627685,-2.9788357780456542,-0.05162497329711914
1789635453958240500,12.551240478515625,-5.9002107162475586,-3.2855928657531734,0.3520972816467285
1789635453968280600,12.561280517578124,-6.300192031097412,-2.757222486877441,0.6651391487121582
1789635453978320400,12.5713203125,-7.5445783439636225,-1.5741875915527344,0.6268319221496582
1789635453988359400,12.581359375,-9.32137525100708,-0.7181108604431152,0.6905775413513183
1789635453998399500,12.5913994140625,-9.593416414642334,-1.3868413116455078,0.46402620925903315
1789635454008439600,12.601439453125,-8.872013526916504,-3.274519683074951,0.08469488372802735
1789635454018479600,12.611479736328125,-7.912387574005127,-4.640860643005371,0.35568858413696286
1789635454028519400,12.62151953125,-6.992116310882568,-4.687248300170898,0.9840168823242187
1789635454038559500,12.6315595703125,-6.996306163787842,-3.7579987808227537,1.3880384124755858
1789635454048599600,12.641599609375,-8.207323291015625,-2.524984925842285,1.2101193016052245
1789635454058639600,12.6516396484375,-10.169072276306151,-1.9966145469665526,0.8001122673034667
1789635454068679700,12.6616796875,-10.13211178817749,-2.4564509033203126,-0.011671733093261718
1789635454078718500,12.671718505859374,-7.784447422790527,-3.0265701736450192,-0.673518854522705
1789635454088758500,12.681758544921875,-7.345261055755615,-2.64948341217041,-0.1958756233215332
1789635454098798600,12.691798583984376,-7.3292498321533195,-1.3851952980041502,0.8198644309997558
1789635454108838700,12.701838623046875,-6.612635347747802,-0.4278139091491699,1.2693757926940916
1789635454118878500,12.71187841796875,-6.311115576171875,-0.8400655075073241,1.02142628326416
1789635454128918500,12.72191845703125,-7.031171725463866,-0.7463923675537109,0.35314474487304687
1789635454138958300,12.731958251953126,-8.03119983139038,-0.3962403747558593,0.1566705711364746
1789635454148998400,12.741998291015625,-7.605929761505126,-0.5053261878967285,-0.5455787033081054
1789635454159038500,12.75203857421875,-6.105363871002197,0.44068274307250976,-1.9214964698791503
1789635454169077500,12.762077392578124,-6.320991658020019,1.7350480155944823,-2.437446927642822
1789635454179117600,12.77211767578125,-7.376984227752685,2.5369559341430663,-1.5246575447082518
1789635454189157400,12.782157470703124,-7.256825231933593,2.0413561904907227,-0.2524386375427246
1789635454199197400,12.792197509765625,-6.404040528106689,-0.02259527816772461,0.9600748657226562
