time,seconds_elapsed,z,y,x
1788861982867823000,0.053822998046875,-0.26339200139045715,-0.7404903173446655,-0.17199744284152985
1788861982877829000,0.0638291015625,-0.225282683968544,-1.0685451030731201,-0.1845419853925705
1788861982887835100,0.073835205078125,-0.22901080548763275,-1.402072548866272,-0.14762623608112335
1788861982897841000,0.0838408203125,-0.2286616712808609,-1.629382610321045,-0.13259562849998474
1788861982907847200,0.09384716796875,-0.2064841389656067,-1.7342398166656494,-0.12803106009960175
1788861982917853200,0.103853271484375,-0.2612842619419098,-1.7461379766464233,-0.08103160560131073
1788861982927859000,0.11385888671875,-0.546614944934845,-1.6003352403640747,0.0644291490316391
1788861982937865000,0.123864990234375,-0.8266913294792175,-1.3096940517425537,0.13215945661067963
1788861982947871000,0.13387109375,-0.9337048530578613,-1.0596078634262085,0.1280103325843811
1788861982957877200,0.143877197265625,-0.9389795064926147,-0.6451746225357056,0.026849351823329926
1788861982967883000,0.153883056640625,-0.8866727948188782,-0.2665573060512543,-0.12603847682476044
1788861982977889000,0.163888916015625,-0.751663088798523,-0.26083844900131226,-0.4484516680240631
1788861982987895000,0.17389501953125,-0.588564932346344,-0.24153290688991547,-0.7183982133865356
1788861982997901000,0.183901123046875,-0.4153946042060852,0.16995982825756073,-0.8521649837493896
1788861983007907000,0.193906982421875,-0.29163622856140137,0.7962855100631714,-0.8768426775932312
1788861983017913000,0.2039130859375,-0.2527082562446594,1.2963240146636963,-0.8379495739936829
1788861983027920100,0.213920166015625,-0.29258993268013,1.1357485055923462,-0.8652154803276062
1788861983037926000,0.22392578125,-0.2835165560245514,0.14458364248275757,-0.9925324320793152
1788861983047932200,0.23393212890625,-0.1541510820388794,-0.5268820524215698,-0.9827412962913513
1788861983057938200,0.243938232421875,0.08423644304275513,-0.759383499622345,-0.8536067605018616
1788861983067944000,0.25394384765625,0.3826352059841156,-1.1623849868774414,-0.5217486023902893
1788861983077950000,0.263949951171875,0.5829403400421143,-1.3682446479797363,-0.25542151927948
1788861983087956000,0.2739560546875,0.67731773853302,-1.1494646072387695,-0.11240857094526291
1788861983097962200,0.283962158203125,0.7586501836776733,-0.6814314126968384,0.003096187487244606
1788861983107968000,0.293968017578125,0.907493531703949,-0.2794174253940582,0.20543229579925537
1788861983117974000,0.30397412109375,1.1623207330703735,-0.1881338506937027,0.42289939522743225
1788861983127980000,0.31397998046875,1.427034854888916,-0.42684364318847656,0.5847913026809692
1788861983137986300,0.323986328125,1.6819162368774414,-1.1043436527252197,0.6397370100021362
1788861983147992000,0.333991943359375,1.960058569908142,-2.0324227809906006,0.6149299144744873
1788861983157998000,0.343998046875,2.1801812648773193,-2.752164125442505,0.4984248876571655
1788861983168004000,0.354004150390625,2.1557297706604004,-3.163137197494507,0.15205281972885132
1788861983178010000,0.364010009765625,2.010138750076294,-3.32472825050354,-0.38887882232666016
1788861983188017200,0.37401708984375,2.1820530891418457,-3.372727155685425,-0.7594577074050903
1788861983198023200,0.384023193359375,2.562089204788208,-3.439495801925659,-0.9105513095855713
1788861983208029000,0.39402880859375,2.8890280723571777,-3.4039974212646484,-0.9259888529777527
1788861983218035500,0.404035400390625,3.172391891479492,-3.3684399127960205,-0.8740140795707703
1788861983228041500,0.41404150390625,3.4875786304473877,-3.372603416442871,-0.9256163239479065
1788861983238047500,0.424047607421875,3.8053536415100098,-3.4691944122314453,-1.2291892766952515
1788861983248053500,0.434053466796875,4.230371475219727,-3.711303472518921,-1.5664258003234863
1788861983258059500,0.4440595703125,4.817135334014893,-4.290064334869385,-1.6086928844451904
1788861983268065500,0.4540654296875,5.490411758422852,-5.2554707527160645,-1.2655441761016846
1788861983278071300,0.4640712890625,5.9532365798950195,-6.5284647941589355,-0.5641449093818665
1788861983288077300,0.474077392578125,6.243580341339111,-7.8487749099731445,0.43940469622612
1788861983298083600,0.48408349609375,6.404457092285156,-8.43565845489502,1.5915826559066772
1788861983308089600,0.494089599609375,6.407216548919678,-7.860469341278076,2.5724434852600098
1788861983318096400,0.504096435546875,6.209101676940918,-6.342710494995117,3.012713670730591
1788861983328102400,0.514102294921875,5.784470081329346,-4.612881183624268,2.3586783409118652
1788861983338108400,0.5241083984375,5.22300386428833,-3.721374034881592,1.0541714429855347
1788861983348114400,0.534114501953125,3.789219617843628,-3.0930655002593994,-0.46256375312805176
1788861983358120400,0.544120361328125,3.341346025466919,-2.582188606262207,-1.1951568126678467
1788861983368126500,0.55412646484375,2.7833783626556396,-2.5059642791748047,-1.4586230516433716
1788861983378132200,0.56413232421875,2.2498841285705566,-2.5128722190856934,-1.2017971277236938
1788861983388138500,0.574138427734375,1.6706116199493408,-2.406282424926758,-0.7655671834945679
1788861983398144500,0.58414453125,1.103930115699768,-2.4935097694396973,-0.306458979845047
1788861983408150500,0.594150634765625,0.6716383099555969,-2.7844691276550293,0.17696571350097656
1788861983418156300,0.60415625,0.42285674810409546,-3.0205259323120117,0.6070089936256409
1788861983428162300,0.614162353515625,0.28121840953826904,-3.1954312324523926,0.8757569193840027
1788861983438168600,0.62416845703125,0.3504432737827301,-3.3951289653778076,0.9257646799087524
1788861983448175400,0.63417529296875,0.5318165421485901,-3.272994041442871,0.8382062911987305
1788861983458181400,0.644181396484375,0.6654856204986572,-2.980894088745117,0.6550807952880859
1788861983468812500,0.6548125,0.6843057870864868,-2.60853910446167,0.3726016581058502
1788861983478818300,0.664818359375,0.7000999450683594,-2.4931061267852783,0.06198440492153168
1788861983488824300,0.67482421875,0.7568785548210144,-2.703151226043701,-0.28759339451789856
1788861983498830600,0.68483056640625,0.9195740222930908,-2.894406318664551,-0.5622283816337585
1788861983508836600,0.694836669921875,1.058823823928833,-3.034715175628662,-0.6058443188667297
1788861983518842400,0.70484228515625,1.0002942085266113,-3.0160038471221924,-0.3598041236400604
1788861983528848400,0.714848388671875,0.7897518873214722,-2.9995853900909424,0.05192995071411133
1788861983538855700,0.724855712890625,0.45328575372695923,-2.933629274368286,0.45896294713020325
1788861983548861400,0.734861328125,0.07470077276229858,-2.0666491985321045,0.7459515333175659
1788861983558867500,0.744867431640625,-0.1861654371023178,-1.0000226497650146,0.8454349637031555
1788861983568873500,0.75487353515625,-0.40633678436279297,-0.07530789822340012,0.823788583278656
1788861983578879200,0.764879150390625,-0.4283243715763092,0.15751923620700836,0.7476562857627869
1788861983588885500,0.774885498046875,-0.22732605040073395,0.03229762986302376,0.6786115765571594
1788861983598891500,0.7848916015625,0.03642596676945686,0.04809150472283363,0.5376233458518982
1788861983608897500,0.7948974609375,0.3873231112957001,0.07255160063505173,0.3876810371875763
1788861983618903300,0.8049033203125,0.8965749144554138,1.5291802883148193,1.622291088104248
1788861983628909300,0.814909423828125,1.2082843780517578,1.4792801141738892,2.618499994277954
1788861983638915600,0.82491552734375,0.8698318004608154,0.05039757117629051,2.1258482933044434
1788861983648921600,0.834921630859375,0.29622313380241394,-1.0314974784851074,1.460914969444275
1788861983658928400,0.844928466796875,0.052679724991321564,-1.1688936948776245,1.1854276657104492
1788861983668934400,0.854934326171875,0.37136200070381165,-0.7499039173126221,1.073571801185608
1788861983678940400,0.8649404296875,0.8979456424713135,-0.2030474990606308,0.8947498202323914
1788861983688946400,0.874946533203125,1.2717149257659912,0.0234698373824358,0.6465824842453003
1788861983698952400,0.884952392578125,1.4749401807785034,0.1310141384601593,0.8681854605674744
1788861983708958500,0.89495849609375,1.6947453022003174,0.31469687819480896,1.0837278366088867
1788861983718964200,0.904964111328125,1.937698245048523,0.6239657998085022,1.04880952835083
1788861983728970500,0.914970458984375,2.367380380630493,1.1393609046936035,0.8928954005241394
1788861983738976500,0.9249765625,3.06524658203125,1.5298395156860352,0.6504274010658264
1788861983748982500,0.934982421875,3.8674159049987793,1.5662771463394165,0.3386216461658478
1788861983758988300,0.94498828125,4.243624210357666,0.8408719897270203,0.06553926318883896
1788861983768995600,0.95499560546875,3.96624493598938,-0.14716054499149323,0.0034505906514823437
1788861983779001600,0.965001708984375,3.3011324405670166,-1.1803202629089355,-0.018002502620220184
1788861983789007400,0.97500732421875,2.577486038208008,-1.8660811185836792,-0.17891016602516174
1788861983799013400,0.985013427734375,2.0599050521850586,-1.9062886238098145,-0.3602261245250702
1788861983809019400,0.995019287109375,1.9570612907409668,-1.3138737678527832,-0.5298488736152649
1788861983819025400,1.005025390625,2.139533281326294,-0.5055186748504639,-0.7074885964393616
1788861983829031400,1.015031494140625,2.2564895153045654,-0.1278533637523651,-1.065151572227478
1788861983839037400,1.025037353515625,2.3236262798309326,-0.3420056104660034,-1.2588180303573608
1788861983849043500,1.03504345703125,2.5010263919830322,-0.5180387496948242,-0.967459499835968
1788861983859049500,1.045049560546875,2.8876185417175293,-1.332046389579773,-0.4727719724178314
1788861983869056500,1.055056396484375,3.599712610244751,-2.3631858825683594,-0.028330106288194656
1788861983879062500,1.0650625,4.089766025543213,-3.159649133682251,0.3538074195384979
1788861983889068300,1.075068359375,4.415960311889648,-3.3038253784179688,0.6401147246360779
1788861983899074600,1.085074462890625,4.662546634674072,-3.6760799884796143,1.0784435272216797
1788861983909080600,1.09508056640625,4.422361373901367,-4.3030877113342285,1.4011789560317993
1788861983919086300,1.10508642578125,3.9421489238739014,-4.46537971496582,1.2311604022979736
1788861983929092400,1.11509228515625,3.55470871925354,-3.559664726257324,0.8915935754776001
1788861983939098400,1.125098388671875,3.0412652492523193,-2.3417391777038574,0.8307932019233704
1788861983949104600,1.135104736328125,2.3028311729431152,-1.4377391338348389,1.0954561233520508
1788861983959110400,1.1451103515625,0.5631273984909058,-1.7327362298965454,0.7236074209213257
1788861983969117400,1.155117431640625,-1.1794811487197876,-1.4120376110076904,0.09472323209047318
1788861983979123500,1.16512353515625,-2.105722665786743,-1.2916364669799805,-0.8349956274032593
1788861983989129500,1.17512939453125,-2.1589009761810303,-1.2674939632415771,-1.6851142644882202
1788861983999135500,1.185135498046875,-2.043160915374756,-0.8239908814430237,-2.240048408508301
1788861984009141500,1.1951416015625,-1.7567903995513916,0.7206502556800842,-2.2135045528411865
1788861984019147500,1.2051474609375,-1.3031773567199707,2.0659031867980957,-1.566658616065979
1788861984029153300,1.2151533203125,-0.8841179609298706,2.9040398597717285,-0.806693434715271
1788861984039159600,1.22515966796875,-0.6122081279754639,2.4743034839630127,-0.21518908441066742
1788861984049165600,1.23516552734375,-0.5508811473846436,1.2369506359100342,0.027567099779844284
1788861984059172400,1.24517236328125,-0.6433665752410889,0.5927684903144836,0.29622069001197815
1788861984069178400,1.255178466796875,-0.762269139289856,0.4711669385433197,0.46549192070961
1788861984079184600,1.2651845703125,-0.7494372129440308,0.28590068221092224,0.4072347581386566
1788861984089190400,1.2751904296875,-0.9978788495063782,0.06412354856729507,0.45762020349502563
1788861984099196400,1.285196533203125,-1.6180918216705322,-0.28152546286582947,0.4957987368106842
1788861984109202400,1.295202392578125,-2.296351671218872,-0.6408594250679016,0.40165942907333374
1788861984119208400,1.30520849609375,-2.7808539867401123,-0.84466552734375,0.2743890881538391
1788861984129214500,1.31521435546875,-3.004760265350342,-0.7079947590827942,0.18377040326595306
1788861984139220500,1.325220458984375,-2.8254003524780273,-0.2672983407974243,0.23245085775852203
1788861984149227300,1.335227294921875,-2.277254819869995,0.3551545739173889,0.1519300937652588
1788861984159233300,1.3452333984375,-1.7892247438430786,1.0104825496673584,0.00910157524049282
1788861984169239600,1.355239501953125,-1.68254554271698,1.4005986452102661,-0.04538695886731148
1788861984179245600,1.36524560546875,-1.6147654056549072,1.1531134843826294,-0.18793584406375885
1788861984189251300,1.375251220703125,-1.2315510511398315,0.3293176591396332,-0.3805137872695923
1788861984199257300,1.38525732421875,-0.7457683086395264,0.054529763758182526,-0.2599623501300812
1788861984209263900,1.395263916015625,-0.21225470304489136,0.11824113875627518,-0.18690893054008484
1788861984219270000,1.405269775390625,0.26921525597572327,0.020570237189531326,-0.26310834288597107
1788861984229276000,1.41527587890625,0.8866820931434631,0.6271938681602478,-0.36158981919288635
1788861984239283000,1.425282958984375,1.1868371963500977,1.059500813484192,-0.26231649518013
1788861984249288700,1.435288818359375,1.1779687404632568,0.3358863890171051,-0.469974547624588
1788861984259295000,1.445294921875,1.3138525485992432,0.04330645501613617,-0.41501039266586304
1788861984269301000,1.455301025390625,1.4533177614212036,-0.33823320269584656,-0.3109447956085205
1788861984279307000,1.46530712890625,1.5508989095687866,-0.11241469532251358,-0.5048292875289917
1788861984289312800,1.475312744140625,1.419032335281372,0.3764796555042267,-0.7668192982673645
1788861984299318800,1.48531884765625,1.105528712272644,0.7982510924339294,-0.9095003008842468
1788861984309325000,1.495324951171875,0.8180214166641235,1.0288070440292358,-0.7203186750411987
1788861984319331800,1.505331787109375,0.6369815468788147,0.974409818649292,-0.5092160105705261
1788861984329337900,1.515337890625,0.5001624226570129,0.5209009647369385,-0.4111526608467102
1788861984339344000,1.52534375,0.5274456739425659,0.24530427157878876,-0.28921929001808167
1788861984349350000,1.535349853515625,0.6501294374465942,0.017160600051283836,-0.033906903117895126
1788861984359356000,1.54535595703125,0.69258713722229,-0.32187339663505554,0.25168943405151367
1788861984369362000,1.55536181640625,0.735081672668457,-0.7472140789031982,0.4542240500450134
1788861984379368000,1.565367919921875,0.7487801909446716,-1.2229104042053223,0.6992756128311157
1788861984389374000,1.5753740234375,0.6715186238288879,-1.7041410207748413,0.863429069519043
1788861984399381000,1.585381103515625,0.45471546053886414,-1.7740306854248047,0.8554219603538513
1788861984409386800,1.59538671875,0.20553924143314362,-1.2568857669830322,0.714156448841095
1788861984419392800,1.605392822265625,0.15059396624565125,-0.5683923363685608,0.43492937088012695
1788861984429399000,1.61539892578125,-0.0020211797673255205,0.024713043123483658,0.17447195947170258
1788861984439405000,1.625405029296875,-0.2572100758552551,0.19863051176071167,-0.21839196979999542
1788861984449410800,1.635410888671875,-0.7044667601585388,-0.37187984585762024,-0.7716884016990662
1788861984459416800,1.645416748046875,-0.8444246649742126,-0.0996701568365097,-1.061440348625183
1788861984469422800,1.6554228515625,-0.42087215185165405,1.34035062789917,-0.9508394598960876
1788861984479430000,1.665429931640625,-0.10687241703271866,0.514642596244812,-0.33535873889923096
1788861984489436000,1.675435791015625,-0.10324674844741821,-0.10188561677932739,0.08371095359325409
1788861984499442000,1.68544189453125,-0.07821063697338104,-0.16403420269489288,-0.024870648980140686
1788861984509448000,1.695447998046875,-0.27348238229751587,-0.09510547667741776,-0.02531319111585617
1788861984519454000,1.705453857421875,-0.24621903896331787,-0.2715926468372345,-0.047129541635513306
1788861984529460000,1.7154599609375,-0.04196701943874359,-0.16872774064540863,-0.1563604474067688
1788861984539466000,1.725466064453125,0.08776860684156418,-0.09837687760591507,-0.21812953054904938
1788861984549472800,1.73547265625,0.18358121812343597,-0.1652267426252365,-0.21606391668319702
1788861984559479000,1.74547900390625,0.2723079025745392,-0.11334037035703659,-0.019241394475102425
1788861984569485000,1.755485107421875,0.15877768397331238,-0.3419650197029114,-0.05528898909687996
1788861984579490800,1.76549072265625,-0.010941587388515472,-0.3403750956058502,0.0649292916059494
1788861984589496800,1.775496826171875,0.03672044351696968,-0.06038980558514595,0.6019045114517212
1788861984599502800,1.7855029296875,-0.07481992989778519,0.2687545418739319,0.5983699560165405
1788861984609508900,1.7955087890625,-0.3159165680408478,0.04156159982085228,0.05276305973529816
1788861984619515000,1.805514892578125,-0.977407693862915,0.14856980741024017,0.20115865767002106
1788861984629522000,1.81552197265625,-1.3861106634140015,0.42238694429397583,0.8436887264251709
1788861984639527700,1.825527587890625,-1.0788753032684326,0.07470887154340744,0.48789623379707336
1788861984649534000,1.835533935546875,-0.41019779443740845,0.5910500884056091,-0.012483405880630016
1788861984659540000,1.8455400390625,0.06587076187133789,1.2038942575454712,-0.4966956079006195
1788861984669546000,1.8555458984375,0.10571937263011932,2.072941303253174,-0.8573792576789856
1788861984679551700,1.8655517578125,-0.03673950955271721,2.4701356887817383,-1.074015498161316
1788861984689557800,1.875557861328125,-0.044885460287332535,2.0802793502807617,-0.8258202075958252
1788861984699565000,1.88556494140625,0.2188550978899002,0.7651472687721252,-0.267172634601593
1788861984709570800,1.89557080078125,0.5276136994361877,-0.2947021424770355,0.19280847907066345
1788861984719576800,1.905576904296875,0.6424228549003601,-0.8523872494697571,0.5681365728378296
1788861984729582800,1.915582763671875,0.6387941241264343,-1.1631039381027222,0.7251861095428467
1788861984739588900,1.9255888671875,0.2930343747138977,-1.119046926498413,0.5952911972999573
1788861984749595000,1.935594970703125,0.14074771106243134,-0.667304515838623,0.3749188780784607
1788861984759601000,1.945600830078125,0.20564495027065277,-0.41592422127723694,0.12140563130378723
1788861984769608000,1.95560791015625,0.24756884574890137,-0.18754374980926514,0.01960894651710987
1788861984779614000,1.965614013671875,0.060931846499443054,-0.1149664893746376,0.02597683109343052
1788861984789620000,1.975619873046875,-0.09961225092411041,-0.2593337893486023,0.0193969514220953
1788861984799626000,1.9856259765625,-0.05023723840713501,-0.2209075540304184,-0.04009353742003441
1788861984809631700,1.9956318359375,0.03702428936958313,-0.28857237100601196,-0.004764800891280174
1788861984819638000,2.005637939453125,-0.02692965790629387,-0.30364078283309937,0.022853778675198555
1788861984829644000,2.01564404296875,-0.25608697533607483,-0.23848706483840942,0.09013838320970535
1788861984839650800,2.02565087890625,-0.2434353530406952,-0.3928649127483368,0.16948938369750977
1788861984849656800,2.03565673828125,-0.21189960837364197,-0.4574167728424072,0.2709597647190094
1788861984859663000,2.0456630859375,-0.21044418215751648,-0.5447149276733398,0.36186009645462036
1788861984869668900,2.0556689453125,-0.12548968195915222,-0.5592240691184998,0.3763691782951355
1788861984879675000,2.0656748046875,0.1501232534646988,-0.6596891283988953,0.4801110327243805
1788861984889681000,2.075680908203125,0.4085092544555664,-1.106923222541809,0.41792088747024536
1788861984899687000,2.08568701171875,0.5571413636207581,-1.3993406295776367,0.016496244817972183
1788861984909693000,2.09569287109375,0.5600646138191223,-1.6487046480178833,0.3301697075366974
1788861984919700000,2.105699951171875,0.8393774628639221,-2.679532527923584,0.29507189989089966
1788861984929706000,2.1157060546875,0.9933403134346008,-3.094447135925293,-0.029738742858171463
1788861984939711700,2.125711669921875,0.06415806710720062,-2.9962923526763916,0.7096591591835022
1788861984949718000,2.135718017578125,-0.3595678210258484,-1.3858354091644287,1.4050036668777466
1788861984959724000,2.14572412109375,-0.8209871649742126,-2.3460826873779297,1.0528544187545776
1788861984969729800,2.155729736328125,-0.9435097575187683,-2.7519638538360596,0.4526325762271881
1788861984979736800,2.16573681640625,-1.0157240629196167,-1.6039444208145142,0.2626354694366455
1788861984989743000,2.1757431640625,-0.41682228446006775,-0.5672963857650757,0.5164110660552979
1788861984999748900,2.185748779296875,-0.025324039161205292,-0.5944222807884216,0.5496137142181396
1788861985009755000,2.1957548828125,0.18425361812114716,-1.0622138977050781,0.7195850610733032
1788861985019761000,2.205760986328125,0.12903110682964325,-0.9677303433418274,0.9124810099601746
1788861985029767000,2.215766845703125,-0.0016125300899147987,-0.8628641366958618,1.0487345457077026
1788861985039773000,2.22577294921875,-0.2547132074832916,-0.7664864659309387,1.1469862461090088
1788861985049780000,2.235780029296875,-0.21228516101837158,-0.8092721700668335,1.2965840101242065
1788861985059785700,2.24578564453125,0.011790274642407894,-0.8920797109603882,1.41066575050354
1788861985069791700,2.255791748046875,0.18977266550064087,-0.9773216843605042,1.2548362016677856
1788861985079798000,2.265798095703125,0.2800082564353943,-0.7123019695281982,0.9369673728942871
1788861985089804000,2.275803955078125,0.4366784691810608,-0.11688576638698578,0.4913412034511566
1788861985099809800,2.285809814453125,0.6257796287536621,0.37570902705192566,-0.229287788271904
1788861985109815800,2.29581591796875,0.419935405254364,0.3114027678966522,-1.1153762340545654
1788861985119823000,2.305822998046875,-0.0017157017719000578,0.2710457444190979,-1.6734408140182495
1788861985129828900,2.315828857421875,-0.2025032639503479,0.5279350876808167,-1.6152856349945068
1788861985139835000,2.3258349609375,-0.3261679708957672,0.8563821911811829,-1.2075657844543457
1788861985149841000,2.3358408203125,-0.15474247932434082,1.279114842414856,-0.5946924090385437
1788861985159847000,2.345846923828125,-0.025855062529444695,1.2946516275405884,-0.4908600151538849
1788861985169853000,2.35585302734375,0.19884446263313293,0.6845177412033081,-0.7274584770202637
1788861985179859000,2.36585888671875,0.29221460223197937,0.21026307344436646,-0.7602918148040771
1788861985189865700,2.37586572265625,0.1453637182712555,0.3333514332771301,-0.5998002290725708
1788861985199872000,2.3858720703125,0.04844782501459122,0.26673778891563416,-0.1983257681131363
1788861985209877200,2.395877197265625,0.13191218674182892,0.031003842130303383,0.21676769852638245
1788861985219883300,2.40588330078125,0.04986553266644478,-0.01617804914712906,0.30694979429244995
1788861985229889300,2.41588916015625,0.039067476987838745,-0.11566149443387985,0.23947913944721222
1788861985239895300,2.425895263671875,0.06322231143712997,-0.11875903606414795,0.13965749740600586
1788861985249902300,2.43590234375,0.06617506593465805,-0.10038401186466217,0.0882309302687645
1788861985259908400,2.445908447265625,0.07664581388235092,-0.13350626826286316,0.11741998046636581
1788861985269914400,2.455914306640625,0.08129455149173737,-0.1941906213760376,0.1676049828529358
1788861985279920400,2.46592041015625,0.07036520540714264,-0.26299017667770386,0.1955079883337021
1788861985289926400,2.475926513671875,0.058424461632966995,-0.2858327031135559,0.20284859836101532
1788861985299932200,2.48593212890625,0.05703296139836311,-0.2797101140022278,0.22078418731689453
1788861985309938400,2.4959384765625,0.06993403285741806,-0.2672473192214966,0.27291709184646606
1788861985319945200,2.5059453125,0.08535773307085037,-0.2947934567928314,0.341962993144989
1788861985329951200,2.515951171875,0.0914093405008316,-0.31394681334495544,0.38635390996932983
1788861985339957200,2.525957275390625,0.08089251816272736,-0.251066118478775,0.4073353707790375
1788861985349963500,2.535963623046875,0.07631061226129532,-0.1854051798582077,0.4106829762458801
1788861985359969300,2.54596923828125,0.09828222543001175,-0.15361689031124115,0.4017198383808136
1788861985369975300,2.555975341796875,0.14134009182453156,-0.18814927339553833,0.36520466208457947
1788861985379982300,2.565982421875,0.17027480900287628,-0.22514431178569794,0.3097459375858307
1788861985389988400,2.57598828125,0.16953901946544647,-0.20944415032863617,0.25976550579071045
1788861985399994400,2.585994384765625,0.15989969670772552,-0.13865360617637634,0.228140726685524
1788861985410000400,2.59600048828125,0.1418432891368866,-0.05112351104617119,0.18833769857883453
1788861985420006400,2.60600634765625,0.11639253050088882,0.010834133252501488,0.14125807583332062
1788861985430012200,2.61601220703125,0.07729747146368027,0.004538448061794043,0.07182854413986206
1788861985440019500,2.62601953125,0.02334555797278881,0.08253311365842819,-0.037304069846868515
1788861985450025200,2.636025146484375,-0.018458040431141853,0.1762028932571411,-0.1068035215139389
1788861985460031200,2.64603125,-0.04589658975601196,0.17525507509708405,-0.13718938827514648
1788861985470037200,2.656037353515625,-0.010852780193090439,0.10470156371593475,-0.16838745772838593
1788861985480043500,2.66604345703125,0.018355440348386765,-0.0014882558025419712,-0.20310895144939423
1788861985490049300,2.67604931640625,-0.01092581544071436,-0.0698782280087471,-0.2610751986503601
1788861985500056300,2.686056396484375,-0.12871529161930084,0.054894864559173584,-0.4189865291118622
1788861985510062300,2.696062255859375,-0.29154935479164124,0.28354769945144653,-0.7138881087303162
1788861985520068400,2.706068359375,-0.443206250667572,0.27172327041625977,-1.0422545671463013
1788861985530074400,2.716074462890625,-0.5813267827033997,0.025593934580683708,-1.350544810295105
1788861985540080400,2.726080322265625,-0.716688334941864,-0.13231393694877625,-1.6758654117584229
1788861985550086100,2.736086181640625,-0.8108531832695007,-0.1245015412569046,-1.9548259973526
1788861985560092200,2.746092041015625,-0.8784804344177246,-0.13025662302970886,-2.1075892448425293
1788861985570099500,2.756099365234375,-0.9441261887550354,-0.13509662449359894,-2.1288204193115234
1788861985580105200,2.766105224609375,-0.9728620052337646,-0.15740326046943665,-2.035878896713257
1788861985590111200,2.776111328125,-0.9582141041755676,-0.2073248028755188,-1.8284064531326294
1788861985600117200,2.7861171875,-0.8922260403633118,-0.37280482053756714,-1.6721340417861938
1788861985610123500,2.79612353515625,-0.8191311955451965,-0.6634973287582397,-1.7271397113800049
1788861985620129300,2.80612939453125,-0.8071592450141907,-0.9248197674751282,-1.905250072479248
1788861985630136300,2.81613623046875,-0.852859377861023,-1.0660430192947388,-2.044020652770996
1788861985640142000,2.82614208984375,-0.899699330329895,-1.0630674362182617,-2.0702459812164307
1788861985650148400,2.8361484375,-0.9226982593536377,-0.9507405757904053,-2.0212137699127197
1788861985660154400,2.846154296875,-0.9654989838600159,-0.810363233089447,-1.9539358615875244
1788861985670160400,2.856160400390625,-1.0117393732070923,-0.7869167923927307,-1.8444488048553467
1788861985680167400,2.86616748046875,-1.0516777038574219,-0.8290383815765381,-1.7246164083480835
1788861985690173400,2.87617333984375,-1.1140035390853882,-0.8494957089424133,-1.598587155342102
1788861985700179500,2.886179443359375,-1.1411494016647339,-0.8372353315353394,-1.4911811351776123
1788861985710185200,2.896185302734375,-1.1460882425308228,-0.8975652456283569,-1.3825949430465698
1788861985720191200,2.906191162109375,-1.1392862796783447,-0.9670726656913757,-1.263924241065979
1788861985730197500,2.916197509765625,-1.1374400854110718,-1.0011683702468872,-1.1724964380264282
1788861985740204300,2.926204345703125,-1.1147613525390625,-0.9875654578208923,-1.1281100511550903
1788861985750210300,2.936210205078125,-1.0515964031219482,-0.8802131414413452,-1.0868582725524902
1788861985760216300,2.94621630859375,-0.9792989492416382,-0.7894342541694641,-1.036237120628357
1788861985770222300,2.956222412109375,-0.9268039464950562,-0.8140405416488647,-0.9932236075401306
1788861985780228400,2.966228271484375,-0.9200043678283691,-0.9585460424423218,-0.9764901995658875
1788861985790234400,2.976234375,-0.9677792191505432,-1.1015430688858032,-0.990142822265625
1788861985800241200,2.9862412109375,-1.0225822925567627,-1.1547833681106567,-0.9979525208473206
1788861985810247400,2.996247314453125,-1.0692411661148071,-1.1408684253692627,-0.9205978512763977
1788861985820253400,3.00625341796875,-1.0837138891220093,-1.1069879531860352,-0.8179633617401123
1788861985830259200,3.01625927734375,-1.1023768186569214,-0.9809415936470032,-0.7761064767837524
1788861985840265200,3.02626513671875,-1.1171748638153076,-0.861869752407074,-0.738103985786438
1788861985850271200,3.036271240234375,-1.1357260942459106,-0.7794907689094543,-0.6633214950561523
1788861985860278300,3.0462783203125,-1.1456722021102905,-0.619476318359375,-0.5452404022216797
1788861985870284300,3.0562841796875,-1.1621493101119995,-0.48397311568260193,-0.3617505729198456
1788861985880290300,3.066290283203125,-1.1549180746078491,-0.496035099029541,-0.21794147789478302
1788861985890296300,3.07629638671875,-1.0901697874069214,-0.5482738018035889,-0.14570026099681854
1788861985900302300,3.08630224609375,-1.0128694772720337,-0.6465767025947571,-0.07677552103996277
1788861985910309400,3.096309326171875,-0.9596481323242188,-0.7384546995162964,0.01086930651217699
1788861985920315400,3.1063154296875,-0.9511030912399292,-0.834132730960846,0.08065930753946304
1788861985930321200,3.116321044921875,-0.9532036185264587,-0.8359768986701965,0.0664493516087532
1788861985940327400,3.126327392578125,-0.9055335521697998,-0.675957977771759,0.0048557668924331665
1788861985950333400,3.13633349609375,-0.8212268352508545,-0.478000670671463,-0.05548785626888275
1788861985960339200,3.146339111328125,-0.7235037684440613,-0.34581974148750305,-0.08158896118402481
1788861985970346200,3.15634619140625,-0.6169065237045288,-0.2608867287635803,-0.062140583992004395
1788861985980352500,3.1663525390625,-0.5036044716835022,-0.16809900104999542,-0.0503036305308342
1788861985990358300,3.176358154296875,-0.386103093624115,-0.09565490484237671,-0.05734381079673767
1788861986000364300,3.1863642578125,-0.259831964969635,-0.12926746904850006,-0.07034855335950851
1788861986010370300,3.196370361328125,-0.17994250357151031,-0.27285924553871155,-0.06818410009145737
1788861986020377300,3.20637744140625,-0.13909973204135895,-0.42413052916526794,-0.09489959478378296
1788861986030383400,3.21638330078125,-0.14774034917354584,-0.4199616312980652,-0.08302672207355499
1788861986040389400,3.226389404296875,-0.138838991522789,-0.44245442748069763,-0.029354169964790344
1788861986050395100,3.23639501953125,-0.13942034542560577,-0.4894663691520691,0.011917287483811378
1788861986060401400,3.2464013671875,-0.16715610027313232,-0.4007924497127533,0.02733592502772808
1788861986070407400,3.256407470703125,-0.15529818832874298,-0.385648638010025,0.07157806307077408
1788861986080414200,3.266414306640625,-0.12805432081222534,-0.37568628787994385,0.07017138600349426
1788861986090420200,3.276420166015625,-0.0926431268453598,-0.4115489721298218,0.016196761280298233
1788861986100426500,3.286426513671875,-0.01628471165895462,-0.5520336031913757,-0.03684008866548538
1788861986110432500,3.2964326171875,0.07652543485164642,-0.7567241191864014,-0.17139513790607452
1788861986120438300,3.306438232421875,0.24860478937625885,-1.1078665256500244,-0.2519885003566742
1788861986130445300,3.3164453125,0.41985341906547546,-1.417089819908142,-0.08895508199930191
1788861986140451300,3.326451416015625,0.4232236444950104,-1.3704863786697388,0.09499504417181015
1788861986150457300,3.336457275390625,0.4601384699344635,-0.9770123362541199,0.05952022224664688
1788861986160463400,3.34646337890625,0.45408058166503906,-0.6644064784049988,-0.0997847467660904
1788861986170469400,3.356469482421875,0.3675668239593506,-0.5762105584144592,-0.2890992760658264
1788861986180476400,3.366476318359375,0.30713650584220886,-0.600735068321228,-0.39409947395324707
1788861986190482400,3.376482421875,0.33835890889167786,-0.7774072885513306,-0.3890558183193207
1788861986200488400,3.386488525390625,0.35412323474884033,-0.9145254492759705,-0.36034321784973145
1788861986210494700,3.39649462890625,0.35151782631874084,-0.8380792140960693,-0.36370930075645447
1788861986220500700,3.406500732421875,0.37659549713134766,-0.6613507866859436,-0.3623659908771515
1788861986230506800,3.4165068359375,0.409420371055603,-0.5620604157447815,-0.4239286184310913
1788861986240513500,3.426513427734375,0.42828354239463806,-0.5846677422523499,-0.46472078561782837
1788861986250519800,3.436519775390625,0.44182825088500977,-0.622713029384613,-0.4852655827999115
1788861986260525800,3.44652587890625,0.4654925763607025,-0.705650806427002,-0.49103692173957825
1788861986270531600,3.456531494140625,0.4863711893558502,-0.6923978924751282,-0.5369518399238586
1788861986280537600,3.46653759765625,0.5149114727973938,-0.5981350541114807,-0.5923189520835876
1788861986290544600,3.476544677734375,0.5739881992340088,-0.5462439060211182,-0.6244862675666809
1788861986300550700,3.486550537109375,0.6338675022125244,-0.6404854655265808,-0.6211413741111755
1788861986310556700,3.496556640625,0.5836400985717773,-0.789929986000061,-0.6006707549095154
1788861986320562700,3.506562744140625,0.4991377890110016,-0.7310054302215576,-0.6557025909423828
1788861986330568400,3.516568359375,0.47536084055900574,-0.5840921401977539,-0.776239275932312
1788861986340575700,3.52657568359375,0.5133073925971985,-0.6617400646209717,-0.7742376327514648
1788861986350581800,3.536581787109375,0.5666609406471252,-0.6193681359291077,-0.7034865617752075
1788861986360587500,3.54658740234375,0.48900261521339417,-0.32421132922172546,-0.7898017764091492
1788861986370593500,3.556593505859375,0.37799906730651855,-0.12089097499847412,-0.989015519618988
1788861986380599800,3.566599853515625,0.3306581676006317,-0.3365761339664459,-1.0430880784988403
1788861986390606600,3.576606689453125,0.34268322587013245,-0.6240675449371338,-0.9244335293769836
1788861986400612600,3.586612548828125,0.3416118323802948,-0.5686320066452026,-0.8902627825737
1788861986410618600,3.59661865234375,0.31196263432502747,-0.43501853942871094,-0.8801567554473877
1788861986420624600,3.606624755859375,0.38710451126098633,-0.5453956127166748,-0.7506871819496155
1788861986430630700,3.616630615234375,0.4489670991897583,-0.6715985536575317,-0.6142123937606812
1788861986440637700,3.6266376953125,0.390076607465744,-0.46701690554618835,-0.6998623013496399
1788861986450643500,3.6366435546875,0.30391567945480347,-0.18923775851726532,-0.9084398150444031
1788861986460649700,3.646649658203125,0.2936236262321472,-0.21430529654026031,-0.9443134069442749
1788861986470655700,3.65665576171875,0.2835158407688141,-0.29329678416252136,-0.8965297341346741
1788861986480661500,3.66666162109375,0.16616737842559814,-0.10886329412460327,-0.917009711265564
1788861986490668500,3.67666845703125,0.02526608482003212,0.054923251271247864,-0.9901422262191772
1788861986500674800,3.6866748046875,-0.04048869386315346,-0.20469553768634796,-1.0591473579406738
1788861986510680600,3.6966806640625,-0.07620717585086823,-0.540164589881897,-1.0456753969192505
1788861986520686600,3.7066865234375,-0.13022087514400482,-0.6101700663566589,-0.991993248462677
1788861986530692600,3.716692626953125,-0.10220682621002197,-0.25357678532600403,-1.138389229774475
1788861986540699600,3.72669970703125,-0.0037710603792220354,-0.26012763381004333,-1.2542994022369385
1788861986550705700,3.73670556640625,0.06813036650419235,-0.5945359468460083,-1.0455458164215088
1788861986560711700,3.746711669921875,0.06100134551525116,-0.2730405032634735,-0.7882111668586731
1788861986570717700,3.7567177734375,0.12988457083702087,0.47525447607040405,-0.7840357422828674
1788861986580723700,3.7667236328125,0.21107342839241028,0.3633093237876892,-0.6802107691764832
1788861986590730800,3.776730712890625,0.10948609560728073,0.019136251881718636,-0.3957648277282715
1788861986600736500,3.786736572265625,-0.07090205699205399,0.396308034658432,-0.27433669567108154
1788861986610742500,3.796742431640625,-0.06289000064134598,0.9013664126396179,-0.38260844349861145
1788861986620748800,3.806748779296875,0.022487211972475052,0.984066903591156,-0.37217897176742554
1788861986630754800,3.8167548828125,-0.057834990322589874,0.9779677987098694,-0.1558370739221573
1788861986640761600,3.82676171875,-0.23667077720165253,1.0164167881011963,0.10515989363193512
1788861986650767600,3.836767578125,-0.3674987554550171,1.1079262495040894,0.24211326241493225
1788861986660773600,3.846773681640625,-0.3664611876010895,1.0959992408752441,0.3262837827205658
1788861986670779600,3.856779541015625,-0.3100101351737976,1.1154121160507202,0.4217977821826935
1788861986680785700,3.86678564453125,-0.2601533830165863,1.1736663579940796,0.5351443290710449
1788861986690792400,3.87679248046875,-0.22317951917648315,1.1804579496383667,0.6619403958320618
1788861986700798700,3.886798828125,-0.22049584984779358,1.3174149990081787,0.7856958508491516
1788861986710804700,3.8968046875,-0.21659673750400543,1.4786005020141602,0.8757988214492798
1788861986720810800,3.906810791015625,-0.20846717059612274,1.5206400156021118,0.9444098472595215
1788861986730816500,3.91681640625,-0.16511350870132446,1.5010554790496826,1.02813720703125
1788861986740823800,3.92682373046875,-0.0781027153134346,1.5528209209442139,1.1001536846160889
1788861986750829800,3.936829833984375,0.0018596325535327196,1.6016530990600586,1.0770249366760254
1788861986760835600,3.946835693359375,0.08525332808494568,1.5575282573699951,1.086536169052124
1788861986770841600,3.956841552734375,0.20941194891929626,1.590925693511963,1.194116473197937
1788861986780847600,3.96684765625,0.2880686819553375,1.6357029676437378,1.2464410066604614
1788861986790854700,3.976854736328125,0.3013114929199219,1.4669601917266846,1.2138487100601196
1788861986800860700,3.986860595703125,0.34609732031822205,1.3003714084625244,1.3142653703689575
1788861986810866700,3.99686669921875,0.4284053146839142,1.3235547542572021,1.5181373357772827
1788861986820872400,4.00687255859375,0.47122523188591003,1.4604756832122803,1.5745465755462646
1788861986830879700,4.016879638671875,0.46605193614959717,1.4328604936599731,1.4487184286117554
1788861986840885800,4.0268857421875,0.49415281414985657,1.304945707321167,1.3751280307769775
1788861986850891500,4.0368916015625,0.624800443649292,1.2807681560516357,1.4524390697479248
1788861986860897500,4.0468974609375,0.7810955047607422,1.318561315536499,1.494406819343567
1788861986870903800,4.05690380859375,0.8612462282180786,1.3970041275024414,1.381049633026123
1788861986880910600,4.06691064453125,0.9097434282302856,1.4266719818115234,1.2249321937561035
1788861986890916600,4.07691650390625,1.0133229494094849,1.1480224132537842,1.175407886505127
1788861986900922600,4.086922607421875,1.1642951965332031,1.0113204717636108,1.229632019996643
1788861986910928600,4.0969287109375,1.25845468044281,0.977558970451355,1.3193639516830444
1788861986920935700,4.106935791015625,1.2808398008346558,0.7579759955406189,1.4628294706344604
1788861986930941700,4.116941650390625,1.2980232238769531,0.7686934471130371,1.5938849449157715
1788861986940947700,4.12694775390625,1.2451043128967285,0.8795270323753357,1.5651062726974487
1788861986950953700,4.13695361328125,1.1324032545089722,0.8509126305580139,1.4367491006851196
1788861986960959700,4.146959716796875,0.95135098695755,0.85829758644104,1.3716732263565063
1788861986970966500,4.156966552734375,0.7978291511535645,0.9545775651931763,1.348189353942871
1788861986980972800,4.166972900390625,0.7316703796386719,1.156628131866455,1.279693365097046
1788861986990978800,4.176978759765625,0.7413827776908875,1.3523573875427246,1.202694058418274
1788861987000984600,4.186984619140625,0.7433857321739197,1.3506300449371338,1.2104473114013672
1788861987010991600,4.19699169921875,0.7260168790817261,1.1602400541305542,1.2948135137557983
1788861987020998000,4.206997802734375,0.7052894830703735,1.1226346492767334,1.3350157737731934
1788861987031003600,4.217003662109375,0.698130190372467,1.09281587600708,1.3104588985443115
1788861987041009700,4.227009765625,0.7062280774116516,0.8635831475257874,1.2668123245239258
1788861987051015700,4.237015625,0.6648019552230835,0.6160988211631775,1.2309497594833374
1788861987061022700,4.247022705078125,0.6084124445915222,0.5723875761032104,1.1371442079544067
1788861987071028700,4.25702880859375,0.5447167754173279,0.6933794617652893,0.9841235876083374
1788861987081034800,4.26703466796875,0.4685426652431488,0.8382668495178223,0.7833374738693237
1788861987091040500,4.27704052734375,0.3812360167503357,0.6554363965988159,0.6546167731285095
1788861987101047800,4.2870478515625,0.28227028250694275,0.3131408095359802,0.5451962947845459
1788861987111053800,4.2970537109375,0.19448916614055634,0.01407771185040474,0.36649778485298157
1788861987121059600,4.3070595703125,0.11710356920957565,-0.1678342968225479,0.1265815943479538
1788861987131065600,4.317065673828125,0.011414952576160431,-0.16974884271621704,-0.14829151332378387
1788861987141071600,4.327071533203125,-0.11821707338094711,-0.08714824169874191,-0.4512641727924347
1788861987151078700,4.33707861328125,-0.2580299973487854,0.011150576174259186,-0.7748668789863586
1788861987161084700,4.347084716796875,-0.3688907325267792,-0.06939033418893814,-1.0238686800003052
1788861987171090700,4.357090576171875,-0.44957348704338074,-0.07208936661481857,-1.199190378189087
1788861987181096400,4.367096435546875,-0.5420733690261841,-0.07719811052083969,-1.2782950401306152
1788861987191103700,4.377103759765625,-0.5940199494361877,-0.1639556586742401,-1.3322601318359375
1788861987201109800,4.38710986328125,-0.6095022559165955,-0.2402818500995636,-1.4425305128097534
1788861987211115800,4.39711572265625,-0.6283752918243408,-0.24362172186374664,-1.5997790098190308
1788861987221121800,4.407121826171875,-0.6573120951652527,-0.2457117736339569,-1.7722254991531372
1788861987231128800,4.41712890625,-0.7033100724220276,-0.12512096762657166,-1.9746780395507812
1788861987241134800,4.427134765625,-0.7305169701576233,-0.11535515636205673,-2.0883190631866455
1788861987251140900,4.437140869140625,-0.6784748435020447,-0.339251309633255,-1.9574393033981323
1788861987261147100,4.447147216796875,-0.5881582498550415,-0.29604417085647583,-1.6202090978622437
1788861987271153000,4.45715283203125,-0.5369212627410889,-0.1806885153055191,-1.1177928447723389
1788861987281160000,4.467159912109375,-0.5581940412521362,-0.178901806473732,-0.6897488236427307
1788861987291166000,4.477166015625,-0.6901640295982361,-0.06405279040336609,-0.5884413719177246
1788861987301172000,4.487171875,-0.9005510807037354,0.0853223130106926,-0.7269507646560669
1788861987311178000,4.497177978515625,-1.050622582435608,0.03555664047598839,-0.8549448847770691
1788861987321184800,4.507184814453125,-1.017366886138916,-0.2699180543422699,-0.9030966758728027
1788861987331190800,4.517190673828125,-0.8946898579597473,-0.46302729845046997,-0.9089158773422241
1788861987341197000,4.527197021484375,-0.8065549731254578,-0.445281058549881,-0.846615195274353
1788861987351203000,4.537203125,-0.7308279275894165,-0.4505660831928253,-0.6166468858718872
1788861987361209900,4.5472099609375,-0.6281518340110779,-0.7726072669029236,-0.36252111196517944
1788861987371216000,4.5572158203125,-0.5401313900947571,-0.9885730743408203,-0.3625081777572632
1788861987381222000,4.567221923828125,-0.4804632365703583,-0.9576191902160645,-0.4842758774757385
1788861987391228000,4.577227783203125,-0.4611673355102539,-0.9216457009315491,-0.47936588525772095
1788861987401235000,4.58723486328125,-0.4170142710208893,-0.9651508331298828,-0.4416312873363495
1788861987411240700,4.59724072265625,-0.40657487511634827,-1.0098744630813599,-0.48944520950317383
1788861987421247000,4.6072470703125,-0.47121670842170715,-0.9567081928253174,-0.6280219554901123
1788861987431253000,4.6172529296875,-0.5633094906806946,-0.7918983697891235,-0.7593086957931519
1788861987441259000,4.627259033203125,-0.6948946714401245,-0.5784345865249634,-0.8618936538696289
1788861987451265800,4.637265869140625,-0.7844771146774292,-0.6201190948486328,-0.9102373719215393
1788861987461272000,4.64727197265625,-0.7996411919593811,-0.7919803261756897,-0.9473903179168701
1788861987471278000,4.657278076171875,-0.786602258682251,-0.6382917761802673,-1.0827220678329468
1788861987481283800,4.667283935546875,-0.7393431663513184,-0.5846892595291138,-1.0983428955078125
1788861987491291000,4.677290771484375,-0.6177884936332703,-0.8064175844192505,-1.0322370529174805
1788861987501297000,4.687296875,-0.5164245963096619,-1.0695009231567383,-1.0366504192352295
1788861987511303000,4.697302978515625,-0.4447554647922516,-1.1290712356567383,-1.085381269454956
1788861987521309000,4.707308837890625,-0.37423068284988403,-1.105762243270874,-1.0627654790878296
1788861987531315700,4.717315673828125,-0.26862871646881104,-1.4240115880966187,-0.9174880981445312
1788861987541322000,4.727322021484375,-0.18121179938316345,-1.6363041400909424,-0.9185980558395386
1788861987551328000,4.737327880859375,-0.16563890874385834,-1.5388684272766113,-1.0373481512069702
1788861987561334000,4.747333984375,-0.12854266166687012,-1.5161277055740356,-1.1101014614105225
1788861987571340800,4.7573408203125,-0.02567320317029953,-1.6533886194229126,-1.1456267833709717
1788861987581347000,4.76734716796875,0.064238041639328,-1.6945642232894897,-1.207112193107605
1788861987591352800,4.777352783203125,0.14021894335746765,-1.7309297323226929,-1.236073613166809
1788861987601358800,4.78735888671875,0.26755985617637634,-1.913989782333374,-1.1831486225128174
1788861987611366000,4.797365966796875,0.347841739654541,-2.0343127250671387,-1.2054892778396606
1788861987621372000,4.807371826171875,0.32591861486434937,-2.006328821182251,-1.2326796054840088
1788861987631378000,4.8173779296875,0.2618584632873535,-2.009355068206787,-1.2752680778503418
1788861987641384000,4.827384033203125,0.21933205425739288,-2.019841194152832,-1.3405081033706665
1788861987651390700,4.837390625,0.18536899983882904,-1.9617319107055664,-1.4325824975967407
1788861987661397000,4.84739697265625,0.1400686353445053,-1.8108574151992798,-1.5846703052520752
1788861987671403000,4.857403076171875,0.0826881155371666,-1.5353114604949951,-1.7539865970611572
1788861987681408800,4.86740869140625,0.03449448570609093,-1.2363617420196533,-1.8196768760681152
1788861987691415800,4.877415771484375,0.08178090304136276,-1.1921190023422241,-1.667229413986206
1788861987701422000,4.887422119140625,0.1073421910405159,-1.190557837486267,-1.430084228515625
1788861987711427800,4.897427734375,0.11542953550815582,-0.7027566432952881,-1.4247716665267944
1788861987721433900,4.907433837890625,0.21665549278259277,-0.13845598697662354,-1.5015023946762085
1788861987731441000,4.91744091796875,0.4311310350894928,0.3236199617385864,-1.3966728448867798
1788861987741447000,4.927447021484375,0.530006468296051,0.03616686165332794,-1.1201586723327637
1788861987751453000,4.937452880859375,0.5151657462120056,0.12356328219175339,-0.8192753791809082
1788861987761459000,4.947458984375,0.42493894696235657,0.5647476315498352,-0.3759583830833435
1788861987771466000,4.957466064453125,0.25389090180397034,0.589415967464447,-0.0625169575214386
1788861987781472000,4.967471923828125,0.14932133257389069,0.701278805732727,0.04802953451871872
1788861987791478000,4.97747802734375,0.17722593247890472,0.8130264282226562,0.047454822808504105
1788861987801483800,4.98748388671875,0.18610629439353943,0.6056468486785889,0.1317722648382187
1788861987811491000,4.997490966796875,0.12531663477420807,0.6352026462554932,0.26103493571281433
1788861987821497000,5.0074970703125,0.1423339694738388,0.9921773076057434,0.3734607994556427
1788861987831502800,5.0175029296875,0.22665278613567352,1.0975226163864136,0.46899205446243286
1788861987841508900,5.0275087890625,0.29634717106819153,0.8384957909584045,0.6388306021690369
1788861987851516000,5.037515869140625,0.35911184549331665,0.7709962129592896,0.8298605680465698
1788861987861522000,5.04752197265625,0.47393298149108887,0.9447514414787292,0.8981006145477295
1788861987871528000,5.05752783203125,0.5908148288726807,0.9338370561599731,0.9463029503822327
1788861987881534000,5.067533935546875,0.6752521991729736,1.1208406686782837,1.0732001066207886
1788861987891541000,5.077541015625,0.7370893359184265,1.349484920501709,1.2068837881088257
1788861987901547000,5.087547119140625,0.7751392722129822,1.3651645183563232,1.2918950319290161
1788861987911553000,5.097552978515625,0.8218106031417847,1.3747985363006592,1.4083826541900635
1788861987921559800,5.107559814453125,0.8543294072151184,1.5758568048477173,1.5084846019744873
1788861987931566000,5.117566162109375,0.8702506422996521,1.709994912147522,1.5328584909439087
1788861987941571800,5.12757177734375,0.8707242012023926,1.6313965320587158,1.5858469009399414
1788861987951577900,5.137577880859375,0.8832368850708008,1.5465588569641113,1.7075614929199219
1788861987961585000,5.1475849609375,0.9158385396003723,1.495182991027832,1.7924941778182983
1788861987971591000,5.1575908203125,0.9351254105567932,1.4623156785964966,1.7974625825881958
1788861987981597000,5.167596923828125,0.9375699162483215,1.6825082302093506,1.7166913747787476
1788861987991603000,5.17760302734375,0.9246447682380676,1.7056070566177368,1.5890531539916992
1788861988001609700,5.187609619140625,0.956229031085968,1.4070912599563599,1.6099344491958618
1788861988011616000,5.197615966796875,1.1168386936187744,1.4280965328216553,1.752760887145996
1788861988021622000,5.2076220703125,1.3232901096343994,1.5082353353500366,1.8307201862335205
1788861988031627800,5.217627685546875,1.4451367855072021,1.3670716285705566,1.8596153259277344
1788861988041634800,5.227634765625,1.438745379447937,1.2639641761779785,1.9151809215545654
1788861988051641000,5.23764111328125,1.3538700342178345,1.2037274837493896,1.9730772972106934
1788861988061646800,5.247646728515625,1.2673598527908325,1.0367422103881836,2.024545192718506
1788861988071652900,5.25765283203125,1.1970642805099487,0.97120201587677,2.056117057800293
1788861988081660000,5.267659912109375,1.132493257522583,1.158129096031189,2.0053608417510986
1788861988091666000,5.277666015625,1.06525456905365,1.150756597518921,1.9000781774520874
1788861988101672000,5.287671875,1.002996802330017,0.928979218006134,1.9155892133712769
1788861988111678000,5.297677978515625,0.9871832132339478,0.986007809638977,1.9751709699630737
1788861988121684700,5.307684814453125,1.0389506816864014,1.1654727458953857,1.9881317615509033
1788861988131691000,5.31769091796875,1.121447205543518,1.1588460206985474,1.9737026691436768
1788861988141697000,5.327697021484375,1.1634596586227417,1.0972609519958496,1.9847966432571411
1788861988151703800,5.337703857421875,1.1671442985534668,0.9996381998062134,2.0084359645843506
1788861988161709800,5.347709716796875,1.1683675050735474,0.8014873266220093,2.028219223022461
1788861988171716000,5.357716064453125,1.1195536851882935,0.6837992072105408,1.9780176877975464
1788861988181721900,5.367721923828125,1.0057381391525269,0.8178273439407349,1.7629499435424805
1788861988191729000,5.37772900390625,0.9157266020774841,0.9843034148216248,1.4225032329559326
1788861988201735000,5.38773486328125,0.8492935299873352,1.128013253211975,1.0816843509674072
1788861988211740400,5.397740478515625,0.7288273572921753,1.176142930984497,0.8207539916038513
1788861988221746700,5.40774658203125,0.5941766500473022,0.8401532173156738,0.6777225136756897
1788861988231753500,5.41775341796875,0.4983137249946594,0.42606285214424133,0.5104480981826782
1788861988241759500,5.427759521484375,0.4005293548107147,0.28033414483070374,0.22825448215007782
1788861988251765500,5.437765625,0.25478896498680115,0.27153825759887695,-0.07318039238452911
1788861988261772500,5.4477724609375,0.05492725223302841,0.4328555166721344,-0.3576001226902008
1788861988271778600,5.457778564453125,-0.10270410776138306,0.5569065809249878,-0.6637193560600281
1788861988281784600,5.46778466796875,-0.18345168232917786,0.24898844957351685,-0.9247341752052307
1788861988291790600,5.47779052734375,-0.24358662962913513,-0.13327740132808685,-1.152227520942688
1788861988301797600,5.487797607421875,-0.253495454788208,-0.3756359815597534,-1.3376247882843018
1788861988311803600,5.4978037109375,-0.25009700655937195,-0.691504955291748,-1.4045056104660034
1788861988321809400,5.507809326171875,-0.29341334104537964,-0.9017775058746338,-1.4291412830352783
1788861988331816700,5.517816650390625,-0.3814760446548462,-0.8892649412155151,-1.4652880430221558
1788861988341822700,5.52782275390625,-0.4765027165412903,-0.9722682237625122,-1.496218204498291
1788861988351828500,5.537828369140625,-0.563522458076477,-1.0768213272094727,-1.5229288339614868
1788861988361834500,5.54783447265625,-0.6692131757736206,-0.7755413055419922,-1.6565018892288208
1788861988371841800,5.557841796875,-0.7427166104316711,-0.3113563358783722,-1.8182239532470703
1788861988381847600,5.56784765625,-0.7934311628341675,-0.18303510546684265,-1.833060383796692
1788861988391853600,5.577853515625,-0.8024726510047913,-0.16304272413253784,-1.7715221643447876
1788861988401859600,5.587859619140625,-0.7186296582221985,-0.14430178701877594,-1.616762399673462
1788861988411866600,5.59786669921875,-0.5949411392211914,-0.2695330083370209,-1.3330354690551758
1788861988421872600,5.60787255859375,-0.5347062945365906,-0.36650002002716064,-1.033481478691101
1788861988431878700,5.617878662109375,-0.5844585299491882,-0.49270397424697876,-0.7696795463562012
1788861988441885400,5.627885498046875,-0.7212589979171753,-0.6523751616477966,-0.6238608360290527
1788861988451891700,5.6378916015625,-0.8781314492225647,-0.5729996562004089,-0.7248323559761047
1788861988461897700,5.647897705078125,-1.0288267135620117,-0.29056477546691895,-0.8591166138648987
1788861988471903500,5.657903564453125,-1.1042098999023438,-0.30438488721847534,-0.7793591022491455
1788861988481910500,5.66791064453125,-1.0032461881637573,-0.5690045356750488,-0.6711506247520447
1788861988491916500,5.67791650390625,-0.8948199152946472,-0.87419593334198,-0.596709668636322
1788861988501922600,5.687922607421875,-0.8703678250312805,-1.075532078742981,-0.5760243535041809
1788861988511929600,5.6979296875,-0.8937507271766663,-1.1254618167877197,-0.601378321647644
1788861988521935400,5.707935302734375,-0.8825420141220093,-1.3502123355865479,-0.6681792140007019
1788861988531941600,5.717941650390625,-0.8248554468154907,-1.6046134233474731,-0.7335085272789001
1788861988541947600,5.72794775390625,-0.7735006213188171,-1.5423064231872559,-0.7837740778923035
1788861988551954400,5.737954345703125,-0.7520425319671631,-1.3759186267852783,-0.7802451252937317
1788861988561960400,5.74796044921875,-0.7486193180084229,-1.4465688467025757,-0.6852264404296875
1788861988571966700,5.757966796875,-0.7326833605766296,-1.5812753438949585,-0.6599633097648621
1788861988581972500,5.767972412109375,-0.7084459662437439,-1.528692603111267,-0.8117702007293701
1788861988591979500,5.7779794921875,-0.6678358912467957,-1.5853761434555054,-0.9552534222602844
1788861988601985500,5.787985595703125,-0.6066649556159973,-1.7632808685302734,-1.0482704639434814
1788861988611991600,5.797991455078125,-0.5958713293075562,-1.8266693353652954,-1.2044517993927002
1788861988621998600,5.80799853515625,-0.5973491072654724,-1.7332656383514404,-1.3663839101791382
1788861988632004600,5.818004638671875,-0.5451517105102539,-1.6490551233291626,-1.475858211517334
1788861988642010600,5.8280107421875,-0.4767715632915497,-1.5345221757888794,-1.5727118253707886
1788861988652016600,5.8380166015625,-0.4234920144081116,-1.5786659717559814,-1.634191632270813
1788861988662023400,5.8480234375,-0.34175026416778564,-1.516740322113037,-1.6884018182754517
1788861988672029400,5.858029541015625,-0.1897132247686386,-1.437805414199829,-1.6955070495605469
1788861988682035700,5.86803564453125,-0.051734328269958496,-1.7861645221710205,-1.5902600288391113
1788861988692042500,5.87804248046875,0.023429354652762413,-1.995038628578186,-1.6335207223892212
1788861988702048500,5.888048583984375,0.04928598552942276,-2.2825119495391846,-1.5764141082763672
1788861988712054500,5.898054443359375,0.04120556265115738,-2.439727544784546,-1.5388281345367432
1788861988722060800,5.908060791015625,-0.10323630273342133,-2.011712074279785,-1.7035808563232422
1788861988732067600,5.918067626953125,-0.36216995120048523,-1.6001685857772827,-1.9231674671173096
1788861988742073600,5.928073486328125,-0.48185667395591736,-1.3457742929458618,-1.8520362377166748
1788861988752079400,5.938079345703125,-0.43824315071105957,-1.0867235660552979,-1.459148645401001
1788861988762086700,5.948086669921875,-0.3929779529571533,-0.9872260093688965,-1.1892930269241333
1788861988772092700,5.9580927734375,-0.3268507122993469,-0.6930431127548218,-1.1325857639312744
1788861988782098400,5.968098388671875,-0.20987722277641296,-0.42704206705093384,-1.106307864189148
1788861988792105700,5.978105712890625,-0.13410241901874542,-0.512052059173584,-0.9409754276275635
1788861988802111700,5.98811181640625,-0.17100131511688232,-0.35988783836364746,-0.6202826499938965
1788861988812117500,5.998117431640625,-0.19358272850513458,-0.02266635186970234,-0.3536728024482727
1788861988822123500,6.00812353515625,-0.13877460360527039,0.3571440875530243,-0.25710418820381165
1788861988832130600,6.018130615234375,-0.03326293081045151,0.6766887903213501,-0.1981067955493927
1788861988842136600,6.028136474609375,0.08508501946926117,0.7855963706970215,-0.08561806380748749
1788861988852142600,6.038142578125,0.15065842866897583,1.1744327545166016,0.06662207096815109
1788861988862149400,6.0481494140625,0.24869364500045776,1.5481020212173462,0.1658325344324112
1788861988872155600,6.05815576171875,0.3343411982059479,1.5379934310913086,0.25958487391471863
1788861988882161700,6.06816162109375,0.3566419780254364,1.6011981964111328,0.4237698018550873
1788861988892167700,6.078167724609375,0.4114724397659302,1.6704691648483276,0.6414517760276794
1788861988902174500,6.088174560546875,0.5003029704093933,1.6979117393493652,0.8423625230789185
1788861988912180700,6.0981806640625,0.563941240310669,1.6174969673156738,1.0041368007659912
1788861988922186500,6.1081865234375,0.6108608245849609,1.4684725999832153,1.171890139579773
1788861988932193500,6.118193603515625,0.6479781270027161,1.396152138710022,1.404242753982544
1788861988942199600,6.128199462890625,0.7017923593521118,1.4376134872436523,1.6156482696533203
1788861988952205600,6.13820556640625,0.7593838572502136,1.4673200845718384,1.7519240379333496
1788861988962211600,6.148211669921875,0.7739294767379761,1.5847622156143188,1.845950961112976
1788861988972218600,6.158218505859375,0.750171959400177,1.691454291343689,1.8536694049835205
1788861988982224400,6.168224365234375,0.7315535545349121,1.6566108465194702,1.7584019899368286
1788861988992230700,6.178230712890625,0.7578104734420776,1.5375064611434937,1.662794828414917
1788861989002237400,6.188237548828125,0.8115613460540771,1.3577255010604858,1.6532714366912842
1788861989012243500,6.198243408203125,0.8320742249488831,1.2357957363128662,1.7371771335601807
1788861989022249500,6.20824951171875,0.8530213236808777,1.1831862926483154,1.8865668773651123
1788861989032256500,6.218256591796875,0.9031579494476318,1.208904504776001,2.0136258602142334
1788861989042262500,6.228262451171875,0.9421052932739258,1.4581204652786255,2.056351661682129
1788861989052268500,6.2382685546875,0.9520400166511536,1.6042011976242065,2.049506425857544
1788861989062274600,6.248274658203125,0.9564342498779297,1.3951557874679565,2.1091930866241455
1788861989072281600,6.258281494140625,0.9831331372261047,1.2364704608917236,2.1415939331054688
1788861989082287600,6.26828759765625,1.0260558128356934,1.2848970890045166,2.074925661087036
1788861989092293400,6.27829345703125,1.039765477180481,1.2058745622634888,2.030075788497925
1788861989102300700,6.28830078125,1.0049790143966675,0.8807535767555237,2.0610880851745605
1788861989112306700,6.298306640625,0.9345089197158813,0.7472357153892517,2.0510194301605225
1788861989122312400,6.3083125,0.8608070015907288,1.028103232383728,1.9236174821853638
1788861989132319700,6.31831982421875,0.7670157551765442,1.4250410795211792,1.714398741722107
1788861989142325800,6.32832568359375,0.6431449055671692,1.5360567569732666,1.5328313112258911
1788861989152331500,6.33833154296875,0.5845146179199219,1.3738667964935303,1.3816113471984863
1788861989162337500,6.348337646484375,0.6696516275405884,1.180572748184204,1.2380043268203735
1788861989172344600,6.358344482421875,0.771634042263031,1.1301629543304443,1.168428897857666
1788861989182350600,6.3683505859375,0.8344241976737976,0.8803927302360535,1.1869817972183228
1788861989192356600,6.378356689453125,0.8280686140060425,0.4120875298976898,1.1661901473999023
1788861989202363400,6.38836328125,0.6559687852859497,0.21289800107479095,1.0158344507217407
1788861989212368600,6.39836865234375,0.3930911421775818,0.4414544999599457,0.8183965682983398
1788861989222375000,6.408375,0.16476476192474365,0.6237550377845764,0.6126719117164612
1788861989232381700,6.418381591796875,0.047760650515556335,0.5197745561599731,0.3349241614341736
1788861989242387700,6.4283876953125,0.028262848034501076,0.31066668033599854,0.03404770419001579
1788861989252393700,6.438393798828125,-0.027876805514097214,0.159699484705925,-0.1678895354270935
1788861989262400800,6.44840087890625,-0.0825006365776062,0.1558714509010315,-0.25609901547431946
1788861989272406800,6.45840673828125,-0.05456027016043663,0.12446137517690659,-0.24971719086170197
1788861989282412800,6.468412841796875,0.002707813633605838,-0.003176468424499035,-0.25040483474731445
1788861989292418800,6.478418701171875,-0.02122407592833042,-0.13257887959480286,-0.31313177943229675
1788861989302425900,6.48842578125,-0.09235311299562454,-0.05616799741983414,-0.47449803352355957
1788861989312431900,6.498431884765625,-0.1928991675376892,0.00608653062954545,-0.7188783884048462
1788861989322438000,6.50843798828125,-0.3010733127593994,-0.2047942876815796,-0.8872679471969604
1788861989332445000,6.51844482421875,-0.3568817973136902,-0.3781090974807739,-0.9747729301452637
1788861989342451000,6.528450927734375,-0.40094006061553955,-0.2977290451526642,-1.0111244916915894
1788861989352456700,6.538456787109375,-0.45638465881347656,-0.44354403018951416,-0.9588618278503418
1788861989362463700,6.548463623046875,-0.595849871635437,-0.6237984895706177,-0.9417722821235657
1788861989372470000,6.558469970703125,-0.7536430954933167,-0.6648966073989868,-0.9945439696311951
1788861989382475800,6.568475830078125,-0.8233002424240112,-0.38958701491355896,-1.0744744539260864
1788861989392481800,6.578481689453125,-0.8628552556037903,0.013877881690859795,-1.0438952445983887
1788861989402488800,6.58848876953125,-0.8244940042495728,-0.2083413302898407,-0.7751154899597168
1788861989412494800,6.598494873046875,-0.665232241153717,-0.8613557815551758,-0.4413694739341736
1788861989422500900,6.6085009765625,-0.4816179573535919,-0.9469798803329468,-0.35235917568206787
1788861989432507600,6.618507568359375,-0.40975067019462585,-0.5161108374595642,-0.39755022525787354
1788861989442513700,6.628513671875,-0.5390532612800598,-0.5161806344985962,-0.3513036370277405
1788861989452520000,6.63852001953125,-0.7685649991035461,-0.8951393961906433,-0.4367420971393585
1788861989462526700,6.648526611328125,-0.9814698100090027,-1.19120192527771,-0.7322730422019958
1788861989472532700,6.65853271484375,-1.104652762413025,-1.0418585538864136,-1.1513372659683228
1788861989482539000,6.6685390625,-1.1081537008285522,-0.5365796685218811,-1.5154364109039307
1788861989492545800,6.6785458984375,-0.9801015257835388,-0.33832624554634094,-1.6169275045394897
1788861989502551800,6.6885517578125,-0.8028748035430908,-0.691312849521637,-1.4687479734420776
1788861989512557800,6.698557861328125,-0.657061755657196,-1.1032625436782837,-1.3029903173446655
1788861989522564900,6.70856494140625,-0.6207761764526367,-1.316203236579895,-1.2489510774612427
1788861989532571000,6.71857080078125,-0.6363221406936646,-1.4453577995300293,-1.19901442527771
1788861989542577000,6.728576904296875,-0.6678006649017334,-1.4113212823867798,-1.1777408123016357
1788861989552582700,6.738582763671875,-0.7029168009757996,-1.3584306240081787,-1.2479380369186401
1788861989562590000,6.74858984375,-0.7197610139846802,-1.3208012580871582,-1.370767593383789
1788861989572595700,6.758595703125,-0.7058906555175781,-1.1736769676208496,-1.5028172731399536
1788861989582601700,6.768601806640625,-0.6397255063056946,-1.2536011934280396,-1.5618480443954468
1788861989592609000,6.778609130859375,-0.542931318283081,-1.6387418508529663,-1.5078959465026855
1788861989602614800,6.78861474609375,-0.4847484230995178,-1.8793401718139648,-1.444220781326294
1788861989612620800,6.798620849609375,-0.4841136038303375,-1.863569736480713,-1.3290047645568848
1788861989622627800,6.8086279296875,-0.5031978487968445,-1.742392897605896,-1.1512621641159058
1788861989632633900,6.8186337890625,-0.5271149277687073,-1.5516102313995361,-1.078035593032837
1788861989642640000,6.828639892578125,-0.524969756603241,-1.5725644826889038,-1.1219755411148071
1788861989652646700,6.838646728515625,-0.5045483708381653,-1.7528743743896484,-1.1868256330490112
1788861989662652700,6.848652587890625,-0.48590943217277527,-1.7458641529083252,-1.280452013015747
1788861989672659000,6.858658935546875,-0.4213617146015167,-1.5838795900344849,-1.3266338109970093
1788861989682665700,6.868665771484375,-0.32675957679748535,-1.2755990028381348,-1.3131955862045288
1788861989692671700,6.878671630859375,-0.18406924605369568,-1.175069808959961,-1.2457369565963745
1788861989702677800,6.888677734375,0.04165549948811531,-1.436954140663147,-1.0119240283966064
1788861989712684800,6.898684814453125,0.2444658726453781,-1.606515884399414,-0.785241425037384
1788861989722690800,6.90869091796875,0.2599017918109894,-1.2368606328964233,-0.741679310798645
1788861989732696800,6.91869677734375,0.07679397612810135,-0.7584829330444336,-0.9109629988670349
1788861989742702800,6.928702880859375,-0.0821986049413681,-0.6420252919197083,-0.8331552743911743
1788861989752710000,6.9387099609375,-0.19786033034324646,-0.4343203604221344,-0.6557425856590271
1788861989762716000,6.9487158203125,-0.29770970344543457,-0.26287296414375305,-0.5611138343811035
1788861989772721700,6.9587216796875,-0.3215424120426178,-0.37979423999786377,-0.40960943698883057
1788861989782729000,6.96872900390625,-0.2500072419643402,-0.6118061542510986,-0.138269305229187
1788861989792735000,6.97873486328125,-0.2695547640323639,-0.8525128364562988,0.12979087233543396
1788861989802740700,6.98874072265625,-0.4012390375137329,-1.00693678855896,0.36766016483306885
1788861989812747800,6.998747802734375,-0.5458545088768005,-1.1282578706741333,0.4705047607421875
1788861989822753800,7.00875390625,-0.5490686893463135,-1.1208138465881348,0.384310245513916
1788861989832759800,7.018759765625,-0.4242631494998932,-0.9138855934143066,0.21628573536872864
1788861989842766800,7.028766845703125,-0.22113479673862457,-0.5053788423538208,0.03005514293909073
1788861989852772600,7.038772705078125,0.008984374813735485,-0.055079203099012375,-0.10239525139331818
1788861989862779000,7.04877880859375,0.16347567737102509,0.36593833565711975,-0.18227863311767578
1788861989872786000,7.058785888671875,0.1733313351869583,0.48190078139305115,-0.13649354875087738
1788861989882791700,7.068791748046875,0.059965889900922775,0.4618053734302521,0.027007494121789932
1788861989892797700,7.078797607421875,-0.09286454319953918,0.29379698634147644,0.25176486372947693
1788861989902804700,7.0888046875,-0.17074868083000183,0.09825946390628815,0.41284164786338806
1788861989912810800,7.098810791015625,-0.20277826488018036,-0.02806284837424755,0.49522286653518677
1788861989922816800,7.108816650390625,-0.156368687748909,0.28798726201057434,0.4403580129146576
1788861989932823800,7.11882373046875,-0.10510709881782532,0.7882379293441772,0.31839290261268616
1788861989942829800,7.128829833984375,-0.012537214905023575,1.2373813390731812,0.22435082495212555
1788861989952835800,7.1388359375,0.08951613306999207,1.2919827699661255,0.22678034007549286
1788861989962841900,7.148841796875,0.1158721074461937,1.3459395170211792,0.2979394793510437
1788861989972849000,7.158848876953125,0.10540230572223663,1.5901767015457153,0.3691255748271942
1788861989982855000,7.16885498046875,0.13687396049499512,1.9613087177276611,0.41343817114830017
1788861989992860700,7.178860595703125,0.23330987989902496,2.3460676670074463,0.39430850744247437
1788861990002868000,7.188867919921875,0.32600972056388855,2.4736218452453613,0.41118574142456055
1788861990012874000,7.1988740234375,0.42114678025245667,2.4107210636138916,0.48769310116767883
1788861990022879700,7.208879638671875,0.5428652763366699,2.308084726333618,0.6797853112220764
1788861990032886800,7.21888671875,0.645634651184082,2.1100003719329834,0.9306195974349976
1788861990042893000,7.22889306640625,0.6862390637397766,1.8625322580337524,1.2033506631851196
1788861990052898800,7.23889892578125,0.6408934593200684,1.691123604774475,1.4273287057876587
1788861990062905900,7.24890576171875,0.5725130438804626,1.5372987985610962,1.551943063735962
1788861990072911600,7.25891162109375,0.5853606462478638,1.340197205543518,1.6636945009231567
1788861990082918000,7.26891796875,0.6740902066230774,1.2297476530075073,1.8164044618606567
1788861990092925000,7.278925048828125,0.7998576760292053,1.2012672424316406,1.9055678844451904
1788861990102930700,7.2889306640625,0.9577959179878235,1.1950021982192993,1.9358059167861938
1788861990112936700,7.298936767578125,1.1705015897750854,1.1387845277786255,1.9943569898605347
1788861990122944000,7.308944091796875,1.4074409008026123,1.047758936882019,2.0831384658813477
1788861990132949800,7.31894970703125,1.5914932489395142,0.9816198945045471,2.0754854679107666
1788861990142955800,7.328955810546875,1.6745414733886719,0.8573437333106995,1.9867452383041382
1788861990152962800,7.338962890625,1.6675169467926025,0.8143757581710815,2.0089914798736572
1788861990162968800,7.34896875,1.6317275762557983,0.7526357173919678,2.0979552268981934
1788861990172974800,7.358974853515625,1.5820995569229126,0.6511340737342834,2.1625590324401855
1788861990182981600,7.368981689453125,1.5002691745758057,0.5634678602218628,2.1306724548339844
1788861990192988000,7.37898779296875,1.4073420763015747,0.5371993184089661,2.1018564701080322
1788861990202994000,7.388993896484375,1.3347270488739014,0.617009162902832,2.112617254257202
1788861990213001700,7.399001708984375,1.2628055810928345,0.6512583494186401,2.0919911861419678
1788861990223007700,7.4090078125,1.1794747114181519,0.7606503367424011,2.0300514698028564
1788861990233013500,7.419013427734375,1.0848664045333862,0.9615916013717651,1.9487292766571045
1788861990243020800,7.429020751953125,0.9876331090927124,1.0111138820648193,1.9288864135742188
1788861990253026800,7.43902685546875,0.9518538117408752,0.9561616778373718,1.9540868997573853
1788861990263032600,7.449032470703125,0.9974631071090698,1.0684759616851807,1.8789514303207397
1788861990273039600,7.45903955078125,1.060707449913025,1.2856724262237549,1.6817162036895752
1788861990283046000,7.4690458984375,1.0648993253707886,1.3123629093170166,1.482854962348938
1788861990293051600,7.4790517578125,0.9560672044754028,1.1674728393554688,1.3714557886123657
1788861990303058700,7.48905859375,0.8131840825080872,1.0449788570404053,1.2546933889389038
1788861990313064400,7.499064453125,0.7601586580276489,1.0675063133239746,0.9869015216827393
1788861990323070700,7.50907080078125,0.7314321994781494,0.96332848072052,0.6931695342063904
1788861990333077800,7.519077880859375,0.6014577150344849,0.678122878074646,0.5293235778808594
1788861990343083500,7.52908349609375,0.3716094493865967,0.5607821345329285,0.43070894479751587
1788861990353089500,7.539089599609375,0.16119123995304108,0.6567083597183228,0.2624640166759491
1788861990363096800,7.549096923828125,0.03876039758324623,0.6786730885505676,0.057295411825180054
1788861990373102600,7.5591025390625,-0.004065114073455334,0.4007551074028015,-0.07548341155052185
1788861990383108600,7.569108642578125,-0.020953550934791565,0.047551240772008896,-0.125756174325943
1788861990393115600,7.57911572265625,-0.007163597736507654,-0.22273924946784973,-0.13182061910629272
1788861990403121700,7.58912158203125,0.019512753933668137,-0.3563132882118225,-0.15402233600616455
1788861990413127700,7.599127685546875,-0.02427726425230503,-0.3579104542732239,-0.21913586556911469
1788861990423134500,7.609134521484375,-0.1254182606935501,-0.29504066705703735,-0.3164251446723938
1788861990433140700,7.619140625,-0.20394188165664673,-0.14772675931453705,-0.4852258265018463
1788861990443146800,7.629146728515625,-0.2541115880012512,-0.07038404792547226,-0.717800498008728
1788861990453153500,7.639153564453125,-0.2891435921192169,-0.22284415364265442,-0.953005313873291
1788861990463159600,7.64915966796875,-0.3476252853870392,-0.5263441205024719,-1.1431999206542969
1788861990473165800,7.659165771484375,-0.47829341888427734,-0.6317472457885742,-1.3480931520462036
1788861990483172600,7.669172607421875,-0.6351695656776428,-0.42027685046195984,-1.602090835571289
1788861990493178600,7.6791787109375,-0.792630672454834,-0.044507212936878204,-1.7822381258010864
1788861990503184600,7.6891845703125,-0.9474559426307678,0.09027376770973206,-1.8600226640701294
1788861990513191700,7.699191650390625,-1.070716142654419,0.10365160554647446,-1.9640663862228394
1788861990523197700,7.70919775390625,-1.106249451637268,0.24022437632083893,-2.107180118560791
1788861990533203700,7.71920361328125,-1.0555514097213745,0.28483471274375916,-2.1139867305755615
1788861990543210800,7.729210693359375,-0.9266229867935181,-0.10518521815538406,-1.841596007347107
1788861990553216800,7.739216796875,-0.6076849699020386,-0.8180752992630005,-1.4895731210708618
1788861990563222500,7.749222412109375,-0.28349170088768005,-1.1683474779129028,-1.3446153402328491
1788861990573229600,7.7592294921875,-0.3505891263484955,-1.1323555707931519,-1.2803583145141602
1788861990583235800,7.76923583984375,-0.6081721782684326,-1.0441093444824219,-1.1780476570129395
1788861990593241600,7.77924169921875,-0.770444929599762,-0.8817302584648132,-1.0402778387069702
1788861990603248600,7.78924853515625,-0.7730854749679565,-0.6971702575683594,-0.9362998604774475
1788861990613254700,7.799254638671875,-0.7507781982421875,-1.0141208171844482,-0.773476243019104
1788861990623260700,7.8092607421875,-0.7465064525604248,-1.5454238653182983,-0.5745136141777039
1788861990633267700,7.819267822265625,-0.767281174659729,-1.9023611545562744,-0.5092688798904419
1788861990643273500,7.8292734375,-0.8150486946105957,-2.082850217819214,-0.5293291211128235
1788861990653279500,7.839279541015625,-0.8918565511703491,-1.9144195318222046,-0.5385070443153381
1788861990663286800,7.849286865234375,-0.9950580596923828,-1.5901317596435547,-0.5643075108528137
1788861990673292500,7.85929248046875,-1.052295446395874,-1.4881387948989868,-0.6582245230674744
1788861990683298600,7.869298583984375,-1.0274596214294434,-1.4030675888061523,-0.8613494634628296
1788861990693305900,7.879305908203125,-0.9393840432167053,-1.1850274801254272,-1.0613377094268799
1788861990703311600,7.8893115234375,-0.8409916758537292,-0.9146929383277893,-1.1983296871185303
1788861990713317600,7.899317626953125,-0.6928327679634094,-0.6412185430526733,-1.2658030986785889
1788861990723324400,7.909324462890625,-0.45869988203048706,-0.8422576189041138,-1.1746044158935547
1788861990733330700,7.91933056640625,-0.22815486788749695,-1.3702170848846436,-1.0751121044158936
1788861990743336700,7.929336669921875,-0.1449633091688156,-1.5487836599349976,-1.1548559665679932
1788861990753343500,7.939343505859375,-0.20934535562992096,-1.573814034461975,-1.3018306493759155
1788861990763349800,7.949349853515625,-0.2980416715145111,-1.4039262533187866,-1.4324102401733398
1788861990773355800,7.959355712890625,-0.3331303298473358,-0.9129144549369812,-1.6420315504074097
1788861990783362600,7.969362548828125,-0.2931288480758667,-0.6685145497322083,-1.765499472618103
1788861990793368600,7.97936865234375,-0.16049498319625854,-0.9770796298980713,-1.6476168632507324
1788861990803374800,7.989374755859375,0.00229046493768692,-1.692051649093628,-1.267868161201477
1788861990813381600,7.999381591796875,0.014060062356293201,-2.1474459171295166,-0.9474068284034729
1788861990823387600,8.0093876953125,-0.19004353880882263,-2.0845632553100586,-0.928867757320404
1788861990833393700,8.0193935546875,-0.34622445702552795,-1.8628044128417969,-1.0500401258468628
1788861990843400700,8.029400634765626,-0.31540876626968384,-1.637220025062561,-1.0984116792678833
1788861990853406700,8.03940673828125,-0.2299460768699646,-1.4077316522598267,-1.0269123315811157
1788861990863412700,8.049412841796874,-0.2427380383014679,-1.4334684610366821,-0.9748653173446655
1788861990873419800,8.059419677734375,-0.41525235772132874,-1.4016410112380981,-1.0786222219467163
1788861990883425800,8.06942578125,-0.6679644584655762,-1.331222414970398,-1.203098177909851
1788861990893431600,8.079431640625,-0.8580330014228821,-1.2544525861740112,-1.048349380493164
1788861990903438600,8.0894384765625,-0.9076002836227417,-1.1384519338607788,-0.7405505180358887
1788861990913444900,8.09944482421875,-0.9503752589225769,-0.9826370477676392,-0.6701704859733582
1788861990923450600,8.10945068359375,-1.0845743417739868,-0.7288987636566162,-0.6569473743438721
1788861990933457700,8.119457763671875,-1.161394715309143,-0.6681984066963196,-0.5831976532936096
1788861990943463700,8.129463623046876,-1.1057982444763184,-0.8661730289459229,-0.5720145106315613
1788861990953469700,8.1394697265625,-0.9937013387680054,-0.7667827606201172,-0.5334334969520569
1788861990963476700,8.149476806640624,-0.8750130534172058,-0.44745728373527527,-0.3961281478404999
1788861990973482500,8.159482421875,-0.7620113492012024,-0.022968288511037827,-0.4113245904445648
1788861990983488500,8.169488525390625,-0.5566523671150208,0.5856545567512512,-0.552487850189209
1788861990993495800,8.179495849609374,-0.2659872770309448,0.9614854454994202,-0.6476309299468994
1788861991003501600,8.18950146484375,-0.07974148541688919,1.1291663646697998,-0.4710897207260132
1788861991013507600,8.199507568359374,-0.08489744365215302,1.3285161256790161,-0.19892631471157074
1788861991023514600,8.2095146484375,-0.19419890642166138,1.2609392404556274,0.06864599883556366
1788861991033520600,8.219520751953125,-0.26013439893722534,1.0437822341918945,0.34676945209503174
1788861991043526700,8.229526611328126,-0.24373704195022583,0.9922388792037964,0.6029724478721619
1788861991053533400,8.239533447265625,-0.08443383127450943,1.226731777191162,0.5955537557601929
1788861991063539700,8.249539794921875,0.08046217262744904,1.1813981533050537,0.46234533190727234
1788861991073546800,8.259546630859376,0.15743783116340637,1.1429862976074219,0.4573090672492981
1788861991083552500,8.269552490234375,0.2012912929058075,1.2989447116851807,0.6230085492134094
1788861991093558500,8.27955859375,0.2834412157535553,1.5054059028625488,0.815113365650177
1788861991103565600,8.289565673828125,0.41532254219055176,1.6139917373657227,0.9417997002601624
1788861991113571600,8.299571533203125,0.5764046907424927,1.7946977615356445,1.1230120658874512
1788861991123577600,8.30957763671875,0.7343852519989014,1.8815114498138428,1.3323203325271606
1788861991133584600,8.319584716796875,0.8937186002731323,1.6681771278381348,1.5146130323410034
1788861991143590700,8.329590576171874,1.0234342813491821,1.4986722469329834,1.6235004663467407
1788861991153596700,8.3395966796875,1.0820554494857788,1.5120524168014526,1.6250247955322266
1788861991163603500,8.349603515625,1.0658080577850342,1.6136592626571655,1.6610944271087646
1788861991173609700,8.359609619140626,1.0851938724517822,1.5839083194732666,1.7765026092529297
1788861991183615700,8.36961572265625,1.1533570289611816,1.3306299448013306,1.9443554878234863
1788861991193622500,8.37962255859375,1.1801116466522217,1.1615879535675049,2.179640531539917
1788861991203628500,8.389628662109375,1.1708827018737793,1.0217554569244385,2.385350465774536
1788861991213634800,8.399634765625,1.1221866607666016,0.9562385082244873,2.4224588871002197
1788861991223641000,8.40964111328125,1.0705727338790894,1.2367260456085205,2.2989351749420166
1788861991233647000,8.419647216796875,1.004492998123169,1.4298094511032104,2.177783489227295
1788861991243653400,8.4296533203125,0.93731689453125,1.3882173299789429,2.1780388355255127
1788861991253660200,8.43966015625,0.930463969707489,1.353182077407837,2.268204689025879
1788861991263666200,8.449666259765625,0.9849458336830139,1.344576358795166,2.4214487075805664
1788861991273672200,8.459672119140626,1.0533907413482666,1.515121579170227,2.575982093811035
1788861991283679200,8.46967919921875,1.0863009691238403,1.7278237342834473,2.680915117263794
1788861991293685200,8.479685302734374,1.0651863813400269,1.8981937170028687,2.7216103076934814
1788861991303691300,8.489691162109375,1.041480541229248,1.9351505041122437,2.7347588539123535
1788861991313698300,8.4996982421875,1.0738071203231812,1.8200571537017822,2.7084367275238037
1788861991323704300,8.509704345703126,1.1365118026733398,1.5760343074798584,2.5678775310516357
1788861991333711000,8.519711181640625,1.1637787818908691,1.3017054796218872,2.291700839996338
1788861991343717000,8.529717041015624,1.1134709119796753,1.0416544675827026,2.020449161529541
1788861991353723400,8.539723388671876,0.9332317113876343,1.0483348369598389,1.7569600343704224
1788861991363730200,8.549730224609375,0.7142578363418579,1.2235835790634155,1.3171485662460327
1788861991373736200,8.559736083984374,0.4557954668998718,1.3395994901657104,0.7812961339950562
1788861991383742200,8.5697421875,0.2839565873146057,1.3374528884887695,0.3326815962791443
1788861991393749200,8.579749267578125,0.3030525743961334,0.95647794008255,0.07533803582191467
1788861991403755300,8.58975537109375,0.36504456400871277,0.3103695213794708,0.017530394718050957
1788861991413761000,8.599760986328125,0.37304452061653137,-0.18700328469276428,0.07484609633684158
1788861991423768300,8.609768310546874,0.2857586443424225,-0.6614036560058594,0.19000570476055145
1788861991433774300,8.6197744140625,0.17794881761074066,-0.9516316652297974,0.22792699933052063
1788861991443780000,8.629780029296874,0.07840067148208618,-0.9442270398139954,0.14366298913955688
1788861991453787100,8.639787109375,-0.056000370532274246,-0.6920206546783447,-0.06039363145828247
1788861991463793200,8.649793212890625,-0.1874566674232483,-0.45682117342948914,-0.3113451600074768
1788861991473799200,8.659799072265624,-0.27402210235595703,-0.3420726954936981,-0.5619604587554932
1788861991483806200,8.66980615234375,-0.3134121000766754,-0.4272453784942627,-0.7915497422218323
1788861991493812000,8.67981201171875,-0.35869070887565613,-0.40577951073646545,-0.9782502055168152
1788861991503818200,8.689818359375,-0.397625595331192,-0.36056703329086304,-1.0643541812896729
1788861991513825300,8.6998251953125,-0.4407961368560791,-0.5516797304153442,-1.0604194402694702
1788861991523831000,8.7098310546875,-0.5164914131164551,-0.5516430139541626,-1.1364401578903198
1788861991533838300,8.71983837890625,-0.591072678565979,-0.2239476591348648,-1.2785404920578003
1788861991543844000,8.729843994140625,-0.6412377953529358,-0.09207219630479813,-1.3380895853042603
1788861991553850000,8.73985009765625,-0.6662064790725708,-0.2596723139286041,-1.3848366737365723
1788861991563857200,8.749857177734375,-0.6565189957618713,-0.455998957157135,-1.435571312904358
1788861991573863200,8.75986328125,-0.6252975463867188,-0.5151576995849609,-1.4425270557403564
1788861991583869200,8.769869140625,-0.578732967376709,-0.5310437083244324,-1.3565444946289062
1788861991593876200,8.779876220703125,-0.5640700459480286,-0.4113590717315674,-1.3032937049865723
1788861991603882200,8.78988232421875,-0.5643573999404907,-0.3099419176578522,-1.326332688331604
1788861991613888300,8.79988818359375,-0.6005356907844543,-0.3512592911720276,-1.287263035774231
1788861991623895300,8.809895263671875,-0.6832830309867859,-0.4136614203453064,-1.1871846914291382
1788861991633901000,8.819901123046876,-0.7815074920654297,-0.35027608275413513,-1.1466923952102661
1788861991643907300,8.8299072265625,-0.8697366714477539,-0.3306770920753479,-1.122113823890686
1788861991653914000,8.8399140625,-0.922915518283844,-0.48750022053718567,-1.0549272298812866
1788861991663920000,8.849920166015625,-0.9710934162139893,-0.6190832853317261,-1.008562445640564
1788861991673926100,8.859926025390624,-1.0283312797546387,-0.7671830058097839,-1.0343167781829834
1788861991683933200,8.86993310546875,-1.0591336488723755,-1.0349539518356323,-1.1376471519470215
1788861991693939200,8.879939208984375,-1.0601190328598022,-1.164875864982605,-1.251560926437378
1788861991703946200,8.8899462890625,-1.017825961112976,-1.080675721168518,-1.3289865255355835
1788861991713952300,8.8999521484375,-0.9079863429069519,-0.9530790448188782,-1.3343305587768555
1788861991723958300,8.909958251953125,-0.7730588912963867,-1.0467807054519653,-1.2089025974273682
1788861991733965000,8.919965087890626,-0.6610741019248962,-1.266522765159607,-1.0950933694839478
1788861991743971000,8.92997119140625,-0.585788369178772,-1.4036380052566528,-1.1182098388671875
1788861991753977300,8.939977294921874,-0.5553818345069885,-1.4936531782150269,-1.2794876098632812
1788861991763984100,8.949984130859375,-0.5627079010009766,-1.4972811937332153,-1.4542548656463623
1788861991773990100,8.959990234375,-0.5501598119735718,-1.3966118097305298,-1.5445709228515625
1788861991783996200,8.96999609375,-0.5133935213088989,-1.3533602952957153,-1.5413501262664795
1788861991794003200,8.980003173828125,-0.48255422711372375,-1.37740957736969,-1.5134048461914062
1788861991804009200,8.99000927734375,-0.49860936403274536,-1.4646775722503662,-1.4997491836547852
1788861991814015200,9.00001513671875,-0.5409218668937683,-1.4756906032562256,-1.5400562286376953
1788861991824022300,9.010022216796875,-0.5627992153167725,-1.4291869401931763,-1.635930061340332
1788861991834028300,9.0200283203125,-0.5231797695159912,-1.4322248697280884,-1.7128653526306152
1788861991844034300,9.030034423828125,-0.42277801036834717,-1.4525048732757568,-1.7027606964111328
1788861991854041000,9.040041015625,-0.30732664465904236,-1.4566296339035034,-1.6242234706878662
1788861991864047400,9.05004736328125,-0.21715760231018066,-1.6092900037765503,-1.5839673280715942
1788861991874054100,9.06005419921875,-0.23651345074176788,-1.7769113779067993,-1.5294489860534668
1788861991884060200,9.07006005859375,-0.30932214856147766,-1.8248029947280884,-1.4063849449157715
1788861991894066200,9.080066162109375,-0.38870957493782043,-1.856419563293457,-1.319920301437378
1788861991904073200,9.0900732421875,-0.48191675543785095,-1.6284489631652832,-1.2848280668258667
1788861991914079200,9.100079345703126,-0.5489435791969299,-1.3808196783065796,-1.272209882736206
1788861991924085200,9.110085205078125,-0.5622143745422363,-1.126803994178772,-1.303163766860962
1788861991934092300,9.12009228515625,-0.5104608535766602,-0.9679290652275085,-1.33455228805542
1788861991944098300,9.130098388671875,-0.3856738805770874,-0.9575598239898682,-1.2070749998092651
1788861991954104000,9.14010400390625,-0.25366657972335815,-0.7468963861465454,-0.833530068397522
1788861991964111000,9.150111083984376,-0.17299409210681915,-0.5356799960136414,-0.4739748239517212
1788861991974117400,9.160117431640625,-0.17102771997451782,-0.2845763564109802,-0.31818443536758423
1788861991984123100,9.170123046875,-0.19354288280010223,0.2669486403465271,-0.23925447463989258
1788861991994130200,9.180130126953125,-0.07297702878713608,0.47648078203201294,-0.14899401366710663
1788861992004136200,9.19013623046875,0.13445685803890228,0.512710690498352,-0.07508862018585205
1788861992014142200,9.20014208984375,0.15057538449764252,0.36551931500434875,0.051868848502635956
1788861992024149200,9.210149169921875,0.044367723166942596,0.5958577394485474,0.33333754539489746
1788861992034155000,9.220155029296874,0.05817751958966255,0.9629034399986267,0.5928241610527039
1788861992044162300,9.230162353515626,0.1320437490940094,0.9222875833511353,0.632192075252533
1788861992054168300,9.240168212890625,0.203303724527359,0.9616868495941162,0.6038044691085815
1788861992064174000,9.250174072265626,0.3187698721885681,1.1595616340637207,0.648231565952301
1788861992074181000,9.26018115234375,0.41095027327537537,1.3106651306152344,0.7444391250610352
1788861992084187400,9.2701875,0.47166314721107483,1.529624581336975,0.8061639666557312
1788861992094193200,9.280193115234376,0.5781985521316528,1.5401878356933594,0.8988326787948608
1788861992104200200,9.2902001953125,0.6793320775032043,1.6503551006317139,1.063781499862671
1788861992114206200,9.300206298828124,0.7608204483985901,1.7419779300689697,1.1891907453536987
1788861992124212200,9.310212158203125,0.8233810067176819,1.7970584630966187,1.2851237058639526
1788861992134219300,9.32021923828125,0.8923752307891846,1.8383909463882446,1.3758666515350342
1788861992144225000,9.33022509765625,0.9770195484161377,1.8493059873580933,1.4943914413452148
1788861992154232300,9.340232421875,1.049377679824829,1.8017436265945435,1.580497145652771
1788861992164238300,9.35023828125,1.0984413623809814,1.7467453479766846,1.641103744506836
1788861992174244000,9.360244140625,1.1451027393341064,1.6432130336761475,1.7343157529830933
1788861992184251400,9.37025146484375,1.1597493886947632,1.6077724695205688,1.801781415939331
1788861992194257200,9.380257080078126,1.100631594657898,1.6528440713882446,1.7447900772094727
1788861992204263200,9.39026318359375,1.023268699645996,1.731205940246582,1.6834673881530762
1788861992214270200,9.400270263671874,0.9958857297897339,1.759452223777771,1.7345788478851318
1788861992224276200,9.410276123046875,1.02337646484375,1.7692183256149292,1.8716342449188232
1788861992234282200,9.4202822265625,1.1123238801956177,1.6965917348861694,1.9822152853012085
1788861992244289300,9.430289306640624,1.2329936027526855,1.571164846420288,2.0646309852600098
1788861992254295000,9.440294921875,1.3539252281188965,1.4505157470703125,2.217708110809326
1788861992264301300,9.45030126953125,1.4255813360214233,1.2385730743408203,2.415081262588501
1788861992274308000,9.46030810546875,1.446022629737854,1.216156244277954,2.495309591293335
1788861992284314000,9.470314208984375,1.4329137802124023,1.4142080545425415,2.4455854892730713
1788861992294321400,9.4803212890625,1.3872877359390259,1.5324245691299438,2.3830718994140625
1788861992304327200,9.4903271484375,1.2910666465759277,1.4864581823349,2.3577208518981934
1788861992314333200,9.500333251953125,1.172057032585144,1.2365707159042358,2.294837474822998
1788861992324340200,9.51034033203125,1.1687536239624023,0.8841052651405334,2.155884027481079
1788861992334346200,9.52034619140625,1.2187228202819824,0.618057131767273,1.9488909244537354
1788861992344352300,9.530352294921874,1.115412950515747,0.7009317874908447,1.6814390420913696
1788861992354359000,9.540359130859375,0.883486807346344,1.0682556629180908,1.3403286933898926
1788861992364365000,9.550364990234375,0.7194904685020447,1.1954610347747803,1.0363882780075073
1788861992374371300,9.560371337890626,0.6649563312530518,0.8916822075843811,0.8544201850891113
1788861992384378000,9.570378173828125,0.6491265296936035,0.5147104263305664,0.7170383334159851
1788861992394384100,9.580384033203124,0.6267254948616028,0.2145005762577057,0.636451780796051
1788861992404390100,9.59039013671875,0.5645816922187805,0.019674893468618393,0.6111472249031067
1788861992414397200,9.600397216796875,0.4555893838405609,-0.059452373534440994,0.586052656173706
1788861992424403200,9.6104033203125,0.2921178936958313,0.051446180790662766,0.4855758547782898
1788861992434410000,9.620409912109375,0.13339611887931824,0.3107914328575134,0.2460092306137085
1788861992444416300,9.630416259765624,0.032576560974121094,0.31736570596694946,-0.0010375652927905321
1788861992454422300,9.64042236328125,-0.024679258465766907,0.012555243447422981,-0.12951937317848206
1788861992464429000,9.650428955078125,-0.06812074035406113,-0.31740111112594604,-0.13522998988628387
1788861992474435000,9.66043505859375,-0.1329471617937088,-0.3036363124847412,-0.12997904419898987
1788861992484441300,9.67044140625,-0.22611385583877563,-0.3104841113090515,-0.1864689439535141
1788861992494448000,9.6804482421875,-0.3459518849849701,-0.6144551634788513,-0.39678630232810974
1788861992504454100,9.6904541015625,-0.5074270367622375,-0.6807729601860046,-0.8127084374427795
1788861992514460200,9.700460205078125,-0.6288778185844421,-0.2539220154285431,-1.261668086051941
1788861992524467200,9.71046728515625,-0.6930224299430847,0.04458771273493767,-1.5776997804641724
1788861992534473200,9.72047314453125,-0.7154567241668701,0.009133530780673027,-1.79909086227417
1788861992544480000,9.73047998046875,-0.6709776520729065,-0.3713269829750061,-1.8998973369598389
1788861992554486300,9.740486328125,-0.6195893883705139,-0.777509331703186,-1.8681193590164185
1788861992564492300,9.7504921875,-0.6389145851135254,-1.1234757900238037,-1.695249319076538
1788861992574499000,9.7604990234375,-0.7455452084541321,-1.2652760744094849,-1.5499686002731323
1788861992584505000,9.770505126953125,-0.8840059041976929,-0.7802572250366211,-1.554400086402893
1788861992594511400,9.780511474609375,-0.954590916633606,-0.020603107288479805,-1.5759512186050415
1788861992604518100,9.79051806640625,-0.9586035013198853,0.40930724143981934,-1.5467422008514404
1788861992614524200,9.800524169921875,-0.9120692610740662,-0.07202073186635971,-1.430262804031372
1788861992624530200,9.8105302734375,-0.8051372170448303,-0.8634967803955078,-1.349117398262024
1788861992634537200,9.820537109375,-0.7721670866012573,-1.1820025444030762,-1.3686227798461914
1788861992644543200,9.830543212890625,-0.9046170115470886,-1.0682096481323242,-1.4030132293701172
1788861992654550300,9.84055029296875,-1.145864486694336,-0.6229286789894104,-1.3693429231643677
1788861992664556300,9.850556396484375,-1.3116942644119263,-0.3909492790699005,-1.2129000425338745
1788861992674562300,9.860562255859374,-1.3081152439117432,-0.5886451601982117,-1.0346496105194092
1788861992684569000,9.870569091796876,-1.1614229679107666,-1.0072237253189087,-0.8890628218650818
1788861992694575400,9.880575439453125,-0.9735445976257324,-1.4244122505187988,-0.8203440308570862
1788861992704581400,9.890581298828126,-0.8574347496032715,-1.5391361713409424,-0.866371214389801
1788861992714588200,9.900588134765625,-0.8494726419448853,-1.4492014646530151,-0.9639073610305786
1788861992724594200,9.91059423828125,-0.8457844257354736,-1.4571714401245117,-1.026089072227478
1788861992734600200,9.92060009765625,-0.7863672375679016,-1.5983024835586548,-1.064138412475586
1788861992744607200,9.930607177734375,-0.7123444080352783,-1.623689889907837,-1.1443389654159546
1788861992754613200,9.94061328125,-0.6374901533126831,-1.4874763488769531,-1.1825501918792725
1788861992764620300,9.950620361328125,-0.5174683928489685,-1.2943726778030396,-1.1081347465515137
1788861992774626300,9.960626220703125,-0.37937918305397034,-1.334132432937622,-0.9807631969451904
1788861992784632300,9.97063232421875,-0.27929091453552246,-1.5330007076263428,-0.934255838394165
1788861992794639000,9.98063916015625,-0.23351894319057465,-1.5981392860412598,-1.0949923992156982
1788861992804645400,9.990645263671874,-0.26465877890586853,-1.7751158475875854,-1.3002264499664307
1788861992814651100,10.000651123046875,-0.3407038152217865,-1.9758226871490479,-1.3834019899368286
1788861992824658200,10.010658203125,-0.3736162483692169,-2.0490353107452393,-1.3679431676864624
1788861992834664200,10.020664306640626,-0.3471733629703522,-2.0200035572052,-1.2729599475860596
1788861992844670200,10.030670166015625,-0.36155256628990173,-1.926067590713501,-1.2008000612258911
1788861992854677200,10.04067724609375,-0.41853904724121094,-2.1170079708099365,-1.1575335264205933
1788861992864683300,10.050683349609375,-0.4857947826385498,-2.196265697479248,-1.1939842700958252
1788861992874690300,10.060690185546875,-0.567047655582428,-2.1205239295959473,-1.335846185684204
1788861992884696300,10.0706962890625,-0.6000884175300598,-2.1673483848571777,-1.426831841468811
1788861992894702000,10.0807021484375,-0.5685253739356995,-1.7814807891845703,-1.4918996095657349
1788861992904709000,10.090709228515625,-0.4903389811515808,-1.3082804679870605,-1.5400866270065308
1788861992914715400,10.10071533203125,-0.4448482096195221,-1.0585349798202515,-1.5295439958572388
1788861992924721200,10.11072119140625,-0.4136326014995575,-1.2434033155441284,-1.5254384279251099
1788861992934728200,10.120728271484374,-0.3769724667072296,-1.1293385028839111,-1.4482043981552124
1788861992944734200,10.130734130859375,-0.340555340051651,-0.8229705691337585,-1.1055524349212646
1788861992954740200,10.140740234375,-0.26924580335617065,-0.6733157634735107,-0.6355739235877991
1788861992964747300,10.150747314453126,-0.22195632755756378,-0.26133620738983154,-0.3563321828842163
1788861992974753000,10.1607529296875,-0.19836300611495972,0.07229864597320557,-0.2756645083427429
1788861992984760300,10.17076025390625,-0.10887546837329865,0.30021679401397705,-0.1776319444179535
1788861992994766300,10.180766357421875,0.021049227565526962,0.3181915879249573,-0.031759485602378845
1788861993004772000,10.190772216796875,0.043332695960998535,0.26979050040245056,0.23374861478805542
1788861993014779100,10.200779052734376,0.005200390703976154,0.6830657124519348,0.4417082667350769
1788861993024785400,10.210785400390625,0.01224525086581707,0.990516185760498,0.48706188797950745
1788861993034791200,10.220791259765624,0.08190158754587173,1.498894214630127,0.4404267966747284
1788861993044798200,10.230798095703125,0.1816188544034958,1.5771223306655884,0.5329205393791199
1788861993054804000,10.240803955078125,0.23748254776000977,1.4410505294799805,0.7309572100639343
1788861993064811300,10.250811279296874,0.20546922087669373,1.4897211790084839,0.8254315257072449
1788861993074817300,10.2608173828125,0.1990775167942047,1.3701329231262207,1.0377427339553833
1788861993084823000,10.270822998046874,0.25115537643432617,1.433608055114746,1.298016905784607
1788861993094830300,10.280830322265626,0.3575957715511322,1.6982413530349731,1.3639189004898071
1788861993104836400,10.29083642578125,0.45684751868247986,1.7301311492919922,1.3320331573486328
1788861993114842000,10.300842041015626,0.5828372836112976,1.7382758855819702,1.3256498575210571
1788861993124849200,10.31084912109375,0.7678907513618469,1.6418403387069702,1.4651782512664795
1788861993134855200,10.320855224609375,0.9061508178710938,1.5159714221954346,1.7104003429412842
1788861993144861200,10.330861083984376,0.9730212092399597,1.4770077466964722,1.8661757707595825
1788861993154868200,10.3408681640625,0.9687625169754028,1.4399675130844116,1.9690345525741577
1788861993164874000,10.3508740234375,0.8977080583572388,1.7068465948104858,1.9904497861862183
1788861993174881300,10.36088134765625,0.8338109850883484,1.8731743097305298,1.8072541952133179
1788861993184887300,10.37088720703125,0.8002351522445679,1.8194303512573242,1.6539500951766968
1788861993194893000,10.38089306640625,0.8448634743690491,1.6455615758895874,1.733786940574646
1788861993204900400,10.390900390625,0.9863729476928711,1.4656245708465576,1.9335066080093384
1788861993214906000,10.400906005859374,1.110761046409607,1.5041550397872925,2.060537099838257
1788861993224912400,10.410912353515625,1.1826114654541016,1.4601389169692993,2.0990676879882812
1788861993234919400,10.42091943359375,1.1955749988555908,1.301694631576538,2.140704393386841
1788861993244925400,10.430925537109376,1.1874017715454102,1.3356691598892212,2.1431186199188232
1788861993254931500,10.440931396484375,1.1903672218322754,1.353737473487854,2.0754330158233643
1788861993264938200,10.450938232421874,1.1562420129776,1.4741408824920654,2.0710902214050293
1788861993274944500,10.460944580078126,1.1472687721252441,1.5314507484436035,2.1769425868988037
1788861993284951600,10.47095166015625,1.2075246572494507,1.4382102489471436,2.3021817207336426
1788861993294957300,10.480957275390624,1.27801513671875,1.1821050643920898,2.4044618606567383
1788861993304963300,10.49096337890625,1.2722256183624268,0.914401650428772,2.441366195678711
1788861993314970400,10.500970458984375,1.1834996938705444,0.9346209168434143,2.3736817836761475
1788861993324976400,10.510976318359376,1.0947487354278564,1.046857476234436,2.220080852508545
1788861993334982400,10.520982421875,0.9343212246894836,1.2449369430541992,1.9736491441726685
1788861993344989400,10.530989501953124,0.7854406237602234,1.301735281944275,1.6912795305252075
1788861993354995500,10.540995361328125,0.7788214087486267,1.082396388053894,1.410416841506958
1788861993365001500,10.55100146484375,0.8123891949653625,0.9116904139518738,1.0972436666488647
1788861993375008300,10.56100830078125,0.7735018134117126,0.7455295920372009,0.8525030612945557
1788861993385014500,10.5710146484375,0.6383519768714905,0.5683460235595703,0.7292048335075378
1788861993395021300,10.581021240234374,0.5144550800323486,0.33014172315597534,0.6404790878295898
1788861993405027300,10.59102734375,0.3709532916545868,0.27206242084503174,0.4652039110660553
1788861993415033300,10.601033447265625,0.20285792648792267,0.3895243704319,0.2478998601436615
1788861993425040400,10.611040283203126,0.09337297081947327,0.19591869413852692,0.10525989532470703
1788861993435046400,10.62104638671875,0.0369429811835289,-0.2815852761268616,0.046198707073926926
1788861993445052400,10.631052490234374,-0.05034717917442322,-0.3969595432281494,-0.03014160320162773
1788861993455059500,10.6410595703125,-0.1609393209218979,-0.24364428222179413,-0.1634301096200943
1788861993465065500,10.6510654296875,-0.22249749302864075,-0.27249857783317566,-0.3433239758014679
1788861993475072300,10.661072265625,-0.3099500834941864,-0.20986101031303406,-0.5637388825416565
1788861993485078300,10.671078369140625,-0.4219629168510437,-0.17732171714305878,-0.7197237014770508
1788861993495084500,10.68108447265625,-0.5015848278999329,-0.32727164030075073,-0.8020263910293579
1788861993505091300,10.69109130859375,-0.5490037202835083,-0.5892813801765442,-0.8411948680877686
1788861993515097300,10.701097412109375,-0.6103748083114624,-0.5880562663078308,-0.9251452684402466
1788861993525103400,10.711103271484374,-0.6632515788078308,-0.45350801944732666,-1.035084843635559
1788861993535110400,10.7211103515625,-0.7021963596343994,-0.536287784576416,-1.0887432098388672
1788861993545116400,10.731116455078125,-0.7462224364280701,-0.5813891887664795,-1.1343528032302856
1788861993555123500,10.74112353515625,-0.758773922920227,-0.6028607487678528,-1.1485668420791626
1788861993565129500,10.75112939453125,-0.7169854640960693,-0.7853431701660156,-1.097788691520691
1788861993575135500,10.761135498046874,-0.6482164263725281,-0.9730076193809509,-1.0310468673706055
1788861993585142300,10.771142333984375,-0.5981119871139526,-0.8183178901672363,-1.034135103225708
1788861993595148500,10.7811484375,-0.6191582083702087,-0.4791260361671448,-1.0766793489456177
1788861993605154600,10.791154541015626,-0.7026605606079102,-0.40041816234588623,-1.1098111867904663
1788861993615161300,10.801161376953125,-0.7639424800872803,-0.519599974155426,-1.118104100227356
1788861993625167400,10.81116748046875,-0.7914420366287231,-0.5333861112594604,-1.141181468963623
1788861993635173600,10.821173583984375,-0.8257030844688416,-0.4466301500797272,-1.1641908884048462
1788861993645180400,10.831180419921875,-0.8776575922966003,-0.6101216077804565,-1.092038631439209
1788861993655186400,10.8411865234375,-0.9379156827926636,-0.8560642600059509,-1.0148845911026
1788861993665193500,10.851193359375,-0.9888424873352051,-0.7820315957069397,-1.0499916076660156
1788861993675199500,10.861199462890625,-1.0574990510940552,-0.7419193387031555,-1.1416136026382446
1788861993685205500,10.87120556640625,-1.138282060623169,-0.9374968409538269,-1.2165861129760742
1788861993695212300,10.88121240234375,-1.1622209548950195,-1.084821105003357,-1.3015296459197998
1788861993705218600,10.891218505859374,-1.1239439249038696,-0.9609175324440002,-1.3898824453353882
1788861993715224600,10.901224609375,-1.0486558675765991,-0.9590337872505188,-1.3956279754638672
1788861993725231400,10.9112314453125,-0.9231076240539551,-1.2514525651931763,-1.3006428480148315
1788861993735237400,10.9212373046875,-0.7631659507751465,-1.3716413974761963,-1.2894856929779053
1788861993745244400,10.931244384765625,-0.607569694519043,-1.3989681005477905,-1.4045848846435547
1788861993755250400,10.94125048828125,-0.5268047451972961,-1.2943041324615479,-1.5285218954086304
1788861993765256400,10.95125634765625,-0.5275791883468628,-1.1351579427719116,-1.546177864074707
1788861993775263500,10.961263427734375,-0.5247461199760437,-1.1550596952438354,-1.4960116147994995
1788861993785269500,10.97126953125,-0.4749050736427307,-1.3819046020507812,-1.4637082815170288
1788861993795275500,10.981275634765625,-0.43369972705841064,-1.6501389741897583,-1.5130597352981567
1788861993805282300,10.9912822265625,-0.45427876710891724,-1.8388439416885376,-1.5745744705200195
1788861993815288600,11.00128857421875,-0.4917115569114685,-2.017092704772949,-1.5971533060073853
1788861993825295400,11.01129541015625,-0.5196068286895752,-2.123279333114624,-1.6080312728881836
1788861993835301400,11.02130126953125,-0.5374796390533447,-2.0435755252838135,-1.6160770654678345
1788861993845307400,11.031307373046875,-0.5356122255325317,-1.894110918045044,-1.6377873420715332
1788861993855314400,11.041314453125,-0.5032888054847717,-1.9084978103637695,-1.6612623929977417
1788861993865320400,11.051320556640626,-0.4405175447463989,-1.928349256515503,-1.6748970746994019
1788861993875326500,11.061326416015625,-0.3873961567878723,-1.8307644128799438,-1.696245789527893
1788861993885333500,11.07133349609375,-0.4073632061481476,-1.813938856124878,-1.656678318977356
1788861993895339500,11.081339599609375,-0.46180498600006104,-1.7927449941635132,-1.5644317865371704
1788861993905345500,11.091345458984375,-0.5295150876045227,-1.5161203145980835,-1.4463480710983276
1788861993915352300,11.101352294921876,-0.5186176896095276,-1.2193007469177246,-1.252829670906067
1788861993925358600,11.111358642578125,-0.48013073205947876,-0.8596837520599365,-1.0760172605514526
1788861993935365400,11.121365478515624,-0.35230159759521484,-0.34892889857292175,-0.9678906798362732
1788861993945371400,11.131371337890625,-0.06395447999238968,0.17739616334438324,-0.9188195466995239
1788861993955377400,11.14137744140625,0.2058921605348587,0.23634757101535797,-0.8283216953277588
1788861993965384400,11.151384521484376,0.32813793420791626,0.12348545342683792,-0.5487105250358582
1788861993975390500,11.161390380859375,0.3005368709564209,0.3365219235420227,-0.11812908947467804
1788861993985396500,11.171396484375,0.12262415140867233,0.7716736197471619,0.25921472907066345
1788861993995403500,11.181403564453126,0.025707373395562172,1.1124612092971802,0.490765243768692
1788861994005409500,11.191409423828125,0.009101232513785362,1.2227275371551514,0.559395432472229
1788861994015416300,11.201416259765624,0.09410545229911804,0.9908488392829895,0.5642527341842651
1788861994025422300,11.21142236328125,0.13440386950969696,0.7489994764328003,0.6439454555511475
1788861994035428600,11.2214287109375,0.13005651533603668,0.8541498780250549,0.8243442177772522
1788861994045435400,11.231435302734376,0.17328228056430817,0.8532260656356812,1.0037813186645508
1788861994055441400,11.24144140625,0.2747005820274353,0.9813195466995239,1.1257081031799316
1788861994065447400,11.251447509765624,0.40199941396713257,1.12276029586792,1.173323631286621
1788861994075454500,11.261454345703125,0.583161473274231,1.0587328672409058,1.1476666927337646
1788861994085460500,11.27146044921875,0.7482108473777771,1.236445665359497,1.2006162405014038
1788861994095467300,11.28146728515625,0.8320460915565491,1.3177138566970825,1.3588066101074219
1788861994105473500,11.2914736328125,0.8391841650009155,1.2445131540298462,1.5657227039337158
1788861994115479600,11.3014794921875,0.8464301228523254,1.4557188749313354,1.7102458477020264
1788861994125486300,11.311486328125,0.88352370262146,1.5700690746307373,1.6913973093032837
1788861994135492600,11.32149267578125,0.9216474294662476,1.5445584058761597,1.6119111776351929
1788861994145498600,11.33149853515625,0.943959653377533,1.4485914707183838,1.6171141862869263
1788861994155505400,11.34150537109375,0.9905534386634827,1.3922666311264038,1.6640576124191284
1788861994165511400,11.351511474609374,1.0628361701965332,1.5168322324752808,1.6746439933776855
1788861994175518500,11.3615185546875,1.1489589214324951,1.599763035774231,1.7495871782302856
1788861994185524500,11.3715244140625,1.1984587907791138,1.512129306793213,1.8598891496658325
1788861994195530500,11.381530517578126,1.1896812915802002,1.6336383819580078,1.8418906927108765
1788861994205537500,11.39153759765625,1.1662909984588623,1.8218905925750732,1.7135846614837646
1788861994215543600,11.40154345703125,1.151628851890564,1.6464931964874268,1.7269660234451294
1788861994225549600,11.411549560546876,1.1850826740264893,1.2982475757598877,1.9271388053894043
1788861994235556600,11.421556640625,1.2540838718414307,1.2214897871017456,2.1702311038970947
1788861994245562600,11.431562744140624,1.2630542516708374,1.386198878288269,2.371613025665283
1788861994255569400,11.4415693359375,1.1769102811813354,1.372012972831726,2.54154634475708
1788861994265575700,11.45157568359375,1.110891580581665,1.1662795543670654,2.616457223892212
1788861994275581700,11.461581787109376,1.056262493133545,1.2191295623779297,2.52683162689209
1788861994285588500,11.47158837890625,0.8941085338592529,1.5104343891143799,2.2723000049591064
1788861994295594500,11.481594482421874,0.7405778765678406,1.4221127033233643,1.940308690071106
1788861994305600800,11.491600830078125,0.80428546667099,1.1122808456420898,1.6328986883163452
1788861994315607600,11.501607666015625,0.967057466506958,0.9951514601707458,1.339370608329773
1788861994325613600,11.511613525390626,1.0847251415252686,0.9200567007064819,1.1745400428771973
1788861994335620600,11.52162060546875,1.1059246063232422,0.7204839587211609,1.164286732673645
1788861994345626600,11.531626708984374,1.0122162103652954,0.5526918172836304,1.1291364431381226
1788861994355632600,11.541632568359375,0.8299353122711182,0.4821631610393524,0.9911581873893738
1788861994365639400,11.551639404296875,0.5882568955421448,0.47621551156044006,0.766983687877655
1788861994375645700,11.561645751953124,0.3574301600456238,0.42146018147468567,0.5292733907699585
1788861994385651700,11.571651611328125,0.20467254519462585,0.2084435075521469,0.3715437054634094
1788861994395658500,11.581658447265625,0.14281858503818512,-0.06275574862957001,0.2826150357723236
1788861994405664500,11.59166455078125,0.11650016158819199,-0.3201851546764374,0.23635247349739075
1788861994415671600,11.601671630859375,0.08729927986860275,-0.5411134958267212,0.19444122910499573
1788861994425677600,11.611677490234374,0.02011011727154255,-0.5612539052963257,0.12898951768875122
1788861994435683600,11.62168359375,-0.09505226463079453,-0.3455035388469696,0.007921242155134678
1788861994445690600,11.631690673828125,-0.21461060643196106,0.025716055184602737,-0.16355198621749878
1788861994455696600,11.641696533203126,-0.2744970917701721,0.004209726583212614,-0.2820923626422882
1788861994465702700,11.65170263671875,-0.3090246915817261,-0.08935830742120743,-0.37690383195877075
1788861994475709400,11.66170947265625,-0.37335073947906494,-0.2371499240398407,-0.43881210684776306
1788861994485715700,11.6717158203125,-0.4592142701148987,-0.5249377489089966,-0.47992172837257385
1788861994495722500,11.681722412109375,-0.5909103751182556,-0.5590301752090454,-0.6580914855003357
1788861994505728500,11.691728515625,-0.7280714511871338,-0.5490872263908386,-0.9001675248146057
1788861994515734500,11.701734619140625,-0.8710455894470215,-0.16168661415576935,-1.163801908493042
1788861994525741600,11.711741455078124,-0.9370341897010803,0.08671414852142334,-1.3595333099365234
1788861994535747600,11.72174755859375,-0.9235967993736267,-0.07322803139686584,-1.482607126235962
1788861994545753600,11.731753662109375,-0.8218512535095215,-0.36186835169792175,-1.5523241758346558
1788861994555760600,11.7417607421875,-0.6747885942459106,-0.8074631094932556,-1.4473254680633545
1788861994565766700,11.7517666015625,-0.6004062294960022,-1.0342257022857666,-1.2613755464553833
1788861994575772400,11.7617724609375,-0.5802674889564514,-0.9846030473709106,-1.1231677532196045
1788861994585779500,11.771779541015626,-0.6231918334960938,-0.5710447430610657,-1.079551339149475
1788861994595785700,11.78178564453125,-0.7087599039077759,-0.3357933461666107,-0.9352946281433105
1788861994605792500,11.79179248046875,-0.7764925956726074,-0.4496522545814514,-0.7856265902519226
1788861994615798500,11.801798583984375,-0.7909194827079773,-0.622647762298584,-0.8206329941749573
1788861994625804500,11.811804443359375,-0.8204067945480347,-0.8852729797363281,-0.9701161980628967
1788861994635811600,11.8218115234375,-0.9381523132324219,-1.0511565208435059,-1.107683777809143
1788861994645817600,11.831817626953125,-1.0710989236831665,-1.092261791229248,-1.1765155792236328
1788861994655823400,11.8418232421875,-1.115092396736145,-1.040703296661377,-1.1705808639526367
1788861994665830700,11.85183056640625,-1.0744984149932861,-0.8852802515029907,-1.1116284132003784
1788861994675836700,11.861836669921875,-1.015195608139038,-0.9003963470458984,-1.1117392778396606
1788861994685843500,11.871843505859376,-0.9669283032417297,-1.11513090133667,-1.1733794212341309
1788861994695849500,11.881849365234375,-0.9252718687057495,-1.352280616760254,-1.2004777193069458
1788861994705855500,11.89185546875,-0.8805885314941406,-1.4637349843978882,-1.2235018014907837
1788861994715862500,11.901862548828126,-0.8282550573348999,-1.3902885913848877,-1.2792514562606812
1788861994725868500,11.91186865234375,-0.7717022895812988,-1.2805157899856567,-1.3010090589523315
1788861994735874300,11.921874267578126,-0.6797857284545898,-1.2309696674346924,-1.2980118989944458
1788861994745881600,11.931881591796875,-0.5804240107536316,-1.2377409934997559,-1.353300929069519
1788861994755887600,11.9418876953125,-0.5271137952804565,-1.3343898057937622,-1.4776384830474854
1788861994765894400,11.951894287109376,-0.5300110578536987,-1.5437121391296387,-1.5681109428405762
1788861994775900700,11.961900634765625,-0.5472263097763062,-1.819177269935608,-1.5862902402877808
1788861994785906400,11.971906494140624,-0.5711119174957275,-1.9816114902496338,-1.5729299783706665
1788861994795913500,11.98191357421875,-0.5821660161018372,-1.9295109510421753,-1.557849407196045
1788861994805919700,11.991919677734375,-0.6116852760314941,-1.8486374616622925,-1.5171000957489014
1788861994815925500,12.001925537109376,-0.6256483793258667,-1.6256650686264038,-1.5059961080551147
1788861994825932500,12.0119326171875,-0.5745548605918884,-1.421082854270935,-1.5330692529678345
1788861994835938600,12.0219384765625,-0.5095406174659729,-1.5550718307495117,-1.5581583976745605
1788861994845945600,12.031945556640625,-0.45587265491485596,-1.7455663681030273,-1.5884443521499634
1788861994855951600,12.04195166015625,-0.36153820157051086,-1.7835859060287476,-1.5167548656463623
1788861994865957400,12.051957275390626,-0.280831903219223,-1.653753399848938,-1.3554093837738037
1788861994875964700,12.061964599609375,-0.277028352022171,-1.3528145551681519,-1.1909894943237305
1788861994885970700,12.071970703125,-0.34679171442985535,-1.0699114799499512,-1.0897139310836792
1788861994895976400,12.0819765625,-0.4340880811214447,-0.8001205325126648,-1.0415184497833252
1788861994905983500,12.0919833984375,-0.4866543412208557,-0.6283215880393982,-0.9977818131446838
1788861994915989800,12.10198974609375,-0.5288707613945007,-0.4982365667819977,-0.9095693826675415
1788861994925996500,12.11199658203125,-0.48860856890678406,-0.37534821033477783,-0.7524296045303345
1788861994936002600,12.12200244140625,-0.33665740489959717,-0.3108731210231781,-0.5998176336288452
1788861994946008300,12.13200830078125,-0.1966206431388855,0.03524327278137207,-0.5030167698860168
1788861994956015600,12.142015625,-0.09639755636453629,0.22823458909988403,-0.36801379919052124
1788861994966021600,12.152021728515624,0.025980284437537193,0.4566059708595276,-0.17674237489700317
1788861994976027400,12.16202734375,0.14659875631332397,0.47583314776420593,0.03639530390501022
1788861994986034700,12.17203466796875,0.1539168506860733,0.41263580322265625,0.2322303205728531
1788861994996040700,12.182040771484376,0.08896053582429886,0.52449631690979,0.433263897895813
1788861995006047500,12.192047607421875,0.12249133735895157,0.6366329789161682,0.6516167521476746
1788861995016053500,12.202053466796874,0.22640962898731232,0.7667893767356873,0.7698811292648315
1788861995026059500,12.2120595703125,0.3000050187110901,1.0250188112258911,0.7736907601356506
1788861995036066600,12.222066650390625,0.3454901874065399,1.1336281299591064,0.8175910115242004
1788861995046072600,12.232072509765626,0.42105257511138916,1.1684324741363525,0.8821351528167725
1788861995056078300,12.242078369140625,0.48534488677978516,1.3319536447525024,0.9759545922279358
1788861995066085600,12.252085693359374,0.5543705821037292,1.5004111528396606,1.124792218208313
1788861995076091600,12.262091552734375,0.6366982460021973,1.5149714946746826,1.3586539030075073
1788861995086098400,12.272098388671875,0.7276742458343506,1.4998838901519775,1.5784003734588623
1788861995096104700,12.282104736328124,0.810368537902832,1.4975355863571167,1.705370545387268
1788861995106110500,12.2921103515625,0.8657969236373901,1.547062635421753,1.7864688634872437
1788861995116117500,12.302117431640625,0.8930040597915649,1.6127256155014038,1.8132752180099487
1788861995126123500,12.31212353515625,0.9172393679618835,1.5889161825180054,1.7812124490737915
1788861995136129500,12.322129638671875,0.9393478035926819,1.549188256263733,1.7572733163833618
1788861995146136600,12.332136474609374,0.9359850287437439,1.5246468782424927,1.7845672369003296
1788861995156142600,12.342142578125,0.9372944831848145,1.671170949935913,1.8517893552780151
1788861995166148400,12.3521484375,0.9834185838699341,1.7743653059005737,1.9668200016021729
1788861995176155600,12.36215576171875,1.0568058490753174,1.822940468788147,2.137830972671509
1788861995186161400,12.372161376953125,1.126287817955017,1.8404306173324585,2.3120107650756836
1788861995196168400,12.38216845703125,1.1905829906463623,1.7034159898757935,2.4495036602020264
1788861995206174700,12.3921748046875,1.2439463138580322,1.6303356885910034,2.54586124420166
1788861995216180500,12.402180419921875,1.2597506046295166,1.518294095993042,2.5645599365234375
1788861995226187500,12.4121875,1.2549885511398315,1.289127230644226,2.5157597064971924
1788861995236193500,12.422193603515625,1.21967613697052,1.0403895378112793,2.4248275756835938
1788861995246199600,12.432199462890624,1.10027015209198,1.1019275188446045,2.2459256649017334
1788861995256206600,12.44220654296875,0.8961091041564941,1.416672945022583,1.9655858278274536
1788861995266212400,12.45221240234375,0.7670965194702148,1.4980827569961548,1.7556648254394531
1788861995276219600,12.4622197265625,0.8493125438690186,1.2291796207427979,1.7650209665298462
1788861995286225700,12.4722255859375,1.100032091140747,0.8694190382957458,1.8740462064743042
1788861995296231400,12.4822314453125,1.3025953769683838,0.7580832242965698,1.87776517868042
1788861995306238500,12.492238525390626,1.2795454263687134,0.9417396187782288,1.7255620956420898
1788861995316244500,12.502244384765625,1.068173885345459,1.1897001266479492,1.4822200536727905
1788861995326251500,12.51225146484375,0.8073156476020813,1.1591483354568481,1.2455379962921143
1788861995336257500,12.522257568359375,0.6132057905197144,0.9773168563842773,1.055005431175232
1788861995346263600,12.532263671875,0.5348047614097595,0.7187287211418152,0.9443122148513794
