time,seconds_elapsed,z,y,x
1788862570727331000,0.0663310546875,0.2941156327992678,0.16222908204644917,1.0883057435121386
1788862570737373400,0.07637353515625,-1.082609943023324,-0.06223550689965486,1.579780443123728
1788862570747415300,0.086415283203125,-2.161633259731531,-0.35052199515402316,1.5662681967303156
1788862570757457200,0.09645703125,-2.8225626817941665,-0.9180369281992315,1.1958766951106488
1788862570767499300,0.106499267578125,-2.8560592932045457,-1.5994912518963216,0.6935064344100653
1788862570777541000,0.116541015625,-1.816133476653695,-1.5071470224589107,0.3343701209720224
1788862570787583200,0.126583251953125,-3.8298616555064915,-1.137453878366947,-0.6421955685634165
1788862570797625300,0.136625244140625,-3.3232395825803276,-1.0694570314615963,-1.24813660531044
1788862570807667200,0.146667236328125,-1.611057478788495,-1.1432120035022497,-1.4409133858337997
1788862570817709300,0.156709228515625,-0.42416824612319465,-1.1008189689308405,-1.27737059084028
1788862570827751200,0.166751220703125,0.8101315570145845,-0.9708265613615512,-0.5808953697524964
1788862570837793300,0.176793212890625,1.6703484566688536,-1.1087807415902613,0.15978592667803168
1788862570847835400,0.18683544921875,0.6805319481551647,-1.3787214258149265,0.6908344387218356
1788862570857877200,0.196877197265625,-1.9657132127463817,-1.308480599375069,0.6170701873961836
1788862570867919000,0.206919189453125,-4.9766146926164625,-0.8258581184566021,-0.14334259526878596
1788862570877961200,0.216961181640625,-7.07585199418962,-0.19689532175809143,-0.9033847910556941
1788862570888003300,0.22700341796875,-5.607020381599664,-0.38061347429603337,-1.0174398439764976
1788862570898045200,0.237045166015625,-2.7893068934023377,-1.4737243530675768,-0.4164807968931272
1788862570908087300,0.24708740234375,-1.9698235706746576,-2.462483461482823,-0.05403628135570324
1788862570918129200,0.257129150390625,-2.540656542226672,-2.8741280338585375,0.05346987051144242
1788862570928171300,0.267171142578125,-3.5453567316174506,-2.829219509334862,0.7736934122595935
1788862570938213400,0.27721337890625,-3.9630338621556755,-3.147027567888796,0.42276122886948286
1788862570948255200,0.287255126953125,-2.817180988755822,-3.634642742528021,-1.1905023085959254
1788862570958297300,0.29729736328125,-1.5815782863259316,-3.8880455489277836,-0.01178016190379858
1788862570968339200,0.307339111328125,-1.8685908091217278,-3.8651901585191486,1.8302736456871032
1788862570978381000,0.317381103515625,-2.8444273075997826,-2.828081737476587,2.902882126916945
1788862570988423400,0.32742333984375,-3.2579186768859625,-1.034599068570137,3.1609377275586126
1788862570998465300,0.33746533203125,-2.919344309157133,-1.0940919987633824,2.0821192857727406
1788862571008507100,0.347507080078125,-3.385767642685771,-3.1124870003834366,0.8840551636204123
1788862571018549200,0.35754931640625,-4.030195427280664,-5.376408375939726,-1.0528709305807948
1788862571028591000,0.367591064453125,-3.90567706720829,-6.276532923090458,-1.9383792156189679
1788862571038633500,0.377633544921875,-3.16760127710104,-5.976688391250372,-1.561179641419649
1788862571048675300,0.38767529296875,-2.9563901374816894,-5.66185905624628,-1.3071142794579267
1788862571058717200,0.39771728515625,-3.4054619387149807,-6.064267305982113,-1.3436071500748394
1788862571068759300,0.40775927734375,-4.12701680213213,-6.698609165370464,-1.2785276519209146
1788862571078801200,0.41780126953125,-3.6238773106247186,-6.795162829196452,-0.9380576797038316
1788862571088843300,0.42784326171875,-2.3603663183107972,-6.565555616664886,-0.36978023785352704
1788862571098885400,0.437885498046875,-1.2747250447675584,-6.394528603395819,0.16423662247657775
1788862571108927200,0.44792724609375,0.23696195920854807,-6.346942676356434,0.7463987972944974
1788862571118969000,0.457968994140625,-0.06714286042451859,-5.974988601595163,1.8345757267951963
1788862571129011200,0.46801123046875,-0.09775734052732586,-5.639733733677864,2.074127410236001
1788862571139053300,0.47805322265625,0.3599799977205694,-5.435134121152759,1.983273419356346
1788862571149095400,0.488095458984375,1.0861153207957743,-4.9449447121113534,2.0386615445792673
1788862571159137300,0.49813720703125,1.2525672812342643,-4.021499495127797,2.579167182406783
1788862571169179100,0.50817919921875,1.5934323902487755,-2.618056592771411,3.3679461547911167
1788862571179221200,0.51822119140625,2.476963529995084,-1.6252473321825265,4.453364140972495
1788862571189263400,0.528263427734375,3.157687785851955,-0.953291708388552,5.610402425253391
1788862571199305200,0.53830517578125,3.7862721046268937,-0.04647460479661822,6.575735649895668
1788862571209347300,0.548347412109375,4.554719652122259,0.935882016165182,7.3578902357041835
1788862571219389200,0.55838916015625,4.911895259946585,1.8410921229518948,7.931530665892362
1788862571229431000,0.56843115234375,4.64222374805212,2.6877096824511884,8.361742868354916
1788862571239473400,0.578473388671875,3.8615795668065545,3.506443940377235,8.61976018281281
1788862571249515300,0.588515380859375,3.0555390784978864,4.097652760481834,8.659573137763141
1788862571259557000,0.59855712890625,2.444270636183023,4.625995082306861,8.744740899699925
1788862571269599200,0.60859912109375,1.9547054965198039,5.016980605274439,8.835320749813318
1788862571279641000,0.61864111328125,1.511992124402523,5.2435488885015245,8.755767320626974
1788862571289683500,0.628683349609375,1.5446318267226218,5.464350278764963,8.582520293220878
1788862571299725300,0.638725341796875,2.0835504876196382,5.356903465002775,8.495035486513375
1788862571309767200,0.64876708984375,2.2169956659913064,5.213739441171288,8.500794196170569
1788862571319809300,0.658809326171875,1.6968576934099195,5.293122774487734,8.489538642662763
1788862571329851100,0.66885107421875,1.2891478301346302,5.111187998235225,8.044120687761902
1788862571339893200,0.678893310546875,1.0526105260789393,4.572184581664204,7.230936172917485
1788862571349935400,0.688935302734375,0.7457517315626144,4.019025506229698,5.921658577945828
1788862571359977200,0.698977294921875,0.271888018900156,3.548977844724059,4.623652318572998
1788862571370019000,0.70901904296875,-0.4329799136102199,3.0558947600677606,3.7331127613693473
1788862571380061200,0.719061279296875,-0.8954816897809504,2.792661172266304,2.8617127889215945
1788862571390103300,0.729103271484375,-1.2054887191951273,2.604679224804044,1.573578519743681
1788862571400145400,0.7391455078125,-1.9133850596159696,2.1082123429283497,0.06677461163401603
1788862571410187300,0.749187255859375,-4.50467873314619,1.1451118457742036,-2.340278346788883
1788862571420229000,0.75922900390625,-7.211079379802942,-1.4667302563965319,-4.503649390098452
1788862571430271200,0.769271240234375,-10.187712679368257,-0.006579816781729459,-4.837631753861904
1788862571440313300,0.779313232421875,-7.149609888839721,0.6005205460682511,-3.3756109903305767
1788862571450355200,0.789355224609375,-1.631964073216915,-0.3510980414763093,-1.1079589038133622
1788862571460397300,0.799397216796875,0.6872936973750591,-0.2991764233201742,-0.21401918277740478
1788862571470439200,0.809439208984375,-0.5977449438750744,0.5371040126904845,-0.4840583589404821
1788862571480481000,0.81948095703125,-1.1437514441411942,0.5770154595792293,-0.42488896161317824
1788862571490523400,0.8295234375,-0.5838940766444429,0.17147417251467703,-0.3906780644536018
1788862571500565200,0.839565185546875,-0.768005648946762,0.2015498695656657,-0.9310504312902689
1788862571510607400,0.849607421875,-1.4005226309955119,0.2848874934658408,-1.4810510426938532
1788862571520649200,0.859649169921875,-1.5112427673399447,0.060652913883328434,-1.7119330974668263
1788862571530690300,0.869690185546875,-1.1276081916570664,-0.32162937040776013,-1.9912848763763904
1788862571540732200,0.879732177734375,-0.559223782300949,-0.8105553353846072,-2.3945137948453423
1788862571550774300,0.889774169921875,0.45772740137577056,-1.263081076464057,-2.61095231372416
1788862571560815600,0.899815673828125,1.967536336520314,-1.56653035479784,-2.5351404091536995
1788862571570857700,0.909857666015625,2.821259197980165,-1.3359592656701802,-1.9246628249555826
1788862571580899800,0.91989990234375,3.07714768371582,-0.825459182266891,-1.2983680784225462
1788862571590941700,0.929941650390625,3.1544647321522232,-0.37892449829578395,-0.6771744544208049
1788862571600983600,0.939983642578125,2.841020714026689,-0.017584172007441518,-0.09544833293259143
1788862571611025700,0.950025634765625,2.1813374926328657,0.33408494735509153,0.2542062317371368
1788862571621067800,0.96006787109375,1.9591817651510237,0.4832002808064222,0.4442395587712526
1788862571631109600,0.970109619140625,1.7912872046887873,0.6085261578693986,0.5074918414980173
1788862571641151700,0.98015185546875,1.7176655036389827,0.6811591401427984,0.7047358305633068
1788862571651193600,0.990193603515625,0.6301455767422914,1.1686544877946377,1.7355507044196128
1788862571661235500,1.0002353515625,-4.074080161714553,3.3229677799016235,4.504540201458335
1788862571671277800,1.01027783203125,-4.992655142313241,3.3957965770080683,4.717470419955253
1788862571681319700,1.020319580078125,-1.9525041870832442,1.5657614162519573,3.2018022373884913
1788862571691361800,1.03036181640625,-1.0102198295950888,-0.014079671017825602,0.5846428857177496
1788862571701403600,1.040403564453125,-1.233492578408122,-0.10183569588214159,-0.5051578455924988
1788862571711445500,1.050445556640625,-0.520706127858162,-0.4972150698944926,-0.17044073781371116
1788862571721488000,1.06048779296875,-0.05490004944503307,-0.285607039912045,0.2973515459805727
1788862571731529700,1.07052978515625,-0.1882102215264924,-0.4832102176785469,-0.11553542767167091
1788862571741571600,1.080571533203125,-0.2574667131041177,0.10007277786284685,0.056097150275111196
1788862571751613700,1.09061376953125,-0.3046171530693769,0.1893131960660219,0.034056583380699154
1788862571761655600,1.100655517578125,-0.20910160011947154,-0.26927549831420183,-0.3852180454820394
1788862571771697700,1.11069775390625,0.30909985144138336,-0.2757891179919243,-0.26173896532952784
1788862571781739800,1.12073974609375,0.7230114919662475,0.22544687798172233,-0.09577040449380875
1788862571791781600,1.13078173828125,0.5944401301760226,0.24887363853752612,-0.2847282112509012
1788862571801823700,1.14082373046875,0.4652713139493018,0.14188918159008027,-0.28888416188657284
1788862571811865600,1.150865478515625,0.5498754871865734,0.3032806437686085,-0.11824117949903011
1788862571821907700,1.16090771484375,0.5857950514275581,0.2393918167039752,-0.16995675368905067
1788862571831949800,1.17094970703125,0.4009061015445739,0.1824509090811014,-0.23389234250485896
1788862571841991700,1.18099169921875,0.057486010817624625,0.10058744938671588,-0.21172961053550243
1788862571852033500,1.191033447265625,-0.3663578621894121,-0.02320434997677803,-0.27387539332509037
1788862571862075600,1.20107568359375,-0.36413375639915463,-0.18134470140486955,-0.21809037773907183
1788862571872117800,1.21111767578125,0.0342465895274654,-0.16135960573554037,0.101432083517313
1788862571882159600,1.22115966796875,0.36782033595740793,-0.04398059602379799,0.6235393103450536
1788862571892201700,1.23120166015625,0.6021154505768791,0.3087020842954516,1.2604366994351148
1788862571902243600,1.24124365234375,0.8501087626159191,0.7438698633387685,1.8143045076608657
1788862571912285400,1.251285400390625,1.0102198295950888,0.7169517535358667,1.9968121153652667
1788862571922327800,1.261327880859375,1.1713538098812102,0.9995151879683136,2.1029688893169163
1788862571932369700,1.27136962890625,0.15286533363461494,0.6820841460332274,1.301357907888293
1788862571942411800,1.281411865234375,0.050473465174436564,0.312077113686502,0.6819780553102492
1788862571952453600,1.29145361328125,0.6925263373315333,0.47135552923381324,0.5517699591636658
1788862571962495500,1.30149560546875,0.7181330722749233,0.5049377731010317,1.0189677841961384
1788862571972537900,1.311537841796875,0.4680243024518713,0.5923553597912192,1.36919401127398
1788862571982579700,1.321579833984375,1.131639054608345,1.0743700840748847,1.9543980380058288
1788862571992621600,1.33162158203125,1.8508920708239078,1.10643812398687,2.153618880102038
1788862572002663700,1.34166357421875,1.5012404287636278,0.5704200068369507,1.6478461174815893
1788862572012705500,1.35170556640625,1.812632775056362,0.31379853065162894,1.317415893241763
1788862572022747600,1.36174755859375,2.2512018869757653,0.23867855386808512,0.8903583554178476
1788862572032789800,1.371789794921875,1.0176374123752117,0.08795373939350247,0.14675006562471388
1788862572042831600,1.38183154296875,-0.6389573172945529,0.30217955065891144,-0.6375146442055701
1788862572052873700,1.391873779296875,-0.8033796716015785,0.20268018876984714,-1.2091659464031457
1788862572062915600,1.40191552734375,-0.07364150172881781,-0.36068420046716926,-1.6314613843917847
1788862572072957700,1.411957763671875,0.690714319473505,-0.555472466943413,-2.0032856952935454
1788862572082999800,1.421999755859375,0.3398433647513389,-0.6556799771018326,-2.6098124960392712
1788862572093041700,1.432041748046875,1.100009552244097,-0.5524050421968102,-2.908333085799217
1788862572103083500,1.44208349609375,1.866242784690857,-1.0827432140141724,-4.1685920905798675
1788862572113125600,1.452125732421875,-1.627327645587921,-1.5701872698701917,-6.197460555419325
1788862572123167700,1.462167724609375,-0.24363588401451705,-1.724337821009755,-7.354137020650506
1788862572133209600,1.472209716796875,1.7303902529165147,-2.16342116606161,-7.905568541640043
1788862572143251700,1.482251708984375,-0.09116232617646455,-1.3644918249323963,-6.567177664908766
1788862572153293600,1.49229345703125,-5.26069700717926,-0.08836743476092815,-4.50283339754045
1788862572163335700,1.502335693359375,-5.2260827899158,-0.4135118275523185,-4.980226453372836
1788862572173377800,1.512377685546875,1.7959473054543136,-1.8228715527370571,-7.946814159741997
1788862572183418600,1.522418701171875,2.444201808730513,-1.9900050656989217,-1.812578999042511
1788862572193460700,1.532460693359375,-0.12872341054677963,-0.4714873389199376,3.28194428011775
1788862572203502600,1.542502685546875,-4.125167374873161,1.1646487592846155,1.9853858814656733
1788862572213544700,1.552544677734375,0.7073289157964289,-0.8706769188702106,-5.977383972299099
1788862572223586600,1.562586669921875,0.28913945182189343,-1.1298398962318896,-0.5846656820714473
1788862572233628700,1.572628662109375,-1.1651217836238443,2.9541631090819833,7.449789936244487
1788862572243670800,1.5826708984375,-0.4845080024041235,2.3766660034656524,7.59700820390284
1788862572253712600,1.592712646484375,-1.272074968650192,0.4964239195168018,6.922335503169894
1788862572263754500,1.60275439453125,6.058337915933132,-0.35900340777337547,10.269797088336944
1788862572273796600,1.612796630859375,0.997361370935291,1.2153782450467348,7.181480944874882
1788862572283838700,1.622838623046875,-3.9378772090673446,3.3954309585660694,4.676066980943084
1788862572293880600,1.632880615234375,-5.980951893913746,3.7442601783275604,5.143706704524159
1788862572303922700,1.642922607421875,-1.3641165618792175,4.003710155937076,2.8802450554341075
1788862572313964500,1.652964599609375,2.1293933703839776,-0.528768438282609,1.8541472732275723
1788862572324006700,1.663006591796875,1.526813261437416,-4.547711819186806,1.6366534000769257
1788862572334048800,1.673048828125,2.13608380793333,-6.3124856954813,-1.6600874671563506
1788862572344090600,1.683090576171875,4.376503604131937,-6.38436376773417,-2.9101392584383485
1788862572354132700,1.6931328125,5.930355679142475,-5.7007835379242895,-1.6990356219708918
1788862572364174600,1.703174560546875,6.102215636104345,-2.4872961234390734,0.018939970530569554
1788862572374216400,1.713216552734375,-0.7878758860647678,1.2017115387439727,-1.1070534794062374
1788862572384258800,1.7232587890625,-5.86234772632122,1.9596797778010366,-4.630692592473328
1788862572394300700,1.73330078125,-4.928382284367085,-1.1467302407562732,-8.049986949446797
1788862572404342500,1.743342529296875,-0.76031173344329,-0.7457803731352091,-2.7861457990229126
1788862572414384600,1.753384521484375,3.931956879107654,-0.9533125319808721,-0.20267069028913973
1788862572424426500,1.763426513671875,2.147883112929016,-1.4512725750237703,-0.6604255641937256
1788862572434468900,1.77346875,-1.6044266624718904,-1.0799275720715522,-0.8715250601321458
1788862572444510700,1.7835107421875,-1.1112664209261536,-0.5264549006432294,-1.132211886060238
1788862572454552600,1.793552490234375,2.0858105415061114,-0.029068273574113845,-0.3133472797527909
1788862572464594700,1.8035947265625,0.9572770516976714,1.0117010080635547,0.6808323924064635
1788862572474636500,1.813636474609375,0.1208402560815215,1.0248813921540976,0.0647092035368085
1788862572484678700,1.8236787109375,-0.15090689304322003,0.14889000026285648,-0.7990601279020308
1788862572494720800,1.833720703125,-1.495842953634262,-0.5165986925393342,-0.7565580799981951
1788862572504762600,1.8437626953125,0.015661679512262345,-1.100629583838582,0.38206425762623547
1788862572514804500,1.853804443359375,0.7462716637834906,-1.3937240568965672,0.5141150590300559
1788862572524846600,1.8638466796875,0.15804624340385198,-2.4461124646574257,-0.5931622922599316
1788862572534888700,1.873888671875,0.4383168907240033,-1.300444300174713,-0.5812640569344163
1788862572544930800,1.883930908203125,0.4998635385766625,2.710128142747283,0.21678134096711874
1788862572554973000,1.893972900390625,0.0008735679641366004,3.0363410415530203,1.2999927570149301
1788862572565014800,1.904014892578125,0.20280717615038155,2.9806232459843156,2.207228889736533
1788862572575057000,1.914056884765625,-0.011878946103155612,1.7269927194327115,1.1140765099108219
1788862572585098800,1.9240986328125,0.08853577706515789,3.0006466278374195,0.05342793106585741
1788862572595140600,1.934140625,0.5192132589519024,4.785497661998868,-0.1168470947921276
1788862572605183000,1.944182861328125,0.6249404093146324,6.712769208148122,0.3929448403418064
1788862572615223800,1.954223876953125,0.7039514021873474,6.729256817090511,0.9764861945584415
1788862572625266000,1.964265869140625,0.3552747426390648,4.950654906451702,0.8232873911857604
1788862572635307800,1.974307861328125,-1.2701111212313174,1.5732880123645065,-1.1580877933338283
1788862572645349600,1.984349609375,-0.9943582435965538,-1.72859957010746,-1.737670765313506
1788862572655391700,1.994391845703125,0.2687330620005727,-5.066391994175315,-1.5424804939076304
1788862572665433900,2.004433837890625,-0.20316694937348365,-3.6851726140648124,-0.25233430038541554
1788862572675475700,2.014475830078125,0.058419455742835996,-0.9083283118724822,-1.0073729157313704
1788862572685517800,2.024517822265625,1.378092188000679,1.9274843121170997,-1.2379670934736728
1788862572695559700,2.0345595703125,1.605288832259178,2.5644582735747097,-0.43818829590827224
1788862572705601800,2.044601806640625,0.31036621811538934,7.3821695214360945,-0.9620292146608233
1788862572715644000,2.054643798828125,-2.180143314412236,9.545906475448607,-4.1795773027136915
1788862572725685800,2.064685791015625,-0.17181056486219168,4.624774600601196,-4.305016577023268
1788862572735727900,2.074727783203125,1.558158540032804,2.836942504802346,-2.927534922136366
1788862572745769700,2.084769775390625,0.37786709819734093,1.3860036917775869,-1.340719319678843
1788862572755811600,2.0948115234375,0.08907850563973188,0.5409989743024111,2.223698963022232
1788862572765854000,2.10485400390625,-1.0026987864404917,-0.9080313747525215,3.4851071378380056
1788862572775895800,2.114895751953125,-3.60537310116291,-4.660809790578484,0.8791615463599562
1788862572785937700,2.124937744140625,-2.9559774650275705,-4.501096198484301,1.1052158887155354
1788862572795979800,2.134979736328125,1.3516738444134593,-0.7415174549937248,4.4839901653826235
1788862572806021600,2.145021728515625,0.2567550394371152,-0.8857131599605083,5.05685259693563
1788862572816064000,2.15506396484375,-1.5169392254158853,-1.8433529074907302,2.5094939267218113
1788862572826105900,2.16510595703125,0.9039692398801445,-2.8936469733208416,-0.3773888131611049
1788862572836147700,2.175147705078125,2.1711291100904346,0.5743886182069778,-2.1056188193038103
1788862572846189800,2.18518994140625,0.47411359577029943,4.381581930309534,-3.371795815956592
1788862572856231700,2.195231689453125,1.3758718816027045,4.793558803379535,-4.022007444649934
1788862572866273800,2.205273681640625,0.9753931386247277,1.37633686876595,-2.6858126166582106
1788862572876316000,2.21531591796875,0.05454086074382066,-1.6092214955329893,1.4340249414943158
1788862572886357800,2.225357666015625,-0.48936523317694663,-3.724523212200403,4.144805849061906
1788862572896399600,2.235399658203125,0.24604864424467085,-3.4080566313832996,4.1786902907460926
1788862572906441700,2.245441650390625,-0.4236950756534934,-1.7474930711477994,2.5117180325120687
1788862572916483800,2.25548388671875,-0.6739853029906749,-1.947591865122318,0.3260920489050448
1788862572926526000,2.26552587890625,-1.0976362472414969,-1.3244535367935895,-0.8892448412179946
1788862572936567800,2.27556787109375,0.021431787346303462,-1.4766162751168013,-1.3902192636460065
1788862572946609700,2.285609619140625,0.3389586908712983,-1.896183164924383,-2.465459846945107
1788862572956651800,2.29565185546875,-0.03237549842596054,-0.4835147535830736,-1.6352053932256996
1788862572966692600,2.305692626953125,-0.21497896772027014,0.7161889524698257,-1.0423702140282838
1788862572976735000,2.31573486328125,-0.3568324934750795,-0.28645313534736633,-3.8914100569248196
1788862572986776800,2.32577685546875,-1.2591399376228452,-0.38229309794604777,-3.9055753603994843
1788862572996818700,2.335818603515625,-1.0986039232298732,-2.9743197619259356,1.1038006150901316
1788862573006860800,2.34586083984375,0.5369625583931803,-4.571579601508379,4.306484603749215
1788862573016902700,2.355902587890625,0.838959884352982,-4.79724362937212,2.5200460081353784
1788862573026944800,2.36594482421875,0.4791270400181412,-4.735198384347558,-1.7914023555010556
1788862573036987000,2.37598681640625,-0.2317944934427738,-3.722958447101712,-4.830294542841613
1788862573047028700,2.38602880859375,0.48459641133993864,1.351316409277916,-1.8455121313512324
1788862573057070800,2.39607080078125,0.0013400164321064948,-0.8677104702800512,-0.8746268255397677
1788862573067112700,2.40611279296875,-0.7645885339796543,-0.8852116401791572,1.0029854213621467
1788862573077154800,2.41615478515625,-1.0766153787836432,0.24017595281898974,1.7530816849350928
1788862573087197000,2.426197021484375,-0.49489159538298844,-0.35812604041695595,0.7661757301058619
1788862573097238800,2.43623876953125,0.24261516266465186,-1.4831874702006578,-1.1043979233961552
1788862573107280600,2.44628076171875,0.22338439249396322,-2.0743805082142353,-3.527456917789578
1788862573117322800,2.45632275390625,-0.67709028326869,-1.2548895867019891,-3.4195135526821017
1788862573127364900,2.46636474609375,-0.6433744761496782,-0.7407926478505135,-2.3347595833674073
1788862573137406700,2.47640673828125,-1.2938672598719596,-0.5436036038428544,-1.3479276436224579
1788862573147448800,2.48644873046875,-1.7463719581633805,-1.0847224051326512,0.4397238349124789
1788862573157490700,2.49649072265625,0.015140870508551597,-0.7099456741660833,0.7465998728245496
1788862573167532800,2.50653271484375,1.4875614475011825,-1.713052456885576,0.9493458203069866
1788862573177575000,2.516574951171875,2.0534122467264533,-1.5090110627651214,2.0167013494446873
1788862573187616800,2.52661669921875,1.8737997759416698,-0.9538497075974941,2.0523257666639982
1788862573197659000,2.536658935546875,1.390031632119417,-0.3031453269511461,1.286032766854018
1788862573207700700,2.54670068359375,1.0722475389629602,0.2587584882140159,0.6729295103274285
1788862573217742600,2.55674267578125,0.9853826177194714,0.007731471034884452,0.3619942601524293
1788862573227785000,2.566784912109375,-0.23199732253849506,-0.6215507668763399,-0.4835878188192844
1788862573237826800,2.576826904296875,-1.2599807723611594,-0.3116869453251362,-0.4177741611719131
1788862573247868700,2.58686865234375,-1.9854104313850403,-0.4691279163122177,-0.4030884870849549
1788862573257910800,2.596910888671875,-0.6356926894754171,-0.28916940856873985,0.1183633445739746
1788862573267952600,2.60695263671875,0.1225771628767252,0.8318383619099855,1.3887712567947803
1788862573277994800,2.616994873046875,-0.1634896035015583,2.240306983473897,2.044950269459933
1788862573288035800,2.627035888671875,0.11325462325811385,1.4568991827338933,1.76253311163038
1788862573298077700,2.63707763671875,0.41979280751794573,0.6337871481150389,1.529553938447684
1788862573308119800,2.647119873046875,0.478433797056973,0.22517829017341134,1.5474826861090958
1788862573318161700,2.65716162109375,0.256098913615942,-0.45973932572007176,1.1948127191409468
1788862573328203800,2.667203857421875,-0.11132774684876202,-0.642117754086852,0.8683680574059486
1788862573338246000,2.677245849609375,-0.19959990454167126,-0.9792641348391771,0.7095084517925977
1788862573348287700,2.687287841796875,-0.13445493993610144,-0.9277326850444078,0.5106920988440513
1788862573358329900,2.697329833984375,-0.18727555275857447,-0.9473977549791336,0.25556086121648547
1788862573368371700,2.707371826171875,0.1789236117377877,-0.596328062814474,0.12561609218120573
1788862573378413600,2.71741357421875,0.29488340230137106,-0.31630466825366016,-0.0058341129809617994
1788862573388456000,2.7274560546875,0.07463233939707278,-0.3824439045935869,0.07217968554794787
1788862573398497800,2.737497802734375,0.2870294739305973,-0.5134411052912473,0.13443068227767943
1788862573408539600,2.74753955078125,0.12389935139119625,-0.5320014288544654,0.056116731758415694
1788862573418581800,2.757581787109375,0.03398322588354349,-0.5902256542861462,-0.3359782137557864
1788862573428623600,2.76762353515625,0.10710954463183879,-0.5744570072680711,-0.4921493109375238
1788862573438666000,2.777666015625,0.21144202576577661,-0.37813305565714833,-0.08399024259001016
1788862573448707800,2.787707763671875,0.6386854415506125,-0.8122153775513171,0.06335632762312889
1788862573458749700,2.797749755859375,1.6157637567833065,-1.4006243378043175,0.22851722533777355
1788862573468791800,2.807791748046875,1.4447870123967528,-1.7499509856939315,0.29872984859645363
1788862573478833700,2.817833740234375,-0.1342819214567542,-1.3217337564408778,0.6300374401926994
1788862573488875800,2.827875732421875,-1.3788091040983794,0.5966022035807371,0.6981719420030713
1788862573498918000,2.83791796875,-1.5797507786378264,3.099101156848669,-0.08131064811721443
1788862573508959700,2.847959716796875,-2.2546982046589252,3.7768577950716016,-1.1759332466259598
1788862573519001600,2.858001708984375,-1.2476780478879808,3.881401873129606,-1.4429713412769138
1788862573529043700,2.868043701171875,0.4412617120042443,3.3743951848000284,-0.6880421776548028
1788862573539085800,2.8780859375,1.2101248545631766,1.1639806507647037,0.690472765802592
1788862573549128000,2.8881279296875,1.3185124563068151,-0.19469196649491785,1.2107044080168008
1788862573559169500,2.89816943359375,0.6891539382889866,-0.8646049054801463,0.9807650409214198
1788862573569211600,2.908211669921875,-0.057168871159851545,-0.860543647390604,0.5198791755147278
1788862573579252700,2.918252685546875,-0.5176522932454943,-1.2035709028750656,0.2502288525387645
1788862573589294600,2.928294677734375,-1.349590900659561,-1.3666075019121169,0.021185995891690252
1788862573599336700,2.938336669921875,-1.3328648067861795,-0.785756994214654,0.1391959969833493
1788862573609378600,2.948378662109375,-1.0730056638538836,-0.06842062527537346,0.5694422478459775
1788862573619420400,2.95842041015625,-0.5459826079338789,0.15148469293117522,0.6132185534693301
1788862573629462800,2.968462890625,-0.7142933479815721,0.21385493212640283,0.7188239771485329
1788862573639504600,2.978504638671875,-1.098594570879638,-0.20347557693123816,0.7270756726652383
1788862573649546500,2.98854638671875,-0.9395517176538706,-1.6342828715533018,0.4482819660298526
1788862573659588600,2.998588623046875,-1.552513227622211,-1.590564725857973,0.16049202912077307
1788862573669630500,3.00863037109375,-1.6926222477972506,-1.4655881006240843,-0.6671795684985816
1788862573679672800,3.0186728515625,-0.38009295755326744,-1.9602999555259941,-1.3760852320924402
1788862573689714700,3.028714599609375,0.00547287845313549,-2.012078658080101,-1.473138369873166
1788862573699756500,3.038756591796875,-0.704645814192295,-1.695195313155651,-0.7818816140860319
1788862573709798700,3.048798583984375,-1.2179285140514373,-1.0331605601996183,0.459971965432167
1788862573719840500,3.058840576171875,-1.3928227241426705,-0.6770750856995582,1.5214786224111914
1788862573729882600,3.068882568359375,-1.3628332440704107,-0.7848568305045366,1.7800880575433373
1788862573739924700,3.0789248046875,-1.2170546538263558,-1.1063356865257024,1.411607065720111
1788862573749966600,3.088966552734375,-1.1473960111886263,-1.4786410589426755,0.7417761059299111
1788862573760008400,3.099008544921875,-1.8850421777069568,-1.7537199828386305,-0.09236439544260501
1788862573770050600,3.109050537109375,-2.9648586906194687,-2.0732541345328093,-0.9258125306367874
1788862573780092700,3.1190927734375,-3.4960867970138785,-2.5417764861673113,-1.494883607082814
1788862573790134800,3.129134765625,-3.2022447204589843,-2.8945383692026136,-1.599799148801714
1788862573800176600,3.1391767578125,-2.043152426257729,-2.966130025729537,-1.279522508177161
1788862573810218500,3.149218505859375,-0.9125555741786956,-2.5251719728469846,-0.6865278275690972
1788862573820260600,3.159260498046875,-0.1990957544118166,-1.8876514834225178,-0.029437691408395767
1788862573830302700,3.169302734375,0.3281453281730413,-1.239745793583989,0.4460065684437752
1788862573840344600,3.179344482421875,0.6311486163049936,-0.7785258739173412,0.5282040823981166
1788862573850386700,3.18938671875,0.842009042790532,-0.5236959573239087,0.23933014964461324
1788862573860427500,3.199427490234375,1.544752822753787,0.07923486475646495,-0.14870353778004644
1788862573870469600,3.2094697265625,1.4550743053942918,0.6977203988432884,-0.06540741493403911
1788862573880511500,3.219511474609375,0.42919221176505085,0.4376940826505422,0.2131836087360978
1788862573890553600,3.2295537109375,0.35697511681616306,-0.14651041164994238,0.5248682159736752
1788862573900595700,3.239595703125,0.8408598727554082,-0.32954642714262006,0.8150117302715778
1788862573910637600,3.249637451171875,0.9667729020565747,-0.24526889204382896,1.0580579778298735
1788862573920679700,3.2596796875,1.226823183646798,-0.0289525382399559,1.285099139265716
1788862573930721500,3.269721435546875,1.3090659980475903,0.18463702094852924,1.4169558794021606
1788862573940763600,3.279763671875,1.765519141703844,0.4921662620723247,1.0426786223903297
1788862573950805800,3.2898056640625,2.3146844713270665,1.1182380135044454,0.5904109477251768
1788862573960847600,3.29984765625,2.7969898491203784,1.7408622548311947,0.3563213290825486
1788862573970889500,3.309889404296875,3.0761265239745375,2.287760516305268,0.025187925009429454
1788862573980931600,3.319931640625,2.949493948227167,2.9694927801609037,0.15437924532890318
1788862573990973700,3.3299736328125,2.9532068312704562,3.375625018855929,0.3413768579289317
1788862574001015600,3.340015625,2.8663176523685454,3.1844594729214903,0.5224041639477014
1788862574011057700,3.3500576171875,2.6286826162040233,2.88895033993721,0.6376867859020828
1788862574021099500,3.360099609375,2.511963531705737,2.618921392907202,0.4567357599899173
1788862574031141600,3.3701416015625,2.365823122411966,2.18142283282876,0.27498510813266036
1788862574041183700,3.380183837890625,2.2800398589253423,1.5477417754366993,0.4575055753186345
1788862574051225600,3.3902255859375,2.7034523182451724,1.2097235802859068,0.511546962107718
1788862574061267700,3.400267822265625,2.8168764528512953,1.6611898754402994,0.508598341435194
1788862574071309600,3.4103095703125,2.2650924651622772,2.32697667440623,0.8167606197655201
1788862574081351400,3.420351318359375,1.558512468037009,2.5045456566646696,0.9995072969228028
1788862574091393800,3.430393798828125,0.5924152732849121,2.5207708152785897,1.117951597778499
1788862574101435600,3.440435546875,-0.2075041017949581,2.2807152739688754,1.2633069941744208
1788862574111476700,3.450476806640625,-0.379511942794919,1.7629411079093813,1.1051365398690103
1788862574121518600,3.4605185546875,-0.06034253275990486,1.0390572170227765,0.43609366171658037
1788862574131560400,3.470560546875,1.0079659131884575,0.2547562668353319,-0.4639683415919542
1788862574141602600,3.4806025390625,1.8924772961437701,0.007257423782348633,-0.6342261240541934
1788862574151644700,3.490644775390625,2.163358183827996,0.314637611824274,-0.00862082109004259
1788862574161686800,3.500686767578125,1.9319541510075329,0.8452613225847482,0.7520838571935892
1788862574171728600,3.510728759765625,1.1241840624272823,1.2055477559059857,1.065017295448482
1788862574181770500,3.5207705078125,-0.5201292047530413,1.2338906378149985,1.020016708727181
1788862574191812600,3.5308125,-1.9850906979113816,0.8624018424779176,0.6645718702182173
1788862574201854700,3.540854736328125,-2.9954934828579423,0.2992453969031572,-0.2523281629055738
1788862574211896600,3.550896484375,-3.908367621466517,-0.49545302865803237,-1.6585171490997075
1788862574221938700,3.560938720703125,-4.16832671764195,-1.4481991589277983,-2.9007451148882506
1788862574231980500,3.57098046875,-3.417677277165651,-2.2011592144340275,-3.491018407708406
1788862574242022400,3.5810224609375,-1.5761568457990884,-1.9746277560859917,-3.0110175074651835
1788862574252064800,3.591064697265625,0.13100479948222638,-0.6468710860937833,-1.7156763756483793
1788862574262106600,3.601106689453125,0.2004588594585657,0.5115946006417275,-0.2672521757930517
1788862574272148700,3.611148681640625,-0.3279968596130609,0.5154904390364885,0.9879518836855887
1788862574282190600,3.621190673828125,-0.7942173640459775,0.4801368015825748,1.76138598742187
1788862574292232400,3.631232421875,-1.4721885218024253,0.7690098575532436,1.697399545201659
1788862574302274800,3.64127490234375,-2.157938496866822,0.7859136460810899,1.2185551215171813
1788862574312316700,3.651316650390625,-1.975352563229203,0.4824515082657337,0.6723083096891641
1788862574322358500,3.661358642578125,-1.1570447140216826,0.1831400603890419,0.2122255773589015
1788862574332400600,3.671400634765625,-0.21798925545215606,0.40241000330150123,-0.5179492303654551
1788862574342442500,3.6814423828125,0.38593700740635395,1.2505962734222411,-1.114243975432217
1788862574352483600,3.691483642578125,0.9337719652086496,2.2936323309481144,-1.698764988335967
1788862574362525700,3.701525634765625,1.1831301723927259,2.9232243654608725,-2.0496195764452216
1788862574372567600,3.711567626953125,0.8157908979505301,3.056929656073451,-1.8582476942837238
1788862574382609700,3.721609619140625,0.3462964864134788,2.773685545900464,-1.3631620376333593
1788862574392651500,3.731651611328125,0.19560849681794643,2.3201006511569022,-0.9348913246273994
1788862574402693600,3.741693603515625,0.013543956705927849,1.928039607912302,-0.4482394420623779
1788862574412735700,3.75173583984375,0.01698679063618183,1.821336890515685,0.23728461529165504
1788862574422777600,3.761777587890625,0.05526829823553562,2.0851707822978494,1.161200956918299
1788862574432819700,3.77181982421875,-0.3666208970397711,2.28677647370398,1.7107018021062015
1788862574442861600,3.781861572265625,-1.0330039083331823,2.110399916100502,1.6316405403509735
1788862574452903400,3.7919033203125,-1.6177730507791042,1.736348576799035,1.2853373319357633
1788862574462945800,3.80194580078125,-1.98285607072711,1.295608550581336,1.0231363020524382
1788862574472987600,3.811987548828125,-1.6357476834088562,0.7195546295106411,0.5895888176873326
1788862574483029500,3.822029541015625,-1.1313082152187823,0.1672708756059408,0.20888240441083908
1788862574493071600,3.832071533203125,-0.7582821273118258,-0.07379705761671065,0.08406038521677255
1788862574503113500,3.842113525390625,-0.688465079241991,-0.08401157763898372,-0.22120354132354259
1788862574513155600,3.852155517578125,-1.1346259614646435,0.14006898042559623,-1.0248527505815028
1788862574523197700,3.86219775390625,-2.2375462865889073,0.42860067561268805,-2.0880936840072275
1788862574533239600,3.872239501953125,-3.20723186122179,0.8189829719901084,-2.7660753631576895
1788862574543281700,3.88228173828125,-2.880810872623324,1.2939087609261273,-2.4298718162134287
1788862574553323500,3.892323486328125,-1.2960732454836368,1.5283844562768936,-1.5215581173881887
1788862574563366000,3.902365966796875,-0.2022808141887188,1.6429501621335745,-0.5465770666956902
1788862574573408000,3.912407958984375,0.4440162714093923,1.6916180391907691,0.3917312267683446
1788862574583449900,3.922449951171875,0.7459756034463644,1.50703654782176,1.14765027821064
1788862574593491000,3.932490966796875,0.8796902464091777,1.30149468601048,1.6348722157485782
1788862574603532800,3.94253271484375,0.4591460360020399,1.1433166329205036,1.6810842240862547
1788862574613575000,3.952574951171875,-0.22360651081204413,1.0284978290855884,1.43203084506765
1788862574623617000,3.962616943359375,-0.7463397605836392,0.9544137712210417,1.0916387603923678
1788862574633659000,3.972658935546875,-1.0685013381719588,0.8345411911278963,0.8880455484308302
1788862574643700700,3.98270068359375,-1.0375228470623492,0.4945949505239725,0.7904794926919042
1788862574653742800,3.992742919921875,-0.8081102803200483,0.036810266003012654,0.7102475797221064
1788862574663785000,4.002784912109375,-0.3096592388898134,-0.6040963587284088,0.4219797961682081
1788862574673826800,4.012826904296875,0.28468320306539535,-1.3261001349568367,-0.004151566721498966
1788862574683869000,4.022868896484375,0.6128554192453622,-1.874612553629279,-0.4345210055723786
1788862574693910800,4.032910888671875,0.30208558876514435,-2.121522198617458,-0.960205798625946
1788862574703953000,4.042952880859375,-0.005976736322045326,-1.9255425303995608,-1.2596028789594769
1788862574713995000,4.0529951171875,0.10089549242258071,-1.441621534103155,-1.3189299510665238
1788862574724036900,4.063036865234375,0.12282090850472449,-0.8407645956873894,-1.2360751422472298
1788862574734079000,4.073078857421875,-0.2053992384701967,-0.2336287231326103,-1.244097266791761
1788862574744120800,4.083120849609375,-0.9175772017329931,0.22317396461367606,-1.2189349146150052
1788862574754162700,4.09316259765625,-1.6605296579658984,0.40602702475488184,-1.2647269439749418
1788862574764205000,4.103205078125,-2.0302011747479436,0.5867717144399881,-1.1164753877460956
1788862574774247000,4.113246826171875,-2.1825924611300227,0.7614490669101476,-0.8746289444316178
1788862574784288800,4.123288818359375,-1.9448650705069301,0.7981570415824651,-0.4680382944446057
1788862574794331000,4.133330810546875,-1.5504869824916123,0.7524152811050414,-0.25388635213300587
1788862574804372700,4.143372802734375,-1.3448434138715266,0.6718441993087529,-0.19179909459762273
1788862574814413800,4.153413818359375,-1.3963129043459892,0.5449374827951192,-0.14764767205156384
1788862574824456000,4.1634560546875,-1.6596031907707451,0.20721943963468073,-0.07587759021781385
1788862574834498000,4.173498046875,-2.0802350794613362,-0.3381061656951904,0.1257198448166251
1788862574844540000,4.183539794921875,-2.3263643877267834,-0.7750999911218881,0.6915970936574042
1788862574854581800,4.193581787109375,-2.3393898735165592,-0.8465870182305574,1.4644156958438455
1788862574864623900,4.203623779296875,-2.504954529726505,-0.5664262610256672,1.9863708008497951
1788862574874666000,4.213666015625,-2.42780874620378,-0.20228607488572597,2.2167761780217288
1788862574884707800,4.223707763671875,-1.68548055934906,0.2585217568486929,2.3467514883257445
1788862574894750000,4.23375,-0.9482236844092607,0.670132134693861,2.30434544814229
1788862574904791800,4.243791748046875,-0.32955636401474475,0.9077186555415392,2.0353812077343463
1788862574914833700,4.253833740234375,0.33628245739936824,0.7831833443343639,1.551905032595992
1788862574924876000,4.2638759765625,0.44590427711308,0.39956571978628636,0.7391281487043947
1788862574934918000,4.27391796875,-0.06279752469658852,0.043694764819741244,-0.2512534463461488
1788862574944960000,4.2839599609375,-0.542336360386014,-0.05908347260951995,-0.8840726992771029
1788862574955001900,4.294001953125,-0.3364689198821783,0.06527648203074932,-1.0280397831197827
1788862574965044000,4.3040439453125,0.6234411106675863,0.16915946583151817,-0.8854933797299861
1788862574975086000,4.314086181640625,1.1793389634162186,0.3285597541928291,-0.7434371710099279
1788862574985128000,4.3241279296875,1.052652027133107,0.5795891094595194,-0.6848595290306955
1788862574995169800,4.334169677734375,0.6751479170292616,0.6337181745320558,-0.9145837190054357
1788862575005212000,4.3442119140625,0.2721060455650091,0.4475204801380634,-1.394324507007748
1788862575015252700,4.354252685546875,-0.21014204908311365,0.15629121643006802,-1.5668468734011054
1788862575025295000,4.364295166015625,-0.29408465313911436,-0.12932313000559806,-1.319387193314731
1788862575035337000,4.3743369140625,-0.2058615952849388,-0.3298118000805378,-0.9775396491341293
1788862575045378800,4.38437890625,-0.25538521238863465,-0.32027357188463207,-0.5534050130195916
1788862575055421000,4.3944208984375,0.17605273247659206,-0.10029168131053447,0.08389112959709018
1788862575065462800,4.404462890625,-0.126660048276186,0.37475568817853927,0.5306900905275717
1788862575075505000,4.4145048828125,-0.9817664730489254,0.5889993273615837,0.4521272067485377
1788862575085547000,4.424547119140625,-1.2409376337170601,0.5012906487703324,0.25607640952318905
1788862575095588900,4.4345888671875,-1.062850180542469,0.3522358133345842,0.1222809564091265
1788862575105631000,4.444630859375,-0.9124550364136695,0.1508534092903137,-0.009129501264542341
1788862575115672800,4.4546728515625,-0.49472237629592414,-0.059663902845978736,-0.06883735285010188
1788862575125715000,4.46471484375,-0.19292203421294687,-0.15547054769694804,-0.2484460242426023
1788862575135757000,4.474757080078125,-0.12710954560935497,-0.1935749451637268,-0.5926011512458325
1788862575145799000,4.484798828125,0.05902794302999973,-0.07568214071094989,-0.6561128886263817
1788862575155840800,4.4948408203125,0.45936990788578985,0.1957797617316246,-0.5513773065842688
1788862575165883000,4.5048828125,0.5607856247901917,0.36491701573133467,-0.3871154035359621
1788862575175925000,4.514925048828125,0.8127917161345481,0.28695290156304837,-0.4516579452689737
1788862575185966800,4.524966796875,0.94945585655272,0.2445832478672266,-0.5617736129142343
1788862575196009000,4.535009033203125,1.0436959827393293,0.09011515521109104,-0.76155179663226
1788862575206050800,4.54505078125,0.5551058255881071,-0.48915597434043884,-0.9089378220729529
1788862575216092000,4.555091796875,-0.46709787178933615,-1.5164181241512298,-0.6828954624161124
1788862575226133800,4.5651337890625,-1.3818699529737233,-2.4943027873307466,0.19837361414972693
1788862575236176100,4.575176025390625,-1.8905337608605621,-3.170004831111431,1.1854457558587193
1788862575246218000,4.585218017578125,-2.0032360109329224,-3.091362671551108,1.6726052956849335
1788862575256259800,4.595259765625,-1.5209084213078021,-2.1246178265452382,1.4143287457689642
1788862575266302000,4.605302001953125,-0.4160720334291458,-0.7540729851841926,0.6592295593421906
1788862575276343800,4.61534375,0.34965924084484573,0.5186515334159135,0.174972444692906
1788862575286386000,4.625385986328125,0.9193675922811031,1.5243676218509674,0.0193763891864568
1788862575296428000,4.635427978515625,1.4925024110347032,2.1596967387109993,0.1469991084823385
1788862575306470000,4.645469970703125,1.93272396633625,2.0776433094024656,0.2420645430445671
1788862575316511700,4.65551171875,1.9661814147800205,1.6714005960702896,0.36589225397165864
1788862575326553900,4.665553955078125,1.76658940128386,1.1104957288146018,0.2118116445294581
1788862575336596000,4.675595947265625,1.0276643008708952,0.5255319405794143,-0.023109849226893856
1788862575346638000,4.68563818359375,-0.05537585026323795,-0.02151858884692192,0.02152465326152742
1788862575356680000,4.695679931640625,-1.1109124929219483,-0.40898002934157845,0.40146347969900814
1788862575366721800,4.7057216796875,-1.845453094640374,-0.4894201782345772,0.9386809261687099
1788862575376764000,4.715763916015625,-2.0551216809928414,-0.3083808895170688,1.16507173393704
1788862575386806000,4.725805908203125,-1.9802765756279228,-0.04835749593377113,0.815619706102088
1788862575396847900,4.735847900390625,-1.8972171841472387,0.1849614305973053,0.29548032701490445
1788862575406890000,4.745889892578125,-1.8228356046408414,0.2200654772043228,-0.11809965213648974
1788862575416931800,4.755931884765625,-1.4823282230228185,0.1293558632314205,-0.39437531153634187
1788862575426973000,4.765972900390625,-1.0305939245820044,0.12603344081044196,-0.4213114319199696
1788862575437014800,4.776014892578125,-0.7820680765688419,-0.021824293795228003,-0.1725281568133272
1788862575447057000,4.786056884765625,-0.6811649853616952,-0.161123458892107,0.18699680888243017
1788862575457099000,4.79609912109375,-0.6122592069178819,-0.1151303540021181,0.47787276564072817
1788862575467140900,4.806140869140625,-0.5862865612715482,-0.011877484798431396,0.6241657716803253
1788862575477183000,4.816182861328125,-0.4499176044076681,0.15968553504347802,0.5607994706524536
1788862575487224800,4.826224853515625,-0.23622750745415685,0.42886955568194385,0.38543914088681336
1788862575497267000,4.836266845703125,0.13328852650523185,0.7212661096036433,0.134510250319913
1788862575507309000,4.84630908203125,0.5093599734574557,1.0342232209950686,-0.06938042848454788
1788862575517351000,4.856350830078125,0.8095680779129266,1.2698369804650544,-0.14572649473063648
1788862575527392800,4.866392822265625,0.9339911609172821,1.396149238216877,-0.00639856019699946
1788862575537435000,4.876434814453125,0.9124825089424848,1.383230135411024,0.15503928014021365
1788862575547477000,4.88647705078125,0.6738251439929008,1.2494307367742061,0.22610543322199955
1788862575557518600,4.8965185546875,0.24559330169260501,1.1083201383411883,0.21156119516603647
1788862575567560400,4.906560546875,-0.2948889552593231,0.9669920977652072,0.23733344113575294
1788862575577602300,4.916602294921875,-0.7551105115383863,0.6536462793171406,0.3549030232498422
1788862575587644700,4.926644775390625,-1.0626379990965127,0.2920119385182857,0.5432843087606132
1788862575597686500,4.9366865234375,-1.2788128986030816,0.04600771793723106,0.6318316301330924
1788862575607728400,4.946728271484375,-1.471318168708682,-0.11853051783442496,0.6192920281641185
1788862575617769500,4.95676953125,-1.5676637427419424,-0.11553075149655341,0.6662862729206681
1788862575627811300,4.966811279296875,-1.5317261679202316,-0.04103811283111572,0.7573476960059254
1788862575637853400,4.976853515625,-1.3298586107075214,0.14216039974689482,0.9373083957064896
1788862575647895600,4.9868955078125,-1.0858517014235258,0.49166824942231174,1.195699000456184
1788862575657937400,4.9969375,-0.938754429796338,0.8176841643512248,1.542229149495065
1788862575667979500,5.0069794921875,-0.6647773296624422,0.9042810823082923,1.6760007833421229
1788862575678021400,5.017021484375,-0.39984745933711524,0.8845803565382957,1.5742847683168946
1788862575688063500,5.0270634765625,-0.3193751617401838,0.6837497411578893,1.4354634498648344
1788862575698105600,5.037105712890625,-0.43081542905271053,0.3970177888691425,1.1854554004698992
1788862575708147500,5.0471474609375,-0.7025462115645408,0.19386077636778354,0.9136036219269037
1788862575718189600,5.057189453125,-0.8645388545066117,0.16363164232075214,0.6554783170498907
1788862575728231400,5.0672314453125,-0.7562099972128867,0.36048809337317944,0.4767909982860088
1788862575738273300,5.077273193359375,-0.36217326998114585,0.5973387011617421,0.322234094835259
1788862575748315600,5.087315673828125,0.06517828235328198,0.8971072451561689,0.31185020959544923
1788862575758357500,5.097357421875,0.3138900083273649,1.170462998521328,0.3756452208967879
1788862575768399400,5.1073994140625,0.2959562922298908,1.3590730147540568,0.4937153546778485
1788862575778441500,5.11744140625,-0.012959434816241264,1.5266034180790184,0.5986068214014172
1788862575788483300,5.1274833984375,-0.576879850500822,1.584808938810229,0.6325858095012605
1788862575798525700,5.137525634765625,-1.0798574294447898,1.4480331547111271,0.5084200987914577
1788862575808566500,5.14756640625,-1.425440799152851,1.2010165422171353,0.398128015133366
1788862575818608600,5.157608642578125,-1.5461971763432025,0.9296148455291986,0.37013949961997566
1788862575828650500,5.167650390625,-1.4407669631004332,0.6277431917756795,0.3900631474256515
1788862575838692400,5.1776923828125,-1.3333867848336696,0.3099906628012657,0.47583556072469796
1788862575848734500,5.187734375,-1.307467915201187,0.04954349084794521,0.6767827516894788
1788862575858776600,5.197776611328125,-1.4132821593254803,-0.13895663526952265,0.9809180395260453
1788862575868818400,5.207818359375,-1.4038298558473585,-0.23987433952391146,1.2507945724733174
1788862575878860500,5.217860595703125,-1.3857225367486476,-0.26679683324098585,1.4474188222050666
1788862575888902400,5.22790234375,-1.4951929652929306,-0.25928105078339575,1.5969425903268157
1788862575898944300,5.2379443359375,-1.6848422614455223,-0.1280629008114338,1.6418699656814335
1788862575908986600,5.247986572265625,-1.8109055128723381,0.18718261377811432,1.5121139972165225
1788862575919028500,5.258028564453125,-2.063991216146946,0.6466437070786952,1.380779527388513
1788862575929070600,5.268070556640625,-2.0017337896764276,1.0890852765172718,1.068042853814736
1788862575939112400,5.278112548828125,-1.6992133166253567,1.456257962220907,0.7881403091546147
1788862575949154300,5.288154296875,-1.2112228789329529,1.7431097414970398,0.5990674246504902
1788862575959196700,5.29819677734375,-0.8442337331026792,1.9063105911850928,0.5404861294094473
1788862575969238500,5.308238525390625,-0.6803589296758175,1.9103624969244002,0.482604799131304
1788862575979280400,5.3182802734375,-0.6365864234447479,1.7941846796959637,0.3936651905056089
1788862575989321500,5.328321533203125,-0.5789689317345619,1.4265011218607424,0.22065328702963888
1788862575999363300,5.33836328125,-0.5478764588564634,0.8914607637017965,0.0014127163421362638
1788862576009405400,5.348405517578125,-0.40537294476032254,0.40733401570022104,-0.22380707488544285
1788862576019447600,5.358447509765625,-0.40597266421914097,0.1965805567204952,-0.2382294218610972
1788862576029489400,5.368489501953125,-0.5048644156038761,0.29707565164864064,0.1289277740124613
1788862576039531500,5.378531494140625,-0.5489502255678177,0.6528980912983418,0.5248585713624954
1788862576049573400,5.388573486328125,-0.7918950585782527,1.0772539689481258,0.720891358007118
1788862576059615500,5.398615478515625,-0.984113328436017,1.1718904009759425,0.6499095770068466
1788862576069657600,5.40865771484375,-1.0544845032572745,0.9088795160144567,0.432522817492485
1788862576079699500,5.418699462890625,-0.7646925788760185,0.5734270796984434,0.19300642456077038
1788862576089741600,5.428741455078125,-0.45925124994218347,0.49669338410794733,0.13720285040475427
1788862576099783400,5.438783447265625,-0.37167175068855285,0.5831453406363726,0.3137945851288736
1788862576109825300,5.4488251953125,-0.4665864151358604,0.7182821253567934,0.5357201571166516
1788862576119867600,5.45886767578125,-0.5187362890899181,0.7595756742537021,0.7234170040272175
1788862576129909500,5.468909423828125,-0.2469225044697523,0.6760387283891439,0.8493713882520795
1788862576139951400,5.478951416015625,0.1773877804726362,0.5377145458042621,0.7123588727876543
1788862576149993500,5.488993408203125,-0.2099918269574642,0.19474837285727262,0.44607422685250636
1788862576160035300,5.499035400390625,-0.8162965093851089,-0.09987374815940857,0.19359423438608644
1788862576170076400,5.509076416015625,-1.3419377555578946,-0.2764320920705795,0.02965717937797308
1788862576180118500,5.519118408203125,-1.7160639136612414,-0.32784634522646666,0.04090484184026718
1788862576190160600,5.52916064453125,-1.8844816212147473,-0.44482115805149075,0.11262187831252812
1788862576200202500,5.539202392578125,-1.6500959422349928,-0.5165647902697325,0.2860718809448182
1788862576210244400,5.549244384765625,-1.0688485441744326,-0.366413976290822,0.5973524374261499
1788862576220286500,5.559286376953125,-0.3335229295581579,-0.09464081594198942,0.9083094610415399
1788862576230328600,5.56932861328125,-0.23666005365252493,0.20569383750259876,1.0568865959629417
1788862576240370400,5.579370361328125,0.15160393539667127,0.537522822624445,1.081398375276476
1788862576250412500,5.58941259765625,0.8803986869394779,0.6429606346517801,0.976154332255572
1788862576260454400,5.599454345703125,0.8485153559446335,0.4810685294747352,0.764594671459496
1788862576270496300,5.609496337890625,0.48083238263130185,0.4266498338058591,0.4910302437797188
1788862576280538600,5.61953857421875,0.567888734793663,0.6859004894509911,0.4374050365760922
1788862576290580500,5.62958056640625,0.368116688555479,0.7466992415457964,0.5946275425069034
1788862576300622300,5.639622314453125,0.6848702696204185,0.6379904450237751,0.8527443718165159
1788862576310664400,5.64966455078125,1.274737027466297,0.3289604439482093,1.1520993665739894
1788862576320706300,5.659706298828125,1.2562778261899947,-0.21827187178581953,1.3678015340022742
1788862576330748700,5.669748779296875,0.9704957219719886,-0.38863545271009203,1.0989014448717236
1788862576340790500,5.67979052734375,0.5936790096104144,-0.16782529461830853,0.3767506613880396
1788862576350831600,5.68983154296875,0.5647895997345447,-0.04087824609428644,-0.2825606579534709
1788862576360873500,5.69987353515625,1.0277771135956049,-0.00027706337571144104,-0.7249575114674865
1788862576370915300,5.709915283203125,1.2877309490740299,0.06727145524024963,-0.5666765825249255
1788862576380957700,5.719957763671875,1.2475742952525615,0.25040830075889825,-0.3438414944767952
1788862576390999600,5.72999951171875,1.0115560466349125,0.48047494749575853,-0.4390183169916272
1788862576401041400,5.74004150390625,0.7375193252682686,0.5711851459905505,-0.7386690798252821
1788862576411083500,5.75008349609375,0.6543278318405151,0.4336182115137577,-0.7841859455056488
1788862576421125400,5.76012548828125,1.0101379965305328,0.1404892516642809,-0.7888418084874749
1788862576431167500,5.77016748046875,0.6578337941348552,-0.22548808677494525,-0.9375506069645285
1788862576441209600,5.780209716796875,0.126259066259861,-0.5445289019942283,-0.728860071863979
1788862576451251500,5.79025146484375,-0.2219078902006149,-0.7102199610628187,-0.6927246363826096
1788862576461293600,5.80029345703125,-0.4997539407223463,-0.6874899505995213,-0.544872600865364
1788862576471335400,5.81033544921875,-0.657903352239728,-0.6230686240933835,-0.34980770940482614
1788862576481377500,5.82037744140625,-0.6445803448081017,-0.6537576307371258,-0.40139278908297416
1788862576491419600,5.830419677734375,-0.5621978296756744,-0.6664334263063967,-0.8645835704311728
1788862576501461500,5.84046142578125,-0.3246516408383846,-0.5210732076048851,-1.0901342010483146
1788862576511503400,5.85050341796875,-0.37836452632546425,-0.32217282963469623,-0.8574357445031404
1788862576521545500,5.86054541015625,-0.4971645087510347,-0.05295636803135276,-0.18628990272209048
1788862576531586300,5.87058642578125,-0.7483329802274703,0.02021174403205514,0.37769627167508
1788862576541628700,5.880628662109375,-0.8251239589631557,0.14265724335312843,0.47856619126498695
1788862576551670500,5.89067041015625,0.23090835825800896,0.514577050518617,0.3536304825633764
1788862576561713200,5.900713134765625,0.8993073855489492,0.9356067063551395,-0.03312953166365623
1788862576571755300,5.91075537109375,1.6864496966421603,1.1295878942321986,-0.24325199926346538
1788862576581797000,5.920797119140625,1.5253811828076838,1.0872180213406681,-0.2571832017213106
1788862576591839000,5.9308388671875,0.8612462427020072,0.9710663614667951,-0.1962801124691963
1788862576601881300,5.94088134765625,0.2723404388427734,1.0449774008519948,-0.03632438218221068
1788862576611923200,5.950923095703125,0.3231237006187439,0.8961997749224304,-0.1939509388692677
1788862576621965000,5.960965087890625,0.785007052630186,0.2327024751331657,-0.28147710050046443
1788862576632007200,5.971007080078125,2.125854674863815,-0.2290786951454356,0.3051195496335625
1788862576642049000,5.981049072265625,3.194637752586603,0.05218837933354079,0.9937041636019944
1788862576652091400,5.99109130859375,3.2676234938204285,0.39447647035587574,1.1610111334346234
1788862576662133200,6.00113330078125,2.6653870837450024,0.5693981895085424,0.9315902372553944
1788862576672175000,6.011175048828125,2.4229496157348156,0.5435491702418774,0.8561535957381129
1788862576682217200,6.02121728515625,1.5999854651540517,0.5269464104872197,0.8740506330870091
1788862576692259000,6.031259033203125,0.7952408618748188,0.3681967680543661,0.7580527024701237
1788862576702300200,6.041300048828125,0.8125871334731578,0.252098098743055,0.6191144796401262
1788862576712342300,6.05134228515625,0.6642167731702328,0.10892514268644153,0.4501983210451901
1788862576722384100,6.061384033203125,1.0035141944766044,-0.1342056413501501,0.6022348026402294
1788862576732426200,6.07142626953125,0.38566988090276716,-0.4410911412103101,0.6105931734018027
1788862576742468000,6.081468017578125,-0.4442869050443172,-0.7194169746056198,0.30537454730793834
1788862576752510000,6.091510009765625,-0.8138684054553508,-0.6413910472474992,0.2307223341666162
1788862576762552300,6.10155224609375,-0.8372796761810779,-0.24576843906380236,0.3896550050161779
1788862576772594200,6.11159423828125,-0.6249263807892799,0.2614868171993643,0.6341662105605006
1788862576782636300,6.12163623046875,0.06261281577944755,0.5355790681455284,0.7048789653610438
1788862576792678100,6.13167822265625,0.6570347527116537,0.7166934679258614,0.3489009698234498
1788862576802720000,6.141719970703125,0.6252537130475044,0.8947555674634874,-0.2801275855876505
1788862576812762400,6.151762451171875,0.43266076465845105,0.9985266153223812,-0.9016213615797459
1788862576822804200,6.16180419921875,0.3887409589111805,0.9560200373739004,-1.2526726413048803
1788862576832846000,6.17184619140625,0.5642354729831218,0.6840876678753643,-0.9827867560073733
1788862576842888200,6.18188818359375,0.6487175907433033,0.4191707300968468,-0.3659722969379276
1788862576852930000,6.191929931640625,0.08620704185664653,0.2933902411341667,-0.027031068658083676
1788862576862972200,6.20197216796875,-0.00556523291170597,0.1895541652150452,-0.09758870596215129
1788862576873013200,6.21201318359375,0.2987614127784967,0.16009104710444808,-0.4025043305214494
1788862576883055000,6.22205517578125,0.3841168062418699,0.2440884500876069,-0.6510963025733828
1788862576893097200,6.23209716796875,0.20531389827430246,0.4787473930507898,-0.8468979108106345
1788862576903139000,6.24213916015625,0.1492237622618675,0.7283687812156975,-0.9573389379527419
1788862576913181200,6.25218115234375,-0.0245867442458868,0.8962922755114734,-1.0147628798522055
1788862576923223300,6.262223388671875,0.134231944835186,0.7538442909948527,-0.9322594417538493
1788862576933265200,6.27226513671875,0.8170914591550826,0.7089937802687287,-0.5501288408931344
1788862576943307300,6.282307373046875,1.0803788229703903,0.8603199216373264,-0.271651652861014
1788862576953349000,6.29234912109375,0.7077215683758259,1.0096849920660256,-0.2179516999207437
1788862576963391000,6.302390869140625,-0.11567805101275444,1.2140808987125753,-0.05145158949159086
1788862576973433300,6.312433349609375,-0.18007015142440794,1.2436024690121412,0.48100839678533375
1788862576983475200,6.32247509765625,0.6951905881047249,1.1587670077696441,1.135203615222126
1788862576993517000,6.33251708984375,0.9710650462925433,1.1611275994211434,1.5178924344874918
1788862577003559200,6.34255908203125,0.7142308041393757,1.2196154442250728,1.5645263214990495
1788862577013601000,6.35260107421875,0.7109317625939846,1.2814318489298224,1.2371706823989748
1788862577023643100,6.36264306640625,1.084152496290207,1.2552417611405253,0.6607119068544358
1788862577033684200,6.372684326171875,1.3163105623483657,1.22562608281672,0.03534603866934776
1788862577043726000,6.38272607421875,1.074170615980029,1.1572934280857443,-0.647668081690371
1788862577053768200,6.392768310546875,0.6077221480101347,1.1341516219511627,-1.0889221949100494
1788862577063810000,6.40281005859375,0.3089408614873886,0.9660761519640684,-1.1944593756586313
1788862577073852200,6.41285205078125,0.5275345125734806,0.7474138195559382,-0.9340810311578214
1788862577083894300,6.422894287109375,0.6855892315447331,0.41329438540935515,-0.5447896718222648
1788862577093936000,6.43293603515625,0.042913259053230284,0.008520867846906185,-0.3744857121307403
1788862577103978200,6.442978271484375,-0.8749287310957908,-0.38677813440561293,-0.3215457107122987
1788862577114020000,6.45302001953125,-1.2952940778046846,-0.7499360315099358,-0.3198816499575972
1788862577124062000,6.46306201171875,-1.292900460666418,-0.9838564310654997,-0.3282065933736041
1788862577134104300,6.473104248046875,-1.0604372741818426,-0.971886299547553,-0.3021010420626029
1788862577144146200,6.483146240234375,-0.8034101398050785,-0.7727388149484992,-0.43593481789305805
1788862577154188000,6.49318798828125,-0.7717045034646988,-0.41170507039129733,-0.672091305937618
1788862577164230100,6.503230224609375,-0.8714455651551485,0.08808452616631984,-0.7632169533655047
1788862577174272000,6.51327197265625,-0.8091910612940788,0.6465647966235876,-0.6951825509287417
1788862577184314400,6.523314453125,-0.4564782780975103,1.0730436577767133,-0.215601702728495
1788862577194356200,6.533356201171875,0.12807809838056564,1.3827233549326658,0.36792978768125173
1788862577204397300,6.543397216796875,0.3656137658238411,1.5179419727176426,0.9967006420042365
1788862577214439200,6.553439208984375,0.41871933306753634,1.418588449040055,1.3793293285802006
1788862577224481000,6.56348095703125,0.4424631967484951,1.1485346598297357,1.3880746528327463
1788862577234523100,6.573523193359375,0.5249111783325672,0.7830968350946903,1.0448941064827144
1788862577244565200,6.583565185546875,0.24792262142300606,0.435359502223134,0.6255512346893548
1788862577254607000,6.593607177734375,-0.5358066663563251,0.06355564958751202,0.34511231813021004
1788862577264649200,6.603649169921875,-1.185274783205986,-0.3080494656056165,0.32118451271709053
1788862577274691000,6.613691162109375,-1.0272884532958269,-0.5840542721748352,0.3684107395986095
1788862577284733200,6.623733154296875,-0.20345570318698883,-0.6299304726868867,0.35446711605060843
1788862577294775300,6.633775390625,0.21308044062256812,-0.31085984685122964,0.24179664935600012
1788862577304817200,6.643817138671875,-0.1933703625023365,0.058982350322604175,-0.08006967161279172
1788862577314859300,6.653859375,-0.8975953209340571,0.26801439233720303,-0.42639852592591193
1788862577324901000,6.663901123046875,-1.1474258218050002,0.3177320707082748,-0.5266326318303123
1788862577334943000,6.67394287109375,-0.8571271169453859,0.2790641941398382,-0.5824703274516388
1788862577344985300,6.6839853515625,-0.7634557305574416,0.09923895738720893,-0.6543406913220882
1788862577355026200,6.694026123046875,-0.9308329891473054,-0.3707406073182821,-0.7637504026550799
1788862577365068300,6.704068359375,-1.2303320685505865,-0.9258937791794538,-0.7698262885026633
1788862577375110100,6.714110107421875,-1.2794056037992239,-1.435750596243143,-0.6416917837597429
1788862577385152000,6.724152099609375,-1.046505194941163,-1.701327532300353,-0.536273808944039
1788862577395194000,6.734194091796875,-0.9055325436741113,-1.6499200011461972,-0.37134197074491526
1788862577405236200,6.744236328125,-1.0139631077766418,-1.3860750034481286,-0.012531455195136368
1788862577415278000,6.754278076171875,-1.0963602359563112,-0.9704565590053796,0.3759611915107816
1788862577425320200,6.7643203125,-1.130064937159419,-0.5451771367698908,0.6758922325905412
1788862577435362000,6.774362060546875,-1.1805045000642538,-0.2076829654932022,0.7726969485681504
1788862577445404200,6.784404052734375,-1.2139531806796788,-0.06866963160037994,0.5783169706318527
1788862577455446300,6.7944462890625,-1.274032094067335,-0.09814005623459815,0.3712076037755236
1788862577465488100,6.804488037109375,-1.0451502732008695,-0.2561070969223976,0.2074594954682514
1788862577475530200,6.8145302734375,-0.5128086526066065,-0.35750586269199847,0.18026410309392957
1788862577485572000,6.824572021484375,-0.08806114529073238,-0.2994394581705332,0.1324834572000429
1788862577495614000,6.834614013671875,0.24606968703269957,-0.0950315688252449,-0.019469328166916964
1788862577505655000,6.844655029296875,0.4953729491591453,0.15206570768952368,-0.1876922438006848
1788862577515697200,6.854697265625,0.5176823961228132,0.32718671227395535,-0.3286733341025188
1788862577525739300,6.8647392578125,0.16495266179144383,0.34731589258909223,-0.34233386639282104
1788862577535781000,6.874781005859375,-0.025333178699016568,0.29589316386580466,-0.05473305884767323
1788862577545823000,6.884822998046875,-0.06464461386799812,0.08627601543962955,0.24671766608003526
1788862577555864300,6.8948642578125,-0.25283143625259397,-0.1983364604771137,0.31549039272870866
1788862577565906200,6.90490625,-0.8308347378253936,-0.516483541727066,0.30503797229733315
1788862577575948300,6.9149482421875,-1.5058008685469626,-0.8501029173970222,0.28563849449623374
1788862577585990100,6.924990234375,-1.9183821372509002,-1.1316460688710213,0.15015366352312265
1788862577596032300,6.9350322265625,-2.0201491518110037,-1.226830782431364,-0.09869016439802944
1788862577606074400,6.945074462890625,-1.8197785551577805,-1.1564438255190848,-0.3756765293505043
1788862577616116200,6.9551162109375,-1.4927835660636424,-0.9738087920427322,-0.6362069956731051
1788862577626158300,6.965158447265625,-1.2386433853000403,-0.7010802306652069,-0.8799864528767765
1788862577636200200,6.9752001953125,-0.9020721740871668,-0.4600339247524738,-0.8885336242087185
1788862577646242300,6.9852421875,-0.43734687664806843,-0.41955227676033974,-0.7319284464586526
1788862577656283400,6.995283447265625,-0.007498246800899505,-0.45325347083210943,-0.5590020293090492
1788862577666325200,7.0053251953125,0.2977390839934349,-0.3952081090986728,-0.3995736473644152
1788862577676367400,7.015367431640625,0.3606704642027616,-0.3008323738336563,-0.22844101829640565
1788862577686409200,7.0254091796875,0.23416122257411479,-0.21423487135469912,-0.1570688862716779
1788862577696451000,7.035451171875,0.03807341780662536,-0.25298516550958156,-0.25521902550887315
1788862577706493400,7.045493408203125,-0.228405435526371,-0.4122843315839767,-0.42265378643963486
1788862577716535300,7.055535400390625,-0.5028980839669704,-0.4675041145026684,-0.42064960701037196
1788862577726577400,7.065577392578125,-0.6615303105652331,-0.4056049999505281,-0.4335197561079636
1788862577736619300,7.075619384765625,-0.8251935170680283,-0.3167623488932848,-0.405016824799031
1788862577746661000,7.0856611328125,-0.7995774297744035,-0.22475684989094732,-0.2914573733754456
1788862577756703500,7.095703369140625,-0.5415320582658052,-0.06912322058677672,-0.15203976953066883
1788862577766745300,7.105745361328125,-0.17271160535514354,0.1574976696103811,0.16226042703278362
1788862577776787200,7.115787109375,0.2112561478048563,0.3134013480275869,0.5785299923280254
1788862577786829300,7.125829345703125,0.4065039946168661,0.34770752225518226,1.0763467909753321
1788862577796871200,7.13587109375,0.36882571360766886,0.2627969499498606,1.4917467703618108
1788862577806912300,7.145912353515625,0.192612237611413,0.07976736419796943,1.630095356735587
1788862577816954400,7.155954345703125,-0.29086919822394847,-0.08931143761277198,1.4632307238429785
1788862577826996200,7.165996337890625,-0.9306570480585098,-0.2521902157396078,1.062866839416325
1788862577837038300,7.176038330078125,-1.4138877240031957,-0.3008978402853012,0.6501373213481157
1788862577847080200,7.186080078125,-1.6751888824373482,-0.3018769144505262,0.27664394472297277
1788862577857122300,7.196122314453125,-1.6653905420005322,-0.3761351598381996,-0.10040146182794123
1788862577867164400,7.206164306640625,-1.3246382457107304,-0.450706708958745,-0.4075916437231004
1788862577877206300,7.216206298828125,-0.6799135239958762,-0.3915010712742805,-0.6298722396936267
1788862577887248400,7.226248291015625,-0.0221773450165987,-0.31875849114656446,-0.7257440587352961
1788862577897290200,7.236290283203125,0.4556161083102226,-0.28169103551208974,-0.7354866503968834
1788862577907332000,7.24633203125,0.6191711782634258,-0.29379005410671233,-0.5643678671911359
1788862577917374500,7.25637451171875,0.45376200487613677,-0.29145021298229695,-0.21828648483306168
1788862577927416300,7.266416259765625,-0.004367547559738159,-0.15361936687231062,0.2103495543539524
1788862577937458200,7.276458251953125,-0.5981938566863536,0.01963058314323425,0.48860816773194815
1788862577947499300,7.286499267578125,-1.0381693282723425,-0.04224690409898758,0.4687594848586246
1788862577957541000,7.296541015625,-1.3297674252927303,-0.18688275404870508,0.269176787180081
1788862577967583200,7.306583251953125,-1.4011983382999895,-0.31160920391380786,0.07973974553868174
1788862577977625300,7.316625244140625,-1.2743185097932814,-0.3161310652524233,-0.0018485139435157178
1788862577987667200,7.326667236328125,-1.018246484184265,-0.2529132693171501,0.035342495005391536
1788862577997709300,7.336709228515625,-0.7510393165767192,-0.19407588042318819,0.22428897665087133
1788862578007751200,7.346751220703125,-0.4146434619307518,-0.2567296127349138,0.40871717715431
1788862578017793300,7.356793212890625,-0.11283785915076731,-0.23002923733592032,0.46606224513128397
1788862578027835400,7.36683544921875,0.13062427573204038,-0.04363514358699321,0.502463345811516
1788862578037877200,7.376877197265625,0.141246207511425,0.0645493367999792,0.5492001817408949
1788862578047919400,7.38691943359375,0.046074937954545016,0.06799772368818521,0.4069301110744476
1788862578057961200,7.396961181640625,-0.1833627632290125,-0.083887951259315,0.17218568178489804
1788862578068003000,7.407003173828125,-0.32457916012406346,-0.34435090530365703,-0.09937485872656106
1788862578078045400,7.41704541015625,-0.2837298478633165,-0.5175830274015665,-0.3648335752315819
1788862578088087300,7.42708740234375,-0.10093640895485878,-0.5373685088455676,-0.45377727551050484
1788862578098128400,7.43712841796875,0.06594459055066108,-0.22453005539774892,-0.3369070921037346
1788862578108170200,7.447170166015625,-0.04258475775122642,0.12202157482057809,-0.17171733362078664
1788862578118212000,7.457212158203125,-0.13102291966080665,0.15107289725989104,0.017263123359531164
1788862578128254200,7.467254150390625,-0.19299802205860614,-0.12149199798852205,0.2642250099916011
1788862578138296300,7.47729638671875,-0.2611737326622009,-0.34005759202390906,0.441020742855221
1788862578148338400,7.48733837890625,-0.4590881683349609,-0.33104631031155585,0.3807634772259742
1788862578158380300,7.49738037109375,-1.0789221944212912,-0.32826457063853737,0.300417071031034
1788862578168422100,7.507422119140625,-1.1265490379929541,-0.40608167755156754,0.2402688917994499
1788862578178464300,7.51746435546875,-0.23296353722214697,-0.5307952679350972,0.14651260360702872
1788862578188506400,7.52750634765625,0.23648002091050147,-0.3151139971643686,0.32625586116462946
1788862578198548200,7.53754833984375,1.1797907988369465,-0.13367518773525952,0.6829920546583831
1788862578208590300,7.54759033203125,1.9444728563189506,-0.16387421890497206,0.7184798398859799
1788862578218632200,7.557632080078125,1.4174223278701306,-0.18711539376080036,0.4378466428637504
1788862578228674000,7.567674072265625,0.6511082852721214,-0.3692565062403679,0.053301820468157526
1788862578238715100,7.577715087890625,0.792155755341053,-0.5880000871911645,-0.1838686669245362
1788862578248757200,7.58775732421875,1.4238444698721169,-0.6757645876228809,-0.38426147540956734
1788862578258799400,7.59779931640625,1.9076912318885326,-0.4810224983759224,-0.4187272241130471
1788862578268841200,7.60784130859375,2.244489237594604,-0.016072890661656857,-0.27650939509049055
1788862578278883300,7.61788330078125,2.1039538087010383,0.3671694708332419,-0.1118318969786167
1788862578288925200,7.62792529296875,1.4451567224919795,0.5075900411754847,0.15244199365600944
1788862578298967300,7.63796728515625,0.632645576864481,0.09222089531868696,0.3512392035126686
1788862578309009400,7.648009521484375,0.7690612954795361,-0.7893623252302407,0.03554053832814097
1788862578319051300,7.65805126953125,1.1218693557441235,-1.3664623943530023,-0.3512733980432153
1788862578329093000,7.668093017578125,1.195946399345994,-1.5234488995708524,-0.5070581262558699
1788862578339135200,7.67813525390625,0.8087363032639027,-1.463531460355222,-0.33267245020866393
1788862578349177300,7.68817724609375,1.0161761076509952,-1.1456851156175136,0.18393632533326745
1788862578359219200,7.69821923828125,1.9139292494952678,-0.7540637058991938,0.5655591228023171
1788862578369261300,7.70826123046875,1.5225065041542052,-0.5407319208640605,0.3837333598822355
1788862578379302100,7.71830224609375,0.863613556355238,-0.2340424915652722,-0.19298983875215053
1788862578389344300,7.72834423828125,0.8925789540767669,0.11719017260875553,-0.5205177656792104
1788862578399386000,7.73838623046875,0.8682008841454982,0.12439747363906353,-0.5697321707032621
1788862578409428500,7.748428466796875,0.5306178655415773,-0.06869085705149919,-0.41586525881066916
1788862578419470300,7.75847021484375,0.6979676516026259,-0.38303752310518174,-0.09311316798329353
1788862578429512200,7.76851220703125,0.5705903949677944,-0.5041995584869757,-0.03123933400288224
1788862578439554300,7.77855419921875,0.7720937950432301,-0.4293942736757919,-0.22443974676579237
1788862578449596200,7.78859619140625,1.0495406171143054,-0.2210490083489567,-0.29428718997389075
1788862578459638300,7.79863818359375,0.7437818927943706,-0.2102722696003504,-0.500782114726305
1788862578469680400,7.808680419921875,0.8234270919173955,-0.1313733222673647,-0.4009995519816875
1788862578479722200,7.81872216796875,1.4955273118138313,0.08335490382853895,-0.13635478220805525
1788862578489764000,7.82876416015625,2.533444711151719,0.4902119861993938,0.09461290502175689
1788862578499806200,7.83880615234375,2.2701982638686893,0.7959272367037832,0.20586334885060786
1788862578509847000,7.848846923828125,1.7449731972813605,0.8725363560665398,0.27300240988284347
1788862578519889400,7.858889404296875,1.7413105831205844,0.9825402339003979,0.17510215375348925
1788862578529931300,7.86893115234375,1.8160533971548078,1.1907494152247906,0.07963672355562448
1788862578539973400,7.878973388671875,1.5595546705663204,1.2462906851828097,0.12768383836597202
1788862578550015200,7.88901513671875,1.3759458236217499,1.0982144855208695,0.2612302851550281
1788862578560058000,7.89905810546875,1.8955472051084041,0.892422667536512,0.44025677274540065
1788862578570100000,7.909099853515625,1.7972738778829573,0.7959259215295315,0.48528614716976876
1788862578580142000,7.91914208984375,1.2697674223601818,0.7206511195104569,0.351016500672698
1788862578590184000,7.929183837890625,0.9631249009430408,0.5737237245574593,0.3301439546443522
1788862578600226000,7.93922607421875,1.2817395997047423,0.4065004144202918,0.34398251038268207
1788862578610268200,7.94926806640625,1.5187223094403743,0.2648858119878918,0.08972761719822883
1788862578620310000,7.95931005859375,1.1301958700627088,0.11672945976182818,-0.287330210442841
1788862578630352100,7.96935205078125,0.5033218623369932,0.07529540641568601,-0.5830024250343442
1788862578640394000,7.97939404296875,0.7329144618213176,0.08725961964949965,-0.6148199242513627
1788862578650435000,7.98943505859375,1.145883853060007,0.13747721036672592,-0.352972895437479
1788862578660477000,7.999476806640625,1.0223299541056154,0.2984463554799557,-0.10184059125296771
1788862578670519000,8.00951904296875,0.6053145023465156,0.5305791409663856,0.08327266890518367
1788862578680561200,8.01956103515625,0.22705285187363622,0.6959089655071496,0.15440642559677362
1788862578690603000,8.02960302734375,0.4579693934381008,0.6238299638547002,0.18296148895174263
1788862578700644900,8.039644775390625,1.1037409938573837,0.48801148048043247,0.1192477261930704
1788862578710687000,8.04968701171875,0.9989303738176822,0.3928160993956029,-0.14657971402648837
1788862578720729000,8.05972900390625,0.3852618846237659,0.3004123948559165,-0.40463918712567537
1788862578730771000,8.06977099609375,0.421996747303009,0.21828326996266842,-0.5280660256342962
1788862578740813000,8.07981298828125,0.650840574246645,0.14265081361234186,-0.5740894525973126
1788862578750855000,8.08985498046875,0.4372901780247688,0.07075257535427808,-0.6004266207071021
1788862578760897000,8.09989697265625,0.10334230105280875,0.0070846975639462465,-0.5430071723196656
1788862578770939100,8.109939208984375,0.18992051430940626,-0.013466215294599532,-0.3285915375705808
1788862578780981000,8.11998095703125,0.17855740877389906,-0.07949322343170642,-0.12487510108817368
1788862578791022000,8.13002197265625,-0.02500117026567459,-0.14469751700907946,-0.03461469218749553
1788862578801064000,8.14006396484375,-0.2311456741452217,-0.16651216619312761,0.026985402885451912
1788862578811106000,8.15010595703125,-0.5515127695322036,-0.15086393068432807,-0.006704393009468913
1788862578821148000,8.16014794921875,-0.7790472674429416,-0.09276216258853673,0.0688212054328993
1788862578831190000,8.17018994140625,-0.526411061501503,-0.04667874906659126,0.3048712739609182
1788862578841232100,8.180232177734375,-0.27017770785093304,0.008419745559990406,0.5698974808001891
1788862578851274000,8.19027392578125,-0.25177929685115813,0.1168254674822092,0.5656386177793145
1788862578861315800,8.20031591796875,-0.2253589074373245,0.11893792959153651,0.263799733784236
1788862578871358000,8.21035791015625,-0.1842763709425926,0.10849252342283724,-0.08078063289374113
1788862578881400000,8.220400146484375,-0.5032856219798326,0.15492694233953952,-0.1843087023096159
1788862578891442200,8.230442138671876,-0.7344155140340328,0.09733400054872035,-0.10099756455756723
1788862578901484000,8.240484130859375,-0.5913473517924547,-0.04669394663572311,0.02588379831910133
1788862578911526000,8.25052587890625,-0.22410276989638805,-0.25441490605175493,0.14781995987854898
1788862578921567000,8.26056689453125,-0.0295101721227169,-0.3129413293004036,0.21826891264375298
1788862578931608800,8.27060888671875,0.020971476358175277,-0.43599546203911305,0.21924027842655777
1788862578941651200,8.280651123046875,-0.20621347746253013,-0.536666498056054,0.2918818093325943
1788862578951693000,8.290693115234374,-0.30734394768476486,-0.3942869026005268,0.5030400862535461
1788862578961735000,8.30073486328125,-0.06136778415441513,-0.3007400193750858,0.6389918040860444
1788862578971777000,8.310777099609375,0.20173019456863403,-0.19009236374497412,0.6062815938130021
1788862578981819000,8.32081884765625,0.43473990902006626,-0.09469780682623385,0.4324801473945379
1788862578991861000,8.330861083984376,0.3635433892905712,0.006344985112547874,0.1840764644563198
1788862579001903000,8.340903076171875,-0.2013473327308893,-0.01619768608510494,-0.09806450678035616
1788862579011945000,8.350945068359374,-1.0313917969614266,-0.2823626511633396,-0.33834954599700867
1788862579021987000,8.360987060546876,-1.5118039083540438,-0.6841963158816099,-0.37016390340887007
1788862579032029000,8.37102880859375,-1.5545599310189484,-1.091184879145026,-0.17540018685199318
1788862579042071000,8.381071044921875,-1.1639227830976246,-1.3500924204409122,0.03778513891715556
1788862579052112100,8.391112060546876,-0.7526333077698946,-1.421192494058609,0.16954068370144812
1788862579062154000,8.401154052734375,-0.7820534635215998,-1.373593707537651,0.25465361017845567
1788862579072196000,8.411196044921875,-1.2466758851081132,-1.3310282390087842,0.23735285822227595
1788862579082238000,8.421238037109376,-1.7766162897795437,-1.2760171304047108,0.18579207273516804
1788862579092279800,8.43127978515625,-2.072159909555316,-1.288819913354516,0.10655424883663654
1788862579102322200,8.441322265625,-1.8741344147235155,-1.460506851837039,0.024010442195273936
1788862579112364000,8.451364013671874,-1.5009844081759451,-1.6248551179945467,0.010949081374518572
1788862579122406000,8.461406005859375,-1.3699357695519923,-1.5434972697347402,0.1501152860078029
1788862579132448000,8.471447998046875,-1.1957084989368916,-1.1452467242002486,0.20516340215401724
1788862579142489900,8.48148974609375,-0.8236363507539033,-0.5999520985305309,-0.005627740221284329
1788862579152532200,8.4915322265625,-0.37209026836156844,-0.12617898676097392,-0.5958630391186103
1788862579162574000,8.501573974609375,-0.036949966734647746,0.23529168790876864,-1.1201250693600624
1788862579172615200,8.511615234375,0.09782149180471897,0.330503289476037,-1.3866533878579734
1788862579182657000,8.521656982421876,-0.022326982620358465,0.10580606081783771,-1.1285977872163058
1788862579192699000,8.531698974609375,-0.1489145501822233,-0.33691607912778854,-0.5559123196654021
1788862579202741200,8.5417412109375,-0.2257908691138029,-0.70208151666224,-0.07724218396875075
1788862579212783000,8.551783203125,-0.2875070283144712,-0.6744938370347022,0.3716195090446621
1788862579222825000,8.561824951171875,-0.303171630436182,-0.2943845128685236,0.6868363089963794
1788862579232867000,8.5718671875,-0.3449263671040535,0.052878188228607174,0.8073074395045637
1788862579242909000,8.581908935546876,-0.362853653460741,0.21805939807891844,0.7038729301236569
1788862579252951000,8.591950927734375,-0.26662147667407987,0.20041794292628765,0.5206523153116926
1788862579262993200,8.6019931640625,-0.21667466572225091,0.010042670586705207,0.24544150866437703
1788862579273035000,8.612034912109374,-0.18143501003682613,-0.3315279563486576,-0.16959266961701214
1788862579283077000,8.6220771484375,-0.0651157385110855,-0.7014648460686207,-0.5229292472677305
1788862579293119000,8.632118896484375,-0.006627893707156181,-1.0300397978305815,-0.7588857922933995
1788862579303160000,8.64216015625,-0.11279694261848926,-1.3724234947144984,-0.9603374621815979
1788862579313202200,8.6522021484375,-0.4792746317952871,-1.6646306635439394,-1.0906458038322626
1788862579323244000,8.662244140625,-0.9042273062944411,-1.7623334974050522,-1.0023895012956112
1788862579333286100,8.6722861328125,-1.0995581552147864,-1.6358926448374986,-0.8450783672332763
1788862579343328000,8.682327880859376,-1.1369599573701619,-1.4011813871651888,-0.7513489670477808
1788862579353369900,8.692369873046875,-1.1710931131184101,-1.1137900941848755,-0.7087910973034799
1788862579363412200,8.702412109375,-1.1406588118880987,-0.6847358295857906,-0.648359132694453
1788862579373454000,8.7124541015625,-0.984739935901761,-0.3153413761794567,-0.7279854079212993
1788862579383496000,8.722495849609375,-1.123116140934825,-0.06758885062634945,-0.8033262609139085
1788862579393538000,8.7325380859375,-1.4383230770796536,-0.022453239348530767,-0.88436488715671
1788862579403580000,8.742579833984376,-1.559210387173295,-0.12599427784383296,-0.8977391133189201
1788862579413622000,8.7526220703125,-1.2217986334830522,-0.23769231930971144,-0.9749114925876259
1788862579423663000,8.7626630859375,-0.7669996867746114,-0.23517829066216944,-1.0270023298308253
1788862579433705200,8.772705322265624,-0.4511252266317606,-0.08869359797537327,-0.7205568653557449
1788862579443747000,8.7827470703125,-0.02940437366068363,0.15764555364847183,-0.03515163034209982
1788862579453789000,8.792788818359375,0.3396113095611334,0.44448973414003845,0.7997105546347797
1788862579463831000,8.8028310546875,0.16654957559406755,0.7125678393632173,1.5533840191073716
1788862579473873200,8.812873046875,-0.4054161993801594,0.6387637674838305,1.9245650636695324
1788862579483915000,8.8229150390625,-0.7367045017540454,0.1330243226110935,1.7498298435322939
1788862579493957000,8.83295703125,-0.8608850081741809,-0.46695992462337016,1.300891021028906
1788862579503999000,8.8429990234375,-0.8040741566717624,-0.7937824797600507,0.830788779791817
1788862579514040800,8.853040771484375,-0.6827747586458921,-0.8246376367509365,0.45891303096376357
1788862579524083200,8.863083251953125,-0.5830290207803249,-0.8005915752530097,0.1859885999542661
1788862579534125000,8.873125,-0.4100152176082134,-0.7973235133677721,-0.10768472330444492
1788862579544166100,8.883166259765625,-0.2636240484237671,-0.5963970363974571,-0.16154018646683543
1788862579554208000,8.8932080078125,-0.39534254913330075,-0.2518716513097286,0.11933933173296972
1788862579564249600,8.90324951171875,-0.9130886581420898,-0.009358779975771904,0.46091465310975904
1788862579574291500,8.91329150390625,-1.1175222664505242,-0.16668576919436454,0.5874337585452943
1788862579584333300,8.923333251953125,-0.9274790025442838,-0.41517596137225626,0.6111071873385459
1788862579594375400,8.93337548828125,-0.02263619470000267,-0.6145888189092278,0.35536833920665084
1788862579604417300,8.943417236328125,0.7818430356413125,-0.5106821619719266,0.14170598877659066
1788862579614459400,8.95345947265625,1.0276830055713653,-0.1844026276707649,0.0481230295907706
1788862579624501500,8.96350146484375,0.9977297658562659,0.20820172867029904,0.07187982581853866
1788862579634543400,8.97354345703125,0.45954292636513705,0.4045823789045214,0.04366389475744217
1788862579644585500,8.98358544921875,-0.38564883811473843,0.28777561612278224,-0.024541918723471463
1788862579654627300,8.99362744140625,-0.5976268704533576,-0.07476356456130742,-0.1394930802337825
1788862579664668400,9.00366845703125,-0.3176210115492344,-0.4171078062176704,-0.252174689376913
1788862579674710500,9.01371044921875,-0.14687281522154808,-0.5452811816662549,-0.4093676404196769
1788862579684752400,9.02375244140625,-0.25434651699066163,-0.5932920561194419,-0.4741426026690751
1788862579694794500,9.03379443359375,-0.043426469272375104,-0.5712652254894376,-0.38392676356248556
1788862579704836400,9.04383642578125,0.18161562730073927,-0.5204881011933088,-0.12223799405023456
1788862579714878200,9.053878173828124,0.04728372922241687,-0.5878916583806276,0.15694091251045464
1788862579724920600,9.063920654296876,-0.11407646103501319,-0.6823623784527182,0.3098537385486066
1788862579734962400,9.07396240234375,-0.28704876315295696,-0.7756257685616612,0.3313172362074256
1788862579745004300,9.08400439453125,-0.38311727381050587,-0.8342913080200552,0.25429500599913296
1788862579755046400,9.09404638671875,-0.24622750794291495,-0.7793921353578567,0.13670366871096193
1788862579765088300,9.104088134765625,0.1887251670449972,-0.7433031693667173,0.1294914723098278
1788862579775130600,9.114130615234375,0.7213304070115089,-0.7822695904903113,0.09513575985208153
1788862579785171500,9.12417138671875,1.293831019514799,-0.8635654794298112,-0.13568521238341927
1788862579795213600,9.134213623046875,1.6116788255572319,-0.7534031230986118,-0.2630610077135265
1788862579805255400,9.14425537109375,1.8639853611528872,-0.5760113971032201,-0.21554463877901434
1788862579815297300,9.15429736328125,1.6319593970417976,-0.5103938465498388,-0.014421616323292254
1788862579825339400,9.16433935546875,1.4907441691905259,-0.39537645140290256,0.306482070158422
1788862579835381500,9.174381591796875,1.5332190368264913,-0.297125701335445,0.4661296112790704
1788862579845423400,9.18442333984375,1.5973451797783373,-0.36766492619998753,0.6041929509706795
1788862579855465500,9.194465576171876,2.128485023367405,-0.19930428259596228,0.5095850143849849
1788862579865507300,9.20450732421875,2.721276728749275,-0.04313859224170446,0.4247326020076871
1788862579875549400,9.214549560546875,2.6821523405849934,-0.1508263020876795,0.6219787830300629
1788862579885591600,9.224591552734376,2.6823475708961486,-0.31528369117546823,0.9278473974652588
1788862579895633400,9.23463330078125,2.283265250712633,-0.5359914118060842,1.0251588939212262
1788862579905674500,9.244674560546875,2.3548504774987697,-0.7938710348263383,1.1078190569512545
1788862579915716400,9.25471630859375,2.1486299857735633,-0.7728139260113239,0.9345610697597264
1788862579925758500,9.264758544921875,1.5023638798356056,-0.5250128120761365,0.45219840882122514
1788862579935800300,9.27480029296875,1.2123463300049304,-0.24948281994443386,-0.02671805718615651
1788862579945842400,9.284842529296874,0.91812372969985,-0.11240994346174411,-0.35139351729154583
1788862579955884500,9.294884521484375,0.6852057851850986,-0.09770823155543766,-0.42572234369739886
1788862579965926400,9.304926513671875,0.947781201338768,-0.01729434048170224,-0.39944004758000373
1788862579975968300,9.31496826171875,0.9377437914490699,-0.2217532110955566,-0.25626886335536836
1788862579986010400,9.32501025390625,0.6623562399953603,-0.2691339892179705,-0.16856062315553424
1788862579996052500,9.335052490234375,0.6203086578607558,-0.07521019408395513,-0.14722484352961182
1788862580006094300,9.34509423828125,0.4750362635731697,-0.09370017409101128,-0.0048769583866000174
1788862580016136400,9.355136474609376,1.026426868030429,-0.1628544839357957,0.10933014329075813
1788862580026177300,9.36517724609375,1.7906436460882424,0.19318932511331513,0.32582068461775776
1788862580036219400,9.375219482421874,1.7531763774812221,0.499980150693655,0.1430485807582736
1788862580046261200,9.38526123046875,2.0959072803676126,0.08742313964813947,-0.3348480406820774
1788862580056303600,9.3953037109375,2.284934645229578,-0.7175690086513757,-0.76385992744416
1788862580066345500,9.405345458984375,1.4273743975639341,-1.0310399147838354,-0.8812479972451924
1788862580076387300,9.41538720703125,-0.10527706850767135,-0.9775142224319279,-1.2291431510269641
1788862580086429400,9.425429443359375,-0.9535855037033557,-0.9896280002042651,-1.7354484130889176
1788862580096471300,9.43547119140625,-0.42688393482267856,-1.183043224761635,-1.3835449004486202
1788862580106513400,9.445513427734374,0.5410761311918497,-1.1255791700474918,-0.2151508902210742
1788862580116555500,9.455555419921875,1.2218126620084047,-0.757005823765695,0.506740000217408
1788862580126597400,9.465597412109375,1.859689125263691,-0.12957600878812373,0.4688735031597316
1788862580136638500,9.475638427734374,2.15065009342432,0.5398033347770571,0.09535736671350896
1788862580146680300,9.485680419921875,1.7496499569207429,1.1386629618957638,-0.3831502992972731
1788862580156722400,9.495722412109375,1.5251210705667733,1.6675968198731541,-0.7744760140046477
1788862580166764500,9.5057646484375,1.49993109973073,1.8347846933707594,-0.9473932249344885
1788862580176806400,9.515806396484376,1.6088298658668994,1.8386231024898587,-0.6467207909028977
1788862580186848500,9.5258486328125,1.9263930097490547,1.8150328219354153,-0.13241232819259166
1788862580196890400,9.535890380859374,2.1751327927738426,1.7108792044997214,0.07722926055509596
1788862580206932200,9.54593212890625,1.8039315822064876,1.5548472235277295,0.23590127117447554
1788862580216974600,9.555974609375,1.6000018317669629,1.363180596203357,0.5073008124379441
1788862580227016400,9.566016357421875,1.6794114685684443,1.0528021031282842,0.7960136728782207
1788862580237058300,9.576058349609376,1.7525731508910656,0.5493070761814713,0.8444422612868249
1788862580247100400,9.586100341796875,1.4138017992854117,-0.0019546411991119383,0.6627284343086183
1788862580257141200,9.596141357421875,1.0078279660224914,-0.5028647662192582,0.37051812367402015
1788862580267183400,9.606183349609376,0.8309820373415946,-0.7932929426774382,-0.06172072577793151
1788862580277225500,9.6162255859375,0.23953005613088607,-1.023358712631464,-0.37631248916648324
1788862580287267300,9.626267333984375,-0.4099181869745254,-1.1815037402346729,-0.43435858155228196
1788862580297309400,9.636309326171874,-0.27810031754374503,-1.1435945730790495,-0.06999342755004763
1788862580307351300,9.646351318359375,0.21384850238561628,-0.9709344056501984,0.3338565454266965
1788862580317393400,9.656393310546875,0.1780593961238861,-0.6228174258112907,0.5355741727747023
1788862580327435500,9.666435546875,0.07309796943664551,-0.12049246555715798,0.6809018774461001
1788862580337477400,9.676477294921876,0.39773850435912605,0.42666006293892855,0.7281235012177377
1788862580347519500,9.68651953125,0.5978548339903355,0.8863649018675088,0.5457516852548345
1788862580357561300,9.696561279296875,0.536791585740447,1.1356102963268757,0.2828464891575277
1788862580367602400,9.7066025390625,0.914755714571476,1.155192364153266,0.15088513786913826
1788862580377644300,9.716644287109375,1.1083102014690638,0.8642021698981524,-0.18536562748402355
1788862580387686400,9.726686279296874,0.27050036393404003,0.2906763060003519,-0.7734479861311614
1788862580397728500,9.736728515625,-1.4203876074165105,-0.5811462757736444,-1.2921575333446262
1788862580407770400,9.746770263671875,-3.495945927238464,-1.5091706372410059,-1.0683639755278824
1788862580417812200,9.756812255859375,-4.410719177466631,-2.4943407812535763,-0.02779927655160427
1788862580427854300,9.766854248046876,-4.069502186274528,-3.7813171125680207,0.6402089247908442
1788862580437896400,9.776896484375,-3.7729227937102316,-4.652915822458267,1.3064040853619574
1788862580447938600,9.7869384765625,-3.2141128529071805,-4.894043961435556,1.6097484420165418
1788862580457980400,9.79698046875,-2.4431927778184415,-4.464980929008126,1.100943252897635
1788862580468022300,9.807022216796875,-1.880364249023795,-3.596878244540095,0.1700704431965947
1788862580478063400,9.8170634765625,-1.4981599984049796,-2.846028897577524,-0.6600342998538166
1788862580488105200,9.827105224609374,-1.3344979609459637,-2.4540707301855087,-1.2607779140882194
1788862580498147600,9.837147705078126,-0.984094623735547,-2.322202591872215,-1.3647345476470887
1788862580508189400,9.847189453125,-0.2328495554536581,-2.137778336891532,-1.0976058521032332
1788862580518231300,9.857231201171874,0.43466859734952445,-1.7765309495836494,-0.7288727852150797
1788862580528273400,9.8672734375,0.6073983228832482,-1.121090772587061,-0.3957204425349831
1788862580538315300,9.877315185546875,0.7291168231040239,-0.10429682529866695,0.16636577999237923
1788862580548357400,9.887357421875,1.07239717656672,0.9830331319838762,0.6914172070458531
1788862580558399500,9.8973994140625,1.5740069742888212,1.739644111213088,0.9282035174265504
1788862580568441600,9.907441650390625,1.6927479200035334,2.2002736637711524,0.9266643251605331
1788862580578483700,9.917483642578125,1.5604454819262026,2.406650807362795,0.6554658959597349
1788862580588524800,9.92752490234375,1.7068559403330086,2.511445060789585,0.22483386064991354
1788862580598566700,9.937566650390625,1.9933973384857178,2.5940584620684386,-0.29859473270839076
1788862580608608800,9.94760888671875,1.9052520220428704,2.6252041264384984,-0.9218635007500648
1788862580618650600,9.957650634765624,1.1849492045134304,2.511614572137594,-1.451178613130003
1788862580628692700,9.967692626953125,-0.1507972951889038,2.3107798651039597,-1.765932983201742
1788862580638734800,9.97773486328125,-1.7204945895850658,1.8840660261511801,-1.7888491638869046
1788862580648776700,9.987776611328124,-3.4262580585062503,1.1541168438762426,-1.4919753184206783
1788862580658818800,9.99781884765625,-4.901753220638632,0.13297756085991858,-0.8198727604366839
1788862580668860700,10.007860595703125,-5.378407440802454,-1.1829267587751149,0.000520297547057271
1788862580678902500,10.017902587890624,-4.743033900278807,-2.461820321398973,0.6626783115565776
1788862580688945000,10.02794482421875,-3.6599329588681457,-3.276026580506563,1.197563552219048
1788862580698985700,10.03798583984375,-2.711424027776718,-3.375021207743883,1.6419576439648866
1788862580709027800,10.04802783203125,-1.8042939857780933,-2.7990684089601037,1.7428735946536063
1788862580719069700,10.058069580078126,-0.6097340723544359,-2.060292361629009,1.467296219716221
1788862580729111600,10.068111572265625,0.8056833454340696,-1.565605056646466,0.9835609552502631
1788862580739153700,10.078153564453125,2.002206667885184,-1.2728332396715878,0.45918034013044084
1788862580749195800,10.08819580078125,2.8049194730758664,-0.9224334095925092,-0.14988716720719822
1788862580759238000,10.09823779296875,3.0659383074373006,-0.38449674547016616,-0.6293053265258669
1788862580769279700,10.10827978515625,2.7662597798138857,0.09916530762910843,-0.8831311806432902
1788862580779321600,10.118321533203124,2.0198440313845873,0.2162134779512882,-1.205392273083329
1788862580789363700,10.12836376953125,1.0271282942980526,-0.07132569906711578,-1.7031521173790096
1788862580799405800,10.13840576171875,-0.18416940343677995,-0.5540086780011654,-2.1196280554339286
1788862580809447000,10.148447021484374,-1.7183973250448703,-1.0724953762441873,-1.9021477724172173
1788862580819488800,10.15848876953125,-3.5308541590124367,-1.683011538887024,-0.816462878927961
1788862580829530600,10.168530517578125,-4.8767298385411495,-2.29024619564116,0.5333852844282985
1788862580839572700,10.17857275390625,-5.172655735632777,-2.756876449918747,1.7255545033231376
1788862580849614600,10.188614501953126,-4.653955686900019,-2.990859977838397,2.5913001032710072
1788862580859656700,10.19865673828125,-3.632023207679391,-2.8017829286158085,2.9612387465566394
1788862580869698800,10.20869873046875,-1.970690416637063,-2.1521780336439607,2.6132047688260673
1788862580879740700,10.21874072265625,-0.17643384074866772,-1.4387509471029043,1.6566734209291636
1788862580889782800,10.22878271484375,0.8969657908588647,-1.0907733757346867,0.5920094689629971
1788862580899824600,10.23882470703125,1.4436130001813172,-0.7289397129714489,-0.03491973041552119
1788862580909865700,10.24886572265625,1.5808622470110654,-0.20988427492976186,-0.14492091396879403
1788862580919907800,10.258907958984375,1.491615106806159,0.1233434710741043,-0.18414916436634957
1788862580929949700,10.26894970703125,1.359130297899246,0.291364288264513,-0.2814531716356054
1788862580939991800,10.27899169921875,1.4217746778607367,0.38461598793566226,-0.2517845575481653
1788862580950033700,10.28903369140625,2.0296236671209336,0.6536813506305217,-0.13509630657956004
1788862580960075500,10.299075439453125,2.9892098725438117,1.0893307757109403,0.0018220095290802417
1788862580970118000,10.309117919921874,4.155828470596671,1.6062258208483458,-0.0025830752957612274
1788862580980159700,10.31915966796875,4.978891405376792,2.222711705550551,-0.1524707448264584
1788862580990201600,10.32920166015625,5.031573778772354,2.8184014704614877,-0.399738190276362
1788862581000243700,10.33924365234375,4.136864242407679,3.0617396867036817,-0.85900766999498
1788862581010284500,10.349284423828125,2.4726819071531296,2.5160709670245645,-1.0914470372125507
1788862581020327000,10.359326904296875,0.6022481005132198,1.3618307890295982,-1.250589989811927
1788862581030368800,10.36936865234375,-1.7457447661757468,0.2592360425978899,-1.2577271482154726
1788862581040411000,10.379410888671876,-4.573227368715405,-0.7631511946529149,-0.8669226809032261
1788862581050452700,10.38945263671875,-5.648202286815643,-1.7844482985794543,-0.4020539198728278
1788862581060494600,10.39949462890625,-6.058524962937832,-2.3821096558243036,0.6031666401302441
1788862581070537000,10.409536865234376,-5.874332763147354,-2.733653395241499,1.4549078627862035
1788862581080578800,10.419578857421875,-3.843060744297504,-2.8503005835473534,1.4855708582058549
1788862581090620700,10.42962060546875,-1.4921733252108096,-1.9599109562084078,1.2639983374394477
1788862581100662800,10.439662841796874,-1.408859082186222,-0.28716712883561846,1.1032112708948552
1788862581110704600,10.44970458984375,-2.8266484898030755,0.6574997398748994,1.150438886015862
1788862581120745700,10.459745849609375,-4.106306607058644,0.052902153626084324,1.2458207295835018
1788862581130787800,10.469787841796874,-4.5034874775350096,-0.9550202126815914,1.2307348041325807
1788862581140829700,10.47982958984375,-4.4152328554987905,-2.022135941714048,1.1240300409093498
1788862581150871800,10.489871826171875,-3.8483588507056234,-3.07264423481673,0.7316334821000695
1788862581160913700,10.49991357421875,-2.311837265202403,-3.607104162739217,0.6362842986930162
1788862581170955800,10.509955810546876,-0.2130775180131197,-3.411325862312317,0.8709318434793502
1788862581180998000,10.519997802734375,1.4498673844009637,-2.723798356181383,1.3327373810142278
1788862581191039700,10.530039794921874,2.5177444531947373,-1.6984797416538,1.4335378886297345
1788862581201081900,10.540081787109376,2.8968086522221563,-0.6553495761036873,1.1150848101705313
1788862581211123700,10.550123779296875,3.005194208139181,-0.04108239036425948,0.5808256655171513
1788862581221164800,10.560164794921874,3.6322546783477065,0.3221180307075381,-0.0795936150662601
1788862581231206700,10.57020654296875,4.295272597122192,0.5541507168203592,-0.5076356338828801
1788862581241248800,10.580248779296875,4.553404477870464,0.6645932052671909,-0.6977012557514012
1788862581251291000,10.590290771484375,4.842554597216845,0.664040101429075,-0.7065947563029825
1788862581261332700,10.600332763671876,5.218292282170057,0.5193443379856646,-0.536414861382544
1788862581271374600,10.61037451171875,4.603001744732261,0.1415107036665082,-0.2227913950368762
1788862581281416700,10.620416748046875,4.297601916852593,-0.2662986744605005,0.1747230913080275
1788862581291458800,10.630458740234374,4.015798068615794,-0.6206454885996878,0.49021220539510246
1788862581301500700,10.640500732421875,2.999604425308108,-0.8430140551146119,0.4358217129074037
1788862581311542800,10.650542724609375,2.1964625810503957,-0.9223658242490143,0.5110664851143956
1788862581321584600,10.660584716796874,3.524334986376762,-0.7348822547629476,1.1484079647101462
1788862581331625700,10.670625732421875,1.7266332384705543,-0.6204853296019136,0.9320978945165872
1788862581341667600,10.68066748046875,-0.3032709991574287,-0.49531095330622044,-0.301941650249809
1788862581351710000,10.6907099609375,1.4627157600581646,-0.15989199913470073,-0.6956878701023756
1788862581361751800,10.700751708984376,1.3058815227925777,0.006829846020042896,-0.5162948872871697
1788862581371793700,10.710793701171875,-0.18661153589189053,-0.2017387432012707,-0.20533947110697626
1788862581381835800,10.720835693359374,-0.4400841926574707,-0.3945461380586028,0.2570841252610087
1788862581391877600,10.730877685546876,-0.1562298416316509,-0.004215791064128279,0.7770616465836763
1788862581401919700,10.740919677734375,-0.01674889022707939,0.6585720452815294,0.9613153673030436
1788862581411961900,10.7509619140625,0.20765841557383535,1.1020905232366174,0.8882401942200958
1788862581422003700,10.761003662109376,0.4199702099114656,1.0853685940816997,0.7294274964883923
1788862581432044800,10.771044921875,0.4787386252224445,0.9095452133815735,0.5374437660388648
1788862581442086700,10.781086669921875,0.4202759148597717,0.35901813041847197,0.4837174365483224
1788862581452128800,10.791128662109376,0.8437702072441577,-0.13336082455646245,0.6557550881646573
1788862581462171000,10.8011708984375,0.8801660472273826,0.001504961202852428,0.5970929097071289
1788862581472212700,10.811212646484375,0.4705050498843193,-0.016356274180300532,0.25285949330329893
1788862581482254800,10.8212548828125,1.0034253471493721,-0.13083563519408925,0.1589037370160222
1788862581492296700,10.831296630859375,0.9364543361604213,-0.17268035170035437,0.554199524398148
1788862581502338600,10.841338623046875,1.4987515345573423,-0.35336532882116733,0.712155313039571
1788862581512381000,10.851380859375,2.874633060771227,-0.23525679925847798,0.30665888803005215
1788862581522422800,10.8614228515625,3.4202602793961763,0.19983725696150212,-0.34229733377471566
1788862581532463900,10.8714638671875,2.6198317857503888,0.4913321128031239,-0.7164144317887723
1788862581542505700,10.881505615234374,2.9203333201944828,0.6852293121911585,-0.6510121314212679
1788862581552547600,10.891547607421876,3.597480886608362,0.8771667192809284,-0.38976226478293535
1788862581562590000,10.90158984375,3.4330139625072476,0.8312411266691982,0.1088635486923158
1788862581572631800,10.9116318359375,3.195075559481978,0.6672099636368453,0.6115197867274283
1788862581582673700,10.921673583984376,2.998509615808725,0.5390105038989335,0.5554715901605785
1788862581592716000,10.931716064453125,2.5643770250320435,0.3937272959563881,0.3169305450670421
1788862581602758000,10.9417578125,2.044374661529064,0.27338585624247785,0.23200477519258855
1788862581612800000,10.951800048828124,1.6618635369181631,0.22759572657868266,0.16971271580010652
1788862581622841900,10.961841796875,1.0902104811549187,-0.07376271695569157,0.14147811657115816
1788862581632883000,10.971883056640625,0.5192243648678064,-0.6699383656874298,0.27663689392767843
1788862581642924800,10.9819248046875,0.6302513752043247,-1.0454257291413842,0.5751529536429792
1788862581652967000,10.991966796875,0.6546908199340105,-1.1077375161476433,0.9088333387851715
1788862581663009000,11.002009033203125,0.1859843439042568,-1.0273556733131408,0.9931696913991123
1788862581673051000,11.01205078125,-0.15736615218520164,-0.8657087750688195,0.7074054150987417
1788862581683092700,11.0220927734375,-0.17508534874916076,-0.6296303206965327,0.2775640917751938
1788862581693134800,11.032134765625,0.09561609071493148,-0.4728799623221159,0.013552213077619672
1788862581703177000,11.042177001953124,0.7761889554023742,-0.2403729366958141,-0.06429287782087922
1788862581713218800,11.05221875,0.9346715443968773,-0.010582768812775612,-0.14124503846764563
1788862581723260000,11.062260009765625,0.2313321366280317,0.0026686346873641014,-0.4006158864263445
1788862581733301800,11.0723017578125,-0.5898626661926507,-0.1623480322510004,-0.5840854710306972
1788862581743343900,11.08234375,-0.7908657155305147,-0.34599896477162834,-0.42425128476414825
1788862581753386000,11.092385986328125,-0.21194939076602456,-0.5082683788284659,-0.057197622330300506
1788862581763428000,11.102427978515625,0.4052764986485243,-0.618282997252047,0.15615096770916134
1788862581773470000,11.112469970703126,0.4130091387271881,-0.8370932136982678,0.2148293666491285
1788862581783511800,11.12251171875,0.2061445038795471,-1.0771797346681355,0.22833123777899889
1788862581793554000,11.132553955078125,0.3537397881567478,-1.3329489779382944,0.0932709158282727
1788862581803596000,11.142595947265624,0.16265958241820336,-1.481148657849431,-0.1995299811106175
1788862581813638000,11.152637939453125,-0.37264848676621914,-1.6628016945511102,-0.5222957716697827
1788862581823679000,11.162678955078125,-0.7674304794073105,-1.7606652719318865,-0.6462285504065454
1788862581833720800,11.172720947265624,-0.7270704119682312,-1.8136510121881961,-0.4702443531215191
1788862581843763000,11.182762939453125,-0.6051993515342473,-1.789182341364026,-0.25408209390081465
1788862581853804800,11.1928046875,-0.7471154211312532,-1.751796321299672,-0.2296294974286109
1788862581863847000,11.202846923828124,-0.9752478849351406,-1.5040648385345934,-0.25939123315960166
1788862581873889000,11.212888916015626,-1.1647101340830326,-1.1197089628398418,-0.26777387984590606
1788862581883931000,11.222930908203125,-1.206757716217637,-0.8246294534444808,-0.21099325908496974
1788862581893973000,11.232972900390624,-0.9256997179120778,-0.49617432866990563,-0.237482841277495
1788862581904014800,11.243014892578126,-0.5283475825220346,-0.2543161218523979,-0.5715808307772502
1788862581914057000,11.253056884765625,-0.5197808297067881,-0.17793606200516224,-0.9122044226534665
1788862581924098000,11.26309814453125,-0.8224789974123239,-0.27681203129887577,-1.0193363252475858
1788862581934140000,11.273139892578126,-0.9185480925917625,-0.4090180232644081,-0.8198164271395653
1788862581944182000,11.28318212890625,-1.0021411525577306,-0.6175356860160828,-0.4995587834764272
1788862581954223900,11.293223876953125,-1.2530898438036442,-0.7978004832297563,-0.20009435526141894
1788862581964265700,11.303265625,-1.6585265014499424,-0.9789169288367032,-0.017830584516562522
1788862581974308000,11.31330810546875,-2.12254452740252,-1.240389352184534,0.12104219012809916
1788862581984350000,11.323349853515625,-2.32014215221107,-1.4894669888615608,0.212985437549185
1788862581994391800,11.333391845703124,-2.2932862939894196,-1.6594184818536042,0.20422420334145425
1788862582004434000,11.343433837890625,-2.236341586974263,-1.6096645631253719,0.10244661258840933
1788862582014474800,11.353474853515625,-2.0838649603962898,-1.4452385555565357,-0.0788094606849365
1788862582024516900,11.363516845703124,-1.794476940640807,-1.2106494629591702,-0.41584217019602654
1788862582034559000,11.37355908203125,-1.4462515319913625,-0.9728799867600202,-0.6941608066655695
1788862582044601000,11.38360107421875,-1.2572849574059248,-0.7534323491930961,-0.9013424715731292
1788862582054643000,11.393642822265624,-1.2520850506752728,-0.592100215986371,-0.9121871792577206
1788862582064684800,11.403684814453126,-1.3154700198709963,-0.5672340702772141,-0.597054112066701
1788862582074727000,11.413726806640625,-1.1998591888755559,-0.7989379628270864,-0.13526393649773671
1788862582084769000,11.42376904296875,-0.9630553428381681,-0.906881620195508,0.016644626135006547
1788862582094811000,11.433810791015626,-0.7827630730956793,-0.8482283556967973,-0.045319954868778586
1788862582104852000,11.44385205078125,-0.7181792495042085,-0.700283527329564,-0.12550008285241201
1788862582114893800,11.453893798828124,-0.5994862345844507,-0.5563602095633745,-0.1899686277674511
1788862582124936000,11.46393603515625,-0.3859697406321764,-0.38281741408109665,-0.26361409328533336
1788862582134977800,11.473977783203125,-0.07551496745049953,-0.22805296882688997,-0.32486988669894634
1788862582145020000,11.48402001953125,0.12636018854677677,-0.24558161125481126,-0.43074265607744455
1788862582155062000,11.49406201171875,0.10831365972459316,-0.4405021258085966,-0.5059189296254888
1788862582165103900,11.504103759765625,0.014220833054184912,-0.6221586696416139,-0.500407143934071
1788862582175146000,11.51414599609375,-0.14010755887031554,-0.6343775152236223,-0.38543022692799567
1788862582185187800,11.524187744140624,-0.4008598512500524,-0.6069336279809474,-0.448661247671023
1788862582195230000,11.53422998046875,-0.7754664863467216,-0.4332634067267179,-0.5940383444420994
1788862582205271000,11.54427099609375,-1.0913730951935052,-0.1050789155870676,-0.6124005881499499
1788862582215313000,11.55431298828125,-1.0627911438316107,-0.010891980892419814,-0.8676013108171522
1788862582225355000,11.56435498046875,-0.6761006877094506,-0.17371289135217666,-1.510113763310015
1788862582235396900,11.57439697265625,-0.46114685443043707,-0.3662865505188703,-1.9915427966602146
1788862582245438700,11.584438720703124,0.39716508838534353,-0.422789358985424,-1.7147155677922068
1788862582255481000,11.594481201171876,1.3129472233951092,-0.20609540404081345,-0.6681210140671581
1788862582265523000,11.60452294921875,1.2783289144784211,-0.2017664349257946,0.24419271417967975
1788862582275564800,11.614564697265624,0.653278030526638,-0.4136655568093061,0.7281273006100207
1788862582285607000,11.62460693359375,-0.2899702035576105,-0.5268991372793913,1.2095197282768786
1788862582295647700,11.634647705078125,-1.2470529017269611,-0.5267629436790943,1.6864393213786184
1788862582305689900,11.64468994140625,-2.1680162387669086,-0.6327747562021017,1.8772988701038062
1788862582315732000,11.65473193359375,-2.6029841113239525,-1.0329647453665733,1.5730053960308432
1788862582325774000,11.664774169921875,-2.473749244123697,-1.4022598300516604,1.0086536031916737
1788862582335816000,11.67481591796875,-1.9870131904065609,-1.4431646718919275,0.5265234358347952
1788862582345857800,11.68485791015625,-1.3438181624770165,-1.072234679481387,0.07459078354397788
1788862582355900000,11.69489990234375,-1.0117185437202454,-0.577062805852294,-0.1663854162746109
1788862582365942000,11.70494189453125,-0.8732149129152298,-0.305441328933835,-0.19360015267021952
1788862582375983900,11.71498388671875,-0.6501660359859466,-0.4290478348582983,-0.150302460876666
1788862582386025000,11.72502490234375,-0.39093233147561546,-0.6519061576515436,-0.05704212124133482
1788862582396066800,11.73506689453125,-0.14412322425246238,-0.5576724612057209,0.19728123406944795
1788862582406109000,11.74510888671875,0.07234744333028793,-0.20994681877195834,0.4498414338989183
1788862582416150800,11.75515087890625,0.11230185257792472,-0.04053074783086776,0.460827303619869
1788862582426193000,11.76519287109375,0.20492636026144026,-0.16051964778006075,0.5154800637729465
1788862582436235000,11.775235107421874,0.10257599285542965,-0.47573885888457296,0.6701765583574771
1788862582446276900,11.78527685546875,-0.07184124737381935,-0.7633586999237537,0.6354954133376479
1788862582456319000,11.795319091796875,-0.10286182405948638,-0.9744935594365001,0.47907783058155323
1788862582466360800,11.80536083984375,-0.5552876118957996,-1.173280978551507,0.3120322881640866
1788862582476402000,11.81540185546875,-0.76273150793612,-1.2541712092995643,0.16023381657600402
1788862582486444000,11.825444091796875,-0.6244692846715449,-1.2261235109448432,0.005543386406078934
1788862582496486000,11.83548583984375,-0.43083588731884953,-1.0851008830562234,0.0803464061949402
1788862582506528000,11.845528076171876,-0.14668693726062773,-1.1140624813854694,0.2597975489381701
1788862582516569900,11.85556982421875,-0.08117021673321724,-1.2523919246673583,0.3085287004899233
1788862582526611700,11.86561181640625,0.21414193237423895,-1.2149968445137143,0.2477186232835054
1788862582536654000,11.875654052734374,0.194960262042284,-1.0456009395778179,0.19114508766829966
1788862582546696000,11.885696044921875,0.49793432407975197,-0.7592305140778421,0.04827098669409752
1788862582556737800,11.89573779296875,0.9820616566032171,-0.19356237794309852,-0.15653101653531193
1788862582566779100,11.905779052734376,0.7620341733217239,0.3404842930033803,-0.32266704289242626
1788862582576821000,11.915821044921875,0.598881254428625,0.2772518840208649,-0.541206917964667
1788862582586863000,11.925863037109375,0.7823743660390376,-0.19309797530174255,-0.7386522748209535
1788862582596905000,11.935905029296874,1.1620084739089012,-0.6324946240864694,-0.6829369634702801
1788862582606947000,11.945947021484375,1.0037211152255534,-1.108237866885215,-0.2918582092612982
1788862582616989200,11.9559892578125,1.2736001323908566,-1.7328874765597282,0.21344781263023613
1788862582627031000,11.966031005859374,1.9220833298563955,-1.636873618698865,0.49730859339684247
1788862582637073200,11.9760732421875,2.0683336292654273,-0.8843675905704498,0.3798921742841601
1788862582647115000,11.986114990234375,1.5310346785247324,0.2259299853235483,0.2037457721747458
1788862582657156400,11.99615625,1.7263590977042913,0.8290604946944862,0.12531594019085168
1788862582667198200,12.0061982421875,2.3687053998500107,0.9556010082442313,0.0656179889447987
1788862582677240000,12.016239990234375,2.659683319145441,0.5985552373446523,0.1032109297581017
1788862582687282200,12.0262822265625,2.531053432101011,-0.039603294255025685,0.22314883017241954
1788862582697324000,12.036323974609376,3.1644162173241375,-0.5566591925099492,0.28569384141266346
1788862582707366100,12.0463662109375,3.1702702040493485,-0.9110961691506206,0.3149814568258822
1788862582717408300,12.056408203125,2.8026310698777435,-1.1097121041562408,0.5004949683479964
1788862582727450000,12.0664501953125,2.7361995725929735,-1.1350734129711986,0.7912817489854991
1788862582737492000,12.076491943359375,2.8234453098475933,-0.9239532395709306,0.876455794532597
1788862582747533000,12.086532958984375,2.455460723239183,-0.4849683499248698,0.5195158951602876
1788862582757575000,12.096574951171876,1.0271487525641918,0.4004464116109535,0.41372181704118843
1788862582767617300,12.1066171875,0.8002151431560516,0.6551065611280501,0.7087292841136456
1788862582777659100,12.1166591796875,1.4229612572968005,0.10152451104111969,1.0863475221164525
1788862582787701200,12.126701171875,1.7723031027555465,-0.2700686579858884,1.3253135146237909
1788862582797743000,12.1367431640625,2.6466660166621208,-0.0007481149535626172,1.1421389674432576
1788862582807785000,12.146784912109375,3.4631939967155456,0.4978327634014189,0.39831630424708125
1788862582817827300,12.156827392578125,2.532114923852682,0.8785981403235346,-0.2892101789705455
1788862582827869200,12.166869140625,0.8610989431858063,0.8643734348118305,-0.6143887662924826
1788862582837910300,12.17691015625,-0.24936522144675252,0.262449159425497,-0.43668242138996716
1788862582847952100,12.1869521484375,0.20283961711525916,-0.3212220682485029,0.28401567906737324
1788862582857994000,12.196993896484376,1.1391665275037288,-0.14726532167047263,1.3404106921210883
1788862582868036000,12.2070361328125,1.3138286824047565,0.1340614014407154,1.92215902544111
1788862582878078200,12.217078125,1.607722781407833,0.012341481014410965,1.3542236750267445
1788862582888120000,12.2271201171875,2.2386031021654604,-0.09558770487066358,0.1758417200744152
1788862582898162200,12.237162109375,2.193370460253954,0.051199660557135936,-0.730824065413326
1788862582908204000,12.2472041015625,1.607510015439987,0.19355097976624966,-1.4213584982752798
1788862582918246100,12.25724609375,1.2347130601137877,0.28446159620396794,-1.6445954451225697
1788862582928287000,12.267286865234375,0.9588684125423431,0.41032859440632163,-1.2423061455912887
1788862582938329300,12.277329345703125,0.8655027311027049,0.5246496778521686,-0.617563523871079
1788862582948371200,12.28737109375,0.8382651800870895,0.4188577186249196,-0.266969121067971
1788862582958413000,12.2974130859375,0.7901800713539123,0.16029285328686235,-0.1490408799756318
1788862582968455200,12.307455078125,0.6055722764998674,0.036351416319608684,-0.1785861234117299
1788862582978497000,12.3174970703125,0.34070144288539883,-0.13518135451450944,-0.2193094712052494
1788862582988539100,12.3275390625,0.44485622936487196,-0.41632703110352154,-0.2634849322140217
1788862582998581200,12.337581298828125,0.6893576441675424,-0.48135962137579913,-0.4567497154500335
1788862583008622000,12.3476220703125,0.8351753973782062,-0.30470234713479877,-0.6676661099065094
1788862583018664200,12.357664306640626,0.9741291100382804,0.029557372265309093,-0.9845689632490277
1788862583028706000,12.3677060546875,0.8503729665100574,0.354498497569561,-1.2870619637712835
1788862583038748000,12.377747802734374,0.7548246803343296,0.6207677998051047,-1.0833102733124047
1788862583048790300,12.387790283203126,1.2351964597165583,0.7588102428391575,-0.4890370241358876
1788862583058832100,12.39783203125,1.5529074876368045,0.7903112965181469,0.21430004554539916
1788862583068874200,12.407874267578125,1.5848656374335288,0.7385153505682944,0.7177525485247374
1788862583078916000,12.417916015625,1.6322370449393986,0.6557441283792257,1.05157657992132
1788862583088958000,12.4279580078125,1.5966355702042578,0.5163455945611,1.1694384047139434
1788862583098999000,12.4379990234375,1.1737053414434193,0.3256204858705401,1.0898388713635503
1788862583109041200,12.448041259765626,0.6358031641125679,0.07804507045000791,0.9692038555305451
1788862583119083300,12.458083251953125,0.40678047347068785,-0.183939978595078,0.9179426740445196
1788862583129125000,12.468125,0.22219547497034073,-0.49137657299935816,0.9046681819297373
1788862583139167000,12.4781669921875,-0.15700725574493407,-0.8267126894593239,0.8876894284695387
1788862583149209000,12.488208984375,-0.446001307746768,-0.9967702731743454,1.010839861189574
1788862583159251200,12.498251220703125,-0.5693810191780329,-1.099573937305808,1.2312068055585026
1788862583169293000,12.50829296875,-0.41003976752758026,-1.1140098744153977,1.3027706972956656
1788862583179334100,12.518334228515625,-0.200066645270586,-1.121720887184143,0.9092586515251546
1788862583189376000,12.5283759765625,-0.4780371989548206,-1.166127015143633,0.2839678213376552
1788862583199418000,12.538418212890624,-1.0954606567680836,-1.256627954801917,-0.2424953722098842
1788862583209460000,12.5484599609375,-1.4794675728946924,-1.3570599213659762,-0.43819026866964994
1788862583219502300,12.55850244140625,-1.2318003875374792,-1.5089730688422918,-0.5458505059868097
1788862583229544200,12.568544189453124,-0.9244260447144508,-1.6379261964917182,-0.4592691874576732
1788862583239586000,12.5785859375,-0.7792056728750467,-1.718282174232602,-0.2516875999797135
1788862583249628200,12.588628173828125,-0.8556985454469919,-1.7278157262533902,0.013759279957041144
