time,seconds_elapsed,z,y,x
1788862570727331000,0.0663310546875,-0.31517261266708374,-0.5837525725364685,2.195782423019409
1788862570737373400,0.07637353515625,-0.6051319241523743,-0.7947564125061035,2.1984493732452393
1788862570747415300,0.086415283203125,-0.9027279019355774,-1.0921210050582886,2.1406614780426025
1788862570757457200,0.09645703125,-1.143739104270935,-1.4173181056976318,2.091362953186035
1788862570767499300,0.106499267578125,-1.32969331741333,-1.593478798866272,2.0360217094421387
1788862570777541000,0.116541015625,-1.4573134183883667,-1.5194355249404907,1.683215618133545
1788862570787583200,0.126583251953125,-1.3953659534454346,-1.7635136842727661,1.0429778099060059
1788862570797625300,0.136625244140625,-1.255741834640503,-1.5386559963226318,0.48702293634414673
1788862570807667200,0.146667236328125,-1.0822166204452515,-1.049179196357727,0.060826078057289124
1788862570817709300,0.156709228515625,-0.9001360535621643,-0.47457006573677063,-0.2632315158843994
1788862570827751200,0.166751220703125,-0.7023504972457886,0.1694677770137787,-0.41927942633628845
1788862570837793300,0.176793212890625,-0.44991281628608704,0.8078271150588989,-0.4108029305934906
1788862570847835400,0.18683544921875,-0.14956310391426086,1.1701300144195557,-0.39281728863716125
1788862570857877200,0.196877197265625,0.11556805670261383,0.9180770516395569,-0.444801390171051
1788862570867919000,0.206919189453125,0.23503853380680084,-0.02410430647432804,-0.5615703463554382
1788862570877961200,0.216961181640625,0.20686818659305573,-1.296212911605835,-0.6386283040046692
1788862570888003300,0.22700341796875,0.2248501032590866,-2.0228776931762695,-0.5839871764183044
1788862570898045200,0.237045166015625,0.3680252134799957,-2.2254884243011475,-0.4450550079345703
1788862570908087300,0.24708740234375,0.5557022094726562,-2.350522994995117,-0.37284231185913086
1788862570918129200,0.257129150390625,0.7532094717025757,-2.5775845050811768,-0.42060407996177673
1788862570928171300,0.267171142578125,0.9287909269332886,-2.9576025009155273,-0.5484193563461304
1788862570938213400,0.27721337890625,1.2267974615097046,-3.4494786262512207,-0.6509988307952881
1788862570948255200,0.287255126953125,1.7946687936782837,-3.8230302333831787,-0.5063310861587524
1788862570958297300,0.29729736328125,2.304400682449341,-4.030434608459473,-0.22892875969409943
1788862570968339200,0.307339111328125,2.539094924926758,-4.2639851570129395,0.08828727155923843
1788862570978381000,0.317381103515625,2.1342661380767822,-4.628418445587158,0.41232097148895264
1788862570988423400,0.32742333984375,1.3606349229812622,-4.851721286773682,0.6852015256881714
1788862570998465300,0.33746533203125,0.8667309284210205,-4.965081214904785,0.9289065599441528
1788862571008507100,0.347507080078125,0.8623417615890503,-5.280648231506348,1.189476728439331
1788862571018549200,0.35754931640625,1.2864305973052979,-5.710718631744385,1.4848692417144775
1788862571028591000,0.367591064453125,1.800252079963684,-6.029311656951904,1.8314298391342163
1788862571038633500,0.377633544921875,2.1552493572235107,-6.155403137207031,2.1399354934692383
1788862571048675300,0.38767529296875,2.367344856262207,-6.18073034286499,2.332707643508911
1788862571058717200,0.39771728515625,2.5895235538482666,-6.268810749053955,2.4082272052764893
1788862571068759300,0.40775927734375,2.9003586769104004,-6.4865922927856445,2.416881799697876
1788862571078801200,0.41780126953125,3.2153244018554688,-6.512319087982178,2.400047540664673
1788862571088843300,0.42784326171875,3.464066505432129,-6.298449993133545,2.366267681121826
1788862571098885400,0.437885498046875,3.7053370475769043,-5.871766567230225,2.318344831466675
1788862571108927200,0.44792724609375,3.9298315048217773,-5.280873775482178,2.194462776184082
1788862571118969000,0.457968994140625,4.078208923339844,-4.610363960266113,1.8502113819122314
1788862571129011200,0.46801123046875,4.155250549316406,-3.9429681301116943,1.3840023279190063
1788862571139053300,0.47805322265625,4.222469806671143,-3.293619394302368,0.9394344687461853
1788862571149095400,0.488095458984375,4.256802082061768,-2.733529567718506,0.6486636400222778
1788862571159137300,0.49813720703125,4.259829044342041,-2.5198893547058105,0.5554476976394653
1788862571169179100,0.50817919921875,4.179421901702881,-2.457354784011841,0.6246289014816284
1788862571179221200,0.51822119140625,4.03755521774292,-2.37161922454834,0.7440601587295532
1788862571189263400,0.528263427734375,3.8636302947998047,-2.242215156555176,0.8257832527160645
1788862571199305200,0.53830517578125,3.6618831157684326,-2.0255091190338135,0.884371817111969
1788862571209347300,0.548347412109375,3.4436657428741455,-1.653489351272583,0.9224094748497009
1788862571219389200,0.55838916015625,3.20981764793396,-1.2080509662628174,0.9246180653572083
1788862571229431000,0.56843115234375,2.970738172531128,-0.7648271918296814,0.8882067799568176
1788862571239473400,0.578473388671875,2.732832670211792,-0.3969022035598755,0.7984630465507507
1788862571249515300,0.588515380859375,2.527167320251465,-0.1104869693517685,0.6731301546096802
1788862571259557000,0.59855712890625,2.329460859298706,0.12223318219184875,0.5312095880508423
1788862571269599200,0.60859912109375,2.104687452316284,0.24716819822788239,0.4180828034877777
1788862571279641000,0.61864111328125,1.8554027080535889,0.218283012509346,0.38863879442214966
1788862571289683500,0.628683349609375,1.5750151872634888,0.10695728659629822,0.49012091755867004
1788862571299725300,0.638725341796875,1.314945936203003,0.007844721898436546,0.7092220783233643
1788862571309767200,0.64876708984375,1.0426197052001953,-0.1187819316983223,0.9769400954246521
1788862571319809300,0.658809326171875,0.7455605268478394,-0.25319725275039673,1.1900845766067505
1788862571329851100,0.66885107421875,0.4660130739212036,-0.3107697367668152,1.3295655250549316
1788862571339893200,0.678893310546875,0.25017625093460083,-0.2770768702030182,1.3891935348510742
1788862571349935400,0.688935302734375,0.0756198987364769,-0.07685374468564987,1.3722591400146484
1788862571359977200,0.698977294921875,-0.06721892207860947,0.12868085503578186,1.264954924583435
1788862571370019000,0.70901904296875,-0.19759158790111542,0.31238651275634766,1.1145312786102295
1788862571380061200,0.719061279296875,-0.28235700726509094,0.4258481562137604,1.0004876852035522
1788862571390103300,0.729103271484375,-0.29895809292793274,0.4832483232021332,0.9657675623893738
1788862571400145400,0.7391455078125,-0.2493373602628708,0.307590126991272,0.9691357612609863
1788862571410187300,0.749187255859375,-0.05747604742646217,-0.18660813570022583,0.9581025838851929
1788862571420229000,0.75922900390625,0.2715815603733063,-1.1576002836227417,0.8484482169151306
1788862571430271200,0.769271240234375,0.40255850553512573,-2.1345138549804688,0.7121856808662415
1788862571440313300,0.779313232421875,0.41814786195755005,-2.2853567600250244,0.6696869134902954
1788862571450355200,0.789355224609375,0.3758406341075897,-1.589963674545288,0.7374145984649658
1788862571460397300,0.799397216796875,0.2717192471027374,-0.7919453382492065,0.6260160207748413
1788862571470439200,0.809439208984375,0.17727425694465637,-0.21086756885051727,0.16139724850654602
1788862571480481000,0.81948095703125,0.0689125508069992,0.41726019978523254,-0.4224032163619995
1788862571490523400,0.8295234375,-0.017329664900898933,1.0962640047073364,-0.9208511114120483
1788862571500565200,0.839565185546875,-0.06367215514183044,1.515597939491272,-1.3157249689102173
1788862571510607400,0.849607421875,-0.09698536992073059,1.6716340780258179,-1.5963733196258545
1788862571520649200,0.859649169921875,-0.11585069447755814,1.6524523496627808,-1.7588324546813965
1788862571530690300,0.869690185546875,-0.09706608951091766,1.5074677467346191,-1.8099992275238037
1788862571540732200,0.879732177734375,-0.00887101050466299,1.20150887966156,-1.7242504358291626
1788862571550774300,0.889774169921875,0.1596093475818634,0.8672991394996643,-1.4757747650146484
1788862571560815600,0.899815673828125,0.34467557072639465,0.563816487789154,-1.0738924741744995
1788862571570857700,0.909857666015625,0.4911406338214874,0.24214604496955872,-0.5785303115844727
1788862571580899800,0.91989990234375,0.581022322177887,-0.04436217248439789,-0.09315452724695206
1788862571590941700,0.929941650390625,0.6124387979507446,-0.22689789533615112,0.30563122034072876
1788862571600983600,0.939983642578125,0.5934608578681946,-0.3636682331562042,0.5635519623756409
1788862571611025700,0.950025634765625,0.5568450689315796,-0.41315215826034546,0.7018051743507385
1788862571621067800,0.96006787109375,0.5213838815689087,-0.32385197281837463,0.7411003112792969
1788862571631109600,0.970109619140625,0.49177563190460205,-0.14646866917610168,0.6826984882354736
1788862571641151700,0.98015185546875,0.4398952126502991,0.08233767747879028,0.567310631275177
1788862571651193600,0.990193603515625,0.2050134837627411,0.057347372174263,0.2419687956571579
1788862571661235500,1.0002353515625,-0.2419784963130951,-0.3590153157711029,-0.31825417280197144
1788862571671277800,1.01027783203125,-0.49157100915908813,-0.2614027261734009,-0.6838867664337158
1788862571681319700,1.020319580078125,-0.4414612352848053,0.2409869283437729,-0.8270213007926941
1788862571691361800,1.03036181640625,-0.22839848697185516,0.6814143657684326,-0.9510186314582825
1788862571701403600,1.040403564453125,-0.0764375701546669,0.8933143019676208,-1.087866187095642
1788862571711445500,1.050445556640625,-0.13480153679847717,1.1102879047393799,-1.0585447549819946
1788862571721488000,1.06048779296875,-0.1325094848871231,1.0883891582489014,-0.9479578733444214
1788862571731529700,1.07052978515625,-0.08809914439916611,0.9847745299339294,-0.8156669735908508
1788862571741571600,1.080571533203125,-0.11782367527484894,0.8797733783721924,-0.705019474029541
1788862571751613700,1.09061376953125,-0.1286475658416748,0.8165752291679382,-0.6744732856750488
1788862571761655600,1.100655517578125,-0.08534710109233856,0.7249902486801147,-0.6974593997001648
1788862571771697700,1.11069775390625,-0.0639512687921524,0.6776925325393677,-0.6978452801704407
1788862571781739800,1.12073974609375,-0.07950291782617569,0.5578997135162354,-0.6394466161727905
1788862571791781600,1.13078173828125,-0.10165109485387802,0.34891560673713684,-0.5364595055580139
1788862571801823700,1.14082373046875,-0.13572119176387787,0.11181383579969406,-0.398268461227417
1788862571811865600,1.150865478515625,-0.17285896837711334,-0.08114949613809586,-0.2368103563785553
1788862571821907700,1.16090771484375,-0.17421898245811462,-0.2193347066640854,-0.09074007719755173
1788862571831949800,1.17094970703125,-0.16063232719898224,-0.3018527626991272,0.006897002924233675
1788862571841991700,1.18099169921875,-0.13488814234733582,-0.3577776253223419,0.04431385546922684
1788862571852033500,1.191033447265625,-0.09188608825206757,-0.392178475856781,0.03923041373491287
1788862571862075600,1.20107568359375,-0.04468416050076485,-0.3802037537097931,0.0431307889521122
1788862571872117800,1.21111767578125,-0.01660805195569992,-0.36364448070526123,0.09827207028865814
1788862571882159600,1.22115966796875,-0.017233500257134438,-0.43233659863471985,0.22669856250286102
1788862571892201700,1.23120166015625,-0.08611269295215607,-0.5619809031486511,0.43727442622184753
1788862571902243600,1.24124365234375,-0.18164628744125366,-0.714083194732666,0.6876512169837952
1788862571912285400,1.251285400390625,-0.2819180488586426,-0.8191787600517273,0.9262382388114929
1788862571922327800,1.261327880859375,-0.37077587842941284,-0.9141286015510559,1.1159844398498535
1788862571932369700,1.27136962890625,-0.39095544815063477,-1.1419117450714111,1.2164734601974487
1788862571942411800,1.281411865234375,-0.3605372905731201,-1.2136307954788208,1.3117928504943848
1788862571952453600,1.29145361328125,-0.33417439460754395,-1.1705334186553955,1.3990801572799683
1788862571962495500,1.30149560546875,-0.40674689412117004,-1.151137351989746,1.4251561164855957
1788862571972537900,1.311537841796875,-0.5129183530807495,-1.1488670110702515,1.4255037307739258
1788862571982579700,1.321579833984375,-0.6764766573905945,-0.9967852830886841,1.4737931489944458
1788862571992621600,1.33162158203125,-0.8357826471328735,-0.8295236229896545,1.533544659614563
1788862572002663700,1.34166357421875,-0.9136531352996826,-0.7148526310920715,1.5714858770370483
1788862572012705500,1.35170556640625,-0.9725459814071655,-0.46957409381866455,1.627017617225647
1788862572022747600,1.36174755859375,-0.9876933097839355,-0.3992118537425995,1.7311698198318481
1788862572032789800,1.371789794921875,-0.937596321105957,-0.6934472322463989,1.8419325351715088
1788862572042831600,1.38183154296875,-0.8082454204559326,-1.3098211288452148,1.9714868068695068
1788862572052873700,1.391873779296875,-0.7185818552970886,-1.8867156505584717,2.2053754329681396
1788862572062915600,1.40191552734375,-0.5946857929229736,-2.2013747692108154,2.446059465408325
1788862572072957700,1.411957763671875,-0.413851797580719,-2.295335292816162,2.571775436401367
1788862572082999800,1.421999755859375,-0.20227165520191193,-2.226391553878784,2.508192300796509
1788862572093041700,1.432041748046875,-0.05501481890678406,-1.8005532026290894,2.586547374725342
1788862572103083500,1.44208349609375,0.268164724111557,-1.8599754571914673,2.5552730560302734
1788862572113125600,1.452125732421875,0.7283006310462952,-2.2764902114868164,2.3440325260162354
1788862572123167700,1.462167724609375,1.3362988233566284,-2.21539568901062,2.2527055740356445
1788862572133209600,1.472209716796875,1.9849828481674194,-1.6479899883270264,2.0736420154571533
1788862572143251700,1.482251708984375,2.503373861312866,-1.043900728225708,1.4339110851287842
1788862572153293600,1.49229345703125,2.986410140991211,-0.2971424460411072,0.1700769066810608
1788862572163335700,1.502335693359375,3.8845832347869873,0.8416514992713928,-0.7400075197219849
1788862572173377800,1.512377685546875,4.8369903564453125,1.5969561338424683,-0.8552869558334351
1788862572183418600,1.522418701171875,5.303759574890137,2.0783534049987793,-0.7981353402137756
1788862572193460700,1.532460693359375,5.289067268371582,2.289234161376953,-1.067789912223816
1788862572203502600,1.542502685546875,5.841024398803711,2.00455641746521,-1.2798850536346436
1788862572213544700,1.552544677734375,6.839365005493164,1.2274653911590576,-0.7351994514465332
1788862572223586600,1.562586669921875,6.163100719451904,-0.6606311798095703,-0.4184778332710266
1788862572233628700,1.572628662109375,5.976365089416504,-1.217679500579834,0.06472902745008469
1788862572243670800,1.5826708984375,5.869479656219482,-1.4335949420928955,-0.1363031417131424
1788862572253712600,1.592712646484375,5.475283145904541,-0.8059588074684143,-0.5935083031654358
1788862572263754500,1.60275439453125,4.727183818817139,0.5125727653503418,-0.7488771080970764
1788862572273796600,1.612796630859375,4.192697525024414,0.1488904356956482,-0.7308922410011292
1788862572283838700,1.622838623046875,3.570188045501709,-1.0679868459701538,-0.3495679497718811
1788862572293880600,1.632880615234375,2.8211069107055664,-2.281670331954956,0.07130762189626694
1788862572303922700,1.642922607421875,2.132370948791504,-2.098825693130493,0.3832164704799652
1788862572313964500,1.652964599609375,1.1699668169021606,-1.330599308013916,0.3290930688381195
1788862572324006700,1.663006591796875,0.21132688224315643,-1.0822523832321167,0.0942813828587532
1788862572334048800,1.673048828125,-0.23089127242565155,-0.8945416212081909,0.10609889775514603
1788862572344090600,1.683090576171875,-0.43395304679870605,-0.7485500574111938,0.3055576980113983
1788862572354132700,1.6931328125,-0.5003853440284729,-0.20899732410907745,0.5314017534255981
1788862572364174600,1.703174560546875,-0.23533982038497925,-0.09989694505929947,0.42289602756500244
1788862572374216400,1.713216552734375,0.4219001233577728,-0.7536073923110962,-0.06415219604969025
1788862572384258800,1.7232587890625,1.2301013469696045,-0.8231555819511414,-0.6122704148292542
1788862572394300700,1.73330078125,1.346705436706543,-0.35528314113616943,-0.6259971857070923
1788862572404342500,1.743342529296875,1.0968496799468994,-0.5737655162811279,0.11265314370393753
1788862572414384600,1.753384521484375,0.9018882513046265,-0.4927590489387512,0.8561949133872986
1788862572424426500,1.763426513671875,0.5388860702514648,-0.8246895670890808,0.891266942024231
1788862572434468900,1.77346875,0.08132307976484299,-1.2564598321914673,0.40742412209510803
1788862572444510700,1.7835107421875,0.012977497652173042,-0.6813185811042786,-0.1674284040927887
1788862572454552600,1.793552490234375,0.07779697328805923,-0.010852880775928497,-0.64742511510849
1788862572464594700,1.8035947265625,0.01929462142288685,0.3443268835544586,-0.9472896456718445
1788862572474636500,1.813636474609375,0.011162126436829567,0.5157159566879272,-1.0955350399017334
1788862572484678700,1.8236787109375,0.1284729242324829,0.36228257417678833,-1.0197243690490723
1788862572494720800,1.833720703125,0.34502920508384705,-0.10610193014144897,-0.3895232379436493
1788862572504762600,1.8437626953125,0.4194768965244293,-0.34577035903930664,0.10009879618883133
1788862572514804500,1.853804443359375,0.6140127778053284,-0.34005147218704224,0.05214698240160942
1788862572524846600,1.8638466796875,1.0542292594909668,-0.1693994104862213,-0.24483619630336761
1788862572534888700,1.873888671875,1.3640694618225098,0.17835775017738342,-0.379314124584198
1788862572544930800,1.883930908203125,1.1830888986587524,0.23960089683532715,-0.10542987287044525
1788862572554973000,1.893972900390625,0.7708737254142761,0.2648167610168457,-0.09090259671211243
1788862572565014800,1.904014892578125,0.2530311048030853,0.34800779819488525,-0.1651211529970169
1788862572575057000,1.914056884765625,0.039092980325222015,0.22749470174312592,-0.21594811975955963
1788862572585098800,1.9240986328125,0.07263801246881485,0.11699440330266953,-0.1034354716539383
1788862572595140600,1.934140625,-0.0639728307723999,0.04566536098718643,0.02655874565243721
1788862572605183000,1.944182861328125,-0.3577103316783905,-0.03985185548663139,0.10770352184772491
1788862572615223800,1.954223876953125,-0.5673730373382568,-0.024197794497013092,0.20472007989883423
1788862572625266000,1.964265869140625,-0.6373509764671326,-0.059303782880306244,0.15953361988067627
1788862572635307800,1.974307861328125,-0.21751192212104797,-0.33804699778556824,0.03180575370788574
1788862572645349600,1.984349609375,0.2332868129014969,-0.5788930058479309,0.0016588415019214153
1788862572655391700,1.994391845703125,0.6519895195960999,-0.5064195990562439,0.04293464124202728
1788862572665433900,2.004433837890625,0.758618175983429,-0.30158692598342896,-0.06922252476215363
1788862572675475700,2.014475830078125,1.1199204921722412,-0.26679620146751404,-0.017210189253091812
1788862572685517800,2.024517822265625,1.3430488109588623,-0.2511723041534424,0.14891201257705688
1788862572695559700,2.0345595703125,1.2876896858215332,-0.11287061870098114,0.47570985555648804
1788862572705601800,2.044601806640625,0.8509750366210938,-0.5006637573242188,0.2821131944656372
1788862572715644000,2.054643798828125,0.8062850832939148,-0.9001376628875732,0.08405949175357819
1788862572725685800,2.064685791015625,0.90741366147995,-0.9477343559265137,0.11167214065790176
1788862572735727900,2.074727783203125,0.9643299579620361,-0.966832160949707,0.18939676880836487
1788862572745769700,2.084769775390625,0.8581196069717407,-0.8906428813934326,0.17299437522888184
1788862572755811600,2.0948115234375,0.46568500995635986,-1.0007472038269043,0.12984929978847504
1788862572765854000,2.10485400390625,0.4237249493598938,-1.5644490718841553,0.029165035113692284
1788862572775895800,2.114895751953125,1.0024197101593018,-2.9976117610931396,-0.4511198401451111
1788862572785937700,2.124937744140625,1.2186493873596191,-3.2481472492218018,-0.7936424016952515
1788862572795979800,2.134979736328125,0.9975895285606384,-2.391995906829834,-0.8096061944961548
1788862572806021600,2.145021728515625,0.868828535079956,-1.8981115818023682,-0.5536452531814575
1788862572816064000,2.15506396484375,1.041287899017334,-2.128878593444824,-0.5431089401245117
1788862572826105900,2.16510595703125,1.096551537513733,-1.6428008079528809,-0.2520923912525177
1788862572836147700,2.175147705078125,1.3396697044372559,-1.3771933317184448,-0.26142942905426025
1788862572846189800,2.18518994140625,1.4085062742233276,-1.7762420177459717,-0.31533053517341614
1788862572856231700,2.195231689453125,1.4101146459579468,-2.4234421253204346,-0.06155737489461899
1788862572866273800,2.205273681640625,1.382878303527832,-2.926429033279419,0.24035058915615082
1788862572876316000,2.21531591796875,0.9834132194519043,-2.9530937671661377,0.17811118066310883
1788862572886357800,2.225357666015625,0.6335121393203735,-2.579744338989258,0.22180120646953583
1788862572896399600,2.235399658203125,0.37258070707321167,-2.0596415996551514,0.3213682770729065
1788862572906441700,2.245441650390625,0.2474207580089569,-1.5323922634124756,0.3528635501861572
1788862572916483800,2.25548388671875,0.2709764242172241,-1.369641661643982,0.2503829896450043
1788862572926526000,2.26552587890625,0.2692100703716278,-1.369834542274475,0.12246883660554886
1788862572936567800,2.27556787109375,0.4557751417160034,-1.128828525543213,0.08123857527971268
1788862572946609700,2.285609619140625,0.6260462403297424,-0.907228410243988,0.1501605063676834
1788862572956651800,2.29565185546875,0.4296519458293915,-0.8103783130645752,0.2198501080274582
1788862572966692600,2.305692626953125,0.4767706096172333,-0.6729255318641663,0.23767107725143433
1788862572976735000,2.31573486328125,0.7179273366928101,-0.5528883337974548,0.11109715700149536
1788862572986776800,2.32577685546875,0.7963533401489258,-0.7186471819877625,-0.11345548927783966
1788862572996818700,2.335818603515625,0.622539758682251,-0.7690610885620117,-0.22049832344055176
1788862573006860800,2.34586083984375,0.36627301573753357,-0.7714777588844299,-0.08713307976722717
1788862573016902700,2.355902587890625,0.22402983903884888,-0.6642245054244995,-0.02352028340101242
1788862573026944800,2.36594482421875,0.5522310137748718,-0.3505963981151581,-0.3278074264526367
1788862573036987000,2.37598681640625,0.701589047908783,-0.6083672046661377,-0.32654324173927307
1788862573047028700,2.38602880859375,0.6122592091560364,-0.7243173122406006,-0.3139480650424957
1788862573057070800,2.39607080078125,0.630378246307373,-0.5980919599533081,-0.3279879689216614
1788862573067112700,2.40611279296875,0.5902345180511475,-0.45942017436027527,-0.3173987865447998
1788862573077154800,2.41615478515625,0.45834657549858093,-0.32354357838630676,-0.38062676787376404
1788862573087197000,2.426197021484375,0.3676816523075104,-0.25428855419158936,-0.40572136640548706
1788862573097238800,2.43623876953125,0.49389657378196716,-0.15675801038742065,-0.34384840726852417
1788862573107280600,2.44628076171875,0.7776222229003906,-0.04042401909828186,-0.3376212418079376
1788862573117322800,2.45632275390625,0.9525263905525208,0.3157021403312683,-0.3909102976322174
1788862573127364900,2.46636474609375,1.0676612854003906,0.710856556892395,-0.4611921012401581
1788862573137406700,2.47640673828125,1.1599222421646118,0.8090784549713135,-0.615070641040802
1788862573147448800,2.48644873046875,1.140836477279663,0.7900295853614807,-0.8012666702270508
1788862573157490700,2.49649072265625,1.0865375995635986,0.7759070992469788,-0.8179695010185242
1788862573167532800,2.50653271484375,1.0425118207931519,0.8752662539482117,-0.6734877228736877
1788862573177575000,2.516574951171875,0.949309766292572,0.8411588668823242,-0.47663643956184387
1788862573187616800,2.52661669921875,0.8218590021133423,0.8353264927864075,-0.3278942406177521
1788862573197659000,2.536658935546875,0.7393473386764526,0.6779070496559143,-0.22542163729667664
1788862573207700700,2.54670068359375,0.6555994153022766,0.6223657131195068,-0.1180901974439621
1788862573217742600,2.55674267578125,0.6997660994529724,0.4642791450023651,-0.01406605914235115
1788862573227785000,2.566784912109375,0.7157934308052063,0.16407179832458496,0.06342584639787674
1788862573237826800,2.576826904296875,0.7047993540763855,-0.3870646059513092,0.03545413911342621
1788862573247868700,2.58686865234375,0.7251073718070984,-0.8076320290565491,-0.004137529991567135
1788862573257910800,2.596910888671875,0.7097989916801453,-0.9665138125419617,-0.03225385397672653
1788862573267952600,2.60695263671875,0.5559163093566895,-0.9604594707489014,-0.05960020422935486
1788862573277994800,2.616994873046875,0.36459535360336304,-1.0406103134155273,-0.13648326694965363
1788862573288035800,2.627035888671875,0.2580156624317169,-1.0694637298583984,-0.15579968690872192
1788862573298077700,2.63707763671875,0.17484192550182343,-1.078541874885559,-0.11329643428325653
1788862573308119800,2.647119873046875,0.10708461701869965,-1.1102479696273804,-0.006348532624542713
1788862573318161700,2.65716162109375,0.07067840546369553,-1.0986230373382568,0.07760549336671829
1788862573328203800,2.667203857421875,0.034866269677877426,-1.0420377254486084,0.10344307124614716
1788862573338246000,2.677245849609375,0.011025385931134224,-0.9217895269393921,0.10293573886156082
1788862573348287700,2.687287841796875,-0.01740621030330658,-0.8042447566986084,0.0978652685880661
1788862573358329900,2.697329833984375,-0.015746261924505234,-0.6956106424331665,0.11749862134456635
1788862573368371700,2.707371826171875,-0.019616086035966873,-0.5232352018356323,0.1741107553243637
1788862573378413600,2.71741357421875,-0.04537471383810043,-0.3843153417110443,0.22727996110916138
1788862573388456000,2.7274560546875,-0.09167375415563583,-0.23403926193714142,0.2767966389656067
1788862573398497800,2.737497802734375,-0.15842002630233765,-0.13262715935707092,0.33096903562545776
1788862573408539600,2.74753955078125,-0.23539485037326813,-0.13628064095973969,0.3842388689517975
1788862573418581800,2.757581787109375,-0.2964387536048889,-0.16459164023399353,0.4077870547771454
1788862573428623600,2.76762353515625,-0.3909073770046234,-0.18451760709285736,0.385880708694458
1788862573438666000,2.777666015625,-0.5156093835830688,-0.19453242421150208,0.33707109093666077
1788862573448707800,2.787707763671875,-0.6195806264877319,-0.04341437667608261,0.31073445081710815
1788862573458749700,2.797749755859375,-0.7280154824256897,0.5306822061538696,0.2863399088382721
1788862573468791800,2.807791748046875,-0.8048660755157471,1.0141721963882446,0.33937302231788635
1788862573478833700,2.817833740234375,-0.8357137441635132,1.1340928077697754,0.33178967237472534
1788862573488875800,2.827875732421875,-0.8457035422325134,0.9303126335144043,0.36808884143829346
1788862573498918000,2.83791796875,-0.6634613275527954,0.40869787335395813,0.44168075919151306
1788862573508959700,2.847959716796875,-0.3737349212169647,-0.31887581944465637,0.39571329951286316
1788862573519001600,2.858001708984375,-0.10218063741922379,-0.6514063477516174,0.18875746428966522
1788862573529043700,2.868043701171875,0.03155865520238876,-0.6132212281227112,-0.07227634638547897
1788862573539085800,2.8780859375,0.027878431603312492,-0.4165811836719513,-0.24010209739208221
1788862573549128000,2.8881279296875,0.03180360794067383,-0.19635695219039917,-0.33837053179740906
1788862573559169500,2.89816943359375,0.07392841577529907,-0.12052557617425919,-0.3409676253795624
1788862573569211600,2.908211669921875,0.11175672709941864,-0.06047294661402702,-0.2965584695339203
1788862573579252700,2.918252685546875,0.12937141954898834,-0.08622251451015472,-0.2835742235183716
1788862573589294600,2.928294677734375,0.13216853141784668,-0.2185666859149933,-0.298633873462677
1788862573599336700,2.938336669921875,0.06334207206964493,-0.27873948216438293,-0.36591836810112
1788862573609378600,2.948378662109375,0.02223406359553337,-0.25373291969299316,-0.47975972294807434
1788862573619420400,2.95842041015625,0.03731128200888634,-0.168404683470726,-0.6060543060302734
1788862573629462800,2.968462890625,0.08787001669406891,-0.18419304490089417,-0.7455803155899048
1788862573639504600,2.978504638671875,0.21927571296691895,-0.19225338101387024,-0.9569798707962036
1788862573649546500,2.98854638671875,0.2225484699010849,-0.1913822591304779,-1.0786205530166626
1788862573659588600,2.998588623046875,0.03337375074625015,-0.3332054316997528,-1.08345365524292
1788862573669630500,3.00863037109375,-0.12039022892713547,-0.25325384736061096,-1.1760004758834839
1788862573679672800,3.0186728515625,-0.16781312227249146,-0.07004328072071075,-1.2611143589019775
1788862573689714700,3.028714599609375,-0.15377292037010193,-0.05382779240608215,-1.3502569198608398
1788862573699756500,3.038756591796875,-0.1385558843612671,-0.20747673511505127,-1.454474687576294
1788862573709798700,3.048798583984375,-0.1800297051668167,-0.3659325838088989,-1.53047513961792
1788862573719840500,3.058840576171875,-0.27437537908554077,-0.3653789162635803,-1.5977504253387451
1788862573729882600,3.068882568359375,-0.3699292242527008,-0.20330332219600677,-1.639106273651123
1788862573739924700,3.0789248046875,-0.4017484188079834,-0.02329760417342186,-1.6194041967391968
1788862573749966600,3.088966552734375,-0.34282737970352173,0.09030424058437347,-1.6212842464447021
1788862573760008400,3.099008544921875,-0.24000780284404755,-0.03393195569515228,-1.731645107269287
1788862573770050600,3.109050537109375,-0.129164919257164,-0.3934438228607178,-1.9517521858215332
1788862573780092700,3.1190927734375,-0.013979472219944,-0.8119816780090332,-2.2193329334259033
1788862573790134800,3.129134765625,0.10784720629453659,-1.070607304573059,-2.439314842224121
1788862573800176600,3.1391767578125,0.2213985174894333,-1.1070725917816162,-2.5467677116394043
1788862573810218500,3.149218505859375,0.2999158501625061,-1.0449321269989014,-2.596764326095581
1788862573820260600,3.159260498046875,0.3488115072250366,-0.9521539807319641,-2.6241614818573
1788862573830302700,3.169302734375,0.39175379276275635,-0.8776755928993225,-2.648367404937744
1788862573840344600,3.179344482421875,0.46360188722610474,-0.8414552807807922,-2.68377423286438
1788862573850386700,3.18938671875,0.5526325106620789,-0.9779083132743835,-2.6158690452575684
1788862573860427500,3.199427490234375,0.5971318483352661,-1.1370141506195068,-2.491727352142334
1788862573870469600,3.2094697265625,0.6118919253349304,-1.3296465873718262,-2.4239559173583984
1788862573880511500,3.219511474609375,0.6603665351867676,-1.4148576259613037,-2.3886165618896484
1788862573890553600,3.2295537109375,0.7113326787948608,-1.3141164779663086,-2.3007118701934814
1788862573900595700,3.239595703125,0.7085257172584534,-1.178568720817566,-2.2074098587036133
1788862573910637600,3.249637451171875,0.6710518598556519,-1.0759150981903076,-2.1050117015838623
1788862573920679700,3.2596796875,0.5884531140327454,-0.9769772887229919,-2.0054094791412354
1788862573930721500,3.269721435546875,0.48301440477371216,-0.8751365542411804,-1.9140634536743164
1788862573940763600,3.279763671875,0.4006692171096802,-0.8086656928062439,-1.7810494899749756
1788862573950805800,3.2898056640625,0.31969770789146423,-0.7746509313583374,-1.6458972692489624
1788862573960847600,3.29984765625,0.25104671716690063,-0.768114447593689,-1.5182125568389893
1788862573970889500,3.309889404296875,0.20052148401737213,-0.7449660897254944,-1.366881012916565
1788862573980931600,3.319931640625,0.12273187935352325,-0.7680420875549316,-1.1450133323669434
1788862573990973700,3.3299736328125,0.04542355611920357,-0.6793307662010193,-0.8918138146400452
1788862574001015600,3.340015625,-0.016645407304167747,-0.6467449069023132,-0.6100300550460815
1788862574011057700,3.3500576171875,-0.09603356570005417,-0.6002515554428101,-0.28507092595100403
1788862574021099500,3.360099609375,-0.16097208857536316,-0.4225670099258423,0.05179792270064354
1788862574031141600,3.3701416015625,-0.20110206305980682,-0.2595100700855255,0.23767225444316864
1788862574041183700,3.380183837890625,-0.2500315308570862,-0.19204288721084595,0.2509417235851288
1788862574051225600,3.3902255859375,-0.27660390734672546,-0.1493491381406784,0.2076917141675949
1788862574061267700,3.400267822265625,-0.3226800560951233,-0.07467010617256165,0.255520224571228
1788862574071309600,3.4103095703125,-0.40474483370780945,0.015897884964942932,0.40735435485839844
1788862574081351400,3.420351318359375,-0.5084217190742493,0.07801585644483566,0.6342630982398987
1788862574091393800,3.430393798828125,-0.5868781208992004,0.07956322282552719,0.9200199842453003
1788862574101435600,3.440435546875,-0.626745879650116,0.1044619083404541,1.1219435930252075
1788862574111476700,3.450476806640625,-0.6569198369979858,0.17289280891418457,1.0667428970336914
1788862574121518600,3.4605185546875,-0.6438466310501099,0.22988392412662506,0.7906711101531982
1788862574131560400,3.470560546875,-0.5921156406402588,0.17827551066875458,0.5320061445236206
1788862574141602600,3.4806025390625,-0.614819347858429,0.09185592830181122,0.4482353925704956
1788862574151644700,3.490644775390625,-0.6929916739463806,0.06938045471906662,0.5318441390991211
1788862574161686800,3.500686767578125,-0.7956570386886597,0.19383397698402405,0.7160049080848694
1788862574171728600,3.510728759765625,-0.8689094185829163,0.2687281370162964,0.9794163703918457
1788862574181770500,3.5207705078125,-0.87116539478302,0.300172358751297,1.1571327447891235
1788862574191812600,3.5308125,-0.8357276916503906,0.46735188364982605,1.0698257684707642
1788862574201854700,3.540854736328125,-0.7760683298110962,0.5937766432762146,0.7616496086120605
1788862574211896600,3.550896484375,-0.613281786441803,0.49723920226097107,0.3248581290245056
1788862574221938700,3.560938720703125,-0.42056694626808167,0.216042160987854,0.010289810597896576
1788862574231980500,3.57098046875,-0.2665838897228241,-0.09392087906599045,-0.09820477664470673
1788862574242022400,3.5810224609375,-0.19241246581077576,-0.07953901588916779,0.03661349043250084
1788862574252064800,3.591064697265625,-0.1812061220407486,0.2799704670906067,0.2173704355955124
1788862574262106600,3.601106689453125,-0.16356587409973145,0.5555442571640015,0.34204182028770447
1788862574272148700,3.611148681640625,-0.18304012715816498,0.569902777671814,0.366075724363327
1788862574282190600,3.621190673828125,-0.26133227348327637,0.4952767491340637,0.29214346408843994
1788862574292232400,3.631232421875,-0.33741891384124756,0.32833293080329895,0.17181892693042755
1788862574302274800,3.64127490234375,-0.3701568841934204,0.07183404266834259,0.07852121442556381
1788862574312316700,3.651316650390625,-0.3577783703804016,-0.1344127207994461,0.040695056319236755
1788862574322358500,3.661358642578125,-0.3399921655654907,-0.14905931055545807,0.06569681316614151
1788862574332400600,3.671400634765625,-0.28984516859054565,-0.08506973832845688,0.15940526127815247
1788862574342442500,3.6814423828125,-0.2025054544210434,-0.004423630423843861,0.2800602912902832
1788862574352483600,3.691483642578125,-0.08547655493021011,0.08886559307575226,0.3804614543914795
1788862574362525700,3.701525634765625,0.02177986316382885,0.1319880336523056,0.45665690302848816
1788862574372567600,3.711567626953125,0.10701964050531387,0.06616184115409851,0.525409460067749
1788862574382609700,3.721609619140625,0.1618219017982483,-0.004601008258759975,0.621583104133606
1788862574392651500,3.731651611328125,0.1802230328321457,-0.005940799135714769,0.7369752526283264
1788862574402693600,3.741693603515625,0.14448633790016174,0.026286112144589424,0.8576779365539551
1788862574412735700,3.75173583984375,0.05956024304032326,0.05156292766332626,1.0000839233398438
1788862574422777600,3.761777587890625,-0.07827751338481903,0.0758000910282135,1.1442573070526123
1788862574432819700,3.77181982421875,-0.21544131636619568,0.09246423095464706,1.2301733493804932
1788862574442861600,3.781861572265625,-0.34143200516700745,0.09557240456342697,1.2178221940994263
1788862574452903400,3.7919033203125,-0.46401169896125793,0.04214434325695038,1.1317689418792725
1788862574462945800,3.80194580078125,-0.5815918445587158,-0.04773734137415886,1.0268563032150269
1788862574472987600,3.811987548828125,-0.6694076061248779,-0.07268864661455154,0.9527066946029663
1788862574483029500,3.822029541015625,-0.747629702091217,-0.026767496019601822,0.913573682308197
1788862574493071600,3.832071533203125,-0.8348062038421631,0.11325111985206604,0.9139418601989746
1788862574503113500,3.842113525390625,-0.8880659341812134,0.29028716683387756,0.9452270865440369
1788862574513155600,3.852155517578125,-0.8500906825065613,0.4117650091648102,0.9373576045036316
1788862574523197700,3.86219775390625,-0.6941223740577698,0.3949679136276245,0.8167481422424316
1788862574533239600,3.872239501953125,-0.49506378173828125,0.26309919357299805,0.6085829138755798
1788862574543281700,3.88228173828125,-0.3387780487537384,0.13143382966518402,0.45692625641822815
1788862574553323500,3.892323486328125,-0.24553492665290833,0.08052271604537964,0.41087353229522705
1788862574563366000,3.902365966796875,-0.23143185675144196,0.07411094009876251,0.4251973032951355
1788862574573408000,3.912407958984375,-0.3107993006706238,0.13015110790729523,0.4703269898891449
1788862574583449900,3.922449951171875,-0.432160347700119,0.23766398429870605,0.5297426581382751
1788862574593491000,3.932490966796875,-0.5773017406463623,0.3572951555252075,0.6118215918540955
1788862574603532800,3.94253271484375,-0.7238243818283081,0.4245314598083496,0.691352367401123
1788862574613575000,3.952574951171875,-0.8534466028213501,0.432378351688385,0.7542926669120789
1788862574623617000,3.962616943359375,-0.9607831835746765,0.40028831362724304,0.8096704483032227
1788862574633659000,3.972658935546875,-1.026065468788147,0.3533428907394409,0.8484943509101868
1788862574643700700,3.98270068359375,-1.044071912765503,0.3448048233985901,0.8669306635856628
1788862574653742800,3.992742919921875,-1.0018649101257324,0.36603912711143494,0.846049427986145
1788862574663785000,4.002784912109375,-0.8944064378738403,0.45026132464408875,0.7833309173583984
1788862574673826800,4.012826904296875,-0.7726859450340271,0.5797110795974731,0.6799734830856323
1788862574683869000,4.022868896484375,-0.6444483399391174,0.6370236873626709,0.581362783908844
1788862574693910800,4.032910888671875,-0.5004844069480896,0.563382089138031,0.5101879239082336
1788862574703953000,4.042952880859375,-0.3377561867237091,0.5022175312042236,0.44913172721862793
1788862574713995000,4.0529951171875,-0.18394023180007935,0.5549404621124268,0.37842220067977905
1788862574724036900,4.063036865234375,-0.07779674232006073,0.6864678859710693,0.31743982434272766
1788862574734079000,4.073078857421875,-0.03576160594820976,0.8032192587852478,0.2800157368183136
1788862574744120800,4.083120849609375,-0.028442436829209328,0.8000194430351257,0.28100937604904175
1788862574754162700,4.09316259765625,-0.009464818984270096,0.6973018646240234,0.2991730570793152
1788862574764205000,4.103205078125,0.004273629747331142,0.56777024269104,0.32060563564300537
1788862574774247000,4.113246826171875,0.014714546501636505,0.4583702087402344,0.3364204168319702
1788862574784288800,4.123288818359375,0.030171800404787064,0.43544334173202515,0.32695847749710083
1788862574794331000,4.133330810546875,0.051314715296030045,0.5001012086868286,0.28388068079948425
1788862574804372700,4.143372802734375,0.07433108985424042,0.5783960223197937,0.20421725511550903
1788862574814413800,4.153413818359375,0.09413585066795349,0.590357780456543,0.11630965769290924
1788862574824456000,4.1634560546875,0.11748351156711578,0.517209529876709,0.020671017467975616
1788862574834498000,4.173498046875,0.13151386380195618,0.3917357921600342,-0.08820077031850815
1788862574844540000,4.183539794921875,0.1176622286438942,0.29172638058662415,-0.22446513175964355
1788862574854581800,4.193581787109375,0.06938335299491882,0.22912660241127014,-0.3404255211353302
1788862574864623900,4.203623779296875,0.028291044756770134,0.1471225470304489,-0.38292399048805237
1788862574874666000,4.213666015625,0.01427500694990158,0.15731042623519897,-0.3453156352043152
1788862574884707800,4.223707763671875,-0.012133963406085968,0.316386878490448,-0.2701228857040405
1788862574894750000,4.23375,-0.06629512459039688,0.538968026638031,-0.201525017619133
1788862574904791800,4.243791748046875,-0.14968907833099365,0.7327069044113159,-0.1293802559375763
1788862574914833700,4.253833740234375,-0.2246519774198532,0.7998702526092529,-0.049078911542892456
1788862574924876000,4.2638759765625,-0.2633647620677948,0.6601296663284302,-0.03224879875779152
1788862574934918000,4.27391796875,-0.2710784673690796,0.3122911751270294,-0.06842657923698425
1788862574944960000,4.2839599609375,-0.2940490245819092,-0.10643366724252701,-0.08189258724451065
1788862574955001900,4.294001953125,-0.3178466260433197,-0.2907642126083374,-0.037081800401210785
1788862574965044000,4.3040439453125,-0.2886807322502136,-0.09176774322986603,0.023016957566142082
1788862574975086000,4.314086181640625,-0.22827588021755219,0.3043155372142792,0.053591057658195496
1788862574985128000,4.3241279296875,-0.16709481179714203,0.6117486953735352,0.061479076743125916
1788862574995169800,4.334169677734375,-0.0629066452383995,0.7524439692497253,0.04041297733783722
1788862575005212000,4.3442119140625,0.05893270671367645,0.7001301646232605,-0.01699172519147396
1788862575015252700,4.354252685546875,0.15535487234592438,0.5164618492126465,-0.10652443021535873
1788862575025295000,4.364295166015625,0.1906881034374237,0.33222439885139465,-0.19158552587032318
1788862575035337000,4.3743369140625,0.20537303388118744,0.21198932826519012,-0.267714262008667
1788862575045378800,4.38437890625,0.2658052146434784,0.16461728513240814,-0.2930587828159332
1788862575055421000,4.3944208984375,0.32847777009010315,0.2555851340293884,-0.2711595296859741
1788862575065462800,4.404462890625,0.35705429315567017,0.3029622435569763,-0.25026676058769226
1788862575075505000,4.4145048828125,0.3918676972389221,0.28296488523483276,-0.23964956402778625
1788862575085547000,4.424547119140625,0.41467633843421936,0.3521708548069,-0.25965577363967896
1788862575095588900,4.4345888671875,0.39255329966545105,0.48310574889183044,-0.2933977544307709
1788862575105631000,4.444630859375,0.32642248272895813,0.5825048089027405,-0.3151981234550476
1788862575115672800,4.4546728515625,0.24325421452522278,0.5926691293716431,-0.31061437726020813
1788862575125715000,4.46471484375,0.17827415466308594,0.48122674226760864,-0.29000627994537354
1788862575135757000,4.474757080078125,0.17106392979621887,0.2711787223815918,-0.24406224489212036
1788862575145799000,4.484798828125,0.19129623472690582,0.13452954590320587,-0.20262426137924194
1788862575155840800,4.4948408203125,0.2160903811454773,0.1158561185002327,-0.21390400826931
1788862575165883000,4.5048828125,0.2156594693660736,0.21036210656166077,-0.2870604991912842
1788862575175925000,4.514925048828125,0.19901511073112488,0.27674099802970886,-0.37362247705459595
1788862575185966800,4.524966796875,0.16519004106521606,0.3228973150253296,-0.3972540497779846
1788862575196009000,4.535009033203125,0.12383009493350983,0.3774617314338684,-0.3698189854621887
1788862575206050800,4.54505078125,0.13222277164459229,0.3792809545993805,-0.33935508131980896
1788862575216092000,4.555091796875,0.14970684051513672,0.29265832901000977,-0.33430659770965576
1788862575226133800,4.5651337890625,0.09601885080337524,0.17974111437797546,-0.36739131808280945
1788862575236176100,4.575176025390625,-0.009056196548044682,0.12810105085372925,-0.4383610486984253
1788862575246218000,4.585218017578125,-0.10826852917671204,0.17927581071853638,-0.5323376655578613
1788862575256259800,4.595259765625,-0.16134928166866302,0.38539552688598633,-0.6095893383026123
1788862575266302000,4.605302001953125,-0.1870328038930893,0.6098872423171997,-0.6184829473495483
1788862575276343800,4.61534375,-0.17162178456783295,0.717497706413269,-0.5752465128898621
1788862575286386000,4.625385986328125,-0.1205306276679039,0.7128603458404541,-0.5063558220863342
1788862575296428000,4.635427978515625,-0.07733792066574097,0.6741687655448914,-0.41842642426490784
1788862575306470000,4.645469970703125,-0.031404249370098114,0.5763639211654663,-0.2854686677455902
1788862575316511700,4.65551171875,-0.02655688114464283,0.419479101896286,-0.12397598475217819
1788862575326553900,4.665553955078125,-0.03992195427417755,0.25482624769210815,0.042866796255111694
1788862575336596000,4.675595947265625,-0.060445744544267654,0.07066559791564941,0.17140993475914001
1788862575346638000,4.68563818359375,-0.06878143548965454,-0.14705900847911835,0.22765429317951202
1788862575356680000,4.695679931640625,-0.07592587918043137,-0.3731810450553894,0.20299406349658966
1788862575366721800,4.7057216796875,-0.06942111253738403,-0.48885810375213623,0.09262627363204956
1788862575376764000,4.715763916015625,-0.07360175251960754,-0.4092794358730316,-0.08144203573465347
1788862575386806000,4.725805908203125,-0.08453935384750366,-0.1818273663520813,-0.27142903208732605
1788862575396847900,4.735847900390625,-0.07483039796352386,0.06199182942509651,-0.43879079818725586
1788862575406890000,4.745889892578125,-0.02394990622997284,0.2231421023607254,-0.5390945076942444
1788862575416931800,4.755931884765625,0.05421124026179314,0.3232373297214508,-0.5520026683807373
1788862575426973000,4.765972900390625,0.13656815886497498,0.3799450993537903,-0.5243135094642639
1788862575437014800,4.776014892578125,0.20841236412525177,0.3656408190727234,-0.4984875023365021
1788862575447057000,4.786056884765625,0.2545289993286133,0.27051031589508057,-0.4834504723548889
1788862575457099000,4.79609912109375,0.2657485008239746,0.11909055709838867,-0.4752606749534607
1788862575467140900,4.806140869140625,0.25251471996307373,-0.06186457723379135,-0.4756084978580475
1788862575477183000,4.816182861328125,0.2381051778793335,-0.2286122441291809,-0.4756251573562622
1788862575487224800,4.826224853515625,0.21703371405601501,-0.3346009850502014,-0.4847049415111542
1788862575497267000,4.836266845703125,0.1991891711950302,-0.3376610279083252,-0.49327653646469116
1788862575507309000,4.84630908203125,0.18731866776943207,-0.2647676467895508,-0.48765966296195984
1788862575517351000,4.856350830078125,0.17552047967910767,-0.140451118350029,-0.4547388255596161
1788862575527392800,4.866392822265625,0.1599724143743515,-0.026693124324083328,-0.3946906626224518
1788862575537435000,4.876434814453125,0.14053493738174438,0.05175521969795227,-0.32885581254959106
1788862575547477000,4.88647705078125,0.11502451449632645,0.05307694524526596,-0.2563200891017914
1788862575557518600,4.8965185546875,0.09866314381361008,-0.00726437009871006,-0.18957266211509705
1788862575567560400,4.906560546875,0.09036686271429062,-0.1240897923707962,-0.13635151088237762
1788862575577602300,4.916602294921875,0.07948556542396545,-0.24594025313854218,-0.11078080534934998
1788862575587644700,4.926644775390625,0.04599152132868767,-0.3213609755039215,-0.13190312683582306
1788862575597686500,4.9366865234375,0.010537644848227501,-0.3472626209259033,-0.2038383036851883
1788862575607728400,4.946728271484375,-0.01010425016283989,-0.3706449270248413,-0.2980334758758545
1788862575617769500,4.95676953125,-0.01011691428720951,-0.41217198967933655,-0.38541120290756226
1788862575627811300,4.966811279296875,0.003988251090049744,-0.4304506182670593,-0.4407852292060852
1788862575637853400,4.976853515625,0.02682221122086048,-0.3517938554286957,-0.4732578694820404
1788862575647895600,4.9868955078125,0.043333545327186584,-0.17073938250541687,-0.4745239317417145
1788862575657937400,4.9969375,0.05170227959752083,-0.011480187997221947,-0.44027531147003174
1788862575667979500,5.0069794921875,0.0657041147351265,0.15415379405021667,-0.3995731472969055
1788862575678021400,5.017021484375,0.07271993905305862,0.2786487936973572,-0.3491685390472412
1788862575688063500,5.0270634765625,0.06988100707530975,0.2732223570346832,-0.2994651794433594
1788862575698105600,5.037105712890625,0.04942169040441513,0.17452073097229004,-0.285573810338974
1788862575708147500,5.0471474609375,0.03178517147898674,0.017796359956264496,-0.3122831881046295
1788862575718189600,5.057189453125,0.008176610805094242,-0.14740772545337677,-0.3776484727859497
1788862575728231400,5.0672314453125,-0.027402155101299286,-0.2781292498111725,-0.45316508412361145
1788862575738273300,5.077273193359375,-0.06166597083210945,-0.3597104847431183,-0.5190888047218323
1788862575748315600,5.087315673828125,-0.09488970786333084,-0.38106265664100647,-0.5624945759773254
1788862575758357500,5.097357421875,-0.12085232138633728,-0.36186736822128296,-0.570091187953949
1788862575768399400,5.1073994140625,-0.14415791630744934,-0.32580098509788513,-0.5235039591789246
1788862575778441500,5.11744140625,-0.1715961992740631,-0.2865249514579773,-0.44861435890197754
1788862575788483300,5.1274833984375,-0.1835886836051941,-0.24282090365886688,-0.3758320212364197
1788862575798525700,5.137525634765625,-0.1770452857017517,-0.19349488615989685,-0.3415740728378296
1788862575808566500,5.14756640625,-0.16568557918071747,-0.1542433500289917,-0.3500535786151886
1788862575818608600,5.157608642578125,-0.15057054162025452,-0.13919197022914886,-0.39673930406570435
1788862575828650500,5.167650390625,-0.13761265575885773,-0.14528314769268036,-0.45845353603363037
1788862575838692400,5.1776923828125,-0.12496917694807053,-0.18976102769374847,-0.5108274817466736
1788862575848734500,5.187734375,-0.10869993269443512,-0.2571861445903778,-0.5528327226638794
1788862575858776600,5.197776611328125,-0.11022073030471802,-0.3050658702850342,-0.5941369533538818
1788862575868818400,5.207818359375,-0.11814496666193008,-0.2970593571662903,-0.6261619925498962
1788862575878860500,5.217860595703125,-0.13933704793453217,-0.2427241951227188,-0.6534480452537537
1788862575888902400,5.22790234375,-0.1711418479681015,-0.21318787336349487,-0.6538965702056885
1788862575898944300,5.2379443359375,-0.1854313164949417,-0.1899571418762207,-0.6080675721168518
1788862575908986600,5.247986572265625,-0.19827760756015778,-0.2004806250333786,-0.5395212769508362
1788862575919028500,5.258028564453125,-0.21619868278503418,-0.2437424659729004,-0.49541181325912476
1788862575929070600,5.268070556640625,-0.21345242857933044,-0.30843356251716614,-0.49991920590400696
1788862575939112400,5.278112548828125,-0.20076020061969757,-0.3925427198410034,-0.5360748171806335
1788862575949154300,5.288154296875,-0.17432300746440887,-0.4958201050758362,-0.557254433631897
1788862575959196700,5.29819677734375,-0.14079098403453827,-0.5756953358650208,-0.5420249700546265
1788862575969238500,5.308238525390625,-0.11392635107040405,-0.6049644947052002,-0.497076153755188
1788862575979280400,5.3182802734375,-0.11217176169157028,-0.5693513751029968,-0.4547286927700043
1788862575989321500,5.328321533203125,-0.12478368729352951,-0.5130593180656433,-0.48752525448799133
1788862575999363300,5.33836328125,-0.1237320527434349,-0.48510071635246277,-0.5885151028633118
1788862576009405400,5.348405517578125,-0.10671152174472809,-0.4729185998439789,-0.6899953484535217
1788862576019447600,5.358447509765625,-0.07944309711456299,-0.49251484870910645,-0.7453193068504333
1788862576029489400,5.368489501953125,-0.08154672384262085,-0.48581671714782715,-0.70649254322052
1788862576039531500,5.378531494140625,-0.1066032201051712,-0.41205719113349915,-0.5858246088027954
1788862576049573400,5.388573486328125,-0.14661560952663422,-0.2883267402648926,-0.4747806489467621
1788862576059615500,5.398615478515625,-0.15897931158542633,-0.2048078179359436,-0.4557163119316101
1788862576069657600,5.40865771484375,-0.1294933259487152,-0.21951912343502045,-0.5406267046928406
1788862576079699500,5.418699462890625,-0.07205548882484436,-0.3066946566104889,-0.6543810963630676
1788862576089741600,5.428741455078125,-0.02385360188782215,-0.443643182516098,-0.7127575874328613
1788862576099783400,5.438783447265625,-0.005206158850342035,-0.5886973738670349,-0.7213819622993469
1788862576109825300,5.4488251953125,-0.010837679728865623,-0.7149988412857056,-0.70583575963974
1788862576119867600,5.45886767578125,-0.03634209185838699,-0.7855729460716248,-0.7259824275970459
1788862576129909500,5.468909423828125,-0.08087200671434402,-0.6961432099342346,-0.7598636746406555
1788862576139951400,5.478951416015625,-0.1190062165260315,-0.4731089174747467,-0.7719215750694275
1788862576149993500,5.488993408203125,-0.1352275311946869,-0.3402608633041382,-0.8154081106185913
1788862576160035300,5.499035400390625,-0.12445792555809021,-0.338201105594635,-0.868558943271637
1788862576170076400,5.509076416015625,-0.11115676909685135,-0.3853249251842499,-0.9147387146949768
1788862576180118500,5.519118408203125,-0.10451114177703857,-0.42194557189941406,-0.9812138676643372
1788862576190160600,5.52916064453125,-0.09820611029863358,-0.4956600069999695,-1.0948256254196167
1788862576200202500,5.539202392578125,-0.07894537597894669,-0.5911916494369507,-1.1853547096252441
1788862576210244400,5.549244384765625,-0.0629459023475647,-0.5959568619728088,-1.2127256393432617
1788862576220286500,5.559286376953125,-0.04720139876008034,-0.511871874332428,-1.2236318588256836
1788862576230328600,5.56932861328125,-0.06307996064424515,-0.49461063742637634,-1.212983250617981
1788862576240370400,5.579370361328125,-0.11507591605186462,-0.5286505222320557,-1.1640799045562744
1788862576250412500,5.58941259765625,-0.1748146265745163,-0.5065390467643738,-1.1528568267822266
1788862576260454400,5.599454345703125,-0.17681822180747986,-0.49350911378860474,-1.172743797302246
1788862576270496300,5.609496337890625,-0.15933457016944885,-0.473991334438324,-1.149288535118103
1788862576280538600,5.61953857421875,-0.15446725487709045,-0.4344307482242584,-1.1103489398956299
1788862576290580500,5.62958056640625,-0.16202770173549652,-0.5186563730239868,-1.0898609161376953
1788862576300622300,5.639622314453125,-0.19068719446659088,-0.5257640480995178,-1.0275640487670898
1788862576310664400,5.64966455078125,-0.2219625562429428,-0.4667358994483948,-1.0035918951034546
1788862576320706300,5.659706298828125,-0.2669922113418579,-0.5046002864837646,-0.9990556836128235
1788862576330748700,5.669748779296875,-0.2765686810016632,-0.4485335648059845,-1.0041401386260986
1788862576340790500,5.67979052734375,-0.25698965787887573,-0.3967750370502472,-1.0808337926864624
1788862576350831600,5.68983154296875,-0.210215762257576,-0.4572543501853943,-1.1149406433105469
1788862576360873500,5.69987353515625,-0.13577598333358765,-0.4765191972255707,-1.0637568235397339
1788862576370915300,5.709915283203125,-0.07918966561555862,-0.36717379093170166,-0.9977715015411377
1788862576380957700,5.719957763671875,-0.012985887005925179,-0.1636156290769577,-0.9187583923339844
1788862576390999600,5.72999951171875,0.07204937934875488,0.00398615375161171,-0.822985827922821
1788862576401041400,5.74004150390625,0.18307481706142426,0.09114804863929749,-0.8121140003204346
1788862576411083500,5.75008349609375,0.28511860966682434,0.08002375811338425,-0.8081775903701782
1788862576421125400,5.76012548828125,0.3815261125564575,0.14747148752212524,-0.8102380037307739
1788862576431167500,5.77016748046875,0.4625288248062134,0.19451117515563965,-0.8446201682090759
1788862576441209600,5.780209716796875,0.5050396919250488,0.25643712282180786,-0.9097506999969482
1788862576451251500,5.79025146484375,0.533566951751709,0.25402480363845825,-0.9535431861877441
1788862576461293600,5.80029345703125,0.5271135568618774,0.18511219322681427,-0.9176122546195984
1788862576471335400,5.81033544921875,0.4997897446155548,0.13833029568195343,-0.8503655791282654
1788862576481377500,5.82037744140625,0.48221468925476074,0.19721436500549316,-0.8473016619682312
1788862576491419600,5.830419677734375,0.5018240809440613,0.2522515058517456,-0.8805860877037048
1788862576501461500,5.84046142578125,0.5430022478103638,0.3180093467235565,-0.9237608909606934
1788862576511503400,5.85050341796875,0.5690122246742249,0.3235119581222534,-0.9732986092567444
1788862576521545500,5.86054541015625,0.5425544381141663,0.27513018250465393,-0.9906562566757202
1788862576531586300,5.87058642578125,0.48004820942878723,0.18559470772743225,-1.066814661026001
1788862576541628700,5.880628662109375,0.40909916162490845,0.06225969269871712,-1.087314248085022
1788862576551670500,5.89067041015625,0.3426908552646637,-0.0645403265953064,-1.0223133563995361
1788862576561713200,5.900713134765625,0.29439812898635864,-0.12345294654369354,-0.9136216044425964
1788862576571755300,5.91075537109375,0.2654080390930176,-0.1334637701511383,-0.7988292574882507
1788862576581797000,5.920797119140625,0.21621374785900116,-0.029239419847726822,-0.7758595943450928
1788862576591839000,5.9308388671875,0.15744151175022125,0.09033145010471344,-0.7899383902549744
1788862576601881300,5.94088134765625,0.07597064226865768,0.1152951568365097,-0.7870186567306519
1788862576611923200,5.950923095703125,0.016820237040519714,0.11630422621965408,-0.7760557532310486
1788862576621965000,5.960965087890625,-0.022677402943372726,0.13217100501060486,-0.7117172479629517
1788862576632007200,5.971007080078125,-0.08973020315170288,0.27787280082702637,-0.5706557035446167
1788862576642049000,5.981049072265625,-0.1710299849510193,0.40201276540756226,-0.4216598868370056
1788862576652091400,5.99109130859375,-0.22268146276474,0.4534629285335541,-0.33089083433151245
1788862576662133200,6.00113330078125,-0.22758100926876068,0.4833950996398926,-0.23999135196208954
1788862576672175000,6.011175048828125,-0.21449610590934753,0.5026646852493286,-0.10738937556743622
1788862576682217200,6.02121728515625,-0.20518608391284943,0.5778793692588806,-0.03456704318523407
1788862576692259000,6.031259033203125,-0.2058873027563095,0.7045193314552307,0.06593958288431168
1788862576702300200,6.041300048828125,-0.21089255809783936,0.7389552593231201,0.21955661475658417
1788862576712342300,6.05134228515625,-0.21247953176498413,0.7501181364059448,0.34937775135040283
1788862576722384100,6.061384033203125,-0.23522454500198364,0.794251024723053,0.4501807987689972
1788862576732426200,6.07142626953125,-0.27306699752807617,0.7954310774803162,0.47254735231399536
1788862576742468000,6.081468017578125,-0.28092890977859497,0.7492390275001526,0.4944359064102173
1788862576752510000,6.091510009765625,-0.2644639313220978,0.6408640742301941,0.5052746534347534
1788862576762552300,6.10155224609375,-0.24847829341888428,0.5250757336616516,0.5301329493522644
1788862576772594200,6.11159423828125,-0.24909454584121704,0.3898094892501831,0.6016449332237244
1788862576782636300,6.12163623046875,-0.2552095651626587,0.30472618341445923,0.7206684947013855
1788862576792678100,6.13167822265625,-0.2450309544801712,0.2940772473812103,0.8404524326324463
1788862576802720000,6.141719970703125,-0.21009574830532074,0.2959005832672119,0.9131211638450623
1788862576812762400,6.151762451171875,-0.16131649911403656,0.3250190317630768,0.9470583200454712
1788862576822804200,6.16180419921875,-0.10502739995718002,0.33885657787323,0.9599840044975281
1788862576832846000,6.17184619140625,-0.06763608008623123,0.3498525023460388,0.9830507040023804
1788862576842888200,6.18188818359375,-0.06860361993312836,0.28744661808013916,1.0162687301635742
1788862576852930000,6.191929931640625,-0.07121537625789642,0.20979948341846466,1.01359224319458
1788862576862972200,6.20197216796875,-0.0534207709133625,0.14964526891708374,1.010053277015686
1788862576873013200,6.21201318359375,-0.004345638211816549,0.10302663594484329,1.0282000303268433
1788862576883055000,6.22205517578125,0.053344011306762695,0.058031175285577774,1.0322895050048828
1788862576893097200,6.23209716796875,0.09754955768585205,0.0658600702881813,1.0130362510681152
1788862576903139000,6.24213916015625,0.12238115072250366,0.10750553756952286,0.98854660987854
1788862576913181200,6.25218115234375,0.14503426849842072,0.08869829028844833,0.9669188261032104
1788862576923223300,6.262223388671875,0.15592502057552338,0.10020319372415543,0.9646220803260803
1788862576933265200,6.27226513671875,0.11572219431400299,0.1881602257490158,0.997609555721283
1788862576943307300,6.282307373046875,0.056643277406692505,0.2993523180484772,1.0288938283920288
1788862576953349000,6.29234912109375,-0.0030243133660405874,0.3599837124347687,1.012000322341919
1788862576963391000,6.302390869140625,-0.04887247830629349,0.3269001245498657,0.965111494064331
1788862576973433300,6.312433349609375,-0.09506794065237045,0.30472931265830994,0.968786358833313
1788862576983475200,6.32247509765625,-0.15050779283046722,0.35253453254699707,1.0378334522247314
1788862576993517000,6.33251708984375,-0.21519331634044647,0.41803205013275146,1.1111137866973877
1788862577003559200,6.34255908203125,-0.26608362793922424,0.44902706146240234,1.1690410375595093
1788862577013601000,6.35260107421875,-0.2894991934299469,0.45946505665779114,1.2310680150985718
1788862577023643100,6.36264306640625,-0.27720245718955994,0.49662962555885315,1.3053451776504517
1788862577033684200,6.372684326171875,-0.2231871485710144,0.5219904184341431,1.3718150854110718
1788862577043726000,6.38272607421875,-0.12879866361618042,0.49033352732658386,1.40868079662323
1788862577053768200,6.392768310546875,-0.021702567115426064,0.4012065827846527,1.4173163175582886
1788862577063810000,6.40281005859375,0.0695071667432785,0.2972434461116791,1.4327844381332397
1788862577073852200,6.41285205078125,0.13846120238304138,0.22771282494068146,1.479326605796814
1788862577083894300,6.422894287109375,0.191120907664299,0.1850246787071228,1.5196987390518188
1788862577093936000,6.43293603515625,0.24369943141937256,0.09051281213760376,1.5069962739944458
1788862577103978200,6.442978271484375,0.2771112322807312,0.020084243267774582,1.4300436973571777
1788862577114020000,6.45302001953125,0.28520405292510986,-0.012251060456037521,1.3650226593017578
1788862577124062000,6.46306201171875,0.2748752236366272,-0.046991996467113495,1.3468396663665771
1788862577134104300,6.473104248046875,0.27110394835472107,-0.039083197712898254,1.360514521598816
1788862577144146200,6.483146240234375,0.2907383441925049,0.023765254765748978,1.3756035566329956
1788862577154188000,6.49318798828125,0.32065337896347046,0.09854788333177567,1.3750983476638794
1788862577164230100,6.503230224609375,0.34857821464538574,0.1513407975435257,1.3715108633041382
1788862577174272000,6.51327197265625,0.35315433144569397,0.15667909383773804,1.3910484313964844
1788862577184314400,6.523314453125,0.343826025724411,0.14650820195674896,1.446191668510437
1788862577194356200,6.533356201171875,0.3192053735256195,0.17572280764579773,1.52104651927948
1788862577204397300,6.543397216796875,0.2726046144962311,0.17021512985229492,1.5738404989242554
1788862577214439200,6.553439208984375,0.2153240144252777,0.14098960161209106,1.5825010538101196
1788862577224481000,6.56348095703125,0.1588507443666458,0.09087171405553818,1.5665056705474854
1788862577234523100,6.573523193359375,0.10860168933868408,0.07658199220895767,1.5415323972702026
1788862577244565200,6.583565185546875,0.07780557870864868,0.03234172984957695,1.4962201118469238
1788862577254607000,6.593607177734375,0.037630196660757065,-0.08514255285263062,1.422011375427246
1788862577264649200,6.603649169921875,-0.020495329052209854,-0.18446271121501923,1.3362938165664673
1788862577274691000,6.613691162109375,-0.08072803914546967,-0.1547389030456543,1.2974989414215088
1788862577284733200,6.623733154296875,-0.12289412319660187,-0.012915669940412045,1.3381593227386475
1788862577294775300,6.633775390625,-0.14822983741760254,0.1471235305070877,1.3872517347335815
1788862577304817200,6.643817138671875,-0.13064338266849518,0.23134547472000122,1.3929977416992188
1788862577314859300,6.653859375,-0.08263937383890152,0.22657494246959686,1.3484017848968506
1788862577324901000,6.663901123046875,-0.026864800602197647,0.21340133249759674,1.3030859231948853
1788862577334943000,6.67394287109375,0.02036369778215885,0.21761205792427063,1.2690094709396362
1788862577344985300,6.6839853515625,0.06578540802001953,0.20866164565086365,1.230919599533081
1788862577355026200,6.694026123046875,0.10858400166034698,0.17168551683425903,1.1670817136764526
1788862577365068300,6.704068359375,0.1315741240978241,0.11719842255115509,1.0809919834136963
1788862577375110100,6.714110107421875,0.126667782664299,0.09913872182369232,0.9955283999443054
1788862577385152000,6.724152099609375,0.12201870232820511,0.11363829672336578,0.9428750872612
1788862577395194000,6.734194091796875,0.12903240323066711,0.06802608072757721,0.9238776564598083
1788862577405236200,6.744236328125,0.13635343313217163,-0.07316754758358002,0.9137452840805054
1788862577415278000,6.754278076171875,0.12748616933822632,-0.22250030934810638,0.8719645738601685
1788862577425320200,6.7643203125,0.09675952792167664,-0.2986879348754883,0.7846688032150269
1788862577435362000,6.774362060546875,0.07045948505401611,-0.27671605348587036,0.6729302406311035
1788862577445404200,6.784404052734375,0.051579128950834274,-0.2172294408082962,0.564864993095398
1788862577455446300,6.7944462890625,0.05479196831583977,-0.1309824287891388,0.4886474311351776
1788862577465488100,6.804488037109375,0.06452345848083496,0.030193209648132324,0.4203125536441803
1788862577475530200,6.8145302734375,0.068518728017807,0.23950675129890442,0.3680533468723297
1788862577485572000,6.824572021484375,0.07271280884742737,0.4111047387123108,0.329723060131073
1788862577495614000,6.834614013671875,0.08531408756971359,0.49174821376800537,0.3192509710788727
1788862577505655000,6.844655029296875,0.10383341461420059,0.4813370108604431,0.31841811537742615
1788862577515697200,6.854697265625,0.13129405677318573,0.37219932675361633,0.3227776885032654
1788862577525739300,6.8647392578125,0.16587738692760468,0.18088752031326294,0.31694892048835754
1788862577535781000,6.874781005859375,0.17340347170829773,0.004324476234614849,0.30512741208076477
1788862577545823000,6.884822998046875,0.14402320981025696,-0.119003064930439,0.28513866662979126
1788862577555864300,6.8948642578125,0.1031615287065506,-0.20442582666873932,0.27126947045326233
1788862577565906200,6.90490625,0.05792403221130371,-0.2997994124889374,0.24193483591079712
1788862577575948300,6.9149482421875,0.012318730354309082,-0.37243369221687317,0.17349480092525482
1788862577585990100,6.924990234375,-0.013792273588478565,-0.3775542378425598,0.06208058446645737
1788862577596032300,6.9350322265625,-0.03126341104507446,-0.2712496519088745,-0.08691129088401794
1788862577606074400,6.945074462890625,-0.04492953419685364,-0.06564889848232269,-0.26070088148117065
1788862577616116200,6.9551162109375,-0.044014472514390945,0.14668600261211395,-0.43262577056884766
1788862577626158300,6.965158447265625,-0.028837408870458603,0.24605032801628113,-0.5688567161560059
1788862577636200200,6.9752001953125,-0.0035347158554941416,0.23211002349853516,-0.6466891765594482
1788862577646242300,6.9852421875,0.025221463292837143,0.15651613473892212,-0.6750079989433289
1788862577656283400,6.995283447265625,0.04018523171544075,0.07258981466293335,-0.6735405921936035
1788862577666325200,7.0053251953125,0.04069482535123825,0.029259517788887024,-0.649621844291687
1788862577676367400,7.015367431640625,0.03299189731478691,0.0439164899289608,-0.6131400465965271
1788862577686409200,7.0254091796875,0.025711091235280037,0.11020632088184357,-0.5636100769042969
1788862577696451000,7.035451171875,0.018462233245372772,0.2254340946674347,-0.5244964957237244
1788862577706493400,7.045493408203125,0.025347014889121056,0.32759609818458557,-0.506567120552063
1788862577716535300,7.055535400390625,0.030148427933454514,0.40991732478141785,-0.501651406288147
1788862577726577400,7.065577392578125,0.03645549714565277,0.4689827561378479,-0.5151543021202087
1788862577736619300,7.075619384765625,0.04401887208223343,0.457878977060318,-0.5687962770462036
1788862577746661000,7.0856611328125,0.06767424196004868,0.3564535975456238,-0.6655482649803162
1788862577756703500,7.095703369140625,0.1009666845202446,0.17016416788101196,-0.7666780948638916
1788862577766745300,7.105745361328125,0.13278546929359436,-0.06181194260716438,-0.8151052594184875
1788862577776787200,7.115787109375,0.15848897397518158,-0.23064543306827545,-0.8185492753982544
1788862577786829300,7.125829345703125,0.16291089355945587,-0.2671799659729004,-0.8001893758773804
1788862577796871200,7.13587109375,0.13499431312084198,-0.1449935883283615,-0.7676785588264465
1788862577806912300,7.145912353515625,0.0879124104976654,0.09189921617507935,-0.7428581118583679
1788862577816954400,7.155954345703125,0.046399060636758804,0.2987472116947174,-0.7284796833992004
1788862577826996200,7.165996337890625,0.018232524394989014,0.36666855216026306,-0.7138940095901489
1788862577837038300,7.176038330078125,-0.005726604722440243,0.29984134435653687,-0.7256377339363098
1788862577847080200,7.186080078125,-0.016725318506360054,0.18220460414886475,-0.797278106212616
1788862577857122300,7.196122314453125,-0.007114504463970661,0.055641867220401764,-0.9070029854774475
1788862577867164400,7.206164306640625,0.016237961128354073,-0.040491312742233276,-1.01947021484375
1788862577877206300,7.216206298828125,0.04426879808306694,-0.08379058539867401,-1.1002638339996338
1788862577887248400,7.226248291015625,0.0926416665315628,-0.09357448667287827,-1.1343915462493896
1788862577897290200,7.236290283203125,0.15632370114326477,-0.07611213624477386,-1.1174730062484741
1788862577907332000,7.24633203125,0.2244562804698944,-0.06103187054395676,-1.0610116720199585
1788862577917374500,7.25637451171875,0.2545427978038788,-0.023299671709537506,-0.9906591773033142
1788862577927416300,7.266416259765625,0.23052509129047394,0.013301725499331951,-0.9575121402740479
1788862577937458200,7.276458251953125,0.1762613207101822,0.03900735452771187,-0.9600676894187927
1788862577947499300,7.286499267578125,0.13690142333507538,0.01876525580883026,-1.003174901008606
1788862577957541000,7.296541015625,0.12572571635246277,-0.024907920509576797,-1.0712279081344604
1788862577967583200,7.306583251953125,0.1326075792312622,-0.08614655584096909,-1.1418298482894897
1788862577977625300,7.316625244140625,0.1517557054758072,-0.14016132056713104,-1.1819863319396973
1788862577987667200,7.326667236328125,0.16940926015377045,-0.19310976564884186,-1.1796828508377075
1788862577997709300,7.336709228515625,0.18142491579055786,-0.23233307898044586,-1.1969081163406372
1788862578007751200,7.346751220703125,0.18731120228767395,-0.2906302511692047,-1.239566683769226
1788862578017793300,7.356793212890625,0.18650878965854645,-0.3609856367111206,-1.2554823160171509
1788862578027835400,7.36683544921875,0.17767362296581268,-0.40901559591293335,-1.2112138271331787
1788862578037877200,7.376877197265625,0.15821710228919983,-0.3986319303512573,-1.1441649198532104
1788862578047919400,7.38691943359375,0.13005243241786957,-0.35296207666397095,-1.1163079738616943
1788862578057961200,7.396961181640625,0.11666259169578552,-0.3495369851589203,-1.1483793258666992
1788862578068003000,7.407003173828125,0.12771561741828918,-0.4102362096309662,-1.2034324407577515
1788862578078045400,7.41704541015625,0.15770015120506287,-0.47238028049468994,-1.2412112951278687
1788862578088087300,7.42708740234375,0.17674455046653748,-0.4523129463195801,-1.2485822439193726
1788862578098128400,7.43712841796875,0.15740308165550232,-0.38369685411453247,-1.220229983329773
1788862578108170200,7.447170166015625,0.14184419810771942,-0.3487587571144104,-1.2021900415420532
1788862578118212000,7.457212158203125,0.1250780075788498,-0.38627684116363525,-1.2307854890823364
1788862578128254200,7.467254150390625,0.121763214468956,-0.4953363835811615,-1.2953249216079712
1788862578138296300,7.47729638671875,0.10654670745134354,-0.5437920689582825,-1.345113754272461
1788862578148338400,7.48733837890625,0.08961126208305359,-0.513534426689148,-1.3732967376708984
1788862578158380300,7.49738037109375,0.09001100063323975,-0.5191723704338074,-1.4602036476135254
1788862578168422100,7.507422119140625,0.11235649138689041,-0.7057303786277771,-1.4913655519485474
1788862578178464300,7.51746435546875,0.12450876086950302,-0.8969969749450684,-1.5164629220962524
1788862578188506400,7.52750634765625,0.08339808881282806,-0.9033792018890381,-1.570829153060913
1788862578198548200,7.53754833984375,0.03204222023487091,-0.7228952050209045,-1.5685635805130005
1788862578208590300,7.54759033203125,-0.0031882014591246843,-0.5976983904838562,-1.4887175559997559
1788862578218632200,7.557632080078125,-0.013330051675438881,-0.5427853465080261,-1.4219300746917725
1788862578228674000,7.567674072265625,-0.00497011374682188,-0.5480090975761414,-1.4217332601547241
1788862578238715100,7.577715087890625,0.02088705077767372,-0.5806357860565186,-1.415604829788208
1788862578248757200,7.58775732421875,0.07037125527858734,-0.5691894292831421,-1.3956716060638428
1788862578258799400,7.59779931640625,0.12315909564495087,-0.5175353288650513,-1.3629679679870605
1788862578268841200,7.60784130859375,0.15214771032333374,-0.39562666416168213,-1.3471567630767822
1788862578278883300,7.61788330078125,0.17787890136241913,-0.22331829369068146,-1.3543894290924072
1788862578288925200,7.62792529296875,0.1698986440896988,-0.1595337688922882,-1.3627687692642212
1788862578298967300,7.63796728515625,0.15626832842826843,-0.19713813066482544,-1.4078600406646729
1788862578309009400,7.648009521484375,0.15139833092689514,-0.25335919857025146,-1.444987177848816
1788862578319051300,7.65805126953125,0.15979315340518951,-0.26201900839805603,-1.4595255851745605
1788862578329093000,7.668093017578125,0.18659931421279907,-0.1914571076631546,-1.5109915733337402
1788862578339135200,7.67813525390625,0.2045346349477768,-0.13868950307369232,-1.5245167016983032
1788862578349177300,7.68817724609375,0.19416284561157227,-0.09653175622224808,-1.4469584226608276
1788862578359219200,7.69821923828125,0.15752147138118744,-0.006193866953253746,-1.3160507678985596
1788862578369261300,7.70826123046875,0.1435413807630539,0.06259021162986755,-1.2585058212280273
1788862578379302100,7.71830224609375,0.16408127546310425,0.1567460000514984,-1.203074336051941
1788862578389344300,7.72834423828125,0.18041028082370758,0.2597760558128357,-1.1144057512283325
1788862578399386000,7.73838623046875,0.20622217655181885,0.2466229349374771,-1.0008131265640259
1788862578409428500,7.748428466796875,0.19660203158855438,0.18539369106292725,-0.8895909190177917
1788862578419470300,7.75847021484375,0.16705186665058136,0.1752430498600006,-0.7458414435386658
1788862578429512200,7.76851220703125,0.15532703697681427,0.16399414837360382,-0.6125500202178955
1788862578439554300,7.77855419921875,0.1424141675233841,0.3093489408493042,-0.5198832154273987
1788862578449596200,7.78859619140625,0.11361631751060486,0.3581622242927551,-0.45630162954330444
1788862578459638300,7.79863818359375,0.09779927134513855,0.2735442519187927,-0.39070746302604675
1788862578469680400,7.808680419921875,0.06998644024133682,0.2518085539340973,-0.3333126902580261
1788862578479722200,7.81872216796875,0.02779131755232811,0.30198195576667786,-0.18122489750385284
1788862578489764000,7.82876416015625,-0.021243471652269363,0.346649169921875,0.029840266332030296
1788862578499806200,7.83880615234375,-0.059097111225128174,0.3918408751487732,0.18510201573371887
1788862578509847000,7.848846923828125,-0.10955683887004852,0.41825351119041443,0.3309299647808075
1788862578519889400,7.858889404296875,-0.1652906835079193,0.4219217598438263,0.49179020524024963
1788862578529931300,7.86893115234375,-0.20658577978610992,0.4993109405040741,0.6572556495666504
1788862578539973400,7.878973388671875,-0.21765893697738647,0.5609139204025269,0.782887876033783
1788862578550015200,7.88901513671875,-0.22657093405723572,0.5418709516525269,0.9294703602790833
1788862578560058000,7.89905810546875,-0.2391277402639389,0.5314721465110779,1.0618335008621216
1788862578570100000,7.909099853515625,-0.24498578906059265,0.5343294739723206,1.1489285230636597
1788862578580142000,7.91914208984375,-0.23642371594905853,0.5142133235931396,1.200818657875061
1788862578590184000,7.929183837890625,-0.24075092375278473,0.4955134093761444,1.2313143014907837
1788862578600226000,7.93922607421875,-0.272392213344574,0.5003078579902649,1.294058918952942
1788862578610268200,7.94926806640625,-0.29626956582069397,0.5411503314971924,1.3488690853118896
1788862578620310000,7.95931005859375,-0.28283631801605225,0.603634774684906,1.3714066743850708
1788862578630352100,7.96935205078125,-0.23491261899471283,0.6233294606208801,1.3862484693527222
1788862578640394000,7.97939404296875,-0.1803329885005951,0.6393068432807922,1.4436808824539185
1788862578650435000,7.98943505859375,-0.12367425113916397,0.6562889814376831,1.5120407342910767
1788862578660477000,7.999476806640625,-0.07153302431106567,0.6811932921409607,1.5662368535995483
1788862578670519000,8.00951904296875,-0.03039170615375042,0.6702885031700134,1.599941611289978
1788862578680561200,8.01956103515625,-0.0016364920884370804,0.5984374284744263,1.6263394355773926
1788862578690603000,8.02960302734375,0.027003273367881775,0.5308537483215332,1.6743515729904175
1788862578700644900,8.039644775390625,0.05502931401133537,0.507713258266449,1.7387491464614868
1788862578710687000,8.04968701171875,0.08104891330003738,0.4619728922843933,1.7567352056503296
1788862578720729000,8.05972900390625,0.11206089705228806,0.418218731880188,1.7293810844421387
1788862578730771000,8.06977099609375,0.145934596657753,0.4204389750957489,1.7183573246002197
1788862578740813000,8.07981298828125,0.18092773854732513,0.4038725197315216,1.7502633333206177
1788862578750855000,8.08985498046875,0.22096823155879974,0.3465065658092499,1.7618461847305298
1788862578760897000,8.09989697265625,0.23578286170959473,0.2898411452770233,1.745755672454834
1788862578770939100,8.109939208984375,0.2068108320236206,0.23887185752391815,1.7351850271224976
1788862578780981000,8.11998095703125,0.16212618350982666,0.18652530014514923,1.721204161643982
1788862578791022000,8.13002197265625,0.12020924687385559,0.15096057951450348,1.7092883586883545
1788862578801064000,8.14006396484375,0.0768553838133812,0.12343815714120865,1.704688549041748
1788862578811106000,8.15010595703125,0.04776034504175186,0.08899493515491486,1.7141380310058594
1788862578821148000,8.16014794921875,0.0195848997682333,0.05791344493627548,1.7438839673995972
1788862578831190000,8.17018994140625,0.0028540203347802162,0.03553912788629532,1.8045631647109985
1788862578841232100,8.180232177734375,-0.01039360836148262,0.008811907842755318,1.8651522397994995
1788862578851274000,8.19027392578125,-0.020280344411730766,-0.0003653997555375099,1.8860104084014893
1788862578861315800,8.20031591796875,-0.022141361609101295,0.037127912044525146,1.8934271335601807
1788862578871358000,8.21035791015625,-0.01823970302939415,0.05805221572518349,1.8801474571228027
1788862578881400000,8.220400146484375,-0.01920989342033863,0.03305206075310707,1.8372348546981812
1788862578891442200,8.230442138671876,-0.023771489039063454,-0.007042233366519213,1.785184621810913
1788862578901484000,8.240484130859375,-0.01553966011852026,-0.057773053646087646,1.755768895149231
1788862578911526000,8.25052587890625,-0.014907799661159515,-0.1355731040239334,1.7584558725357056
1788862578921567000,8.26056689453125,-0.03087691403925419,-0.201169952750206,1.7699027061462402
1788862578931608800,8.27060888671875,-0.03061939962208271,-0.21528449654579163,1.775246024131775
1788862578941651200,8.280651123046875,-0.04806789755821228,-0.23457083106040955,1.747444748878479
1788862578951693000,8.290693115234374,-0.1004919707775116,-0.22519467771053314,1.711768627166748
1788862578961735000,8.30073486328125,-0.16533808410167694,-0.177573099732399,1.6965014934539795
1788862578971777000,8.310777099609375,-0.23543286323547363,-0.12061349302530289,1.6917240619659424
1788862578981819000,8.32081884765625,-0.27953028678894043,-0.061794381588697433,1.6775243282318115
1788862578991861000,8.330861083984376,-0.3024948239326477,-0.026766762137413025,1.6435248851776123
1788862579001903000,8.340903076171875,-0.2996625602245331,-0.08516402542591095,1.5734241008758545
1788862579011945000,8.350945068359374,-0.26552700996398926,-0.20339855551719666,1.4713987112045288
1788862579021987000,8.360987060546876,-0.2295610010623932,-0.32376542687416077,1.3615158796310425
1788862579032029000,8.37102880859375,-0.21088743209838867,-0.34941747784614563,1.2683016061782837
1788862579042071000,8.381071044921875,-0.21089062094688416,-0.25049570202827454,1.2029532194137573
1788862579052112100,8.391112060546876,-0.22786788642406464,-0.07509048283100128,1.1519581079483032
1788862579062154000,8.401154052734375,-0.2328788936138153,0.034003518521785736,1.0885921716690063
1788862579072196000,8.411196044921875,-0.21934284269809723,-0.0013283542357385159,0.9816060066223145
1788862579082238000,8.421238037109376,-0.20692823827266693,-0.12214265763759613,0.8276196122169495
1788862579092279800,8.43127978515625,-0.21387656033039093,-0.22076097130775452,0.6358098387718201
1788862579102322200,8.441322265625,-0.2290395349264145,-0.16437466442584991,0.44965803623199463
1788862579112364000,8.451364013671874,-0.23130416870117188,-0.018372340127825737,0.30963537096977234
1788862579122406000,8.461406005859375,-0.2222406268119812,0.11333082616329193,0.2136121690273285
1788862579132448000,8.471447998046875,-0.2000274807214737,0.2150486260652542,0.1631830930709839
1788862579142489900,8.48148974609375,-0.1602744609117508,0.319617360830307,0.1387869417667389
1788862579152532200,8.4915322265625,-0.09197677671909332,0.3986915647983551,0.12628759443759918
1788862579162574000,8.501573974609375,-0.022665610536932945,0.43739527463912964,0.09536855667829514
1788862579172615200,8.511615234375,0.03609079122543335,0.3663257956504822,0.0489455908536911
1788862579182657000,8.521656982421876,0.03355040028691292,0.2068386673927307,-0.02019939385354519
1788862579192699000,8.531698974609375,-0.002532773185521364,-0.0022895336151123047,-0.09286760538816452
1788862579202741200,8.5417412109375,-0.026574725285172462,-0.18719705939292908,-0.16873227059841156
1788862579212783000,8.551783203125,-0.06397521495819092,-0.2749573886394501,-0.2531088888645172
1788862579222825000,8.561824951171875,-0.10895201563835144,-0.25715893507003784,-0.326947957277298
1788862579232867000,8.5718671875,-0.1323307454586029,-0.16366490721702576,-0.39026394486427307
1788862579242909000,8.581908935546876,-0.14602577686309814,-0.009898263029754162,-0.4284435510635376
1788862579252951000,8.591950927734375,-0.1697234958410263,0.19710999727249146,-0.4589149057865143
1788862579262993200,8.6019931640625,-0.19308394193649292,0.41075995564460754,-0.5043966174125671
1788862579273035000,8.612034912109374,-0.1933509111404419,0.5908676385879517,-0.5653783082962036
1788862579283077000,8.6220771484375,-0.18164286017417908,0.7044812440872192,-0.6315439939498901
1788862579293119000,8.632118896484375,-0.16542968153953552,0.712775468826294,-0.6923198103904724
1788862579303160000,8.64216015625,-0.1363263875246048,0.6098661422729492,-0.7396039366722107
1788862579313202200,8.6522021484375,-0.0833628848195076,0.39120936393737793,-0.7710076570510864
1788862579323244000,8.662244140625,-0.026155520230531693,0.14325575530529022,-0.7873227000236511
1788862579333286100,8.6722861328125,0.011752020567655563,-0.025127343833446503,-0.8050058484077454
1788862579343328000,8.682327880859376,0.03467384725809097,-0.051978133618831635,-0.8345893621444702
1788862579353369900,8.692369873046875,0.05250827223062515,0.027871793136000633,-0.8608943223953247
1788862579363412200,8.702412109375,0.07885678112506866,0.19360776245594025,-0.8659572601318359
1788862579373454000,8.7124541015625,0.10979989916086197,0.43334054946899414,-0.8562902808189392
1788862579383496000,8.722495849609375,0.1431589275598526,0.6408212780952454,-0.8466589450836182
1788862579393538000,8.7325380859375,0.16602374613285065,0.7365506887435913,-0.8768305778503418
1788862579403580000,8.742579833984376,0.1759568154811859,0.6880190968513489,-0.9584766626358032
1788862579413622000,8.7526220703125,0.20926299691200256,0.5141801834106445,-1.0579875707626343
1788862579423663000,8.7626630859375,0.28505444526672363,0.19849440455436707,-1.1598172187805176
1788862579433705200,8.772705322265624,0.3763090968132019,-0.169014573097229,-1.2294093370437622
1788862579443747000,8.7827470703125,0.44709351658821106,-0.4335133135318756,-1.211140513420105
1788862579453789000,8.792788818359375,0.4698158800601959,-0.4926812946796417,-1.0901318788528442
1788862579463831000,8.8028310546875,0.42717811465263367,-0.36286473274230957,-0.9862917065620422
1788862579473873200,8.812873046875,0.35535523295402527,-0.11287893354892731,-0.9620869755744934
1788862579483915000,8.8229150390625,0.2706768214702606,0.09217594563961029,-1.0084998607635498
1788862579493957000,8.83295703125,0.19477684795856476,0.14372840523719788,-1.0871251821517944
1788862579503999000,8.8429990234375,0.1309206336736679,0.09646236896514893,-1.190099835395813
1788862579514040800,8.853040771484375,0.08035467565059662,0.026503833010792732,-1.3260159492492676
1788862579524083200,8.863083251953125,0.0600198432803154,-0.07146161049604416,-1.4382315874099731
1788862579534125000,8.873125,0.06825912743806839,-0.18810541927814484,-1.4788990020751953
1788862579544166100,8.883166259765625,0.07727259397506714,-0.2751559019088745,-1.4330670833587646
1788862579554208000,8.8932080078125,0.07488001137971878,-0.33852314949035645,-1.3678936958312988
1788862579564249600,8.90324951171875,0.0742935836315155,-0.34833717346191406,-1.3611904382705688
1788862579574291500,8.91329150390625,0.06968126446008682,-0.37106800079345703,-1.4280140399932861
1788862579584333300,8.923333251953125,0.050634872168302536,-0.4482994079589844,-1.5023404359817505
1788862579594375400,8.93337548828125,0.04204804077744484,-0.5453886985778809,-1.5428751707077026
1788862579604417300,8.943417236328125,0.03956171125173569,-0.5956704616546631,-1.5741071701049805
1788862579614459400,8.95345947265625,0.037580959498882294,-0.5630395412445068,-1.5846738815307617
1788862579624501500,8.96350146484375,0.03575749322772026,-0.4924074411392212,-1.5386866331100464
1788862579634543400,8.97354345703125,0.04421849176287651,-0.4925819933414459,-1.5228055715560913
1788862579644585500,8.98358544921875,0.0691685825586319,-0.5761141180992126,-1.53374183177948
1788862579654627300,8.99362744140625,0.08218904584646225,-0.6577072739601135,-1.5486470460891724
1788862579664668400,9.00366845703125,0.08547218888998032,-0.6461086869239807,-1.5520238876342773
1788862579674710500,9.01371044921875,0.09956911951303482,-0.603590726852417,-1.5939668416976929
1788862579684752400,9.02375244140625,0.1326083093881607,-0.5668699741363525,-1.6520353555679321
1788862579694794500,9.03379443359375,0.16922810673713684,-0.5572202801704407,-1.6797925233840942
1788862579704836400,9.04383642578125,0.20341694355010986,-0.615532636642456,-1.6978700160980225
1788862579714878200,9.053878173828124,0.2230766862630844,-0.725884199142456,-1.7037382125854492
1788862579724920600,9.063920654296876,0.22495633363723755,-0.8114256858825684,-1.703681468963623
1788862579734962400,9.07396240234375,0.2225206196308136,-0.8347797393798828,-1.7351930141448975
1788862579745004300,9.08400439453125,0.23286086320877075,-0.8693944811820984,-1.751655101776123
1788862579755046400,9.09404638671875,0.23798516392707825,-0.9295250773429871,-1.7426377534866333
1788862579765088300,9.104088134765625,0.22652345895767212,-0.9613855481147766,-1.7082151174545288
1788862579775130600,9.114130615234375,0.21329130232334137,-0.8911352157592773,-1.700029730796814
1788862579785171500,9.12417138671875,0.21637684106826782,-0.7722216248512268,-1.6749951839447021
1788862579795213600,9.134213623046875,0.21482926607131958,-0.6272765398025513,-1.6394693851470947
1788862579805255400,9.14425537109375,0.2082880139350891,-0.46879443526268005,-1.6113033294677734
1788862579815297300,9.15429736328125,0.1867855191230774,-0.3958287537097931,-1.5974947214126587
1788862579825339400,9.16433935546875,0.1592300683259964,-0.3734355568885803,-1.5593148469924927
1788862579835381500,9.174381591796875,0.1317111849784851,-0.3754139542579651,-1.528061866760254
1788862579845423400,9.18442333984375,0.09299202263355255,-0.3717025816440582,-1.4962999820709229
1788862579855465500,9.194465576171876,0.05152290686964989,-0.28905075788497925,-1.4393681287765503
1788862579865507300,9.20450732421875,0.024501409381628036,-0.19120140373706818,-1.3651598691940308
1788862579875549400,9.214549560546875,0.003968957811594009,-0.1223616674542427,-1.298113465309143
1788862579885591600,9.224591552734376,-0.027657944709062576,0.00796437356621027,-1.229608178138733
1788862579895633400,9.23463330078125,-0.0627022236585617,0.21560275554656982,-1.1712629795074463
1788862579905674500,9.244674560546875,-0.09316585958003998,0.32922598719596863,-1.0490918159484863
1788862579915716400,9.25471630859375,-0.10994067788124084,0.3062226474285126,-0.9468021392822266
1788862579925758500,9.264758544921875,-0.1302347630262375,0.23569068312644958,-0.8636305332183838
1788862579935800300,9.27480029296875,-0.15035921335220337,0.20327463746070862,-0.7741209268569946
1788862579945842400,9.284842529296874,-0.15816520154476166,0.19508275389671326,-0.7086089849472046
1788862579955884500,9.294884521484375,-0.1606609970331192,0.2106567770242691,-0.6250901818275452
1788862579965926400,9.304926513671875,-0.14620721340179443,0.29106852412223816,-0.5220841765403748
1788862579975968300,9.31496826171875,-0.12307099997997284,0.3820466697216034,-0.40843525528907776
1788862579986010400,9.32501025390625,-0.11188971251249313,0.43786120414733887,-0.2734241783618927
1788862579996052500,9.335052490234375,-0.12091104686260223,0.37462058663368225,-0.0896231159567833
1788862580006094300,9.34509423828125,-0.12756095826625824,0.2602950632572174,0.10018943250179291
1788862580016136400,9.355136474609376,-0.14082138240337372,0.33084481954574585,0.2719869017601013
1788862580026177300,9.36517724609375,-0.1616709977388382,0.36512529850006104,0.441354364156723
1788862580036219400,9.375219482421874,-0.16461005806922913,0.3478541970252991,0.5859898328781128
1788862580046261200,9.38526123046875,-0.12734417617321014,0.2883248031139374,0.7045883536338806
1788862580056303600,9.3953037109375,-0.08082182705402374,0.2925727069377899,0.7862869501113892
1788862580066345500,9.405345458984375,-0.051401879638433456,0.3673555850982666,0.7968913912773132
1788862580076387300,9.41538720703125,-0.02304999530315399,0.3601953089237213,0.7688824534416199
1788862580086429400,9.425429443359375,0.014495780691504478,0.33138230443000793,0.7879522442817688
1788862580096471300,9.43547119140625,0.013829979114234447,0.37830954790115356,0.8944459557533264
1788862580106513400,9.445513427734374,-0.05930095911026001,0.4632883369922638,1.0503133535385132
1788862580116555500,9.455555419921875,-0.13591954112052917,0.4858989119529724,1.2282402515411377
1788862580126597400,9.465597412109375,-0.16044433414936066,0.5381951332092285,1.3768470287322998
1788862580136638500,9.475638427734374,-0.11863831430673599,0.6271063685417175,1.4667717218399048
1788862580146680300,9.485680419921875,-0.0570945218205452,0.6683357954025269,1.53071928024292
1788862580156722400,9.495722412109375,-0.007302184589207172,0.7009036540985107,1.575935959815979
1788862580166764500,9.5057646484375,0.06638827919960022,0.6937472224235535,1.627659797668457
1788862580176806400,9.515806396484376,0.12529286742210388,0.6437658071517944,1.7145200967788696
1788862580186848500,9.5258486328125,0.1349031627178192,0.6104826927185059,1.8418279886245728
1788862580196890400,9.535890380859374,0.14582277834415436,0.6087141633033752,1.971673607826233
1788862580206932200,9.54593212890625,0.153753399848938,0.5513091683387756,2.0932726860046387
1788862580216974600,9.555974609375,0.13976170122623444,0.4664020538330078,2.1965086460113525
1788862580227016400,9.566016357421875,0.09235023707151413,0.4375099539756775,2.2628414630889893
1788862580237058300,9.576058349609376,0.021922146901488304,0.47276702523231506,2.2913239002227783
1788862580247100400,9.586100341796875,-0.052676986902952194,0.49960023164749146,2.270421028137207
1788862580257141200,9.596141357421875,-0.1143299788236618,0.4849946200847626,2.2238059043884277
1788862580267183400,9.606183349609376,-0.15809956192970276,0.43249014019966125,2.164398670196533
1788862580277225500,9.6162255859375,-0.17243988811969757,0.3361968696117401,2.0640013217926025
1788862580287267300,9.626267333984375,-0.17447426915168762,0.25981077551841736,1.9720088243484497
1788862580297309400,9.636309326171874,-0.17991112172603607,0.28767380118370056,1.954463243484497
1788862580307351300,9.646351318359375,-0.19229614734649658,0.34693312644958496,2.0160200595855713
1788862580317393400,9.656393310546875,-0.18763254582881927,0.31846681237220764,2.0994176864624023
1788862580327435500,9.666435546875,-0.15775826573371887,0.24480217695236206,2.159825563430786
1788862580337477400,9.676477294921876,-0.12983661890029907,0.20532986521720886,2.207430601119995
1788862580347519500,9.68651953125,-0.09748081117868423,0.16974976658821106,2.222255229949951
1788862580357561300,9.696561279296875,-0.058147281408309937,0.16041181981563568,2.211454391479492
1788862580367602400,9.7066025390625,-0.04149267077445984,0.24328221380710602,2.2236926555633545
1788862580377644300,9.716644287109375,-0.0631856843829155,0.36811667680740356,2.2320117950439453
1788862580387686400,9.726686279296874,-0.07403380423784256,0.3892059922218323,2.217034339904785
1788862580397728500,9.736728515625,-0.012049686163663864,0.15349681675434113,2.1744797229766846
1788862580407770400,9.746770263671875,0.0102340467274189,-0.30290746688842773,2.1002097129821777
1788862580417812200,9.756812255859375,-0.0034094471484422684,-0.5594030022621155,2.007333755493164
1788862580427854300,9.766854248046876,0.0040564583614468575,-0.545019268989563,1.9560546875
1788862580437896400,9.776896484375,0.0044327545911073685,-0.41708824038505554,1.9166635274887085
1788862580447938600,9.7869384765625,-0.01956099458038807,-0.19204232096672058,1.8581786155700684
1788862580457980400,9.79698046875,-0.018552176654338837,0.046407587826251984,1.750797986984253
1788862580468022300,9.807022216796875,0.00723041919991374,0.1853976994752884,1.6322921514511108
1788862580478063400,9.8170634765625,0.06472448259592056,0.15563784539699554,1.5154621601104736
1788862580488105200,9.827105224609374,0.1289314329624176,-0.017960311844944954,1.3863060474395752
1788862580498147600,9.837147705078126,0.16154848039150238,-0.18661648035049438,1.2645432949066162
1788862580508189400,9.847189453125,0.1636795550584793,-0.24411998689174652,1.1666436195373535
1788862580518231300,9.857231201171874,0.15557114779949188,-0.22084036469459534,1.087587594985962
1788862580528273400,9.8672734375,0.13633887469768524,-0.1717575043439865,0.9878591299057007
1788862580538315300,9.877315185546875,0.08509191870689392,-0.11437466740608215,0.8997618556022644
1788862580548357400,9.887357421875,0.00556833203881979,-0.011058134958148003,0.8509796857833862
1788862580558399500,9.8973994140625,-0.05410057678818703,0.09578794986009598,0.8561549186706543
1788862580568441600,9.907441650390625,-0.08935337513685226,0.13693910837173462,0.8477917909622192
1788862580578483700,9.917483642578125,-0.11579697579145432,0.1235465556383133,0.8121005892753601
1788862580588524800,9.92752490234375,-0.14317373931407928,0.13954469561576843,0.7775284647941589
1788862580598566700,9.937566650390625,-0.156536266207695,0.19174151122570038,0.7698822021484375
1788862580608608800,9.94760888671875,-0.13706323504447937,0.23655211925506592,0.777237057685852
1788862580618650600,9.957650634765624,-0.07360958307981491,0.19035539031028748,0.7737274765968323
1788862580628692700,9.967692626953125,0.018618615344166756,0.03553837165236473,0.718533456325531
1788862580638734800,9.97773486328125,0.12421347945928574,-0.20692086219787598,0.5797574520111084
1788862580648776700,9.987776611328124,0.2294834554195404,-0.5393653512001038,0.34521958231925964
1788862580658818800,9.99781884765625,0.29533201456069946,-0.8972153067588806,0.03683679550886154
1788862580668860700,10.007860595703125,0.3223479092121124,-1.0251623392105103,-0.3056241571903229
1788862580678902500,10.017902587890624,0.3052711486816406,-0.7268063426017761,-0.6323699951171875
1788862580688945000,10.02794482421875,0.24407891929149628,-0.12445709854364395,-0.8862465023994446
1788862580698985700,10.03798583984375,0.13876621425151825,0.4363640248775482,-1.023053526878357
1788862580709027800,10.04802783203125,0.04301092028617859,0.7504657506942749,-1.0826255083084106
1788862580719069700,10.058069580078126,-0.043401461094617844,0.7967941761016846,-1.0777827501296997
1788862580729111600,10.068111572265625,-0.1269485503435135,0.6649868488311768,-1.007141351699829
1788862580739153700,10.078153564453125,-0.19668422639369965,0.4696386456489563,-0.9188956022262573
1788862580749195800,10.08819580078125,-0.2225930541753769,0.36777883768081665,-0.8584809899330139
1788862580759238000,10.09823779296875,-0.22318705916404724,0.3138849139213562,-0.8241350650787354
1788862580769279700,10.10827978515625,-0.19291144609451294,0.21691226959228516,-0.7988947033882141
1788862580779321600,10.118321533203124,-0.10743597894906998,0.03638077527284622,-0.7713203430175781
1788862580789363700,10.12836376953125,0.01105418335646391,-0.1803608536720276,-0.7263759970664978
1788862580799405800,10.13840576171875,0.12994128465652466,-0.36636415123939514,-0.6401472687721252
1788862580809447000,10.148447021484374,0.24452485144138336,-0.5328806638717651,-0.5536928176879883
1788862580819488800,10.15848876953125,0.32944002747535706,-0.662087082862854,-0.5704557299613953
1788862580829530600,10.168530517578125,0.3271177411079407,-0.552993655204773,-0.7149713635444641
1788862580839572700,10.17857275390625,0.25544753670692444,-0.22928032279014587,-0.912447988986969
1788862580849614600,10.188614501953126,0.1526665836572647,0.06489378213882446,-1.0577609539031982
1788862580859656700,10.19865673828125,0.031395673751831055,0.2089669406414032,-1.1101282835006714
1788862580869698800,10.20869873046875,-0.08292131125926971,0.3382926881313324,-1.0532636642456055
1788862580879740700,10.21874072265625,-0.13773369789123535,0.5155420303344727,-0.9537073969841003
1788862580889782800,10.22878271484375,-0.09625896066427231,0.5819228887557983,-0.8644105792045593
1788862580899824600,10.23882470703125,-0.014057560823857784,0.5641112327575684,-0.8252336382865906
1788862580909865700,10.24886572265625,0.05030518397688866,0.46704694628715515,-0.8588001132011414
1788862580919907800,10.258907958984375,0.08309482038021088,0.2578039765357971,-0.950916588306427
1788862580929949700,10.26894970703125,0.08873246610164642,-0.15173135697841644,-1.0867271423339844
1788862580939991800,10.27899169921875,0.08532669395208359,-0.6628711223602295,-1.227981686592102
1788862580950033700,10.28903369140625,0.07000312954187393,-1.0809130668640137,-1.3421636819839478
1788862580960075500,10.299075439453125,0.05298139899969101,-1.2937484979629517,-1.4111747741699219
1788862580970118000,10.309117919921874,0.04793231189250946,-1.1642086505889893,-1.4551444053649902
1788862580980159700,10.31915966796875,0.048579178750514984,-0.7677047848701477,-1.5216710567474365
1788862580990201600,10.32920166015625,0.05684216693043709,-0.17768734693527222,-1.6438573598861694
1788862581000243700,10.33924365234375,0.06949298828840256,0.3481423556804657,-1.8098206520080566
1788862581010284500,10.349284423828125,0.10505124926567078,0.5817689299583435,-1.9845695495605469
1788862581020327000,10.359326904296875,0.1811312586069107,0.6333054304122925,-2.1983284950256348
1788862581030368800,10.36936865234375,0.262684166431427,0.5960685610771179,-2.496408700942993
1788862581040411000,10.379410888671876,0.34090012311935425,0.3592982590198517,-2.7521791458129883
1788862581050452700,10.38945263671875,0.3778083622455597,0.1816081404685974,-2.8444888591766357
1788862581060494600,10.39949462890625,0.3188454508781433,0.1593732237815857,-2.7863848209381104
1788862581070537000,10.409536865234376,0.24554139375686646,0.02991136536002159,-2.498251438140869
1788862581080578800,10.419578857421875,0.22598381340503693,-0.0972592681646347,-2.10858416557312
1788862581090620700,10.42962060546875,0.2298608422279358,-0.011095618829131126,-1.7415293455123901
1788862581100662800,10.439662841796874,0.2397357076406479,0.11403053998947144,-1.526142954826355
1788862581110704600,10.44970458984375,0.2987915873527527,0.12101520597934723,-1.4956233501434326
1788862581120745700,10.459745849609375,0.3732474148273468,-0.13305522501468658,-1.499300479888916
1788862581130787800,10.469787841796874,0.32666686177253723,-0.494040310382843,-1.4709519147872925
1788862581140829700,10.47982958984375,0.22201530635356903,-0.8310862183570862,-1.4832916259765625
1788862581150871800,10.489871826171875,0.17464272677898407,-1.1526544094085693,-1.4831386804580688
1788862581160913700,10.49991357421875,0.15777799487113953,-1.4387058019638062,-1.4226089715957642
1788862581170955800,10.509955810546876,0.10909886658191681,-1.558613896369934,-1.3418444395065308
1788862581180998000,10.519997802734375,0.013424544595181942,-1.5287777185440063,-1.3033337593078613
1788862581191039700,10.530039794921874,-0.0911058634519577,-1.3697577714920044,-1.2997126579284668
1788862581201081900,10.540081787109376,-0.16411827504634857,-1.2627017498016357,-1.3532618284225464
1788862581211123700,10.550123779296875,-0.1764463186264038,-1.2384635210037231,-1.4263168573379517
1788862581221164800,10.560164794921874,-0.1353931725025177,-1.2367876768112183,-1.4313855171203613
1788862581231206700,10.57020654296875,-0.06216316670179367,-1.2071051597595215,-1.4093118906021118
1788862581241248800,10.580248779296875,0.021458232775330544,-1.0075451135635376,-1.4481196403503418
1788862581251291000,10.590290771484375,0.10467668622732162,-0.6699119806289673,-1.4757750034332275
1788862581261332700,10.600332763671876,0.19493122398853302,-0.4251301884651184,-1.4757596254348755
1788862581271374600,10.61037451171875,0.2636631429195404,-0.30341655015945435,-1.502458095550537
1788862581281416700,10.620416748046875,0.28623783588409424,-0.16405317187309265,-1.5226714611053467
1788862581291458800,10.630458740234374,0.29048052430152893,-0.04588472843170166,-1.5212205648422241
1788862581301500700,10.640500732421875,0.3062566816806793,0.011363232508301735,-1.5847651958465576
1788862581311542800,10.650542724609375,0.3210601210594177,0.21948660910129547,-1.6455107927322388
1788862581321584600,10.660584716796874,0.2815288305282593,0.5451545715332031,-1.5508540868759155
1788862581331625700,10.670625732421875,0.27845367789268494,0.42284727096557617,-1.5736167430877686
1788862581341667600,10.68066748046875,0.30674776434898376,0.1478741466999054,-1.48732328414917
1788862581351710000,10.6907099609375,0.3291769027709961,0.1561637669801712,-1.2765668630599976
1788862581361751800,10.700751708984376,0.3261006772518158,0.2891101539134979,-1.136894702911377
1788862581371793700,10.710793701171875,0.3133454918861389,0.295977383852005,-0.9809431433677673
1788862581381835800,10.720835693359374,0.25076624751091003,0.23935672640800476,-0.8013285398483276
1788862581391877600,10.730877685546876,0.1445266306400299,0.11872990429401398,-0.5929769277572632
1788862581401919700,10.740919677734375,0.04533373564481735,0.02328859083354473,-0.3809763491153717
1788862581411961900,10.7509619140625,-0.018852172419428825,-0.0026644463650882244,-0.1832723319530487
1788862581422003700,10.761003662109376,-0.05202557146549225,-0.04574692249298096,0.034341081976890564
1788862581432044800,10.771044921875,-0.06649612635374069,-0.10537776350975037,0.21587198972702026
1788862581442086700,10.781086669921875,-0.07916238903999329,-0.138685941696167,0.37097474932670593
1788862581452128800,10.791128662109376,-0.09820026159286499,-0.060589276254177094,0.5289976596832275
1788862581462171000,10.8011708984375,-0.13137511909008026,0.06291072815656662,0.6362298727035522
1788862581472212700,10.811212646484375,-0.15308786928653717,0.0182681605219841,0.7377275228500366
1788862581482254800,10.8212548828125,-0.20206765830516815,-0.021640073508024216,0.8135946989059448
1788862581492296700,10.831296630859375,-0.2863662838935852,-0.051974810659885406,0.8333721160888672
1788862581502338600,10.841338623046875,-0.3630911707878113,-0.05563243106007576,0.9129352569580078
1788862581512381000,10.851380859375,-0.390683114528656,0.09340579062700272,1.050750970840454
1788862581522422800,10.8614228515625,-0.3566497564315796,0.2159213274717331,1.1615798473358154
1788862581532463900,10.8714638671875,-0.29860642552375793,0.23373734951019287,1.2190181016921997
1788862581542505700,10.881505615234374,-0.27476662397384644,0.295886754989624,1.3191783428192139
1788862581552547600,10.891547607421876,-0.2740747332572937,0.4595015048980713,1.4095702171325684
1788862581562590000,10.90158984375,-0.2917790412902832,0.5587493777275085,1.507430911064148
1788862581572631800,10.9116318359375,-0.3270840346813202,0.5840281248092651,1.60634446144104
1788862581582673700,10.921673583984376,-0.3668426275253296,0.6687744855880737,1.6840236186981201
1788862581592716000,10.931716064453125,-0.37857890129089355,0.7535024285316467,1.7468795776367188
1788862581602758000,10.9417578125,-0.38758599758148193,0.744006335735321,1.8150924444198608
1788862581612800000,10.951800048828124,-0.4095224440097809,0.6984793543815613,1.8651734590530396
1788862581622841900,10.961841796875,-0.38763684034347534,0.6802412271499634,1.8632739782333374
1788862581632883000,10.971883056640625,-0.31999894976615906,0.6900741457939148,1.8605540990829468
1788862581642924800,10.9819248046875,-0.30529722571372986,0.6999039053916931,1.8973193168640137
1788862581652967000,10.991966796875,-0.37893256545066833,0.6905322670936584,1.901801347732544
1788862581663009000,11.002009033203125,-0.44337043166160583,0.6115942597389221,1.8753031492233276
1788862581673051000,11.01205078125,-0.44112059473991394,0.5433331727981567,1.872450828552246
1788862581683092700,11.0220927734375,-0.3920162618160248,0.4852753281593323,1.9032553434371948
1788862581693134800,11.032134765625,-0.31783419847488403,0.4352717995643616,1.971074104309082
1788862581703177000,11.042177001953124,-0.25380539894104004,0.4194802939891815,2.0729362964630127
1788862581713218800,11.05221875,-0.20188389718532562,0.44492200016975403,2.1510202884674072
1788862581723260000,11.062260009765625,-0.14620506763458252,0.43054187297821045,2.1872618198394775
1788862581733301800,11.0723017578125,-0.09587690979242325,0.3362923562526703,2.1945464611053467
1788862581743343900,11.08234375,-0.06292467564344406,0.25285542011260986,2.209550380706787
1788862581753386000,11.092385986328125,-0.059636473655700684,0.2402501404285431,2.2733724117279053
1788862581763428000,11.102427978515625,-0.07974773645401001,0.27662402391433716,2.3569350242614746
1788862581773470000,11.112469970703126,-0.09249282628297806,0.2988472878932953,2.399860143661499
1788862581783511800,11.12251171875,-0.09119826555252075,0.3186803460121155,2.39898419380188
1788862581793554000,11.132553955078125,-0.09802155196666718,0.3755958378314972,2.376922607421875
1788862581803596000,11.142595947265624,-0.09719837456941605,0.38266700506210327,2.3238635063171387
1788862581813638000,11.152637939453125,-0.061763688921928406,0.300164133310318,2.2574093341827393
1788862581823679000,11.162678955078125,-0.03457946330308914,0.18587113916873932,2.2004904747009277
1788862581833720800,11.172720947265624,-0.035331275314092636,0.12806083261966705,2.176496744155884
1788862581843763000,11.182762939453125,-0.0378548726439476,0.10627041757106781,2.1524858474731445
1788862581853804800,11.1928046875,-0.030730918049812317,0.08418748527765274,2.1036434173583984
1788862581863847000,11.202846923828124,-0.030288834124803543,0.031708285212516785,2.0191850662231445
1788862581873889000,11.212888916015626,-0.03989752009510994,-0.05630679056048393,1.8991127014160156
1788862581883931000,11.222930908203125,-0.044269248843193054,-0.15619021654129028,1.774024486541748
1788862581893973000,11.232972900390624,-0.03787047415971756,-0.19224782288074493,1.6636334657669067
1788862581904014800,11.243014892578126,-0.012955117970705032,-0.10395873337984085,1.5611578226089478
1788862581914057000,11.253056884765625,0.030489828437566757,-0.044591281563043594,1.4764543771743774
1788862581924098000,11.26309814453125,0.07734306901693344,-0.03828606754541397,1.414231777191162
1788862581934140000,11.273139892578126,0.1098615974187851,-0.010003029368817806,1.3739482164382935
1788862581944182000,11.28318212890625,0.13238170742988586,0.045001834630966187,1.3335832357406616
1788862581954223900,11.293223876953125,0.1110234186053276,0.12344098091125488,1.2688345909118652
1788862581964265700,11.303265625,0.07883178442716599,0.18596333265304565,1.1652545928955078
1788862581974308000,11.31330810546875,0.04734869673848152,0.17811259627342224,1.0307612419128418
1788862581984350000,11.323349853515625,0.020951181650161743,0.15961803495883942,0.869563639163971
1788862581994391800,11.333391845703124,0.017998002469539642,0.15052679181098938,0.6952072978019714
1788862582004434000,11.343433837890625,0.0061638494953513145,0.14421366155147552,0.510932207107544
1788862582014474800,11.353474853515625,0.014690225943922997,0.15448760986328125,0.3333102762699127
1788862582024516900,11.363516845703124,0.031151488423347473,0.17741979658603668,0.19318777322769165
1788862582034559000,11.37355908203125,0.053899675607681274,0.20517899096012115,0.0862213745713234
1788862582044601000,11.38360107421875,0.0770818218588829,0.19044114649295807,0.009228529408574104
1788862582054643000,11.393642822265624,0.10857343673706055,0.12402111291885376,-0.052376508712768555
1788862582064684800,11.403684814453126,0.12793689966201782,0.031095363199710846,-0.11858530342578888
1788862582074727000,11.413726806640625,0.14666849374771118,-0.006885839626193047,-0.2020263969898224
1788862582084769000,11.42376904296875,0.1340792030096054,0.04234272241592407,-0.3190402388572693
1788862582094811000,11.433810791015626,0.10872485488653183,0.1256173849105835,-0.4495854675769806
1788862582104852000,11.44385205078125,0.08465678989887238,0.1750386357307434,-0.5674360990524292
1788862582114893800,11.453893798828124,0.08306608349084854,0.1846390664577484,-0.6634113192558289
1788862582124936000,11.46393603515625,0.08980655670166016,0.17472420632839203,-0.7381616234779358
1788862582134977800,11.473977783203125,0.10220170766115189,0.1720605194568634,-0.7900543808937073
1788862582145020000,11.48402001953125,0.12044089287519455,0.16537277400493622,-0.8032049536705017
1788862582155062000,11.49406201171875,0.14368896186351776,0.16546198725700378,-0.79341059923172
1788862582165103900,11.504103759765625,0.15991252660751343,0.19528624415397644,-0.783496618270874
1788862582175146000,11.51414599609375,0.15086416900157928,0.28226321935653687,-0.7864908576011658
1788862582185187800,11.524187744140624,0.14078184962272644,0.4635506272315979,-0.8312133550643921
1788862582195230000,11.53422998046875,0.12147711962461472,0.7119836211204529,-0.8944181799888611
1788862582205271000,11.54427099609375,0.07836095243692398,0.9264534711837769,-0.9566382169723511
1788862582215313000,11.55431298828125,0.06870032846927643,1.008718729019165,-1.0547219514846802
1788862582225355000,11.56435498046875,0.15149615705013275,0.8502823114395142,-1.2071728706359863
1788862582235396900,11.57439697265625,0.29792073369026184,0.4262385964393616,-1.2971961498260498
1788862582245438700,11.584438720703124,0.4112093448638916,-0.05007321387529373,-1.190157413482666
1788862582255481000,11.594481201171876,0.4123859107494354,-0.3052850067615509,-1.1287283897399902
1788862582265523000,11.60452294921875,0.3898893892765045,-0.32476603984832764,-1.1761070489883423
1788862582275564800,11.614564697265624,0.3910869061946869,-0.31266528367996216,-1.1829370260238647
1788862582285607000,11.62460693359375,0.36092326045036316,-0.2664739787578583,-1.100107192993164
1788862582295647700,11.634647705078125,0.257681280374527,-0.08162529766559601,-1.0369436740875244
1788862582305689900,11.64468994140625,0.11784670501947403,0.1315719187259674,-1.086654543876648
1788862582315732000,11.65473193359375,0.021544139832258224,0.19833150506019592,-1.2189500331878662
1788862582325774000,11.664774169921875,-0.019409557804465294,0.07781422883272171,-1.3556550741195679
1788862582335816000,11.67481591796875,-0.022606417536735535,-0.06258869171142578,-1.4477975368499756
1788862582345857800,11.68485791015625,0.004687929525971413,-0.12498874962329865,-1.4541120529174805
1788862582355900000,11.69489990234375,0.03605889901518822,-0.14599521458148956,-1.4113861322402954
1788862582365942000,11.70494189453125,0.06842057406902313,-0.18899595737457275,-1.4147297143936157
1788862582375983900,11.71498388671875,0.11769703775644302,-0.24138273298740387,-1.476789116859436
1788862582386025000,11.72502490234375,0.17526432871818542,-0.28399643301963806,-1.5408772230148315
1788862582396066800,11.73506689453125,0.21028515696525574,-0.25578901171684265,-1.5467712879180908
1788862582406109000,11.74510888671875,0.2038913071155548,-0.22714176774024963,-1.5217841863632202
1788862582416150800,11.75515087890625,0.20022600889205933,-0.2910080850124359,-1.5224937200546265
1788862582426193000,11.76519287109375,0.1877616047859192,-0.37757280468940735,-1.576063632965088
1788862582436235000,11.775235107421874,0.18150265514850616,-0.4286908507347107,-1.6327272653579712
1788862582446276900,11.78527685546875,0.1720239371061325,-0.46709999442100525,-1.6357403993606567
1788862582456319000,11.795319091796875,0.1481122076511383,-0.45101821422576904,-1.6457804441452026
1788862582466360800,11.80536083984375,0.1315992772579193,-0.4250684380531311,-1.6841135025024414
1788862582476402000,11.81540185546875,0.11324317008256912,-0.43951740860939026,-1.7606921195983887
1788862582486444000,11.825444091796875,0.11211558431386948,-0.5098085403442383,-1.7689330577850342
1788862582496486000,11.83548583984375,0.13563662767410278,-0.6187917590141296,-1.6906254291534424
1788862582506528000,11.845528076171876,0.1722678691148758,-0.7035660743713379,-1.6158106327056885
1788862582516569900,11.85556982421875,0.18496929109096527,-0.7240692377090454,-1.5609631538391113
1788862582526611700,11.86561181640625,0.178639754652977,-0.6934588551521301,-1.5581883192062378
1788862582536654000,11.875654052734374,0.16566616296768188,-0.7708995938301086,-1.6324915885925293
1788862582546696000,11.885696044921875,0.14674587547779083,-0.8602255582809448,-1.685491681098938
1788862582556737800,11.89573779296875,0.14453038573265076,-0.8747384548187256,-1.6793674230575562
1788862582566779100,11.905779052734376,0.16390155255794525,-0.8392067551612854,-1.674751877784729
1788862582576821000,11.915821044921875,0.2072966992855072,-0.8242355585098267,-1.7322876453399658
1788862582586863000,11.925863037109375,0.2526867985725403,-0.8054240345954895,-1.8039429187774658
1788862582596905000,11.935905029296874,0.3000175654888153,-0.8156819939613342,-1.8430391550064087
1788862582606947000,11.945947021484375,0.31836384534835815,-0.8884541988372803,-1.872449278831482
1788862582616989200,11.9559892578125,0.31697791814804077,-0.9194251894950867,-1.8884856700897217
1788862582627031000,11.966031005859374,0.2587115466594696,-0.8268845081329346,-1.8916875123977661
1788862582637073200,11.9760732421875,0.21040739119052887,-0.7184306979179382,-1.8533885478973389
1788862582647115000,11.986114990234375,0.20101577043533325,-0.6364167332649231,-1.8067471981048584
1788862582657156400,11.99615625,0.20976825058460236,-0.615355908870697,-1.722115397453308
1788862582667198200,12.0061982421875,0.21876639127731323,-0.504374623298645,-1.635298728942871
1788862582677240000,12.016239990234375,0.23091360926628113,-0.42296019196510315,-1.5447291135787964
1788862582687282200,12.0262822265625,0.2277752012014389,-0.38130617141723633,-1.4173225164413452
1788862582697324000,12.036323974609376,0.20428025722503662,-0.21121886372566223,-1.291216254234314
1788862582707366100,12.0463662109375,0.17707675695419312,-0.045301586389541626,-1.235050916671753
1788862582717408300,12.056408203125,0.14327403903007507,0.05053013563156128,-1.19887375831604
1788862582727450000,12.0664501953125,0.09224054962396622,0.08562225103378296,-1.1147509813308716
1788862582737492000,12.076491943359375,0.022134436294436455,0.2404877245426178,-1.033657193183899
1788862582747533000,12.086532958984375,-0.00543900765478611,0.44659537076950073,-0.9569140672683716
1788862582757575000,12.096574951171876,-0.013221296481788158,0.43102601170539856,-0.9083672761917114
1788862582767617300,12.1066171875,-0.04206199571490288,0.397841215133667,-0.7980344891548157
1788862582777659100,12.1166591796875,-0.09791754186153412,0.33312398195266724,-0.6040890216827393
1788862582787701200,12.126701171875,-0.16858570277690887,0.2656382918357849,-0.35689273476600647
1788862582797743000,12.1367431640625,-0.21753674745559692,0.3964972496032715,-0.10666372627019882
1788862582807785000,12.146784912109375,-0.20342998206615448,0.6686114072799683,0.06647330522537231
1788862582817827300,12.156827392578125,-0.15946705639362335,0.6961985230445862,0.1732921600341797
1788862582827869200,12.166869140625,-0.13319124281406403,0.5424972772598267,0.23983202874660492
1788862582837910300,12.17691015625,-0.15061789751052856,0.4391788840293884,0.33570772409439087
1788862582847952100,12.1869521484375,-0.22274737060070038,0.437699556350708,0.6139471530914307
1788862582857994000,12.196993896484376,-0.34374940395355225,0.48392006754875183,0.9701108336448669
1788862582868036000,12.2070361328125,-0.47374922037124634,0.5655961036682129,1.1869152784347534
1788862582878078200,12.217078125,-0.5241349339485168,0.5467262864112854,1.3391716480255127
1788862582888120000,12.2271201171875,-0.4877558648586273,0.5384678244590759,1.4513994455337524
1788862582898162200,12.237162109375,-0.4104293882846832,0.5756745934486389,1.497105598449707
1788862582908204000,12.2472041015625,-0.33423182368278503,0.5781081914901733,1.5150909423828125
1788862582918246100,12.25724609375,-0.2653962969779968,0.5743579268455505,1.5304875373840332
1788862582928287000,12.267286865234375,-0.20552682876586914,0.5539711713790894,1.5579475164413452
1788862582938329300,12.277329345703125,-0.155740886926651,0.5078819990158081,1.628395915031433
1788862582948371200,12.28737109375,-0.09706439077854156,0.4208649694919586,1.721449851989746
1788862582958413000,12.2974130859375,-0.0439753420650959,0.37413978576660156,1.8069567680358887
1788862582968455200,12.307455078125,-0.032138921320438385,0.3645058274269104,1.850961685180664
1788862582978497000,12.3174970703125,-0.035863351076841354,0.3421405851840973,1.8536466360092163
1788862582988539100,12.3275390625,-0.028243251144886017,0.32374852895736694,1.8262455463409424
1788862582998581200,12.337581298828125,-0.009765705093741417,0.29536882042884827,1.8127496242523193
1788862583008622000,12.3476220703125,0.011169535107910633,0.25474026799201965,1.8039761781692505
1788862583018664200,12.357664306640626,0.05329674854874611,0.26270392537117004,1.8174000978469849
1788862583028706000,12.3677060546875,0.116556815803051,0.28747496008872986,1.844480276107788
1788862583038748000,12.377747802734374,0.17796210944652557,0.33129167556762695,1.9077180624008179
1788862583048790300,12.387790283203126,0.22149187326431274,0.37640997767448425,2.0262868404388428
1788862583058832100,12.39783203125,0.242761492729187,0.37898632884025574,2.14833402633667
1788862583068874200,12.407874267578125,0.2327079176902771,0.35653337836265564,2.2267181873321533
1788862583078916000,12.417916015625,0.1814204901456833,0.35326966643333435,2.2663724422454834
1788862583088958000,12.4279580078125,0.11679010838270187,0.33253857493400574,2.2587170600891113
1788862583098999000,12.4379990234375,0.06411437690258026,0.258137583732605,2.2088351249694824
1788862583109041200,12.448041259765626,0.010062460787594318,0.17087529599666595,2.1421384811401367
1788862583119083300,12.458083251953125,-0.058216195553541183,0.12697042524814606,2.1133511066436768
1788862583129125000,12.468125,-0.10914088785648346,0.09746869653463364,2.142120361328125
1788862583139167000,12.4781669921875,-0.1567922979593277,0.02321523055434227,2.2105331420898438
1788862583149209000,12.488208984375,-0.21759559214115143,-0.0694531574845314,2.2998099327087402
