time,seconds_elapsed,z,y,x
1788861424797763600,0.050763671875,0.5241945544958114,-0.3940935719855129,-0.36574049747604875
1788861424807769600,0.06076953125,0.49350598624348635,-0.4658787052579224,0.025185915715433656
1788861424817776400,0.0707763671875,0.16382278097867964,-0.21129326494485137,0.307192191189155
1788861424827782700,0.08078271484375,0.1860544865310192,0.22686229773759842,0.7286984515614807
1788861424837789400,0.09078955078125,0.3601759586840868,0.03475567156076431,1.1507038205623625
1788861424847795500,0.10079541015625,0.3660141633182764,-0.4261573741137981,1.2438128968924282
1788861424857801500,0.110801513671875,0.009952654215693474,-1.1710020738340914,1.2175006440281868
1788861424867808500,0.12080859375,-0.4799766425848007,-1.6300846892111003,1.3309277012437581
1788861424877814500,0.130814453125,-0.8729021937042474,-1.7224775800958274,1.281830638989061
1788861424887821300,0.1408212890625,-0.5992103402525186,-1.2738729579828678,0.4996940637612715
1788861424897827600,0.15082763671875,-0.06352525444924831,-0.6710333213172852,-0.3957884297372773
1788861424907833600,0.16083349609375,-0.3964233301073313,-0.49238779586851594,-0.7029383526872843
1788861424917840400,0.17084033203125,-0.860953981757164,-0.6131091017454863,-0.6327517406526952
1788861424927846400,0.180846435546875,-0.8221919971644878,-0.8168881916679441,-0.11193221554793417
1788861424937853700,0.190853759765625,-0.6804267342150211,-1.0639233627319336,0.4404611362110823
1788861424947859500,0.200859375,-0.6168465347081422,-1.1044712078280747,0.26251762155182656
1788861424957866500,0.210866455078125,-0.5088730667233466,-0.7155306346915662,-0.1766045211404562
1788861424967872500,0.22087255859375,-0.46014381486773487,-0.268970231757313,-0.490130591526255
1788861424977878500,0.23087841796875,-0.4093085306435823,-0.2316135839179158,-0.7111402907781302
1788861424987885600,0.240885498046875,0.07721066545248031,-0.18675430536344648,-0.860434487927705
1788861424997891300,0.250891357421875,0.24094927527904508,-0.2924371781930327,-0.6726464556023478
1788861425007898600,0.260898681640625,0.19451193375289438,-0.22881840024143457,-0.4438208949677646
1788861425017904600,0.270904541015625,-0.5730810427397489,0.1412725109964609,-0.09497092467918991
1788861425027911400,0.280911376953125,-0.9078262075692415,0.5382786094278097,0.06209785199463367
1788861425037917700,0.290917724609375,-0.8664835588335991,0.5362640547350048,-0.004020779948681593
1788861425047923500,0.30092333984375,-0.48114510184228415,0.5905825048997998,-0.13462518193647266
1788861425057930500,0.310930419921875,-0.2785726112306118,0.5795426399692892,0.1432099087998271
1788861425067936500,0.3209365234375,-0.15810557237565517,0.664307666324079,0.019521569810807705
1788861425077943600,0.330943603515625,-0.39905192504525183,0.5699170257508754,-0.30948212875723835
1788861425087949600,0.340949462890625,-0.7519733825564384,0.3275295343622565,-0.5372966126531362
1788861425097956400,0.350956298828125,-0.5969938332468271,0.2063476252362132,-1.0870990711361168
1788861425107962600,0.360962646484375,0.1705740088045597,0.05539543174654245,-1.1008443956330418
1788861425117968600,0.37096875,1.4221984562307595,-0.3248987474672496,-0.13343378019481897
1788861425127975400,0.380975341796875,2.348169976821542,-0.7053633148118853,1.5661267424330114
1788861425137981400,0.3909814453125,2.43633224439919,-0.9563853635549545,2.367021976807713
1788861425147988500,0.400988525390625,2.239340768790245,-1.009060576557368,1.6674889755845068
1788861425157994500,0.410994384765625,1.9621458756536245,-0.992676427989453,0.28969577053040263
1788861425168000500,0.42100048828125,1.6824550740480422,-1.017646180203557,-0.8900310231596231
1788861425178007600,0.431007568359375,2.1126941645175217,-1.0479873963229358,-2.083160026997328
1788861425188013600,0.441013671875,2.6237247015357017,-1.2054846275418996,-3.1469039415091276
1788861425198020400,0.451020263671875,3.274823634457588,-1.9570199109420179,-3.1297850489258763
1788861425208026400,0.4610263671875,3.960901526302099,-3.0889374902307987,-1.921439186733961
1788861425218033700,0.47103369140625,4.171968289014697,-3.5187373125001784,-0.5588385823756457
1788861425228039400,0.481039306640625,3.6188708806395526,-3.5670357717230914,0.3253676801532507
1788861425238045400,0.49104541015625,2.0251286937892434,-3.141059599395096,-0.5144266091972589
1788861425248052500,0.501052490234375,0.38364977325201033,-3.193889856828749,-1.2908546340525149
1788861425258058500,0.51105859375,0.1502308934777975,-3.43728944786936,-1.819171821436286
1788861425268065500,0.5210654296875,1.6188827655866742,-2.864007329599559,-2.371998596176505
1788861425278071300,0.5310712890625,2.79240807428807,-1.4961233780108392,-2.6551947755545378
1788861425288078600,0.54107861328125,1.8777417915657162,-0.3848296306863427,-2.2871973294645547
1788861425298084600,0.551084716796875,0.19271745155155656,0.9094505939006805,-1.218980653452873
1788861425308090400,0.56109033203125,-0.21181275877431033,1.960151925357431,-0.5852005196005106
1788861425318097700,0.57109765625,-0.14742569986395537,1.9985287100248037,-1.044927570360899
1788861425328103400,0.581103515625,0.3372696783384308,1.5614251406133175,-1.7326286794930696
1788861425338110500,0.5911103515625,1.3396996212422847,0.694195293457061,-2.4900772785902023
1788861425348116500,0.601116455078125,1.6747838087677955,-0.3993723891712725,-3.2587989668518302
1788861425358123500,0.61112353515625,-0.11714987713098525,-0.8210707380495965,-2.8605829081088303
1788861425368129500,0.621129638671875,-1.728386804139614,0.008427271279320121,-2.090488762450218
1788861425378135600,0.631135498046875,-2.726280236124992,0.8290680204138159,-1.7988479953318832
1788861425388142600,0.641142578125,-3.2561613118246195,1.8123256088033317,-1.420196468758583
1788861425398148600,0.651148681640625,-3.409902843771875,3.173071232944727,-1.9430846168309448
1788861425408155400,0.6611552734375,-2.840557480429113,3.895432444308698,-3.361175637742877
1788861425418161700,0.67116162109375,-1.52795278686136,3.6591686964973804,-3.9030671769708394
1788861425428168400,0.68116845703125,-0.6428311630532145,3.07222484036088,-4.036120725676417
1788861425438174500,0.691174560546875,-1.6406451000615954,2.6750799179807303,-3.978427246120572
1788861425448180500,0.701180419921875,-2.999970628271997,2.489396310588717,-3.6611937725841996
1788861425458187500,0.7111875,-5.470578944021463,2.611571322405338,-0.3251291952222585
1788861425468193500,0.721193603515625,-8.665607741752266,2.4074159465163945,2.399363572964072
1788861425478200300,0.731200439453125,-11.452920830988884,1.3591384812057017,5.100656082826853
1788861425488206600,0.74120654296875,-12.00976444015503,2.036712748599052,4.556110814219713
1788861425498213600,0.751213623046875,-8.681991890320182,2.82830093318522,1.409396257802844
1788861425508219400,0.761219482421875,-4.136393117764592,2.114859233596921,0.02161561948060989
1788861425518226700,0.771226806640625,-1.5725012459009884,0.42995559735298156,0.8252864560484886
1788861425528232400,0.781232421875,0.2762508902847767,0.347044089910388,1.7446037794470786
1788861425538238500,0.791238525390625,1.6312719992995262,0.8874427602320909,3.5329940936505793
1788861425548245500,0.80124560546875,1.50133892070204,1.9469938992291689,2.7671389007359743
1788861425558251500,0.81125146484375,7.211440614330768,-1.8095768946170805,4.667216735011339
1788861425568258600,0.821258544921875,4.128622483763098,3.222989986845851,-0.1481090790182352
1788861425578264600,0.8312646484375,0.9014081572204827,2.3733593631356955,-0.41854397650063035
1788861425588271600,0.841271728515625,-6.005939035654068,3.9731612884163856,-0.7650298480063676
1788861425598277600,0.851277587890625,-2.7636799924537536,-0.5489519791334867,0.17060966463983057
1788861425608283400,0.861283447265625,1.9259993342563508,-2.1966496280550953,0.21938275563716886
1788861425618290400,0.87129052734375,4.370864429201186,-1.6087866112470626,-0.639046091556549
1788861425628296700,0.881296630859375,2.571122992160916,-0.6543336770594119,-1.3648615350276232
1788861425638303500,0.891303466796875,1.5758116856232285,1.3790011195391416,-1.7458046796694398
1788861425648309500,0.9013095703125,2.143602513000369,-0.2481950086236,-1.2905696796312927
1788861425658316000,0.91131591796875,1.8403268376678228,-3.46184258210659,-1.5878008141025899
1788861425668322000,0.921322021484375,1.857579585763812,-3.4268285518705843,-1.5122577896013856
1788861425678328000,0.931328125,-1.5461936692118643,-6.776826377516985,-0.8317407467544078
1788861425688335000,0.941335205078125,-2.7459143263995647,-6.933203518664836,0.27370500519424673
1788861425698341000,0.951341064453125,-1.2555495119154452,-6.698958709460497,-0.3164700879484415
1788861425708348200,0.96134814453125,0.1997965961575508,-6.3091521671444175,-0.44175066456496714
1788861425718354000,0.97135400390625,0.6861240690737962,-5.176565018031001,0.647186727914214
1788861425728361200,0.981361328125,0.8461515494227408,-2.60384686563313,0.20606530116349459
1788861425738367000,0.991366943359375,1.0272744247704744,-0.2971335193157196,-0.8392232114642858
1788861425748374000,1.0013740234375,0.7365595403254032,1.592427597120404,-0.6379354999661445
1788861425758380300,1.01138037109375,0.24303835651278494,2.453181087869406,-0.6485217759102583
1788861425768386000,1.021385986328125,-0.6334668301194906,3.00885156160295,-0.8512094173341989
1788861425778393000,1.03139306640625,-1.6658733570814133,1.6878718383997677,-0.6615636283129454
1788861425788399000,1.041399169921875,-1.263698331579566,0.17922493277192114,-0.18650982908308505
1788861425798406100,1.05140625,-0.054659810948371884,0.2778174089491367,-0.08380933306515216
1788861425808412200,1.061412109375,1.4339420855164526,-0.3690110070466995,-0.8603665372580289
1788861425818419000,1.0714189453125,1.872372665748,-2.466836103734374,-1.0247302932456135
1788861425828425200,1.08142529296875,0.42253216935396193,-3.143720050776005,-0.27769290578663347
1788861425838431200,1.09143115234375,-0.9386591527283191,-2.8019781589269637,0.5179118209645152
1788861425848438000,1.10143798828125,-1.3421698107481002,-2.06038413156569,0.39827451093196864
1788861425858444300,1.1114443359375,-1.4761159243792294,-1.08166594017148,0.10211626638919115
1788861425868451000,1.121451171875,-1.0203519320309162,-0.11197627388536929,0.23832711008191107
1788861425878457000,1.13145703125,-0.9751479316920042,0.6510685377836227,0.4130415796920657
1788861425888464100,1.141464111328125,-0.7830377983838319,0.9025859688282012,0.9034916854962706
1788861425898470100,1.15147021484375,-0.28495675930976866,0.40471360406875606,1.4878937481954693
1788861425908477200,1.161477294921875,0.620476415643096,-0.7591016270011663,1.8695163995340465
1788861425918483000,1.17148291015625,0.924793124461174,-1.438473299205303,1.3382996913164853
1788861425928489200,1.1814892578125,0.4008282870680093,-1.1237439174443482,0.22996552444994448
1788861425938496000,1.19149609375,0.3461971176922321,-0.4556155237883329,-0.4909793903753161
1788861425948502000,1.201501953125,0.17308511484265326,0.3495090187191963,-0.3196133544102311
1788861425958509300,1.21150927734375,-0.350800227573514,4.4174715743362905,-0.07495119608789681
1788861425968515000,1.22151513671875,0.6880670198351144,14.464586865490674,0.03462050087377429
1788861425978522000,1.231522216796875,1.7176491370260714,10.676572885632515,0.3291628346525132
1788861425988528000,1.241528076171875,0.4964233349949121,4.499413359963894,0.9900440336592495
1788861425998535200,1.25153515625,1.1081769304782152,4.094627275180817,0.21773761877864597
1788861426008541200,1.261541259765625,1.2516384759515524,2.7813737623155115,-0.7612997215673327
1788861426018547000,1.271546875,0.544667433682084,2.0939099690705536,-1.2125865685015915
1788861426028554200,1.28155419921875,1.1665846957832575,3.4362744256079196,-1.3418323954872786
1788861426038560300,1.291560302734375,1.7979115912646053,6.0469029142051935,-1.641154510888457
1788861426048567000,1.301567138671875,2.2052660652309655,5.941866668716073,-1.5411417926497757
1788861426058573000,1.311572998046875,2.1543983400419355,4.818313305407762,-1.3428633459702133
1788861426068580000,1.321580078125,2.252235613937676,3.221078015744686,-1.3592737980231642
1788861426078586000,1.331586181640625,2.127121626059711,2.337997542375326,-1.6632126134395597
1788861426088593000,1.341593017578125,1.8237690860986708,1.9746996522784233,-2.1163222918868065
1788861426098599200,1.35159912109375,0.18711159436851738,1.2700813106149433,-2.575132812324166
1788861426108605200,1.361605224609375,-3.6794004604041572,0.40741467972099776,-0.8423835751913488
1788861426118612000,1.371612060546875,-5.3180695842176675,1.425041570702195,1.4479204881168901
1788861426128618000,1.381617919921875,0.9523749588698148,2.9464363142222165,1.3789993659734725
1788861426138625000,1.391625,2.3942133505940437,-1.1735182944387197,0.9835876971267163
1788861426148631000,1.401631103515625,1.9241648123055695,-1.64782565921545,1.1734984206944703
1788861426158638000,1.41163818359375,-0.04148001137971878,-0.3433049033820629,1.9935800015762448
1788861426168644000,1.42164404296875,-0.11385668080449103,0.7436456991940736,1.570463602593541
1788861426178651100,1.431651123046875,1.4678016850203275,-1.2335387556374073,0.1184487030361779
1788861426188657200,1.4416572265625,-0.6757412067472934,-2.0742104123443363,-0.4059412461675703
1788861426198663000,1.451662841796875,-1.9391767957374453,1.296524496382475,-0.9208594382740557
1788861426208670200,1.461670166015625,-2.7990561340004203,2.2773574879735707,-1.456901520821452
1788861426218676000,1.471676025390625,-0.6066863752216101,0.8849486053287983,-2.4314196301773188
1788861426228683000,1.48168310546875,-0.5972805412337183,-3.526922080260515,-1.807474369379878
1788861426238689300,1.491689208984375,-1.6303917093336582,-5.840538630095124,-0.27820089184138924
1788861426248696000,1.501696044921875,-0.7466279298752546,-6.3477306118637316,2.3389465136632324
1788861426258702000,1.5117021484375,-0.8754813965424895,-6.894642609602212,5.06199989669621
1788861426268709000,1.521709228515625,0.5545183810889721,-7.229222354736923,6.858510973513126
1788861426278715100,1.531715087890625,2.5619284628361463,-4.658032142558693,5.725537455430627
1788861426288722000,1.541721923828125,1.9525433500498532,-3.441970591422915,3.33679406068027
1788861426298728000,1.55172802734375,1.004820308639109,-1.6259107645273208,0.7114565901856869
1788861426308734200,1.561734130859375,1.1539473325282334,0.26552900526225565,-0.9800760357439517
1788861426318741000,1.571740966796875,1.0638114267900585,1.082339309388399,-2.107795140429586
1788861426328747000,1.5817470703125,0.44029403601586814,0.5794874026507139,-2.5976076789826155
1788861426338754300,1.59175439453125,0.37453064725100993,-0.7304401806622743,-2.2805036770448086
1788861426348760000,1.601760009765625,-0.16695581830739975,-1.7735621629059313,-1.5216899270743132
1788861426358767000,1.61176708984375,-1.5949790351688862,-3.0849428676366806,-0.4642424823582172
1788861426368772900,1.62177294921875,-3.2711817708238957,-4.615011331477761,0.08067454217076302
1788861426378780200,1.6317802734375,-2.648297709517181,-4.390693457525968,0.027018647567927837
1788861426388786200,1.6417861328125,-0.8639441034838556,-3.3176246653079984,-0.49658904695063827
1788861426398792000,1.6517919921875,0.47919309099167584,-1.3721616289079188,-0.8774052042119205
1788861426408799200,1.66179931640625,0.7638844773635268,-1.567099094596505,-1.0043186427272857
1788861426418805200,1.67180517578125,0.024111235688626765,-3.246822697854042,-1.3297457979828118
1788861426428812000,1.68181201171875,-0.49638972498625517,-5.021722831365466,-1.2035456223033367
1788861426438818000,1.691818115234375,-1.9547525505319236,-4.855739657482505,-0.0770208419688046
1788861426448825000,1.7018251953125,-2.6687811100974677,-5.032219675460458,0.9076748163998126
1788861426458831000,1.7118310546875,-3.560550209096074,-3.889852890610695,0.44660818759873505
1788861426468838100,1.721838134765625,-3.5616646000787613,-2.8488065455973146,-0.3458041728518903
1788861426478844200,1.73184423828125,-2.4460312161147595,-2.2662176697999237,-0.6089224637106061
1788861426488851000,1.741850830078125,-1.2571861732065677,-1.99234870621562,-0.5650552649334073
1788861426498857000,1.75185693359375,-0.5583630738183856,-2.0502298172980544,-0.31353856454119083
1788861426508863200,1.76186328125,-0.14383096330761908,-2.09846748624444,0.22986367151066658
1788861426518870000,1.7718701171875,0.23425766868591308,-1.9511936890065669,0.6655512366443872
1788861426528876000,1.7818759765625,0.09859072261154651,-1.6308891374617813,1.0766397825725376
1788861426538883300,1.79188330078125,-0.25621055729687214,-1.4440081369787454,0.8538396197073161
1788861426548889000,1.80188916015625,-1.157113103082776,-1.8570365649282932,0.06607172406166792
1788861426558896000,1.811896240234375,-2.366949496093392,-1.3687813388198613,-0.5971798573382199
1788861426568902000,1.82190185546875,-1.78775727699697,0.235429050552845,-0.7638597813136875
1788861426578909200,1.8319091796875,-0.37622809881865976,0.6953203519642353,-0.42993017065078015
1788861426588915200,1.841915283203125,0.4588707261919975,0.709134942305088,-0.05919160915911197
1788861426598922000,1.851921875,0.7314093179553747,0.2290063240289688,0.09407572940513491
1788861426608928300,1.86192822265625,0.5490834965586662,-0.5023118085116147,0.21471827095746993
1788861426618934300,1.871934326171875,0.36669103966653344,-1.1424725833117961,0.19685878913998603
1788861426628941000,1.881941162109375,0.6876672068625688,-1.6366887636512517,-0.03182429428398609
1788861426638947000,1.891947021484375,1.0139788898676634,-2.0787287665516136,-0.13440525557547806
1788861426648954000,1.9019541015625,1.2506962266653776,-2.284831769376993,0.03525894490778446
1788861426658960100,1.911960205078125,1.48329502222836,-2.0873592322528363,0.3201595901161432
1788861426668967700,1.9219677734375,1.197680675792694,-1.6905559629172087,0.58047378333956
1788861426678973700,1.9319736328125,0.7274883451193571,-1.3759241963118314,0.7191817045450211
1788861426688980700,1.941980712890625,0.950041547486186,-0.8496896604210138,0.7764347468569874
1788861426698986800,1.95198681640625,1.615908425951004,-0.5824854154229164,0.4844038113772869
1788861426708992800,1.96199267578125,2.116796923661232,-0.5732903015762567,0.3090206487253308
1788861426718999600,1.97199951171875,1.359904789403081,-0.6294687003940344,0.4599915469154715
1788861426729005800,1.982005859375,2.6718027960062027,-0.4730523962795734,0.0367822089523077
1788861426739012600,1.9920126953125,2.340039861857891,0.09529372689276933,-0.03126110744327307
1788861426749018600,2.0020185546875,-0.11561901430189608,0.5017512520194053,0.47998774850070475
1788861426759026000,2.01202587890625,-1.629770947086811,0.8451321432471275,0.6570245235785842
1788861426769031700,2.02203173828125,-1.2394132006287575,1.1734291548505424,0.553117866641283
1788861426779038700,2.032038818359375,0.41299803281128405,1.3262255149021744,0.491292986369133
1788861426789044700,2.042044677734375,1.8363924208283424,1.1484084031015633,0.6374257968783378
1788861426799051800,2.0520517578125,3.0726369282931087,1.1342042289212346,0.5927274079740047
1788861426809057800,2.062057861328125,3.005257921025157,1.4092740927278995,0.49685909606367346
1788861426819063600,2.0720634765625,1.7833470593392848,1.656811806486547,0.5005500595360994
1788861426829070800,2.08207080078125,0.9190005125343799,1.5762044843330978,0.5939899752557277
1788861426839076900,2.092076904296875,0.6264093128234147,1.3467618147134781,0.7158896772623061
1788861426849083600,2.102083740234375,0.8039017227143048,1.088506892107427,0.4715250405818224
1788861426859089700,2.112089599609375,1.136262622755766,0.8735001595973968,0.04932429513931274
1788861426869096700,2.1220966796875,1.3600707936197518,0.8121998877212405,0.08231061893999576
1788861426879102700,2.132102783203125,1.488530584794283,0.9190572111576795,0.6831561591789126
1788861426889109500,2.142109619140625,1.5208388632029295,1.3053785417065025,0.976517174218595
1788861426899115800,2.15211572265625,1.8787924696624279,1.6936457456260918,0.818843855780363
1788861426909122800,2.162122802734375,1.8670991092592477,1.9123294130831956,0.5246563267886638
1788861426919128600,2.172128662109375,0.917055223685503,1.5719021109640596,0.2950806784391403
1788861426929134600,2.182134521484375,0.2269721878528595,0.8774503585278988,0.10047639022767543
1788861426939141600,2.1921416015625,-0.10579963107705116,0.22473113092780111,-0.0925283538326621
1788861426949147600,2.202147705078125,0.315368848708272,-0.10550123265236616,0.006790683053433895
1788861426959154700,2.21215478515625,0.36137072142660615,0.18650456838607787,0.4131824494674802
1788861426969160700,2.22216064453125,0.4399006527841091,0.7000839131042361,0.6856500218212604
1788861426979167700,2.232167724609375,1.0066185902327298,1.1685054347127675,0.6663987933844328
1788861426989173800,2.242173828125,0.7458037540107965,1.3155077215328812,0.3335965793162584
1788861426999180800,2.252180908203125,0.4039841207504272,1.0913804017171262,-0.11106821912974119
1788861427009186800,2.262186767578125,-0.20232640689611434,0.8756970851197838,-0.5862360001280903
1788861427019193600,2.272193603515625,-0.6645417673408984,0.7378510414406657,-0.9579816928356886
1788861427029200000,2.282199951171875,-0.5610743786036968,1.184674479225278,-1.2755182409718633
1788861427039206000,2.292205810546875,-0.652338119328022,1.253949967764318,-0.6123489310279489
1788861427049212700,2.302212646484375,-0.9608446810513734,0.4331485481753945,0.3012941461265087
1788861427059218700,2.31221875,-0.9221288736879825,-0.6224632055461407,0.2318228427544236
1788861427069225700,2.322225830078125,-0.9419149396538734,-1.2951575919434428,0.18981851523965595
1788861427079231700,2.332231689453125,-0.5589397046625614,-1.5721505327671765,0.3350625602155924
1788861427089238500,2.342238525390625,-0.40906361597180363,-1.1780913014426826,0.31388913154453035
1788861427099244800,2.352244873046875,-0.1669751075297594,-0.005931143614649772,-0.4037988273113966
1788861427109251800,2.362251953125,0.2908727053552866,1.3808227820083498,-1.3532608213439583
1788861427119257600,2.372257568359375,2.1306676281034944,2.334875903223455,-1.561978098320961
1788861427129265000,2.382264892578125,3.106184393107891,2.6932483196169135,-0.7867872140452266
1788861427139270700,2.392270751953125,1.2054945644140242,2.514301034742594,-0.20936521949172018
1788861427149276700,2.402276611328125,0.5573287623345852,1.7027569805815814,0.24490561168938874
1788861427159283700,2.41228369140625,1.6343360630452632,1.3720564149677752,0.9507961652457714
1788861427169289700,2.422289794921875,1.3056021213293074,1.5700035838663577,0.7664721557691693
1788861427179296800,2.432296875,0.6233551859498023,1.5903592664137483,-0.0360173620596528
1788861427189302800,2.442302734375,0.2641851894378662,1.57642426456362,-0.6507502656146884
1788861427199309800,2.452309814453125,-0.37304303904175756,1.4309811898842453,-0.7761772649645805
1788861427209315800,2.46231591796875,-0.9854302562534809,1.0786015841647982,-0.606943857114017
1788861427219322600,2.472322509765625,-1.5075287152528762,0.4493102861642837,-0.03887655088305473
1788861427229328600,2.48232861328125,-1.838604836180806,-0.23162468983381984,0.564487109656632
1788861427239335700,2.492335693359375,-1.884362963271141,-0.5283268319949508,0.6415022525370121
1788861427249341700,2.502341796875,-2.4954689085006714,-0.4363903065755963,0.3677119071468711
1788861427259347700,2.51234765625,-2.0691227338165046,-0.04333323803097009,0.010554419501125812
1788861427269354800,2.522354736328125,-0.9330570949375628,0.35396102969199417,0.28680560204684735
1788861427279360800,2.53236083984375,-0.5042214415252209,0.7367991943001747,0.8474608784556389
1788861427289367600,2.542367431640625,-0.15358195747137068,1.1843415940091013,1.0869380353555083
1788861427299373600,2.55237353515625,0.5806055930256844,1.5397314874604344,1.0448764246955513
1788861427309380900,2.562380859375,0.6061562138676643,1.7553800250053404,1.1632345085725189
1788861427319386600,2.57238671875,0.299493818706274,1.6762927520260213,1.5522753272131085
1788861427329393700,2.5823935546875,0.027452655071020123,1.3946376646101475,1.790358983927965
1788861427339400000,2.59239990234375,0.16056231787800787,1.0112944730892777,1.9010855500131845
1788861427349406700,2.60240673828125,0.6901426570653915,0.7619833199173212,2.0564909235194326
1788861427359412700,2.612412841796875,-0.09551789103746414,0.715427612708509,2.2460087022468445
1788861427369418500,2.62241845703125,-0.4108206887722015,0.7004112453624606,2.1092755882456897
1788861427379425800,2.63242578125,-0.6452279950618743,0.7089493566051125,1.4989946956634521
1788861427389431800,2.642431884765625,-1.2840414469063282,0.759926679648459,0.5306701802507042
1788861427399438600,2.6524384765625,-1.5607272214770316,0.8090823402225971,-0.3185590230517089
1788861427409444900,2.66244482421875,-1.4525368958711624,0.9711378192678093,-0.7223973055906593
1788861427419451600,2.67245166015625,-1.0404115542411803,1.2445301052510738,-0.6002826456591487
1788861427429457700,2.682457763671875,-0.7562754636645317,1.5771464413583278,-0.29255642065852877
1788861427439464700,2.692464599609375,-1.0434159967541694,1.8441840976178645,-0.2543452018164098
1788861427449470700,2.702470703125,-1.219316753539443,1.876498221245408,-0.48766412834748624
1788861427459477800,2.712477783203125,-0.9575251812398433,1.8090300743892789,-0.69977820815593
1788861427469483500,2.7224833984375,-1.0583061073720454,1.642253412041068,-0.8191976376540958
1788861427479490800,2.73249072265625,-0.9652420392274856,1.4666115984529255,-0.8354046760894358
1788861427489496800,2.742496826171875,-0.4857926353871822,1.5284966844797134,-0.7645001250438391
1788861427499502600,2.752502685546875,-0.6471732839107514,1.74715638653934,-0.6290430223278701
1788861427509510000,2.762510009765625,-0.3772802382200956,1.9816326664119959,-0.5190270887300372
1788861427519515600,2.772515625,0.1437777718156576,1.913302057507634,-0.21540639935210346
1788861427529522700,2.782522705078125,0.4228600861340761,1.6224372431978582,0.2555550159975886
1788861427539528700,2.79252880859375,0.3596305997610092,1.4356129413381218,0.6479154805801809
1788861427549535700,2.80253564453125,-0.028127193331718443,1.4634893747791646,0.9565537058591842
1788861427559541800,2.812541748046875,-0.13192542145848274,1.6456974150151014,1.0462956438437103
1788861427569548500,2.822548583984375,0.0004056581914424896,1.975445794470608,0.8611234931051731
1788861427579554800,2.832554931640625,0.009778466692566871,2.2557202411830426,0.6668173110574483
1788861427589561600,2.8425615234375,-0.16590017177462577,2.3860493333607913,0.40621699436902997
1788861427599567600,2.852567626953125,-0.23618542187809943,2.5028967204138635,-0.010570639983564615
1788861427609575000,2.862574951171875,-0.20483634389042854,2.550288001663983,-0.3195573864392936
1788861427619580700,2.87258056640625,-0.37928748638927934,2.6469574008241294,-0.33697350840345025
1788861427629586700,2.882586669921875,-0.6411188061773777,2.6566514041036364,-0.22072817889675497
1788861427639593700,2.89259375,-0.6302630656421184,2.498649292102456,-0.007727963903546333
1788861427649599700,2.902599853515625,-0.6558709696292877,2.2432918445035814,0.22192717942297457
1788861427659606800,2.912606689453125,-1.1756406934201717,1.9216826401010154,0.34410321415290235
1788861427669612300,2.9226123046875,-1.6664987955033779,1.7633511500149963,0.17414485302865504
1788861427679619600,2.93261962890625,-1.7551204972863197,1.9133125789016485,0.03303030907288194
1788861427689625600,2.94262548828125,-1.449711901578307,2.296933418320119,0.3362798270508647
1788861427699632400,2.95263232421875,-0.8890338288158178,2.6216405887380243,0.850842775978893
1788861427709638400,2.962638427734375,-0.33741175369024273,2.7790479497164484,0.9754701493836939
1788861427719645400,2.9726455078125,-0.08496493284106255,2.926298366078734,0.7138596327394247
1788861427729651500,2.9826513671875,-0.3931172742992639,3.05950505951941,0.549510051407665
1788861427739658200,2.992658203125,-0.660251376670599,3.162908150848746,0.5551967187419533
1788861427749664500,3.00266455078125,-0.7212643560379743,3.073140201640129,0.6288667889781296
1788861427759671600,3.012671630859375,-0.6613520313888788,2.7923236108750102,0.7666030886724591
1788861427769677300,3.02267724609375,-0.6386234822303056,2.4330782110393048,0.7250247314848005
1788861427779683600,3.03268359375,-0.6472083552241324,2.1280746890008446,0.3559651360560208
1788861427789690400,3.0426904296875,-0.8105027284145355,1.9266940385222433,-0.002125759982317686
1788861427799696400,3.0526962890625,-1.0025094013482332,1.8701146576881407,-0.20975378041788934
1788861427809703700,3.06270361328125,-1.16400636972785,1.8979753090381621,-0.21835640826411545
1788861427819709400,3.07270947265625,-1.0991700326800347,1.88594994020164,-0.04026398665346205
1788861427829716500,3.082716552734375,-0.9469231232047081,1.855692164582014,0.21083784932754931
1788861427839722500,3.092722412109375,-0.8169792309522629,1.8669868810564278,0.444909274726361
1788861427849729500,3.1027294921875,-0.8458709789156913,1.9107102874487638,0.4902218500062823
1788861427859735600,3.112735595703125,-0.9714356331706047,2.0550983001172543,0.360240840613842
1788861427869742300,3.122742431640625,-0.9236398627728223,2.2827292441397904,0.13844284052848815
1788861427879748600,3.13274853515625,-0.7225847909867763,2.3590356542289257,0.04837188978530466
1788861427889755400,3.14275537109375,-0.4664917225897312,2.183640508878231,0.22018267384320497
1788861427899761400,3.152761474609375,-0.15121230573058128,1.972266287651658,0.41167365233972664
1788861427909767400,3.162767333984375,-0.33413141684532166,1.8631161771029232,0.5488483726285398
1788861427919774500,3.1727744140625,-0.7002104620933532,1.6961130125224588,0.6354323580387979
1788861427929780500,3.182780517578125,-0.8400397885441779,1.5036433982521296,0.4155209023524076
1788861427939787300,3.192787353515625,-0.6151373927026986,1.2929670961618422,0.27477234216481444
1788861427949793500,3.20279345703125,-0.4552589654356241,1.1786287693202495,0.3405513668902218
1788861427959800600,3.212800537109375,-0.665055562081933,1.1758014369398355,0.43741475425250825
1788861427969806300,3.222806396484375,-1.098462176671624,1.221550796201825,0.6109597416918724
1788861427979813600,3.232813720703125,-1.3458587283939123,1.2274556363314388,0.868253125789389
1788861427989819600,3.242819580078125,-1.2144061851441859,1.1604893015176057,1.1032786370426415
1788861427999826400,3.252826416015625,-0.8488941261291504,1.1678770736813544,1.1068776844479142
1788861428009832400,3.26283251953125,-0.9015320758610963,1.4493641110539435,1.0021761508058755
1788861428019839500,3.272839599609375,-1.461732009717822,1.634487454214692,1.090242191467434
1788861428029845500,3.282845458984375,-2.0583336287766696,1.722027205979824,1.3243994685187934
1788861428039852300,3.292852294921875,-1.8445704665869473,1.7606167566150426,1.6400307675555348
1788861428049858600,3.302858642578125,-1.2061767014592886,1.532089156013727,1.9676491492450237
1788861428059864600,3.312864501953125,-0.852816852530837,1.1616092454582452,2.1208103970862924
1788861428069871400,3.322871337890625,-1.1981909634023904,0.8342068446069956,1.7953050620280204
1788861428079877400,3.33287744140625,-1.6179934155315159,0.5283364766061306,1.1959989332508294
1788861428089884400,3.342884521484375,-1.693870786553621,0.12901800957918166,0.7264991879515349
1788861428099890400,3.352890380859375,-1.492441036236286,-0.2931377276778221,0.405069504834339
1788861428109897500,3.3628974609375,-1.2706260850161313,-0.534033226943016,0.19792557812128214
1788861428119903500,3.372903564453125,-1.1567127055883406,-0.44377544839084143,0.049368426541984076
1788861428129910500,3.38291064453125,-1.1362620382338762,0.04626140043735504,-0.1081937596719712
1788861428139916500,3.39291650390625,-1.3650059119343756,0.7548118208527564,-0.3596553323434666
1788861428149923600,3.402923583984375,-1.5307716436743735,1.2657687081128357,-0.423213904540427
1788861428159929600,3.4129296875,-1.3644155448257922,1.3388748608559369,-0.14243348106723278
1788861428169936400,3.422936279296875,-1.05184480240345,1.139061898085475,0.31583730647023767
1788861428179942400,3.4329423828125,-0.9808008428871631,0.9574509469598531,0.49947421046551316
1788861428189949400,3.442949462890625,-1.3452496565848588,0.8703624460935592,0.24473361612334846
1788861428199955500,3.45295556640625,-1.381426885381341,0.6531143643975258,-0.04981061735153198
1788861428209962500,3.46296240234375,-1.0456219823658466,0.29904782850444317,-0.22559596759621053
1788861428219968500,3.472968505859375,-1.1360393353939056,0.00014788403809070586,-0.3573759892346337
1788861428229974500,3.482974609375,-1.5317729296714067,-0.258144740229845,-0.5729854734107852
1788861428239981300,3.492981201171875,-1.6288184686675666,-0.43532384638786314,-0.6935306920684874
1788861428249987300,3.5029873046875,-1.7234195371210574,-0.4545195452451706,-0.5490558048341423
1788861428259994600,3.51299462890625,-2.0741730029433962,-0.313110256126523,-0.3502273961216211
1788861428270000400,3.52300048828125,-2.0774615230947733,-0.2980225771099329,-0.16570161699522284
1788861428280007400,3.53300732421875,-1.8154121766418219,-0.47415831169486045,0.0019141333754989318
1788861428290013400,3.543013427734375,-1.8119407011389732,-0.714478056898713,0.23512144590839743
1788861428300020500,3.5530205078125,-1.9418132817208766,-1.0055132593393326,0.3828687424095347
1788861428310026500,3.563026611328125,-1.6923825938224792,-1.2932798153728247,0.5523005954416469
1788861428320033500,3.573033447265625,-1.4455781627744435,-1.3390320972442626,0.7814267099253833
1788861428330039600,3.58303955078125,-1.8623019381105899,-1.1258452736377715,1.0649741869591176
1788861428340046300,3.59304638671875,-2.27720054384619,-0.8390408406347036,1.274316902358085
1788861428350052400,3.60305224609375,-2.229395128837228,-0.5723205797612667,1.0441669612519442
1788861428360059400,3.613059326171875,-1.7798650624424217,-0.5103600904107094,0.5208054965794087
1788861428370065400,3.6230654296875,-1.0375225548014044,-0.6473614999592304,-0.0203377450319007
1788861428380072400,3.633072509765625,-0.5856918102487921,-0.7186515431910753,-0.5173337288156151
1788861428390078500,3.643078369140625,-0.20569033037126064,-0.7148106498539447,-0.8719121597535908
1788861428400084500,3.65308447265625,0.31917291716635227,-0.7718471268057823,-0.9494660126205533
1788861428410091500,3.663091552734375,0.7811883711248636,-0.8306313242077827,-0.879511163515225
1788861428420097500,3.67309765625,1.2319412573128938,-0.8092851693183183,-0.6727380794085562
1788861428430104600,3.6831044921875,1.489488616171479,-0.8458423373430967,-0.46212614779137073
1788861428440110300,3.6931103515625,1.6309218706876039,-1.0493991628170012,-0.21031446477426216
1788861428450117600,3.70311767578125,1.5150906749397515,-1.4517606508016585,0.05359853839240968
1788861428460123600,3.71312353515625,1.1239075835734604,-1.8440262767076492,0.32980040190368887
1788861428470130400,3.72313037109375,0.5384136339843273,-1.809537147128582,0.3991048608088866
1788861428480136400,3.733136474609375,-0.09032207596004009,-1.5279869813919067,0.23728647845517842
1788861428490143500,3.7431435546875,-0.5627168851137161,-1.0730775600463152,0.16561835915856063
1788861428500149500,3.7531494140625,-0.8841846352189778,-0.4640735555320978,0.28494521500244735
1788861428510156300,3.76315625,-1.2117904496878384,0.09004676614999771,0.5220521721722557
1788861428520162600,3.77316259765625,-1.3241659520238638,0.19758534984886644,0.8399459727808832
1788861428530169600,3.783169677734375,-1.6055664801567793,-0.21427228075563906,1.038381509718299
1788861428540175400,3.79317529296875,-2.920171992152929,-0.787959472694993,0.9586926175840198
1788861428550182700,3.8031826171875,-4.203244886288046,-1.3926385997474193,0.6549250670813024
1788861428560188400,3.8131884765625,-4.092376865905523,-1.9163380642026662,0.08206175874546169
1788861428570195500,3.823195556640625,-3.295100114288926,-1.9972312175601719,-0.46985465968418866
1788861428580201500,3.833201416015625,-1.7607348300367593,-1.5512065289378165,-0.8055411604844033
1788861428590207500,3.84320751953125,0.7754016044169664,-0.7055863099128008,-0.8127310719884931
1788861428600214500,3.853214599609375,3.3063954152852295,0.28171266282200813,-0.41291820904072374
1788861428610220500,3.863220458984375,4.472103912755847,1.3947376178532838,0.438745162606053
1788861428620227600,3.8732275390625,4.121845536974072,2.451485389867425,1.4335985327757894
1788861428630233600,3.883233642578125,2.7337439961344003,3.301390154343843,2.014567406155914
1788861428640240400,3.893240478515625,1.1627332810521125,3.765947109478712,1.9707745877891778
1788861428650246400,3.903246337890625,0.11824351758658885,3.3891198757231233,1.4369129180207847
1788861428660253400,3.91325341796875,0.021163199537992478,2.103905877906084,0.6952174761116504
1788861428670259500,3.923259521484375,-0.07046586736738682,0.7107710190743207,0.3575987286072224
1788861428680266500,3.9332666015625,-0.6446592552632093,-0.21963936074674129,0.5254561719294637
1788861428690272300,3.943272216796875,-1.53801445440948,-0.6991039621561765,0.8841033136110752
1788861428700279300,3.953279296875,-2.5411796893179415,-0.8944850799590348,1.444506003498286
1788861428710285300,3.963285400390625,-3.457928039011359,-0.8016390384793282,2.1052441407725215
1788861428720292400,3.973292236328125,-3.6048955467790362,-0.38536008430123325,2.5914009332969785
1788861428730298400,3.98329833984375,-2.6440911977380512,0.2745756505489349,2.6109792017310856
1788861428740305400,3.993305419921875,-1.1536971571594477,0.9829361013501882,2.288740759514272
1788861428750311400,4.0033115234375,0.08736205711066722,1.4877216064989567,1.792249912241101
1788861428760318200,4.013318115234375,0.6835878285944461,1.848552814221382,1.2763865482389927
1788861428770324200,4.02332421875,0.4852829322993755,2.0338141045480964,0.8588940535526722
1788861428780331300,4.033331298828125,0.019518939462304114,1.975229813632369,0.6269813405577093
1788861428790337300,4.043337158203125,-0.6589993307828903,1.762466183874011,0.6287531725358217
1788861428800344300,4.05334423828125,-1.2109569214731455,1.3696283110380172,0.7156628097038715
1788861428810350300,4.063350341796875,-1.2668161713391541,0.92608725592494,0.752551693901047
1788861428820357400,4.073357421875,-1.2075813075602053,0.6653197659760713,0.6831314631290734
1788861428830363400,4.08336328125,-1.2470599159896374,0.697004944050312,0.45410000465884803
1788861428840369400,4.093369384765625,-1.4606459680467843,0.9212871621668338,0.2368684357061982
1788861428850376400,4.10337646484375,-1.5796820973157881,1.068321889951825,0.19402478955676777
1788861428860382200,4.11338232421875,-1.4477794722110031,1.198137771910429,0.25573216266278176
1788861428870389500,4.123389404296875,-1.0437994431138038,1.3731243364602326,0.3709252431701869
1788861428880395500,4.1333955078125,-0.8467430855751037,1.5143518392711877,0.47931821520868684
1788861428890402300,4.14340234375,-0.8088999693930149,1.319721247574687,0.45483277591280635
1788861428900408300,4.153408203125,-0.7948831344783306,1.2104162387251853,0.3303867869568988
1788861428910415400,4.163415283203125,-0.8173281905204057,1.1710662251114845,0.2685740355139598
1788861428920421400,4.17342138671875,-0.8945791879832744,1.307492465120554,0.49713696315698325
1788861428930428200,4.18342822265625,-0.9723159231364726,1.4769769251227378,0.9178707778520881
1788861428940434400,4.193434326171875,-1.088874264115095,1.412535140350461,1.2434652524985372
1788861428950441500,4.20344140625,-1.3694284045517444,1.1369967822492122,1.249241790073365
1788861428960447200,4.213447265625,-1.569848101043701,0.824455850443244,0.9127141988065093
1788861428970454500,4.22345458984375,-1.27719318844676,0.6790782422155142,0.6386174908809363
1788861428980460300,4.233460205078125,-0.7624433386445045,0.7443857039064169,0.7406678524270653
1788861428990467300,4.24346728515625,-0.39339550671875473,1.0315899498820305,1.0948029235117136
1788861429000473300,4.253473388671875,-0.2951011367052793,1.3802660249084233,1.4316072128280997
1788861429010480400,4.26348046875,-0.22711773380339145,1.66813604131639,1.5370315808519721
1788861429020486400,4.273486328125,0.0007388356685638427,1.9211749828398226,1.444846341368556
1788861429030493200,4.2834931640625,0.1344236680150032,1.961232852461934,1.2057524846978485
1788861429040499500,4.29349951171875,-0.17089081966876982,1.7212573906511068,0.8030741127837449
1788861429050506200,4.30350634765625,-0.19193769935071467,1.4165370694682,0.224040372184664
1788861429060512300,4.31351220703125,0.457193148368597,1.1492419313162565,-0.12849720057547093
1788861429070519600,4.32351953125,0.5373720159769058,0.8736895446896552,0.09843830852881073
1788861429080525300,4.333525390625,-0.29527883135974403,0.5872700193509459,0.43542058476060624
1788861429090532400,4.343532470703125,-0.13746727349460125,0.20211656353771684,0.472280096732825
1788861429100538400,4.353538330078125,1.233895313990116,-0.2122296690121293,0.39777006854116914
1788861429110544400,4.36354443359375,0.016672902381420135,-0.7691898902952671,0.7954689715422689
1788861429120551400,4.373551513671875,-4.004345531231165,-1.2771625010475516,1.7446398736737667
1788861429130557200,4.38355712890625,-6.512613131028413,-1.7022732887178658,2.423718115889281
1788861429140564500,4.393564453125,-3.238873784676194,-1.6508496832117436,2.312959108839184
1788861429150570500,4.403570556640625,2.2923265090465543,-0.7493506328374147,1.6686970362000166
1788861429160577300,4.413577392578125,2.8869746559500693,0.5757075918510556,1.0025177307851612
1788861429170583300,4.423583251953125,-0.7470780117303133,1.0439476194128394,1.086324871893227
1788861429180590300,4.43359033203125,0.018043021690845488,0.4049932977929711,1.694690724634379
1788861429190596400,4.443596435546875,2.0096096376180648,0.24251579394340514,2.0871562570266424
1788861429200603100,4.45360302734375,0.040271220111846924,0.14400982700586318,2.0229494500540195
1788861429210609400,4.463609375,0.16954758836627007,-0.4023173565819859,1.5596861879914998
1788861429220616400,4.473616455078125,2.0955717648029326,-0.7306295657545328,1.169253184340149
1788861429230622200,4.483622314453125,0.6497954491078853,-1.1263643290758132,0.7334491532199084
1788861429240629500,4.49362939453125,0.20329320610165594,-1.5115303521096706,-0.2881483949579298
1788861429250635300,4.50363525390625,0.4911562082469463,-1.4876023640334606,-1.11963282886371
1788861429260642300,4.513642333984375,0.6224339794516563,-1.2722338124737143,-0.9148363785922526
1788861429270648300,4.5236484375,1.232851357895136,-0.925515739647299,-0.35200244297012684
1788861429280655400,4.5336552734375,0.8779799353599548,-0.4459175749860704,-0.14146058091446756
1788861429290661400,4.543661376953125,1.3215455403923988,0.07212357144653797,-0.20302067277058958
1788861429300668200,4.553668212890625,1.9512801982462404,0.42581659785211085,0.0330482831209898
1788861429310674400,4.56367431640625,1.6563281146228312,0.442893258728832,0.18551073504313825
1788861429320681200,4.57368115234375,1.6110042872965336,0.717492874675244,-0.38623029126450414
1788861429330687200,4.583687255859375,1.6623878530532121,1.1388529315099118,-0.8793560460187494
1788861429340694500,4.593694580078125,2.423440614122152,1.4665340031720697,-0.6545397210255265
1788861429350700300,4.6037001953125,2.548355280035734,1.8805210470207034,-0.2868418424040079
1788861429360707300,4.613707275390625,2.3733342286944388,2.1618686759226025,-0.0784851423677057
1788861429370713300,4.62371337890625,2.6884382889866827,2.182126012662053,0.1279840634215623
1788861429380720400,4.633720458984375,2.078292128700018,2.157592167647183,0.2771841525468975
1788861429390726400,4.643726318359375,1.4698808293819428,1.9894461166419088,0.34621560319699346
1788861429400733200,4.653733154296875,1.9462451266884802,1.767742370711267,0.7251599752370268
1788861429410739500,4.663739501953125,1.5970634402275083,1.4590958159953356,1.2770724846765398
1788861429420746200,4.673746337890625,1.1509224317491054,1.1697361455515027,1.4647957812026142
1788861429430752300,4.683752197265625,1.0836252575457095,0.8688277838721871,1.219515344851464
1788861429440759300,4.69375927734375,1.0236462974011897,0.9306102863073349,0.53350365011096
1788861429450765300,4.703765380859375,0.7833470104634761,1.5362851463988423,-0.1580578973090276
1788861429460772400,4.7137724609375,0.8842161994010209,2.3345392186149954,-0.5292523493420332
1788861429470778400,4.7237783203125,1.254695525434613,2.9320538608655333,-0.5401454627456144
1788861429480785400,4.733785400390625,1.637244059446454,3.1362185891047116,-0.23477595693897454
1788861429490791400,4.74379150390625,1.7282476879298685,2.9377286916315555,0.10543804948935284
1788861429500798500,4.753798583984375,1.7782985437780618,2.6554949275448916,0.09641357950186356
1788861429510804500,4.763804443359375,2.1579010874658824,2.4547458529680966,-0.010029299648478627
1788861429520811300,4.773811279296875,2.0264923833578825,2.4498753243222833,-0.08054191963388584
1788861429530817300,4.7838173828125,1.0581506245493888,2.528213532499969,-0.20982388651203362
1788861429540824300,4.79382421875,0.4148755171209573,2.425070845672488,-0.25140545857008545
1788861429550830300,4.803830322265625,0.6105751993536949,2.137729237052798,-0.21463601776780558
1788861429560837400,4.81383740234375,0.7233774026691914,1.794855710825324,-0.10445873786211013
1788861429570843400,4.823843505859375,0.45305239530205726,1.5555658931910992,0.0390207816593349
1788861429580850400,4.833850341796875,0.17359481793045997,1.4919015225321053,-0.0425407359464094
1788861429590856200,4.843856201171875,-0.2549269472271204,1.5818915900588035,-0.3959315280023962
1788861429600863500,4.853863525390625,-0.6478758792221546,1.599322617331147,-0.7812212504811584
1788861429610869500,4.863869384765625,-0.622824440073967,1.3473112652897834,-0.7767024578824638
1788861429620876300,4.873876220703125,-0.6367208634793758,1.000607367119193,-0.5346288547486067
1788861429630882300,4.88388232421875,-0.9150093970715999,0.4278220924556255,0.014483867904543877
1788861429640889300,4.893889404296875,-1.4776035325884818,-0.22969372177124023,0.7168211128935218
1788861429650895400,4.903895263671875,-1.6350474261850119,-0.6264093128234147,1.181907498729974
1788861429660902100,4.913902099609375,-1.6666186224907635,-0.5893576392799615,1.407472450133413
1788861429670908400,4.923908447265625,-1.4598042565256357,-0.1844727702975273,1.3978651022240518
1788861429680915500,4.93391552734375,-1.2294728213727473,0.26070669967234134,1.0708687248904258
1788861429690921200,4.943921142578125,-1.338828099104762,0.4971995800644159,0.49077049686498936
1788861429700928500,4.953928466796875,-1.3747645048826933,0.43143326869010923,-0.10577106256969272
1788861429710934500,4.9639345703125,-1.299060736861825,0.20171324343383312,-0.42187692031562324
1788861429720941300,4.97394140625,-1.2688707657814025,-0.09874678995609283,-0.433638085258007
1788861429730947300,4.983947265625,-1.4267045354783534,-0.3550000173509121,-0.32193763263933356
1788861429740953300,4.993953369140625,-1.9743892711549995,-0.6158230368793011,-0.17500724201165138
1788861429750960400,5.00396044921875,-2.3517361448705194,-0.9733809220194816,0.04497179901823401
1788861429760967200,5.01396728515625,-2.630698632201552,-1.3745271889954804,0.11312836652994156
1788861429770973400,5.023973388671875,-2.669450095400214,-1.8680501263737677,-0.06758541656024754
1788861429780980200,5.033980224609375,-2.6476287242144343,-2.362369767087698,-0.3436863769803196
1788861429790986200,5.043986328125,-2.9712106899946926,-2.649586288022995,-0.7551263666946441
1788861429800992300,5.0539921875,-3.2856215073257684,-2.644481658360362,-1.1638562206674365
1788861429810999300,5.063999267578125,-2.9755285531938074,-2.5764655222326516,-1.2484373418226837
1788861429821006300,5.07400634765625,-2.2840309743881226,-2.4755729524195194,-1.135909498469159
1788861429831012400,5.084012451171875,-1.7538789727926254,-2.2470938671350478,-0.8786476785536855
1788861429841019400,5.094019287109375,-1.6032742775663733,-1.8197861539423466,-0.5636932558652014
1788861429851025400,5.104025390625,-1.774036502419412,-1.47231010235548,-0.154604797713086
1788861429861032200,5.1140322265625,-2.2516987305819987,-1.2921177858561277,0.018167817114293574
1788861429871038500,5.12403857421875,-2.5876047558844086,-1.331852999395132,-0.05902414363771677
1788861429881045200,5.134045166015625,-2.6621833192676303,-1.4970003069758415,-0.2949047373503446
1788861429891051300,5.14405126953125,-2.6237241170138117,-1.656487104576826,-0.6494594220865517
1788861429901058600,5.15405859375,-2.694155497589707,-1.7833757009118794,-0.8782616749107837
1788861429911064300,5.164064208984375,-2.8798423198521137,-1.9932821876734494,-0.8193747477866709
1788861429921071400,5.1740712890625,-3.1712375877767798,-2.2442414003133773,-0.4385371093459427
1788861429931077000,5.1840771484375,-3.309531959745288,-2.3577321704149243,0.08201222051531076
1788861429941084400,5.19408447265625,-2.939260723504424,-2.3451596890896558,0.5060267373815178
1788861429951090400,5.20409033203125,-2.23008077301383,-2.2275953859388826,0.4666778928115964
1788861429961097200,5.21409716796875,-1.7583061415851116,-1.8503788606047629,-0.1900840343080461
1788861429971103500,5.224103515625,-1.085914829787612,-1.5000556028932333,-1.039772014228627
1788861429981110300,5.2341103515625,-0.048185646498203276,-1.3014654599159956,-1.7207210918173192
1788861429991116300,5.2441162109375,1.140585162129998,-1.25356389105618,-1.818613603031635
1788861430001123300,5.254123291015625,2.198862627929449,-1.170045065370202,-1.1003967979960143
1788861430011129300,5.26412939453125,3.094966249001026,-0.8546154263854027,0.3471746574874967
1788861430021136400,5.274136474609375,2.9429712684601546,-0.4211901070952415,1.7008144682116806
1788861430031142100,5.28414208984375,1.52223645504117,0.04443944570720196,2.4777584797650576
1788861430041149400,5.2941494140625,-0.34000878444612026,0.4275222327262163,2.8307927500009535
1788861430051155500,5.304155517578125,-1.6771481998115776,0.7314630939692258,3.075536156865954
1788861430061162200,5.314162353515625,-1.7739760044038295,0.8236345971882343,3.017466245213151
1788861430071168500,5.32416845703125,-1.1807570135205983,0.5189776966303586,2.5242300158217548
1788861430081175300,5.33417529296875,-0.6016659167110919,0.08174597079455852,1.5457091005653143
1788861430091181300,5.344181396484375,-0.22157529724538325,-0.19286299750208855,0.5200006830025464
1788861430101188400,5.354188232421875,0.1784206306517124,-0.22300912944078444,-0.2958123537145555
1788861430111194400,5.3641943359375,0.3702683136314153,-0.07776303863823414,-0.7510095059603452
1788861430121201200,5.374201171875,0.454317300671339,0.09752864633798598,-0.7772281622570008
1788861430131207200,5.384207275390625,0.6268021115332841,0.16032792460024356,-0.5699241130787879
1788861430141214500,5.39421435546875,0.8213350880742073,0.04647007475197315,-0.38648258552514014
1788861430151220200,5.40422021484375,0.5633230343133211,0.04427811766564846,-0.22410952843073753
1788861430161227500,5.4142275390625,-0.1237573125720024,0.24655951637625692,0.08268091355711221
1788861430171233500,5.424233642578125,-0.7715519432514906,0.8010907569468021,0.45070163092482834
1788861430181240300,5.434240234375,-1.3104367018789052,0.9464888234406709,0.9039477587006985
1788861430191246300,5.444246337890625,-1.4423632923811673,0.5729775823652744,1.2490806081622838
1788861430201253400,5.45425341796875,-1.1282067420721054,0.1701549066096544,1.308406072834134
1788861430211259400,5.46425927734375,-0.37717736236751076,0.12818974206149578,1.102851132345572
1788861430221266200,5.47426611328125,0.6491472143322229,0.47994390935897824,0.703261593292281
1788861430231272400,5.4842724609375,1.2068588385045527,0.8660735167279839,0.1738452672938816
1788861430241279500,5.494279541015625,1.1374901187241078,0.9758847215339541,-0.35840650132615115
1788861430251285200,5.50428515625,0.6025146424949169,0.9433192534938454,-0.4912411831166595
1788861430261292500,5.51429248046875,-0.3530827855527401,0.7346648126199841,-0.19688713845163583
1788861430271298300,5.52429833984375,-1.229029753780365,0.3111038847401738,0.17338250862034035
1788861430281305300,5.534305419921875,-1.3012228833317756,-0.1501654270261526,0.39869923915006217
1788861430291311400,5.544311279296875,-0.6063561203539372,-0.5345800471708179,0.5124752559337765
1788861430301318400,5.554318359375,0.15378303300142288,-0.6192167709708214,0.6845378958608955
1788861430311324400,5.564324462890625,0.7382862179875374,-0.38349516721218824,0.6031906055277213
1788861430321331200,5.574331298828125,2.0926666910111904,-0.1205094166919589,0.13237674542255698
1788861430331337500,5.58433740234375,3.926025443232059,0.20178221701681612,-0.2902301696680486
1788861430341344300,5.59434423828125,3.9393502042293544,0.5259197708532214,-0.2169506331194192
1788861430351350300,5.604350341796875,2.599180627387762,0.5071539878457785,0.14373027941212058
1788861430361357600,5.614357666015625,0.848407803916931,0.2414966800287366,0.43894495949447154
1788861430371363300,5.62436328125,-0.19577625460028647,-0.07633125226944684,0.3028821459703147
1788861430381370400,5.634370361328125,-0.7762731265544891,-0.23709902959167956,-0.30578714669682083
1788861430391376400,5.64437646484375,-0.13251695761084556,-0.29405279669612644,-0.9838291777323931
1788861430401383400,5.654383544921875,2.1556454174935817,0.0061596916735172265,-1.2973153544992209
1788861430411389400,5.664389404296875,4.216941987729072,0.8361730301134288,-1.386890265353769
1788861430421396200,5.674396240234375,2.696006678414345,1.420110544040799,-1.1046263983897864
1788861430431402500,5.684402587890625,-0.6639326955318451,0.9964897026672959,-0.27922881011702116
1788861430441409300,5.6944091796875,0.35713936746716496,0.15659911333546042,0.6391769513946026
1788861430451415300,5.704415283203125,2.860224596190452,-0.5452013944283127,1.0930160400949418
1788861430461422300,5.71442236328125,2.8602093986213206,-0.8460800916217267,1.0251201693460346
1788861430471428400,5.724428466796875,1.9009978717297316,-1.0798656127512454,0.88840729441531
1788861430481435400,5.734435302734375,2.0354665479302407,-1.185846299483627,0.2931749178830534
1788861430491441200,5.744441162109375,1.8000152855455875,-0.7524905382983386,-0.9546896655529737
1788861430501448400,5.754448486328125,0.9998860671073198,-0.24847601752206683,-1.7026920986518264
1788861430511454500,5.764454345703125,0.7921095781117677,-0.042469460808485744,-1.3142916237413882
1788861430521461200,5.774461181640625,1.3071616257309913,0.18818492268845438,-0.5601606978248804
1788861430531467500,5.784467529296875,1.7952292203128337,0.32670155910551546,-0.01325659113191068
1788861430541474300,5.794474365234375,2.1601965049266814,0.5250388963654637,0.2088812353670597
1788861430551481300,5.8044814453125,2.3235984301447865,0.8497374450854956,0.2541602737035602
1788861430561487400,5.8144873046875,2.545707395875454,1.2291427126355468,0.35099655386321243
1788861430571494400,5.824494384765625,2.791151059964299,1.723909804856032,0.35611521205119784
1788861430581500400,5.83450048828125,2.437231239065528,2.190482922118902,0.020797288835048673
1788861430591507500,5.844507568359375,2.146890448629856,2.4628502489686013,-0.36603359867110846
1788861430601513500,5.854513427734375,2.024950999134779,2.6357746202915906,-0.4967251309530809
1788861430611520300,5.864520263671875,2.2714333586215973,2.5206308222860097,-0.2921477302597835
1788861430621526300,5.8745263671875,2.8364503373712298,2.132182708841562,-0.2181949340920895
1788861430631533300,5.884533203125,2.7955197765678164,1.7733581647664307,-0.49734947339650243
1788861430641539300,5.894539306640625,2.545818455034494,1.4653195128157734,-0.6763532011657953
1788861430651546000,5.904546142578125,2.490471246343851,1.0226868047192692,-0.6544826570760458
1788861430661552400,5.914552490234375,2.3279461039602753,0.6159434483885765,-0.6948189783133566
1788861430671559400,5.924559326171875,1.7793787402302026,0.4246685968607664,-0.7573208079989999
1788861430681565400,5.9345654296875,1.1968301964432,0.3465729652673006,-0.8530106946025043
1788861430691572700,5.94457275390625,1.0533961234986782,0.3353030909731984,-0.9227099615115671
1788861430701578500,5.95457861328125,0.8286322593450546,0.25249095225185153,-0.8226769311372191
1788861430711585500,5.96458544921875,0.7950339411258697,-0.011575286981463432,-0.682768475035578
1788861430721591800,5.974591796875,0.7269558456778525,-0.25570231551378964,-0.7775535217538475
1788861430731598600,5.9845986328125,0.35628596550822256,-0.415286436009407,-0.8069149330556392
1788861430741604600,5.9946044921875,-0.08097498642206191,-0.3930038770526647,-0.6098769514238461
1788861430751611600,6.004611572265625,-0.5320037669420242,-0.08725976577997208,-0.3008390593027696
1788861430761617700,6.01461767578125,-0.7742220392435789,0.3111462625771761,0.1491548617441207
1788861430771624400,6.02462451171875,-0.07678688708245754,0.46956046251058575,0.612679258960858
1788861430781630700,6.034630615234375,0.8989502426743506,0.39627486154735087,0.6607510698210448
1788861430791637800,6.0446376953125,1.1330366464465855,0.254729963350296,0.3308264935484156
1788861430801643500,6.0546435546875,0.7493897958040237,0.048128363353013986,0.024086210845224557
1788861430811650800,6.06465087890625,0.06705985831618308,-0.2691471957594156,-0.09642002750895917
1788861430821656600,6.074656494140625,-0.663988809633255,-0.739099872457981,-0.12400065634120255
1788861430831663600,6.08466357421875,-0.9438602285027503,-1.312268593481183,-0.026490714703686535
1788861430841669600,6.094669677734375,-0.8001923468023538,-1.924706664097309,0.31242271225377916
1788861430851676700,6.1046767578125,-0.9787041628688573,-2.4154478618025776,0.7173438946586101
1788861430861682700,6.1146826171875,-1.4792337641388178,-2.7258786695867774,1.0076366081688553
1788861430871689500,6.124689453125,-2.0633388897180556,-2.9191175146639345,0.9942088251885026
1788861430881696800,6.13469677734375,-2.4954624787598845,-2.8661405422359705,0.6124857822153716
1788861430891702500,6.14470263671875,-2.7623750473350284,-2.5959996592640877,0.09248670664802193
1788861430901709600,6.15470947265625,-2.823740493401885,-2.239892557454109,-0.31092319441102445
1788861430911715800,6.1647158203125,-2.5217495971828696,-1.809266513493657,-0.4552575041308999
1788861430921722600,6.17472265625,-2.342928569036722,-1.2451853542894125,-0.3519299622558057
1788861430931728600,6.184728759765625,-2.638410814014077,-0.816533240750432,-0.12978234501518307
1788861430941735700,6.194735595703125,-3.1561487397164103,-0.8253507534563541,0.12705153181180356
1788861430951741700,6.20474169921875,-3.2075165233820675,-1.1961761164486409,0.3291525324542075
1788861430961748500,6.21474853515625,-2.797217812657356,-1.5902239495962858,0.4369629188317805
1788861430971754500,6.22475439453125,-2.7390011860102415,-1.9138497545182704,0.21185089882761238
1788861430981761800,6.23476171875,-3.110703331837058,-2.0123603976309297,-0.30157939280867574
1788861430991767600,6.244767578125,-3.116094961747527,-1.94894970947206,-0.6242735429037362
1788861431001774600,6.254774658203125,-2.636270294854045,-1.8739087892740964,-0.607767667652294
1788861431011780900,6.26478076171875,-2.393575052690506,-1.5792197405010462,-0.6267275119271128
1788861431021787600,6.27478759765625,-2.533608377280831,-1.340737732118368,-0.5949269638448953
1788861431031793700,6.284793701171875,-2.60298937202096,-1.329715987366438,-0.40291137695237994
1788861431041800700,6.29480078125,-2.373765021327138,-1.5854022285282612,-0.19315401633791623
1788861431051806700,6.304806640625,-1.8420131833195685,-1.7897352990716695,-0.06519340685717762
1788861431061813500,6.3148134765625,-0.882436914768815,-1.766156855085492,0.006127616034820676
1788861431071819500,6.324819580078125,0.18463351381719112,-1.706553157994151,0.06830671657212078
1788861431081826600,6.33482666015625,0.804826436343789,-1.7729414006590842,0.2935522998280823
1788861431091832600,6.34483251953125,1.0073632711201905,-1.6930740832179785,0.656568742635101
1788861431101839600,6.354839599609375,0.8563041101247072,-1.4700959334373473,1.016840782104805
1788861431111845600,6.364845703125,0.43344227042496203,-1.2629103960722685,1.3109198092207313
1788861431121852700,6.374852783203125,-0.4154921877145767,-0.8952601559847593,1.4882418309807777
1788861431131858700,6.384858642578125,-0.891202405026555,-0.5245680639833211,1.3605270129546523
1788861431141865700,6.39486572265625,-0.8440835109770297,-0.28143618396818637,1.1789798477802425
1788861431151872500,6.40487255859375,-0.7228682841032743,-0.015908932271599768,0.9457941922400146
1788861431161878500,6.41487841796875,-0.45350013906955716,0.2829243766993284,0.669141297025606
1788861431171885800,6.4248857421875,-0.1593804146170616,0.594556376966834,0.5058138983484357
1788861431181891600,6.4348916015625,-0.006194762986898422,0.8801713079243898,0.5119649683240801
1788861431191898600,6.444898681640625,0.1485936476647854,1.058560374394059,0.4460560336086899
1788861431201904600,6.454904541015625,0.16112988863289354,1.1446867522299289,0.22438969707898795
1788861431211911700,6.46491162109375,0.23797990407943725,0.9916279418498277,0.04511179201081395
1788861431221917700,6.474917724609375,0.35336803223490715,0.6272048471152782,0.10476732888724655
1788861431231924500,6.484924560546875,0.2689437821418047,0.19852643009126186,0.2892986244389787
1788861431241930800,6.4949306640625,0.11476853495240211,-0.15814941151738166,0.541942648360692
1788861431251937500,6.5049375,-0.2113286285191774,-0.32728608099520207,0.9373316304516046
1788861431261943600,6.514943603515625,-0.5452396806120872,-0.33461423192620277,1.2019210167761891
1788861431271950800,6.524950927734375,-0.6412421402961015,-0.20998715078234673,1.1252520569849758
1788861431281956600,6.53495654296875,-0.32956045566797254,0.06515314791202545,0.8369142038695514
1788861431291963600,6.544963623046875,0.20080255832970142,0.1128209080159664,0.5927537114590407
1788861431301969400,6.554969482421875,0.16115502307415008,0.015444237369298935,0.45861324429959055
1788861431311976700,6.564976806640625,-0.32433599901795385,0.12378507736176252,0.13658860923023894
1788861431321982700,6.574982666015625,-0.9195604845046996,0.4094380022421479,-0.1305009964122437
1788861431331989500,6.584989501953125,-1.1878934412717819,0.565057603020966,-0.015481649053527507
1788861431341995800,6.594995849609375,-0.7396990073949098,0.3806009070754051,0.21097714820038527
1788861431352002600,6.60500244140625,0.25237784726619716,0.0850450123399496,0.32890308773778376
1788861431362008600,6.615008544921875,1.7249837176978586,-0.01953179894387722,0.4092198294468224
1788861431372015600,6.625015625,2.531682377654314,-0.005620762491226196,0.6905456849083303
1788861431382021600,6.635021728515625,1.9458418065845966,-0.02872720505148172,0.9856006443843245
1788861431392028700,6.645028564453125,0.7177741758346557,-0.19278350252509116,1.1797901412498206
1788861431402035700,6.65503564453125,-0.6667243720769882,-0.4936418875828385,1.0937644473094492
1788861431412041700,6.665041748046875,-0.829905348020792,-0.9246803117364645,0.6227401958566159
1788861431422048500,6.675048583984375,0.7784183218896389,-1.302187928971648,0.10232464844286442
1788861431432054500,6.685054443359375,1.7093243762731551,-1.5148729405358432,-0.13671733191013336
1788861431442061600,6.6950615234375,1.7307096941292286,-1.3738856762215494,-0.06307685309462249
1788861431452067600,6.705067626953125,1.6153846943378447,-0.962331996999681,0.052182022657990455
1788861431462075000,6.715074951171875,0.8974573737680912,-0.6777047619052231,0.021903496511280537
1788861431472080600,6.72508056640625,-0.27540216450095173,-0.588948473957181,-0.17506620565727352
1788861431482087700,6.735087646484375,-0.07164835515022278,-0.5169488211512565,-0.3389344332128763
1788861431492093400,6.745093505859375,2.371843697875738,-0.06350713427066802,-0.6884364376693963
1788861431502100700,6.755100830078125,3.6986464281439777,0.6238409236401319,-1.0096262476161122
1788861431512106800,6.765106689453125,2.737366278284788,1.0236701166681945,-0.31013971588313577
1788861431522113500,6.775113525390625,1.6756114917635916,0.7728131953589618,0.9496939030922948
1788861431532119800,6.785119873046875,3.66587462387681,0.17541940300911663,1.1443597122326492
1788861431542126600,6.795126708984375,4.60257329018712,0.07875657972022891,-0.019045038340240714
1788861431552132600,6.805132568359375,2.348445286631584,-0.020161475149542092,-1.4730702730730174
1788861431562139600,6.8151396484375,1.7909563652992246,-0.6410080392792821,-2.271491226288676
1788861431572145700,6.825145751953125,1.669848105931282,-0.6911524186298251,-2.5077730942785736
1788861431582152700,6.835152587890625,1.8337386914491651,-0.32476606099829075,-2.0944152882441878
1788861431592158500,6.845158447265625,2.898781998121738,0.15149302236810325,-1.2407114237457513
1788861431602165800,6.855165771484375,3.2142899630397554,0.6681343850053847,-0.26140235378630455
1788861431612172500,6.865172607421875,3.256033593791723,1.1478557376548648,0.11829882797040045
1788861431622178600,6.875178466796875,3.240824334222078,1.6505029156006872,-0.25689028318934143
1788861431632185600,6.885185546875,2.8749732525110243,2.089935220220685,-0.5374980535093694
1788861431642191600,6.895191650390625,2.893577415215969,2.367501577018201,-0.5366031504962593
1788861431652198700,6.90519873046875,2.9452783763587473,2.421305940181017,-0.33147955062966794
1788861431662204700,6.91520458984375,3.134289374607801,2.284084165880084,0.019381503752991556
1788861431672211700,6.925211669921875,3.4135961453318595,2.099651727592945,0.21595194093827158
1788861431682217200,6.93521728515625,3.343813584053516,1.9066537055343389,0.13660071979314087
1788861431692224000,6.94522412109375,3.0819290727734563,1.7280597641423343,-0.16551966629074885
1788861431702230000,6.95522998046875,2.624926478540897,1.472064018639922,-0.4682449229326099
1788861431712237000,6.965237060546875,1.9638181927800178,1.1121841202929614,-0.5962047286957503
1788861431722243000,6.9752431640625,1.6723995439797639,0.6894467837557197,-0.6754091252487152
1788861431732249900,6.985249755859375,1.5448820020914076,0.46973932620882985,-0.6658697280090302
1788861431742255900,6.995255859375,1.149796642589569,0.5030208335638046,-0.6048497343789786
1788861431752263200,7.00526318359375,0.5406114362895489,0.567418779194355,-0.6761267719987779
1788861431762269000,7.01526904296875,0.5069909062385559,0.4107882478073239,-0.8203260571621358
1788861431772276000,7.02527587890625,1.0028782346606253,0.03663111004382372,-1.020045788691193
1788861431782282200,7.0352822265625,1.0547861165523529,-0.3557598958075046,-1.2293852892197668
1788861431792289000,7.0452890625,0.9928326414644718,-0.8055079888671636,-1.0925728263720869
1788861431802295000,7.055294921875,1.00917353541255,-1.2624123834222554,-0.7829674365613609
1788861431812302000,7.065302001953125,0.78902797870934,-1.571142232507467,-0.34342546102181076
1788861431822309000,7.07530908203125,0.43798459002971646,-1.7339368394821881,0.06165514972843229
1788861431832315000,7.08531494140625,-0.1929693804860115,-1.7569816149830817,0.32975678195767105
1788861431842322200,7.095322265625,-0.6758972740918398,-1.694068939474225,0.6477937538966536
1788861431852328000,7.105327880859375,-0.81782386508286,-1.5075100105524062,0.9574022124473005
1788861431862335000,7.1153349609375,-1.0587363154828549,-1.0619774893611669,1.1498724843047559
1788861431872341000,7.125341064453125,-1.317777712291479,-0.6320417657524346,1.380222916419059
1788861431882348000,7.13534814453125,-1.3351134624958036,-0.5750070423662662,1.7292543807543814
1788861431892354000,7.14535400390625,-1.5331272668898104,-0.8839794680356979,1.8216059167154133
1788861431902360800,7.15536083984375,-1.9521978976130485,-1.3070926521480082,1.3590060869976877
1788861431912367000,7.1653671875,-2.493803605636954,-1.7623738294154405,0.6362401672903448
1788861431922374000,7.175373779296875,-3.0072073015272616,-2.19261291988492,-0.25190138886086644
1788861431932380000,7.1853798828125,-3.2942636634647844,-2.6139479884088037,-0.9633169894490391
1788861431942387200,7.19538720703125,-3.451235847896337,-2.980581744930148,-1.1905826072905212
1788861431952393000,7.20539306640625,-3.4606747073709965,-3.3313428095370528,-0.7745203646030276
1788861431962400000,7.21539990234375,-3.789779235965013,-3.532393789669871,-0.09193192230947315
1788861431972406000,7.225406005859375,-4.354478819328547,-3.4617268467724323,0.4631480381850153
1788861431982413000,7.2354130859375,-4.399242674684524,-3.203380446490645,0.9212713800758123
1788861431992419000,7.245419189453125,-3.6728655056774615,-2.663373990356922,1.1048919905234127
1788861432002425900,7.25542578125,-2.547905782702565,-1.8697277041971683,0.7295076490525155
1788861432012433200,7.26543310546875,-1.3934300423860548,-1.1803402494132518,0.192295134486258
1788861432022439000,7.27543896484375,-0.6884393602788448,-0.7355459793686866,-0.11526903182044625
1788861432032446000,7.285446044921875,-0.49287528712451456,-0.5369628506541252,-0.1346593764670193
1788861432042452200,7.2954521484375,-0.533649196061492,-0.586729044342041,-0.07726977522857487
1788861432052459000,7.305458984375,-0.6001759704142808,-0.7534586526781321,-0.029527926975116133
1788861432062465000,7.315465087890625,-0.7856026804357766,-0.9060942692101002,-0.023986074938997626
1788861432072472000,7.32547216796875,-1.0588128878504037,-1.0481120456159114,-0.134607280953601
1788861432082478000,7.33547802734375,-1.2949199837952852,-1.072087379965186,-0.21224950622376054
1788861432092484900,7.34548486328125,-1.2453349918931722,-1.0249778382658958,-0.051561077748052776
1788861432102491000,7.355490966796875,-1.0214221916109323,-0.9426964454203843,0.2697384396508336
1788861432112498000,7.365497802734375,-0.9720897131651639,-0.9513146361619234,0.48655360982231793
1788861432122504000,7.37550390625,-1.0950462307482958,-1.0564093338400125,0.3905983502808958
1788861432132511000,7.385510986328125,-0.7996019796937703,-1.170983223003149,0.19278167589418588
1788861432142517000,7.39551708984375,-0.08159165701568126,-1.2998878353357315,0.17190003324393183
1788861432152524000,7.40552392578125,0.3935118265748024,-1.37531161737144,0.4891413978258147
1788861432162530000,7.415530029296875,0.45733869431912894,-1.189025075650215,0.9616717795252799
1788861432172537000,7.425537109375,0.2995855886429548,-0.9106979636132717,1.4080876594223082
1788861432182543000,7.435543212890625,-0.3369593337476253,-0.5998299334555864,1.7563754657834767
1788861432192550000,7.4455498046875,-1.3581360261648892,-0.3288081759959459,1.8403955189898609
1788861432202557200,7.45555712890625,-1.903712391385436,-0.23357728520631788,1.8557731208637356
1788861432212563000,7.46556298828125,-1.9693688126444815,-0.25583003354668615,1.9923694567427037
1788861432222570000,7.475570068359375,-1.8593939417093992,-0.3311024244129658,1.997163266890496
1788861432232576300,7.485576171875,-1.8031378014802932,-0.41657939842939373,1.8283564138889312
1788861432242583000,7.4955830078125,-1.5904980903625487,-0.48381812044382094,1.5269316271200775
1788861432252589000,7.505589111328125,-1.0765525426805018,-0.48632396578490733,1.2327151642948388
1788861432262596000,7.51559619140625,-0.5734592284023762,-0.4394634304106235,1.255140492723137
1788861432272602000,7.52560205078125,-0.1163940903276205,-0.4732780217289924,1.2246451089553534
1788861432282609000,7.53560888671875,0.54525312461555,-0.5561930363029242,0.886047141155228
1788861432292615000,7.545614990234375,1.423050104624033,-0.6360001479893922,0.5781812884882093
1788861432302622000,7.5556220703125,1.942085084399581,-0.44949850221276283,0.4939904818248003
1788861432312628000,7.5656279296875,1.7091648017972707,-0.1310205815732479,0.37731969344764943
1788861432322635000,7.575635009765625,1.5142898799508808,0.011271920120716095,0.2740078605983406
1788861432332641000,7.58564111328125,1.18584527657032,0.1731973430454731,0.38423677935972805
1788861432342648000,7.59564794921875,0.7143062074631452,0.10539338836371898,0.5335687512364238
1788861432352654000,7.605654052734375,0.26536241652369497,-0.3212538150936365,0.5996378814822062
1788861432362661000,7.6156611328125,0.4400789319604635,-0.741123487240076,0.40063203384354706
1788861432372667100,7.625667236328125,1.1457038203179835,-0.7667182394847274,0.10989347626194357
1788861432382674000,7.635673828125,1.2816647809028625,-0.29748218662291764,0.15859540171921252
1788861432392681200,7.64568115234375,0.6013783319413661,0.49282180337160825,0.5328239972837269
1788861432402687000,7.65568701171875,0.0477010778516531,1.0441291134595871,1.1423417234737425
1788861432412694000,7.665694091796875,-0.34485037925839424,0.8452154376164078,1.5798901871085167
1788861432422700000,7.675699951171875,-0.10857026483416557,0.0489426023453474,1.6001777728557585
1788861432432707000,7.68570703125,0.9785375741302966,-0.663738926525414,1.3238484105072914
1788861432442713000,7.695713134765625,2.0902491084754464,-1.0111623711422084,0.9445264373265206
1788861432452719900,7.705719970703125,1.6890660166203975,-1.138970420409739,0.5006055891156196
1788861432462726100,7.71572607421875,0.3483095798015594,-1.1094902050338684,0.11865779747590421
1788861432472733000,7.72573291015625,-0.3786649705767631,-1.2690351625628769,0.013335866913199424
1788861432482739000,7.735739013671875,0.3524877422690391,-1.5808125626504421,-0.033576983170211315
1788861432492746200,7.745746337890625,1.627318293237686,-1.7526676973067223,-0.06410787664279341
1788861432502752000,7.755751953125,3.0640134768545626,-1.6204079293273388,-0.14196063939109443
1788861432512759000,7.765759033203125,3.90090210789144,-0.8949399841196835,-0.4971355749174952
1788861432522764800,7.775764892578125,3.1923896813988684,-0.037378421279788014,-0.5626059720851481
1788861432532772000,7.785772216796875,3.0542484541654584,0.32825419537499545,-0.4589429146453738
1788861432542778000,7.795778076171875,4.050696948039532,0.3357499579578638,-0.36967078612968324
1788861432552785000,7.805784912109375,4.272314915382862,0.4348633162040263,-0.3268060423932969
1788861432562792000,7.8157919921875,3.242156459608674,0.5201191217504442,-0.7961772659420967
1788861432572798000,7.8257978515625,3.173578013423085,0.4236296822670847,-1.451458891376108
1788861432582805000,7.835804931640625,3.3325106842726466,0.3395312300622463,-1.4417884151026605
1788861432592811000,7.84581103515625,3.029028672713041,0.39657457514628763,-1.286459029442072
1788861432602818000,7.855818115234375,2.9809575925052165,0.825716371898353,-1.0052340040065348
1788861432612824000,7.865823974609375,2.6404034491360187,1.3117591826543211,-0.5691247063294053
1788861432622831000,7.8758310546875,2.957869562384486,1.4589568459160625,0.012025734162703156
1788861432632837000,7.885837158203125,3.410879872110486,1.395544550321996,0.7654622480742633
1788861432642844000,7.895843994140625,3.489018173801899,1.381832397442311,1.0855220310777425
1788861432652850000,7.905849853515625,3.364828899553418,1.6392127291709184,0.6796663443017751
1788861432662857000,7.91585693359375,3.1884874132633207,1.8937170670717953,0.10140746053270995
1788861432672863000,7.925863037109375,3.5717075629264112,1.8869374899342655,-0.22461948724687097
1788861432682870500,7.93587060546875,3.757237148800492,1.7624091929897665,-0.5091533449694514
1788861432692876500,7.94587646484375,2.562941439270973,1.5284583982959388,-0.7034807159356773
1788861432702883600,7.955883544921875,1.6396376765847205,1.098775772665441,-0.7211288930900395
1788861432712889600,7.9658896484375,1.5737065300375221,0.6773372437670826,-0.6985878293275832
1788861432722896600,7.975896728515625,1.7604396464824676,0.5266089221611618,-0.4368696145251393
1788861432732902400,7.98590234375,2.089125657403469,0.5257797778606415,0.01556080838709604
1788861432742909700,7.99590966796875,1.8535037146270275,0.51767918125242,0.22019871166255323
1788861432752916500,8.00591650390625,1.2693804688692092,0.4099988509953022,0.1163782534376718
1788861432762922500,8.015922607421874,0.7165560322165488,0.18521102144420146,-0.20717678780304266
1788861432772929800,8.0259296875,0.1777016687273979,-0.049800680479407305,-0.6601910247854889
1788861432782935600,8.035935546875,0.22195874360501766,-0.4165986876517534,-0.7848140142761171
1788861432792942600,8.045942626953124,0.7272253102689981,-0.8661673324912786,-0.5914256046604365
1788861432802948600,8.055948486328125,0.7098539042294025,-1.365868666243553,-0.5072949306864292
1788861432812955600,8.06595556640625,0.3973457056492567,-2.0023270793944596,-0.4331458447616547
1788861432822961700,8.075961669921876,0.10047580570578575,-2.6761452091246842,-0.3353524465402588
1788861432832968700,8.08596875,-0.18332009313106537,-3.150104783377051,-0.2949633356697857
1788861432842974700,8.095974609375,-0.5772779099076986,-3.297416574537754,-0.12247907279711216
1788861432852981500,8.1059814453125,-1.0212047494679688,-3.092904055774212,0.13114245438724756
1788861432862987500,8.115987548828125,-1.2002367900162934,-2.68404209985435,0.4859349664673209
1788861432872994600,8.12599462890625,-1.1716256125599145,-2.2476538391053675,0.8484874450244009
1788861432883000600,8.13600048828125,-1.1785241399019957,-1.8149673554837702,0.9709965111009776
1788861432893007600,8.146007568359375,-1.5321516998559235,-1.2958078725457192,0.585242605176568
1788861432903014700,8.1560146484375,-1.9301795425504444,-0.8439549161612987,0.030365473777800796
1788861432913020700,8.166020751953125,-2.157505950668454,-0.5252057773649692,-0.25617066367790103
1788861432923027500,8.17602734375,-2.322652089205384,-0.33946342552304265,-0.2041968769431114
1788861432933033700,8.18603369140625,-2.5317168644458055,-0.3284463569462299,0.14806012530997395
1788861432943040500,8.19604052734375,-3.053007514193654,-0.5987181728214025,0.6010588176634162
1788861432953046500,8.206046630859374,-3.5988469142645596,-1.0230319648951292,1.0303734867643564
1788861432963053800,8.2160537109375,-3.66182680979073,-1.4671213015407323,1.3420426772370935
1788861432973059600,8.2260595703125,-3.3175106835395094,-1.824225597694516,1.24799661231786
1788861432983066600,8.236066650390624,-2.7048879040062426,-1.9700141248106955,0.8199290937338024
1788861432993072400,8.246072265625,-2.0949252835929393,-2.095213452884555,0.43297611421793697
1788861433003079700,8.25607958984375,-1.6651871283829212,-2.1029946082800626,0.22708887303508818
1788861433013085700,8.266085693359376,-1.5136024822086096,-2.034585088920593,0.15206212749294937
1788861433023092500,8.276092529296875,-1.8720938488066194,-1.7756249406546354,0.027404724276065825
1788861433033098800,8.2860986328125,-2.329611991345882,-1.3657529309093952,0.05311199698448181
1788861433043105500,8.29610546875,-2.604302208185196,-1.0901491063565014,0.41344782240539785
1788861433053111600,8.306111572265625,-2.7206623962432146,-0.9815683201283216,0.7540004314046352
1788861433063118600,8.31611865234375,-2.4587761313974856,-0.970006477150321,1.0357594906516372
1788861433073124600,8.32612451171875,-1.964996588909626,-0.9911357744187116,1.1875401708547024
1788861433083131600,8.336131591796875,-1.6531436393678187,-1.0791337913453578,1.0711565288558602
1788861433093138700,8.346138671875,-1.5587462767928837,-1.203065291440487,0.5986779138762504
1788861433103144700,8.356144775390625,-1.2441413981944323,-1.3722721035450696,0.09342143021486699
1788861433113151500,8.3661513671875,-0.5155231722623109,-1.4891817421793936,-0.13016889664735645
1788861433123157500,8.376157470703125,0.3175666510134935,-1.5458926404386757,-0.21075134008787572
1788861433133164500,8.38616455078125,0.8996370558947324,-1.4410200610786676,-0.21304759779889135
1788861433143170600,8.396170654296874,0.9936422042816877,-1.2407768901973961,0.003009118688106537
1788861433153177600,8.406177490234375,0.7782511486291885,-1.025173068577051,0.6145612002499401
1788861433163183600,8.41618359375,0.5362561636894941,-0.8774749084472656,1.2993531439371406
1788861433173190700,8.426190673828126,0.21563246319293974,-0.7112374675422907,1.6382720873199403
1788861433183196700,8.43619677734375,-0.16891864281296728,-0.5096604177087545,1.7246574083529411
1788861433193203700,8.44620361328125,-0.6121423025399446,-0.33321079486906524,1.601243940782547
1788861433203209700,8.456209716796875,-0.9314461526095866,-0.14603753344118595,1.326095751042664
1788861433213216500,8.466216552734375,-1.1257055729061365,0.06772855135798454,1.0164628887031226
1788861433223222500,8.476222412109376,-1.1378396628141403,0.0827098473906517,0.8288307045266031
1788861433233229600,8.4862294921875,-1.2552163344383238,-0.07565700626969336,0.6923817412290721
1788861433243235600,8.496235595703125,-1.5903028600513933,-0.19143033435046672,0.6096804790036753
1788861433253242400,8.506242431640626,-1.626417545005679,-0.36595980278253554,0.5492207130722702
1788861433263249700,8.516249755859375,-1.1144266385227442,-0.5127285731077194,0.44872298779562114
1788861433273255700,8.526255615234374,-0.025074235501885412,-0.5484551355272531,0.237192059903685
1788861433283262500,8.536262451171876,1.2416980966955422,-0.5111047712981701,0.05818697129436768
1788861433293268700,8.546268798828125,1.9072288750737905,-0.3481950135111809,0.23873633020361884
1788861433303275500,8.556275634765624,1.3060510341405869,-0.16220950056314468,0.6836575328297912
1788861433313281500,8.566281494140625,0.18339374288916588,-0.34706834756880994,0.9745083186142146
1788861433323288600,8.57628857421875,-0.28134090690016744,-0.6001061200484633,0.8511049340464174
1788861433333294600,8.586294677734376,-0.43829380210936064,-0.7308727268606424,0.6005980317512527
1788861433343301600,8.596301513671875,-0.22613222989737986,-0.6873243847742676,0.4689862428192049
1788861433353307400,8.606307373046874,0.1782896977484226,-0.6101806470781564,0.5340481687838211
1788861433363314700,8.616314697265626,0.5378507394045591,-0.604139028826356,0.714480102725327
1788861433373320700,8.62632080078125,1.068335333955288,-0.8381020984798669,0.822414919200167
1788861433383327500,8.636327392578124,1.914642950722575,-1.2112260938033461,0.9048294369060546
1788861433393333800,8.646333740234375,2.2745336627244948,-1.4911287845939396,0.942169864263013
1788861433403340500,8.656340576171875,1.9530705887943505,-1.468279823926091,0.8838640249624848
1788861433413346600,8.6663466796875,1.1259113246113062,-1.0816440206006168,0.882052226300165
1788861433423353600,8.676353515625,0.41363457714915275,-0.5551625242114067,1.014375268774107
1788861433433360600,8.686360595703125,0.2252455101907253,-0.16786445758491753,1.0018446538291872
1788861433443366400,8.696366455078126,0.7236462827384471,-0.12412965301573275,0.6535111086301505
1788861433453373700,8.706373779296875,1.1955214519321917,-0.3772134565941989,-0.07276011578440665
1788861433463379700,8.716379638671874,1.6323533647954462,-0.7144324641913176,-0.7507004400111734
1788861433473386500,8.726386474609376,2.0714199048429727,-0.8328180205971002,-1.0408516992241144
1788861433483392800,8.736392822265625,1.9023329197257757,-0.7577274160385131,-1.0344564452290534
1788861433493399600,8.746399658203124,1.4207704692542553,-0.5578779206499457,-0.8266470768772065
1788861433503405600,8.756405517578125,1.867139441269636,-0.3139459762983024,-0.6020018706671894
1788861433513412600,8.76641259765625,3.3813913272976874,-0.21482458087615666,-0.4277896514907479
1788861433523418600,8.776418701171876,4.5493806291818615,-0.01020619058534503,-0.3798933433279395
1788861433533425700,8.78642578125,3.9462785421878097,0.23549217891693114,0.03480243331193924
1788861433543431400,8.796431396484374,3.4746213996589184,0.27256080359518525,0.6306738384000956
1788861433553438700,8.806438720703126,4.338237878623604,0.4440718740541488,0.6444201858103275
1788861433563444700,8.81644482421875,4.536595966410637,1.037373720915243,-0.20920769084244964
1788861433573451500,8.826451416015624,3.8209985500931736,1.3519799877531826,-0.9360954397201537
1788861433583457800,8.836457763671875,3.4508103159606454,1.1802410998877138,-1.0560695804916322
1788861433593464600,8.846464599609375,3.550819673198461,0.9451733569279313,-0.8954483720332383
1788861433603471600,8.8564716796875,3.4319758516311643,1.1484531190261245,-0.693639413139969
1788861433613477600,8.8664775390625,3.1939784118950367,1.5000196547970175,-0.2777288538828492
1788861433623484700,8.876484619140625,3.4844121413111684,1.8593180999942123,-0.0072180416200309985
1788861433633490700,8.88649072265625,3.7819735306501387,2.1630200379148126,0.08642952550090849
1788861433643497700,8.896497802734375,3.4030174681723118,2.212099710643291,0.03250043997988104
1788861433653503700,8.906503662109374,3.0999463755011556,2.1544174831338228,-0.11214498151578009
1788861433663510500,8.916510498046875,3.0091116738438606,1.976828188739717,-0.15204371505342423
1788861433673516500,8.9265166015625,2.65140415109992,1.7163754638284443,-0.08262797779347747
1788861433683523000,8.936523193359376,2.136127062553167,1.3492556773558257,0.027722338857874274
1788861433693529300,8.946529296875,1.8393980323851107,0.8680489084541797,-0.028627251808345317
1788861433703536400,8.956536376953125,1.783156505203247,0.34003567245304583,-0.23952253041155636
1788861433713542100,8.966542236328126,1.5139303989887236,-0.345611719019711,-0.2784910338943824
1788861433723549400,8.976549560546875,1.2188216634988784,-1.083678449037671,-0.17374953356813638
1788861433733555200,8.98655517578125,1.1070236687898636,-1.626005749334395,-0.40703452129699286
1788861433743562200,8.996562255859375,0.93252167288661,-1.8077888421565294,-0.7523328635185956
1788861433753568300,9.006568359375,0.7773837181448936,-1.656779950043559,-0.6467883762463927
1788861433763575300,9.0165751953125,0.7547486924886703,-1.3139520165234804,-0.34879568281807005
1788861433773581300,9.026581298828125,0.7467682151287793,-0.9238000217705965,-0.06672651644228025
1788861433783588000,9.036588134765625,0.7301397364109754,-0.6074708035975694,0.3554145164359361
1788861433793595400,9.046595458984376,0.5817191072255372,-0.40971711144447326,0.7749806755911558
1788861433803601200,9.05660107421875,0.19103578207492827,-0.42948038105666636,0.9714352678444236
1788861433813608200,9.066608154296874,-0.11932137595117091,-0.7693512183368205,1.171072654852271
1788861433823614500,9.076614501953125,-0.22841771048605441,-1.3909277041763066,1.3182821546822785
1788861433833621200,9.086621337890625,-0.48714989521503443,-2.0999784753292796,1.303571784545481
1788861433843627300,9.096627197265626,-0.9156067784428596,-2.6907284457504748,1.2406548712529242
1788861433853634300,9.10663427734375,-1.4697732773542402,-3.072554510706663,1.0950476189877838
1788861433863640300,9.116640380859375,-2.2466958077281713,-3.1954987533301114,0.8433250938251614
1788861433873647000,9.126647216796876,-2.8550416405946013,-3.125406979972124,0.6985542193189263
1788861433883653000,9.136653076171875,-3.310214681312442,-3.0281320161342618,0.6223433054935187
1788861433893660400,9.146660400390624,-3.4869507198780774,-2.9179087233960628,0.65633756422773
1788861433903666200,9.156666259765625,-3.687305534440279,-2.6914006459236144,0.5082223842622712
1788861433913673200,9.166673095703125,-4.184633124798536,-2.312814585801959,-0.02677355023305863
1788861433923679200,9.17667919921875,-4.656560316440463,-1.8781869049847124,-0.4945419416951015
1788861433933686300,9.186686279296875,-4.362520086964965,-1.7568471749484538,-0.41953671386502683
1788861433943692300,9.1966923828125,-3.1578625578969715,-1.9960329476863146,0.16779979485087096
1788861433953699300,9.20669921875,-2.0817489911556244,-2.5012580132961273,0.9121068074978887
1788861433963706400,9.216706298828125,-2.0387036301553247,-2.772851433163881,1.2528881837517023
1788861433973712100,9.226712158203124,-2.4242852482527493,-2.5044337207227945,1.2377968514733015
1788861433983719400,9.236719482421876,-2.7323464042961594,-1.9062720127403734,0.8755580419752746
1788861433993725200,9.24672509765625,-2.5787112553328275,-1.4194623092651366,0.489031982634589
1788861434003732200,9.256732177734374,-1.9197902504831552,-1.0969897660315036,0.39047465083599087
1788861434013738200,9.26673828125,-1.2038345222473144,-0.8794026616394519,0.44742962351683524
1788861434023745300,9.276745361328125,-0.6727770962446927,-0.7263169632524251,0.5251963154168799
1788861434033751300,9.286751220703126,-0.5004302325487137,-0.5679167918443679,0.5706831878177822
1788861434043758000,9.296758056640625,-0.524601966252923,-0.42716099819839,0.6773219000674784
1788861434053764400,9.306764404296874,-0.6415051751464605,-0.4125046963363886,0.7849911244086921
1788861434063771100,9.316771240234376,-0.6805535754650831,-0.5342220275133848,0.7606264984808861
1788861434073777200,9.326777099609375,-0.40721068158149715,-0.8467728961914778,0.7483860986541956
1788861434083784400,9.336784423828124,-0.08226853336393833,-1.1510808371812105,0.7287968704346567
1788861434093790200,9.346790283203125,0.12516776389181614,-1.193572071430087,0.6062073230003938
1788861434103797200,9.35679736328125,0.09318915582895278,-1.1021037480443716,0.46741285602264104
1788861434113803300,9.36680322265625,-0.16356617586910724,-0.9418862980812788,0.4999021170213818
1788861434123810300,9.376810302734375,-0.25632395454347134,-0.8949562046021222,0.8399178426649421
1788861434133817000,9.386817138671875,-0.14350655365884304,-1.010911318990588,1.2978088371045886
1788861434143823000,9.396822998046876,-0.22984628198444843,-1.1347773526340723,1.6133135871522128
1788861434153830400,9.406830322265625,-0.6856517753869295,-1.1951105330437422,1.5656176238670945
1788861434163836200,9.416836181640624,-1.246498774975538,-1.1957751344323158,1.304019820573926
1788861434173843200,9.42684326171875,-1.871333970350027,-1.233994098189473,1.2591245939232407
1788861434183849200,9.43684912109375,-2.202676633259654,-1.308859077298641,1.3143024373963474
1788861434193856300,9.446856201171874,-1.8384189582198858,-1.2986544941484928,1.0973986390933395
1788861434203862300,9.4568623046875,-0.821408153310418,-1.267484279859066,0.7250352528788149
1788861434213869300,9.466869384765625,0.37828152421712874,-1.2653741558372973,0.361194268881157
1788861434223875300,9.476875244140626,1.2585299890309571,-1.1319880141764878,0.19327081111799924
1788861434233882000,9.486882080078125,1.404673905456066,-0.8991600860327482,0.1981874987267889
1788861434243888400,9.496888427734374,0.6867816561996937,-0.7881295685648918,0.4595494291711598
1788861434253895200,9.506895263671876,-0.5890922663420438,-0.8352513852238654,0.8233288922399282
1788861434263901200,9.516901123046875,-1.3629384580105541,-0.8619955997645854,0.8992322744861244
1788861434273908500,9.526908447265624,-1.11204704990983,-0.9148068602368236,0.6768637079712003
1788861434283914200,9.536914306640625,-0.005288754057884216,-1.0729992341130972,0.4178865720378235
1788861434293921300,9.54692138671875,1.5539812543481588,-0.9213964677602052,0.24254885596279052
1788861434303928300,9.55692822265625,2.5857167501807212,-0.5959355563655495,0.2646855036428198
1788861434313934300,9.566934326171875,2.771652578768134,-0.3123626526296139,0.49335576411783694
1788861434323941000,9.576941162109375,2.484144965931773,-0.08010054167509079,0.8571591925840825
1788861434333947100,9.586947021484375,2.3666204102694985,0.0001949380502104759,1.1385622780002653
1788861434343954400,9.596954345703125,2.440235097056627,-0.11289075838178396,1.1144897668868303
1788861434353960200,9.606960205078124,2.235568849036097,-0.3976543332070112,0.8887996547337621
1788861434363967200,9.61696728515625,1.4295593403875826,-0.5274421581149101,0.5371106616269796
1788861434373973200,9.62697314453125,0.7304331663995981,-0.4965881701678037,0.2704217457398772
1788861434383980300,9.636980224609376,0.6057201605379581,-0.5849659801922739,0.24051029933989046
1788861434393986300,9.646986328125,1.1282061575502156,-0.7524503524184226,0.30547713089957834
1788861434403993300,9.656993408203125,1.7640899856835603,-0.9621233226850628,0.1789078296467662
1788861434413999400,9.666999267578126,1.953578538316488,-0.827104026864469,-0.2523109195098281
1788861434424006100,9.677006103515625,1.6891671389073133,-0.13429624224305153,-0.40992856223806734
1788861434434012200,9.68701220703125,1.006847722813487,0.5675070419996977,-0.08475435883030295
1788861434444019200,9.697019287109375,1.1374866115927695,0.8972134820096194,0.05414367811977863
1788861434454025200,9.707025146484375,2.981344545996189,1.1414476972434668,-0.23254881894141435
1788861434464032300,9.7170322265625,4.214645985746383,1.2405538950964807,-0.675168521425873
1788861434474038300,9.727038330078125,3.7740386459976434,1.076561968095973,-0.7100999879449605
1788861434484045300,9.73704541015625,3.592217851513624,0.1981635881282389,-0.374015683466196
1788861434494051300,9.74705126953125,3.9291280854225157,-0.5995197715278715,-0.4677513672620058
1788861434504058400,9.757058349609375,3.3829835649251936,-0.46720323185995216,-0.8146898048408329
1788861434514065200,9.767065185546874,2.3105156612098217,-0.029894714460894464,-0.8133040495708584
1788861434524071200,9.7770712890625,2.7532138357579705,0.21193733500204978,-0.534178772893548
1788861434534078500,9.787078369140625,3.8116380165517327,0.42624541772343216,-0.33773309459909795
1788861434544084200,9.797084228515626,4.066207236382365,0.6156564481407404,-0.04798106383681297
1788861434554091300,9.80709130859375,3.7228000416696068,0.8446171794623136,0.19333894445076583
1788861434564097300,9.81709716796875,3.7496775272011753,1.2397167136199772,0.15653978436365723
1788861434574104300,9.827104248046876,3.9550779347151517,1.560027256514132,0.08377893792688847
1788861434584110300,9.8371103515625,3.974914854085445,1.846480976383388,0.07129296584129333
1788861434594117000,9.8471171875,3.7169057229340074,2.24506163065508,-0.07765797082856297
1788861434604123400,9.857123291015625,2.8064409835547206,2.5968507231354714,-0.146572663231194
1788861434614130200,9.867130126953125,1.9902794987261294,2.592699740935862,0.17516674342229963
1788861434624136200,9.87713623046875,2.17731948916316,2.0202160795673727,0.8721575128167867
1788861434634143200,9.887143310546875,2.8421763138025997,1.1047148073256015,1.320569681097567
1788861434644149200,9.897149169921875,3.4381928264498707,0.18387305083870886,0.9996450248930603
1788861434654156300,9.90715625,3.8245442598760127,-0.5611363379240035,0.12008585751764475
1788861434664162000,9.917162109375,3.218121504026651,-1.0771055003881453,-0.7747691517323255
1788861434674169300,9.92716943359375,2.149554699403047,-1.465434079106152,-1.2798917798809706
1788861434684175600,9.937175537109376,1.466663036379218,-1.494886091300845,-1.3281244803912937
1788861434694183000,9.947182861328125,1.2639794866085052,-1.08542412366122,-1.0083454870905726
1788861434704189700,9.957189697265624,1.2000041503041983,-0.535879731592536,-0.43424441712070255
1788861434714195700,9.96719580078125,1.1083698227018117,-0.11931669977605343,0.13166434110319242
1788861434724202800,9.97720263671875,0.8872346704393624,0.08753449106812476,0.5327209753006696
1788861434734208800,9.987208740234376,0.6802215670317411,-0.0355839390784502,0.8089178703758865
1788861434744216000,9.997216064453125,0.36056115860939025,-0.5236147087812424,0.8901354333821684
1788861434754221800,10.007221923828125,-0.21076222680807113,-1.310077220916748,0.7790478519648313
1788861434764228900,10.017228759765626,-0.8623515735954046,-2.1584692427426577,0.653063510993123
1788861434774235000,10.02723486328125,-1.3839964436084031,-3.0216052447140216,0.5329777265407145
1788861434784242000,10.037241943359374,-1.988929837682843,-3.8088790732324123,0.33204226254634556
1788861434794248000,10.047248046875,-2.9874650747030973,-4.369471805799007,-0.1796951075669378
1788861434804254700,10.057254638671875,-4.249725482434034,-4.6970787893116475,-0.9676271077331154
1788861434814261000,10.067260986328124,-5.114439693507552,-4.847366965934634,-1.525621421304345
1788861434824267800,10.077267822265625,-5.442242491853237,-4.718406824022531,-1.5537250876300035
1788861434834273800,10.087273681640625,-5.261332966995239,-4.2168548939675095,-1.1387938947990537
1788861434844280800,10.09728076171875,-4.678059616065025,-3.4922038181006907,-0.5748038479443639
1788861434854286800,10.107286865234375,-4.0198318541765214,-2.7083628866404292,-0.2458803019404411
1788861434864294000,10.1172939453125,-3.337664998295903,-1.9608564203649759,-0.14049597366601227
1788861434874299600,10.127299560546875,-2.3321055617272854,-1.2806886293470858,0.05267864706851542
1788861434884307000,10.137306884765625,-0.9222323340624571,-0.869641146081686,0.3315112974748015
1788861434894313000,10.14731298828125,-0.012827917391061781,-0.6597562866300344,0.3672780457742512
1788861434904319700,10.15731982421875,0.16084814908206463,-0.5129974531769752,0.2681694367684424
1788861434914326800,10.167326904296875,-0.21900047832131384,-0.4846458034396171,0.3741732851807028
1788861434924332800,10.177332763671876,-0.954129693582654,-0.4508680370002985,0.6021060616940259
1788861434934339800,10.18733984375,-1.8235908069223163,-0.4322445850729942,0.8859520832829176
1788861434944345900,10.197345947265624,-2.523799515450001,-0.5864373679190874,1.274188745933771
1788861434954353000,10.207352783203126,-3.134714906543493,-0.8708966991007328,1.5377131333753467
1788861434964359000,10.21735888671875,-3.5911668811559676,-1.1094126097530126,1.3503700683385134
1788861434974366000,10.227365966796874,-3.45973479617238,-1.2388222489982843,0.8564842889972031
1788861434984372000,10.2373720703125,-2.9231594835311174,-1.3681763586640356,0.2929731117006391
1788861434994378800,10.247378662109375,-2.435589901599288,-1.5377233625084161,-0.17131752064824105
1788861435004384800,10.257384765625,-1.9934306562334299,-1.7763409799695014,-0.4833826516360044
1788861435014391800,10.267391845703125,-1.2495879731625317,-2.1609482000768185,-0.7618131509821862
1788861435024397800,10.277397705078124,-0.47679392089545725,-2.2945962075442075,-1.1319603224519639
1788861435034404900,10.28740478515625,-0.06847849294245242,-2.1531863339036703,-1.3567483711987733
1788861435044411000,10.297410888671875,0.2222048273205757,-1.9483616804510353,-1.0605956796139477
1788861435054418000,10.30741796875,0.6599743132948875,-1.7973364217251537,-0.42974231992848216
1788861435064423700,10.317423583984375,1.1497604022324084,-1.6425287218511104,0.38865985649898643
1788861435074431000,10.327430908203125,1.056904423880577,-1.4382488427996634,1.2203205968197435
1788861435084437000,10.33743701171875,0.41918578153550623,-1.104697271668911,1.6526009107932447
1788861435094443800,10.34744384765625,-0.4484662365555763,-0.7082616666018963,1.6591798507921396
1788861435104449800,10.35744970703125,-1.4232359825849532,-0.38462884741723535,1.5119820413999259
1788861435114456800,10.367456787109376,-2.311410564222932,-0.16725567803680896,1.373873109000921
1788861435124463900,10.3774638671875,-2.7753625392019745,-0.15027531714141368,1.289340137836337
1788861435134469600,10.3874697265625,-2.4570453620821238,-0.4505325214356184,1.1894620057627558
1788861435144477000,10.397476806640626,-1.2154437114983796,-0.8508405840218066,0.9530999121434987
1788861435154483000,10.40748291015625,0.39747254689931866,-1.099553479039669,0.594414630408585
1788861435164489700,10.41748974609375,1.5750836636096237,-1.0892875210911035,0.11532938370555638
1788861435174496000,10.42749609375,2.1119185039699078,-0.8382365385144949,-0.23098131389636545
1788861435184502800,10.437502685546875,2.2318828539997337,-0.3545359069705009,-0.30355763407908376
1788861435194508800,10.4475087890625,2.068288036558032,0.35941432666182516,0.011547613523248582
1788861435204515800,10.457515869140625,1.3143676115870475,0.5472641721770167,0.2908839026027359
1788861435214521900,10.46752197265625,0.39333880809545513,0.2501777068734169,0.42436194206438954
1788861435224529000,10.47752880859375,0.06015197862386703,-0.27545214112252,0.37220567490216344
1788861435234534700,10.48753466796875,0.2794084775328636,-0.6542427839055657,0.07294906248524785
1788861435244542000,10.4975419921875,1.0812661271989346,-0.6826996475830673,-0.2533232748901471
1788861435254547700,10.507547607421875,1.6134452507078647,-0.37215135089904067,-0.2700435966098681
1788861435264554800,10.5175546875,0.9280115019857883,-0.09244476720243693,0.21763934603594243
1788861435274561000,10.52756103515625,0.0626408728301525,-0.022858020757138726,0.8729337578862905
1788861435284567800,10.53756787109375,0.23008067526221274,0.10789105039834976,1.2826470699384809
1788861435294573800,10.54757373046875,0.741367817389965,0.189271987272799,1.3147756078660486
1788861435304580900,10.557580810546876,1.679544155037403,0.03731704648137092,0.9918445072099565
1788861435314587000,10.5675869140625,2.302738012945652,-0.2602908123478293,0.4570096084952354
1788861435324593700,10.57759375,1.4473574474066495,-0.6295727452903985,0.021494404253736138
1788861435334599700,10.587599609375,-0.12459785504937171,-1.0566007647588849,-0.20719627795480192
1788861435344607000,10.59760693359375,-0.795382316172123,-1.566685983750969,-0.4808389585025608
1788861435354613800,10.60761376953125,0.40838790866732594,-1.7947896598517894,-0.8479900168962776
1788861435364619800,10.617619873046875,2.508216161870956,-1.4823165325850247,-1.0469684285387397
1788861435374626800,10.627626708984375,3.6016461895942684,-0.7694652001053094,-0.9328240168340504
1788861435384632800,10.6376328125,3.430031147304177,-0.10367153300717473,-0.7464343069992959
1788861435394639600,10.6476396484375,3.0789123553007838,0.057242374787479636,-0.6300120134904981
1788861435404646000,10.65764599609375,3.7063428278654813,0.010033391301706433,-0.48239174090251324
1788861435414653000,10.66765283203125,4.57554967418313,0.19520013521276414,-0.0703185678511858
1788861435424658700,10.67765869140625,4.213728286379576,0.7620278897114098,0.4391927967756986
1788861435434666000,10.687666015625,3.478499702396989,1.41638319408074,0.15933540643155575
1788861435444671700,10.697671630859375,3.105287152007222,1.4794804323762654,-0.7787196429237723
1788861435454678800,10.7076787109375,3.0650632781684397,0.9661261285856365,-1.3600060578204691
1788861435464685000,10.71768505859375,3.51924789237082,0.778173699478805,-1.1454065909370779
1788861435474691800,10.72769189453125,3.8038673825502394,0.946224765677005,-0.8280231875360011
1788861435484697900,10.73769775390625,3.623699031448364,1.1083097630776464,-0.5120028891816735
1788861435494705000,10.747704833984375,2.8362498463630677,1.2453802923396229,-0.053263461219146845
1788861435504711000,10.7577109375,2.8039105882942676,1.3156402618713676,0.406776016491279
1788861435514717700,10.7677177734375,3.5217163283109665,1.165715365602821,0.8196912663899362
1788861435524723700,10.7777236328125,3.8481016610741614,0.9679004447817802,0.9490805934995412
1788861435534731000,10.78773095703125,3.921922684088349,0.8916374354429543,0.6265415609009564
1788861435544736800,10.79773681640625,3.523610179233551,0.9505515428349375,-0.12280169234760105
1788861435554743800,10.807743896484375,2.7062778970599175,0.9279995192870497,-0.8652204800952226
1788861435564750000,10.81775,2.3266274225771424,0.7213105332672596,-1.2936156231984495
1788861435574756900,10.8277568359375,2.2758266251444814,0.534656327277422,-1.4062635127350687
1788861435584763000,10.837762939453125,2.1474118421554564,0.37771453798413274,-1.2901591991342602
1788861435594770000,10.84777001953125,2.1288404126763343,0.2559092362627387,-1.005649672135338
1788861435604776000,10.85777587890625,2.0444260994553565,0.14597352829426527,-0.6099505281167105
1788861435614782700,10.86778271484375,1.6781693595528602,-0.027435996197164057,-0.16431558773061258
1788861435624788700,10.877788818359376,1.5909516793489455,-0.1891051062732935,0.06265050830817781
1788861435634796000,10.887796142578125,1.6599094802409409,-0.3165451990112662,0.09734936251463368
1788861435644802800,10.897802734375,1.5487860237926243,-0.40543841121196744,0.06881862988332287
1788861435654808800,10.907808837890625,1.0947124687492846,-0.4660328729063272,-0.020073486338835208
1788861435664815900,10.91781591796875,0.5448690937340259,-0.6787555861324072,-0.09843235371205955
1788861435674822000,10.92782177734375,0.3157330058455467,-1.1225427249610422,-0.03475209136418998
1788861435684828200,10.937828125,0.2550152100324631,-1.6759125205367802,0.07378101979736239
1788861435694834200,10.947834228515624,0.059227264994382856,-2.157510042321682,0.15797047475390136
1788861435704841200,10.95784130859375,-0.33686230311393733,-2.5046201832056045,0.2723882235072553
1788861435714847200,10.96784716796875,-0.8487439040035009,-2.6270406942158937,0.4514837577458471
1788861435724854300,10.977854248046874,-1.4060153831928968,-2.6328321370989083,0.6215333773501217
1788861435734860300,10.9878603515625,-1.9544886388987301,-2.479569913101196,0.652357554680854
1788861435744867300,10.997867431640625,-2.4627678313821555,-2.272366255557537,0.4505233152158558
1788861435754873300,11.007873291015626,-3.037055911824107,-2.106831409963965,0.14031009570509195
1788861435764880100,11.017880126953125,-3.7642210163384675,-2.09609900354743,-0.17844598428867756
1788861435774886100,11.02788623046875,-4.3942672243595124,-2.2729864332824943,-0.29627792539969083
1788861435784893200,11.03789306640625,-4.7684033193349835,-2.5417688873827458,-0.1638711866976693
1788861435794899200,11.047899169921875,-4.660391272905469,-2.818365230104327,0.2018413633255288
1788861435804906200,11.05790625,-4.472959652802348,-2.984080108439922,0.6355892291009426
1788861435814912300,11.067912353515625,-4.285767102152109,-3.0015865390360355,0.9757480164770036
1788861435824919300,11.077919189453125,-3.71386094841063,-2.8660803364813328,1.1405796091720461
1788861435834925000,11.087925048828126,-2.594768071642518,-2.5919068369925022,1.2467983424440026
1788861435844932400,11.097932373046875,-1.9465368031114338,-1.9689286676615476,0.7983912156645208
1788861435854938400,11.1079384765625,-1.78494105053246,-1.1779308501839636,0.07538798006996512
1788861435864945200,11.117945068359376,-1.4012866011053322,-0.8986527210325003,0.2359907030235976
1788861435874951200,11.127951171875,-0.9069353962093591,-0.8237129231214523,0.7585216351561248
1788861435884958200,11.137958251953124,-0.6372942794531583,-0.6323123993873596,0.8875766157448292
1788861435894964200,11.147964111328125,-0.8941934035360812,-0.5636135416924953,0.4483270472805947
1788861435904971000,11.157970947265625,-1.2235732419401406,-0.5856506014555692,-0.19773601036593316
1788861435914977300,11.167977294921876,-1.2893728710621595,-0.6557838758677244,-0.6161426242224872
1788861435924984300,11.177984375,-1.142810436964035,-0.7204828502714633,-0.6630237639933824
1788861435934991000,11.1879912109375,-1.0286726011306047,-0.8286059558600187,-0.5697916458055376
1788861435944997400,11.197997314453126,-0.9575725275129079,-1.070101174584031,-0.41934579440280795
1788861435955004200,11.208004150390625,-1.3212947805017232,-1.3633914624750614,-0.23018599880021065
1788861435965010200,11.21801025390625,-1.787412409082055,-1.6515911492288111,0.03624225685670972
1788861435975017200,11.228017333984376,-2.049424930655956,-1.9706863249838351,0.2800248923981562
1788861435985023200,11.238023193359375,-1.678994119939208,-2.2967910872399804,0.4229708164995536
1788861435995030300,11.2480302734375,-0.7097568735957145,-2.387501870256662,0.5753761679396033
1788861436005036000,11.2580361328125,0.473187420836091,-1.9917004714399575,0.6640152592487633
1788861436015043300,11.268043212890625,1.4188064757049084,-1.3765952274411917,0.7020966411661357
1788861436025049000,11.278049072265626,1.4068284531414508,-0.8864362135380506,0.8571950676150619
1788861436035056000,11.28805615234375,0.4122703030586242,-0.49305707343220706,0.9296786314804106
1788861436045062400,11.2980625,-0.5813643024384975,-0.28433307445347306,0.8947053716462104
1788861436055069200,11.308069091796876,-0.7505179230511188,-0.25408698927164075,0.9270207373827696
1788861436065075200,11.3180751953125,-0.8480091599881648,-0.3399976785302162,0.9112420804273337
1788861436075082200,11.328082275390624,-1.2346902637600898,-0.553509496307373,0.7592012879833578
1788861436085088300,11.338088134765625,-1.2825164292961357,-0.8157926515161991,0.3809560771886259
1788861436095095000,11.348094970703125,-1.079431897509098,-1.087471996101737,-0.006907149039953947
1788861436105101000,11.35810107421875,-0.22530045524835585,-1.288500764402747,-0.0437815297877416
1788861436115108400,11.3681083984375,0.8620967220515012,-1.2798346428662537,0.2149665100974962
1788861436125114000,11.378114013671874,1.3997569073200224,-1.0924264036387203,0.46456802451815454
1788861436135121200,11.38812109375,1.3810674044191837,-0.6444862367838621,0.7204326544541865
1788861436145127400,11.39812744140625,1.144616025081277,-0.11833148813098668,0.8967183919690549
1788861436155134200,11.40813427734375,0.6769967597663402,-0.045915655739605425,0.8194476668924092
1788861436165140200,11.41814013671875,0.35802667169570923,-0.2156374316290021,0.603909640517272
1788861436175147300,11.428147216796875,0.39906946070194244,-0.5031687176018953,0.4326528736129403
1788861436185153300,11.4381533203125,0.7718214078426361,-0.7955018508985638,0.3553014479828998
1788861436195160000,11.44816015625,1.0009224244177342,-0.9483534482687711,0.2554963811455294
1788861436205166300,11.458166259765624,1.4793220269441605,-0.9421490406706928,0.2476543258756399
1788861436215173000,11.468173095703126,1.6567969011783599,-0.7007026295244694,0.545399035892263
1788861436225179100,11.47817919921875,1.6353905405342577,-0.29863077213615175,0.8173318437822162
1788861436235186400,11.4881865234375,1.2330272989839315,-0.0507335774153471,1.105688109337166
1788861436245192200,11.498192138671875,0.661748921751976,-0.03434942884743213,1.2305888197906314
1788861436255199200,11.50819921875,-0.09188158036172389,-0.3291463219091296,0.912958090564981
1788861436265205200,11.518205322265626,-0.4748001167297363,-0.7316358201876282,0.34814562141150235
1788861436275212300,11.52821240234375,0.4139186547875404,-0.8996580986827611,-0.03486380811035633
1788861436285218300,11.53821826171875,1.9661381601601837,-0.8771353012293577,-0.44344300156608224
1788861436295225000,11.54822509765625,2.855850034368038,-0.6342454132765531,-0.8550853819847106
1788861436305231400,11.5582314453125,2.709068404561281,-0.2889000901080668,-0.8884428771853446
1788861436315238100,11.568238037109374,2.213674412614107,-0.14662234759181736,-0.6207477799303829
1788861436325244200,11.578244140625,2.7407576742887496,-0.19418898540884255,-0.32557737738117576
1788861436335251500,11.58825146484375,3.835660697174072,-0.4189415244508534,-0.38383506669104095
1788861436345258200,11.59825830078125,4.120400014340877,-0.642828532704711,-0.6747991035915911
1788861436355264300,11.60826416015625,3.3872003058373927,-0.7793093524452298,-0.5768782430656254
1788861436365271300,11.618271240234375,3.1976153070926663,-0.9166825179155915,0.0075244041554629795
1788861436375277300,11.62827734375,4.27166492704153,-0.4848576926246285,0.41544250335395333
1788861436385284000,11.6382841796875,4.596882385069131,0.591559898564592,-0.11932386016920209
1788861436395290000,11.6482900390625,3.7307588917195793,1.2719587949246167,-1.1638280905514955
1788861436405297200,11.658297119140625,3.0475621082693336,1.6119529663234948,-1.6526655004620552
1788861436415303200,11.66830322265625,2.4747943692624568,1.9507488678485154,-1.2532082094863057
1788861436425310200,11.678310302734374,2.4271850613474846,2.068820682130009,-0.3782265791594982
1788861436435316200,11.688316162109375,3.3396611405491825,2.1553584172457456,0.661292848547548
1788861436445323300,11.6983232421875,4.1518274182617665,2.1615637016266582,1.313767892128229
1788861436455329300,11.708329345703126,4.225263241350651,2.119707404280454,1.1828147497680037
1788861436465336300,11.71833642578125,4.102227228790522,1.9564558473184703,0.5724903833702206
1788861436475342300,11.72834228515625,3.96912399572432,1.661508586000651,-0.1359418905582279
1788861436485349000,11.73834912109375,3.2974060531437397,1.376260588659346,-0.6857983442507684
1788861436495355100,11.748355224609375,2.461372577631473,1.0816498658195137,-0.8005273509103804
1788861436505362200,11.758362060546874,2.151018342214823,0.6698854664564132,-0.47427846747580915
1788861436515368200,11.7683681640625,2.231922016966343,0.22523352749198675,0.012980075745470821
1788861436525375200,11.778375244140625,2.462061728939414,-0.20561288122087715,0.2866292956318706
1788861436535381200,11.78838134765625,2.5646885751992463,-0.40255788733959197,0.2408427461646497
1788861436545388300,11.79838818359375,2.055759978896379,-0.5069003053456544,0.12320704001178964
1788861436555394000,11.80839404296875,1.4672995807170868,-0.7628940050214529,0.1231261385289952
1788861436565401300,11.8184013671875,1.3234054890453815,-0.9984820455282926,-0.07262889062017203
1788861436575407400,11.828407470703125,1.202300152286887,-1.0807453181952238,-0.33803492708988486
1788861436585414100,11.8384140625,0.9592249708950519,-1.018543421304226,-0.30756416630670425
1788861436595420200,11.848420166015625,0.6527244882971048,-0.9631137950271368,-0.20257910301554946
1788861436605427200,11.85842724609375,0.4483358881741762,-1.0210095191568136,-0.07490335205791052
1788861436615433200,11.86843310546875,0.11796937682032585,-1.21285077239573,0.20634841068750245
1788861436625440000,11.87843994140625,-0.19876666858792305,-1.595626100900769,0.46963206644207234
1788861436635446300,11.8884462890625,-0.253761995100975,-2.1056424924403427,0.605526062737964
1788861436645453300,11.898453369140626,-0.279665082642436,-2.6077181541085244,0.5425854032436386
1788861436655459000,11.908458984375,-0.39849195307493207,-2.9531700063914057,0.40250462278239424
1788861436665466400,11.91846630859375,-0.6837403888076543,-3.0395138263702393,0.3760058709027245
1788861436675472400,11.928472412109375,-1.1568564979732037,-2.8542414301276207,0.42000674252957104
1788861436685479200,11.938479248046875,-1.8291005102545022,-2.4523867226213216,0.3778971280094236
1788861436695485200,11.948485107421876,-2.453856795173883,-2.035813753932714,0.2616184990213252
1788861436705492000,11.958491943359375,-2.8791911624670026,-1.7016384979456662,0.32694841000605374
1788861436715498200,11.968498291015624,-3.222448719576001,-1.4657780702382326,0.5347645368922501
1788861436725505000,11.978505126953126,-3.3845594359397886,-1.4171505251914263,0.8811049355126916
1788861436735511000,11.988510986328125,-3.728578040549159,-1.5638871468126774,1.206095745177567
1788861436745518000,11.99851806640625,-4.395524530944228,-1.9019711006760596,1.2542949818097053
1788861436755524000,12.008524169921875,-4.960760705402493,-2.367656183058023,1.0745165798734873
1788861436765531100,12.01853125,-4.684536703124642,-2.716159824126959,0.8576972449835389
1788861436775537000,12.028536865234376,-3.709719026300311,-2.7935481842339036,0.7177547404818236
1788861436785544200,12.038544189453125,-2.593220257678628,-2.5401632057517767,0.7256414751436561
1788861436795550200,12.04855029296875,-1.782586011838913,-2.145042190414667,0.7586067561563103
1788861436805557000,12.058556884765625,-1.4361954174011944,-1.7862644080907106,0.79213807355389
1788861436815563300,12.068563232421875,-1.258065878650546,-1.5261621040523052,0.527525306353718
1788861436825570000,12.078570068359374,-1.2121043379426002,-1.4424562313616276,-0.04269676675833761
1788861436835576000,12.088576171875,-1.4490794488936662,-1.5093091689288616,-0.3915597061263397
1788861436845583000,12.0985830078125,-1.7365321166723966,-1.5130430947601794,-0.43133163494654
1788861436855589000,12.108589111328126,-1.8552905980437993,-1.306938338369131,-0.21147349861627443
1788861436865596200,12.11859619140625,-1.8368898489564656,-1.0266723672240972,0.21284104237612336
1788861436875602000,12.128601806640624,-1.6224708532065153,-0.791501090824604,0.6461861725695431
1788861436885609200,12.138609130859376,-1.1090396847873925,-0.7170178045094012,1.0324958126805721
1788861436895615000,12.148614990234375,-0.4280576547771692,-0.8597650642335415,1.2813517694309353
1788861436905622000,12.1586220703125,0.06378945834338665,-0.9836667537122964,1.1902340861137957
1788861436915628300,12.168628173828125,0.3317109117001295,-0.991038159263134,0.9123846015259623
1788861436925635000,12.178635009765625,0.593646276384592,-1.1254296785742044,0.7139926845345645
1788861436935641000,12.18864111328125,0.6962368822872639,-1.323087509137392,0.8665257905401289
1788861436945648000,12.198648193359375,0.18706629392206667,-1.4066437442243098,1.311988899756968
1788861436955654100,12.208654052734374,-0.7171458148032427,-1.5119114603817463,1.622085068759322
1788861436965661000,12.218660888671875,-1.4930191283851861,-1.6692840423077344,1.7240024515755474
1788861436975667000,12.2286669921875,-2.0587083073079584,-1.731672986203432,1.5847282747894524
1788861436985674200,12.23867431640625,-2.248202705159783,-1.5049240857124329,1.1300200020391493
1788861436995680000,12.248679931640625,-1.836169133466482,-1.1835206330150365,0.6572811286881566
1788861437005687000,12.25868701171875,-0.7499404154241085,-0.8480015612035989,0.37323067056834697
1788861437015693300,12.268693359375,0.4262006287336349,-0.49505847638249395,0.06392329558981583
1788861437025700000,12.2787001953125,0.7501677944391966,-0.2546118899285793,-0.2957478005783632
1788861437035706000,12.2887060546875,0.5921534074783324,-0.341713834798336,-0.41829402032755314
1788861437045713200,12.298713134765626,1.2752531602948902,-0.6767483379632234,-0.19883799852477385
1788861437055719200,12.30871923828125,2.0837363655805587,-0.8275731056809424,-0.031445017209392974
1788861437065726000,12.318725830078124,2.0145377416700123,-0.8560159408330917,0.1572530837321654
1788861437075732000,12.32873193359375,1.0960048466473817,-0.6644882835879922,0.5309921056814492
1788861437085739000,12.338739013671875,-0.44666123296022414,-0.36410482256561516,0.8944649139538406
1788861437095745000,12.3487451171875,-1.516350319612026,-0.388385569602251,1.011525066974759
1788861437105752000,12.358751953125,-1.169485677921772,-0.698316026648879,1.083705483175069
1788861437115759000,12.368759033203125,0.0019160627543926237,-1.0500018048852682,1.151990426306799
1788861437125765000,12.37876513671875,1.4141525124192238,-1.1366650660768152,1.229372868129611
1788861437135771100,12.388771240234375,2.4210955123007296,-0.8969380260691047,1.1691260508291423
1788861437145778200,12.398778076171874,2.842237688601017,-0.6021902328461408,1.0194869857646525
1788861437155784200,12.4087841796875,2.6214684470415115,-0.4271259268850088,0.7686641859207302
1788861437165791000,12.418791015625,1.6926444596290586,-0.280045606392622,0.443699387479946
1788861437175797000,12.428796875,0.9054396046936511,-0.3613575696840882,0.38860776098556815
1788861437185804000,12.438803955078125,0.7115186225712299,-0.6661658614113927,0.5526327134728432
1788861437195810000,12.44881005859375,0.9519500114560127,-1.0673146126054227,0.37670185381025073
1788861437205817000,12.458817138671876,0.9891080679833888,-1.3139791967913508,-0.08769260423928499
1788861437215823000,12.468822998046875,0.8419143502444029,-1.1718104676075278,-0.5595052295908332
1788861437225830100,12.478830078125,1.2852625131338835,-0.7551485054612159,-0.8339180907934903
1788861437235836000,12.4888359375,2.154593278092146,-0.19210984104722736,-0.6654381316587329
1788861437245843200,12.49884326171875,2.6194202823400494,-0.03128083505704999,-0.2564692082330584
1788861437255849200,12.50884912109375,2.7866753758549687,-0.1974601160340011,-0.12860869812592862
1788861437265856000,12.51885595703125,3.692883042311668,0.08660933904722333,-0.050076282550394535
1788861437275862000,12.528862060546874,4.057401414114237,0.7170819557867943,0.1012228246808052
1788861437285869000,12.538869140625,3.4460932243108746,1.0321795132730156,0.00877425808608532
1788861437295875000,12.548875,3.1557460041344165,0.9740366825144737,-0.2032099117323756
1788861437305882000,12.558882080078124,3.0421617105305194,0.6577525455921888,-0.3052313394449651
1788861437315888000,12.56888818359375,3.352010919034481,0.12195077460668981,-0.347139074717462
1788861437325895200,12.578895263671875,3.5460149032652377,-0.4326261317364871,-0.3263258576609194
1788861437335901000,12.58890087890625,3.2815129029631613,0.030044278999418018,-0.7455890883468091
