time,seconds_elapsed,z,y,x
1788861424797763600,0.050763671875,-0.5529286861419678,-1.2176752090454102,0.06640887260437012
1788861424807769600,0.06076953125,-0.5974942445755005,-1.5381072759628296,0.06349286437034607
1788861424817776400,0.0707763671875,-0.49501657485961914,-1.4983625411987305,0.08588791638612747
1788861424827782700,0.08078271484375,-0.2983689308166504,-1.1914188861846924,0.17949217557907104
1788861424837789400,0.09078955078125,-0.05260869860649109,-0.8377528786659241,0.3302590548992157
1788861424847795500,0.10079541015625,0.12542954087257385,-0.6120398044586182,0.4961155652999878
1788861424857801500,0.110801513671875,0.17653267085552216,-0.43549084663391113,0.5934171080589294
1788861424867808500,0.12080859375,0.15605507791042328,-0.3137160837650299,0.6403554677963257
1788861424877814500,0.130814453125,0.07014362514019012,-0.2981421947479248,0.6269853115081787
1788861424887821300,0.1408212890625,-0.014888751320540905,-0.5104175806045532,0.5803426504135132
1788861424897827600,0.15082763671875,-0.05177246779203415,-0.8733071088790894,0.5455407500267029
1788861424907833600,0.16083349609375,-0.017678258940577507,-1.1214349269866943,0.5096088647842407
1788861424917840400,0.17084033203125,0.08380788564682007,-1.1676069498062134,0.45299404859542847
1788861424927846400,0.180846435546875,0.24289539456367493,-0.957125186920166,0.4285898208618164
1788861424937853700,0.190853759765625,0.38708508014678955,-0.6336086392402649,0.46353957056999207
1788861424947859500,0.200859375,0.42840340733528137,-0.47359299659729004,0.5040209293365479
1788861424957866500,0.210866455078125,0.3850436806678772,-0.5366846323013306,0.4650609791278839
1788861424967872500,0.22087255859375,0.34609535336494446,-0.6671806573867798,0.3647433817386627
1788861424977878500,0.23087841796875,0.37033331394195557,-0.8841989636421204,0.2888707220554352
1788861424987885600,0.240885498046875,0.478445440530777,-1.2609853744506836,0.29224342107772827
1788861424997891300,0.250891357421875,0.6575962901115417,-1.595754623413086,0.36857202649116516
1788861425007898600,0.260898681640625,0.9005923271179199,-1.6584177017211914,0.465861052274704
1788861425017904600,0.270904541015625,1.060685634613037,-1.514899730682373,0.5264365077018738
1788861425027911400,0.280911376953125,1.1383488178253174,-1.2477850914001465,0.5154076218605042
1788861425037917700,0.290917724609375,1.2235641479492188,-0.9973446130752563,0.45350775122642517
1788861425047923500,0.30092333984375,1.3100793361663818,-0.8654311299324036,0.3799121677875519
1788861425057930500,0.310930419921875,1.390986680984497,-0.8108866810798645,0.3583349883556366
1788861425067936500,0.3209365234375,1.4509714841842651,-0.8381409645080566,0.3903631567955017
1788861425077943600,0.330943603515625,1.448603630065918,-0.8234229683876038,0.351936936378479
1788861425087949600,0.340949462890625,1.4302211999893188,-0.9915885925292969,0.20619595050811768
1788861425097956400,0.350956298828125,1.3904814720153809,-1.499969482421875,-0.05156261473894119
1788861425107962600,0.360962646484375,1.3593521118164062,-2.1729702949523926,-0.2671061158180237
1788861425117968600,0.37096875,1.3795913457870483,-2.6975722312927246,-0.17525984346866608
1788861425127975400,0.380975341796875,1.3542015552520752,-2.845428466796875,0.19398663938045502
1788861425137981400,0.3909814453125,1.2113195657730103,-2.7994887828826904,0.5933510661125183
1788861425147988500,0.400988525390625,1.0583537817001343,-2.8235371112823486,0.8705799579620361
1788861425157994500,0.410994384765625,1.0611565113067627,-2.91237211227417,0.9621354341506958
1788861425168000500,0.42100048828125,1.3749940395355225,-3.0857372283935547,1.014075517654419
1788861425178007600,0.431007568359375,2.0376625061035156,-3.493781805038452,1.2331520318984985
1788861425188013600,0.441013671875,2.760350465774536,-4.224049091339111,1.6523528099060059
1788861425198020400,0.451020263671875,3.1124515533447266,-5.232855319976807,2.166076183319092
1788861425208026400,0.4610263671875,2.9872543811798096,-6.305319786071777,2.718712091445923
1788861425218033700,0.47103369140625,2.5601673126220703,-7.102577209472656,3.2362663745880127
1788861425228039400,0.481039306640625,2.2257940769195557,-7.33604621887207,3.6123757362365723
1788861425238045400,0.49104541015625,2.2369532585144043,-7.0595703125,3.8140170574188232
1788861425248052500,0.501052490234375,2.4159188270568848,-6.509566307067871,3.7882838249206543
1788861425258058500,0.51105859375,2.6250696182250977,-6.142158508300781,3.5160350799560547
1788861425268065500,0.5210654296875,2.9490747451782227,-6.263816833496094,3.2511587142944336
1788861425278071300,0.5310712890625,3.401259422302246,-6.413851261138916,3.276179790496826
1788861425288078600,0.54107861328125,3.8057007789611816,-5.830774307250977,3.4568309783935547
1788861425298084600,0.551084716796875,4.085060119628906,-4.755927562713623,3.6085028648376465
1788861425308090400,0.56109033203125,4.216802597045898,-3.9645919799804688,3.613224744796753
1788861425318097700,0.57109765625,4.117377281188965,-3.7694616317749023,3.413254976272583
1788861425328103400,0.581103515625,3.9729387760162354,-4.247727394104004,3.136317253112793
1788861425338110500,0.5911103515625,3.9032726287841797,-5.269194602966309,2.9389007091522217
1788861425348116500,0.601116455078125,3.7518632411956787,-6.233282089233398,3.0092310905456543
1788861425358123500,0.61112353515625,3.520897626876831,-6.425415515899658,3.3527421951293945
1788861425368129500,0.621129638671875,3.2047183513641357,-6.0080246925354,3.610426187515259
1788861425378135600,0.631135498046875,2.7621452808380127,-5.169842720031738,3.647759199142456
1788861425388142600,0.641142578125,2.3985791206359863,-4.256793022155762,3.4926884174346924
1788861425398148600,0.651148681640625,2.364042043685913,-3.4372596740722656,3.219810962677002
1788861425408155400,0.6611552734375,2.686917543411255,-2.954759120941162,3.009871482849121
1788861425418161700,0.67116162109375,3.195420503616333,-3.014026641845703,3.0650393962860107
1788861425428168400,0.68116845703125,3.6566600799560547,-3.3656063079833984,3.368314266204834
1788861425438174500,0.691174560546875,4.033023834228516,-3.1020877361297607,3.6429905891418457
1788861425448180500,0.701180419921875,4.3223724365234375,-2.762061834335327,3.7622177600860596
1788861425458187500,0.7111875,3.981327772140503,-2.7478935718536377,3.2470862865448
1788861425468193500,0.721193603515625,3.2818431854248047,-2.729301691055298,2.30464506149292
1788861425478200300,0.731200439453125,2.2856616973876953,-2.6169896125793457,0.9328876733779907
1788861425488206600,0.74120654296875,1.8484095335006714,-1.3705263137817383,-0.06386920809745789
1788861425498213600,0.751213623046875,2.008833885192871,0.07609964907169342,-0.4131190776824951
1788861425508219400,0.761219482421875,2.2898600101470947,0.8253163695335388,-0.430691659450531
1788861425518226700,0.771226806640625,2.2754733562469482,0.8882628679275513,-0.3863130211830139
1788861425528232400,0.781232421875,2.1673099994659424,0.3378536105155945,-0.16504745185375214
1788861425538238500,0.791238525390625,2.0545852184295654,-0.49120306968688965,0.21482610702514648
1788861425548245500,0.80124560546875,2.0019917488098145,-1.0529524087905884,0.3930301070213318
1788861425558251500,0.81125146484375,1.5053131580352783,-2.301558494567871,1.088030457496643
1788861425568258600,0.821258544921875,1.834620714187622,-2.4206135272979736,1.0207409858703613
1788861425578264600,0.8312646484375,2.083375930786133,-1.4835045337677002,0.6772051453590393
1788861425588271600,0.841271728515625,2.24773907661438,-0.4859876036643982,0.08062077313661575
1788861425598277600,0.851277587890625,2.184086322784424,-0.47651419043540955,-0.3341633677482605
1788861425608283400,0.861283447265625,1.8076454401016235,-0.9724397659301758,-0.40640488266944885
1788861425618290400,0.87129052734375,1.4892668724060059,-1.2151786088943481,-0.32709649205207825
1788861425628296700,0.881296630859375,1.396074652671814,-0.9986649751663208,-0.1994713991880417
1788861425638303500,0.891303466796875,1.3496910333633423,-0.8325044512748718,-0.37467125058174133
1788861425648309500,0.9013095703125,1.2312211990356445,-0.7004974484443665,-0.5226399302482605
1788861425658316000,0.91131591796875,1.1709197759628296,-0.03654426336288452,-0.48704254627227783
1788861425668322000,0.921322021484375,1.2584054470062256,0.3711361885070801,-0.3531678318977356
1788861425678328000,0.931328125,1.0911993980407715,0.41640910506248474,-0.5251939296722412
1788861425688335000,0.941335205078125,0.8264886140823364,0.21957992017269135,-0.6710004210472107
1788861425698341000,0.951341064453125,0.8452350497245789,-0.09034330397844315,-0.6489583253860474
1788861425708348200,0.96134814453125,1.0157818794250488,-0.18651090562343597,-0.46815454959869385
1788861425718354000,0.97135400390625,1.0556637048721313,-0.18757909536361694,-0.4474758803844452
1788861425728361200,0.981361328125,1.019555926322937,-0.2981509268283844,-0.5513684153556824
1788861425738367000,0.991366943359375,0.9216188788414001,-0.8878675103187561,-0.6271752715110779
1788861425748374000,1.0013740234375,0.7200565338134766,-1.5478483438491821,-0.823740541934967
1788861425758380300,1.01138037109375,0.49369579553604126,-1.9325462579727173,-0.8578169941902161
1788861425768386000,1.021385986328125,0.34809306263923645,-1.582387089729309,-0.6405574083328247
1788861425778393000,1.03139306640625,0.24629878997802734,-0.8603553771972656,-0.16164672374725342
1788861425788399000,1.041399169921875,0.2403903603553772,-0.027602380141615868,0.44927701354026794
1788861425798406100,1.05140625,0.4738854169845581,0.47542718052864075,0.8711702227592468
1788861425808412200,1.061412109375,0.8607448935508728,0.44662144780158997,1.0610255002975464
1788861425818419000,1.0714189453125,1.1470643281936646,-0.0035124467685818672,0.9492332935333252
1788861425828425200,1.08142529296875,1.166965365409851,-0.2771455943584442,0.626695990562439
1788861425838431200,1.09143115234375,1.0204076766967773,-0.049566805362701416,0.3422662317752838
1788861425848438000,1.10143798828125,0.8203795552253723,-0.1714557707309723,0.0741080492734909
1788861425858444300,1.1114443359375,0.6452633738517761,-0.48833441734313965,-0.04843411594629288
1788861425868451000,1.121451171875,0.5500222444534302,-0.5733823776245117,0.07385198026895523
1788861425878457000,1.13145703125,0.44681838154792786,-0.2307155877351761,0.23472954332828522
1788861425888464100,1.141464111328125,0.3771723210811615,0.028004134073853493,0.30477550625801086
1788861425898470100,1.15147021484375,0.5572225451469421,0.2763809263706207,0.2746373116970062
1788861425908477200,1.161477294921875,0.8988488912582397,0.40470966696739197,0.17121118307113647
1788861425918483000,1.17148291015625,1.08064866065979,0.5324556827545166,-0.047895342111587524
1788861425928489200,1.1814892578125,0.9331278204917908,0.5793988704681396,-0.2884224057197571
1788861425938496000,1.19149609375,0.659275233745575,0.3682642877101898,-0.4233892560005188
1788861425948502000,1.201501953125,0.3924567699432373,-0.07114515453577042,-0.41701677441596985
1788861425958509300,1.21150927734375,0.377838671207428,-0.616233229637146,-0.8446227312088013
1788861425968515000,1.22151513671875,1.4114556312561035,-1.5272367000579834,-1.8283216953277588
1788861425978522000,1.231522216796875,1.7675186395645142,-1.3755691051483154,-1.0610942840576172
1788861425988528000,1.241528076171875,1.7956838607788086,-0.5712420344352722,-0.2910299599170685
1788861425998535200,1.25153515625,1.9991523027420044,0.027466662228107452,0.46007469296455383
1788861426008541200,1.261541259765625,2.1074705123901367,0.5511429905891418,1.0179214477539062
1788861426018547000,1.271546875,1.9803049564361572,0.6599054336547852,1.4663397073745728
1788861426028554200,1.28155419921875,1.691251516342163,0.5838963985443115,2.0037379264831543
1788861426038560300,1.291560302734375,1.3496595621109009,0.37891051173210144,2.5267953872680664
1788861426048567000,1.301567138671875,0.8696245551109314,-0.08596844971179962,2.9671790599823
1788861426058573000,1.311572998046875,0.24414385855197906,-0.7161794304847717,3.0668046474456787
1788861426068580000,1.321580078125,-0.404884934425354,-1.4487367868423462,2.814845561981201
1788861426078586000,1.331586181640625,-0.8631712198257446,-2.3930115699768066,2.1165571212768555
1788861426088593000,1.341593017578125,-0.7760366201400757,-3.7447152137756348,1.137528419494629
1788861426098599200,1.35159912109375,-0.0806380957365036,-3.9935410022735596,0.13257712125778198
1788861426108605200,1.361605224609375,0.6341235041618347,-2.6265761852264404,-0.5985204577445984
1788861426118612000,1.371612060546875,1.026255488395691,-0.6320117712020874,-0.8424747586250305
1788861426128618000,1.381617919921875,1.1092801094055176,-0.19860237836837769,-0.6306981444358826
1788861426138625000,1.391625,1.0483894348144531,-1.2301112413406372,-0.4127815365791321
1788861426148631000,1.401631103515625,0.9654333591461182,-2.0873513221740723,-0.0823947936296463
1788861426158638000,1.41163818359375,0.7963974475860596,-2.3341739177703857,0.00940756592899561
1788861426168644000,1.42164404296875,0.5239417552947998,-2.071620464324951,0.25959858298301697
1788861426178651100,1.431651123046875,0.1953774392604828,-2.4699721336364746,0.16811232268810272
1788861426188657200,1.4416572265625,-0.03558947145938873,-1.805162787437439,0.42173129320144653
1788861426198663000,1.451662841796875,0.000816205283626914,-1.1351306438446045,-0.05037686228752136
1788861426208670200,1.461670166015625,0.28642964363098145,-0.4771042466163635,-0.19046294689178467
1788861426218676000,1.471676025390625,0.2915436923503876,-0.42683175206184387,0.08850210160017014
1788861426228683000,1.48168310546875,-0.012121349573135376,-0.3431108593940735,0.50257408618927
1788861426238689300,1.491689208984375,0.275254487991333,-0.4561399519443512,0.7475904822349548
1788861426248696000,1.501696044921875,0.6431040167808533,-0.4140724837779999,0.911980926990509
1788861426258702000,1.5117021484375,0.36853745579719543,-0.5075904726982117,0.572763204574585
1788861426268709000,1.521709228515625,0.0895179957151413,-0.6037048697471619,0.565148115158081
1788861426278715100,1.531715087890625,-0.06348353624343872,-0.6974345445632935,0.8159934282302856
1788861426288722000,1.541721923828125,0.12144237756729126,-0.6791706085205078,0.9255316257476807
1788861426298728000,1.55172802734375,0.36719515919685364,-0.7632005214691162,0.8497346043586731
1788861426308734200,1.561734130859375,0.421859472990036,-0.9069299101829529,0.6571138501167297
1788861426318741000,1.571740966796875,0.3880932629108429,-0.9637590646743774,0.33760082721710205
1788861426328747000,1.5817470703125,0.46896806359291077,-1.034408688545227,0.27430054545402527
1788861426338754300,1.59175439453125,0.5001086592674255,-1.136173963546753,0.6818667650222778
1788861426348760000,1.601760009765625,0.5211561322212219,-0.9980273246765137,1.078018069267273
1788861426358767000,1.61176708984375,0.5014762282371521,-0.7434368133544922,1.0518170595169067
1788861426368772900,1.62177294921875,0.5723124146461487,-0.4574809670448303,0.7099859118461609
1788861426378780200,1.6317802734375,0.5951122641563416,-0.35041019320487976,0.28159064054489136
1788861426388786200,1.6417861328125,0.5971700549125671,-0.4419231712818146,-0.10811702162027359
1788861426398792000,1.6517919921875,0.6971182227134705,-0.7148452401161194,-0.3159026801586151
1788861426408799200,1.66179931640625,0.6403913497924805,-0.9019040465354919,-0.5366334319114685
1788861426418805200,1.67180517578125,0.5332645773887634,-1.0741562843322754,-0.9504809379577637
1788861426428812000,1.68181201171875,0.7768622636795044,-1.2639410495758057,-1.2619508504867554
1788861426438818000,1.691818115234375,0.9299034476280212,-1.3177509307861328,-1.473962426185608
1788861426448825000,1.7018251953125,0.7723495364189148,-1.1902287006378174,-1.5459561347961426
1788861426458831000,1.7118310546875,0.5791225433349609,-0.8421311974525452,-1.5092120170593262
1788861426468838100,1.721838134765625,0.4036003351211548,-0.4758283793926239,-1.4655661582946777
1788861426478844200,1.73184423828125,0.2439696490764618,-0.3286466598510742,-1.4947000741958618
1788861426488851000,1.741850830078125,0.10289333760738373,-0.42380693554878235,-1.6345858573913574
1788861426498857000,1.75185693359375,-0.015181640163064003,-0.47739213705062866,-1.8476581573486328
1788861426508863200,1.76186328125,-0.16498665511608124,-0.5204386115074158,-2.03987979888916
1788861426518870000,1.7718701171875,-0.3310776352882385,-0.6421682834625244,-2.137542724609375
1788861426528876000,1.7818759765625,-0.5147020816802979,-0.7014095187187195,-2.157348155975342
1788861426538883300,1.79188330078125,-0.7102068662643433,-0.6709719896316528,-2.110215663909912
1788861426548889000,1.80188916015625,-0.8549215793609619,-0.46920689940452576,-1.8861963748931885
1788861426558896000,1.811896240234375,-0.7859363555908203,-0.27023547887802124,-1.9115763902664185
1788861426568902000,1.82190185546875,-0.5347312688827515,-0.3133051097393036,-2.1730222702026367
1788861426578909200,1.8319091796875,-0.22915484011173248,-0.4731285870075226,-2.4557669162750244
1788861426588915200,1.841915283203125,0.005267324857413769,-0.5798510909080505,-2.6974661350250244
1788861426598922000,1.851921875,0.12420888990163803,-0.6617390513420105,-2.851529598236084
1788861426608928300,1.86192822265625,0.15123319625854492,-0.6605315208435059,-2.8864681720733643
1788861426618934300,1.871934326171875,0.12525911629199982,-0.7064427733421326,-2.853421926498413
1788861426628941000,1.881941162109375,0.14045444130897522,-0.89557284116745,-2.8020238876342773
1788861426638947000,1.891947021484375,0.16069473326206207,-1.0670702457427979,-2.7846970558166504
1788861426648954000,1.9019541015625,0.13223062455654144,-1.1581429243087769,-2.8040482997894287
1788861426658960100,1.911960205078125,0.08298558741807938,-1.2330927848815918,-2.811504602432251
1788861426668967700,1.9219677734375,0.05500376224517822,-1.2579166889190674,-2.7924206256866455
1788861426678973700,1.9319736328125,0.02092515304684639,-1.2394319772720337,-2.7274091243743896
1788861426688980700,1.941980712890625,0.008635307662189007,-1.2238558530807495,-2.6138014793395996
1788861426698986800,1.95198681640625,0.040548767894506454,-1.272146463394165,-2.5168070793151855
1788861426708992800,1.96199267578125,0.023861203342676163,-1.4656845331192017,-2.5401322841644287
1788861426718999600,1.97199951171875,0.01067003421485424,-1.4599813222885132,-2.589282512664795
1788861426729005800,1.982005859375,0.039679087698459625,-1.3924877643585205,-2.5635008811950684
1788861426739012600,1.9920126953125,0.0815647542476654,-1.3540914058685303,-2.581002712249756
1788861426749018600,2.0020185546875,0.13129916787147522,-1.127483606338501,-2.5292844772338867
1788861426759026000,2.01202587890625,0.2018311321735382,-0.6699812412261963,-2.2673606872558594
1788861426769031700,2.02203173828125,0.24197183549404144,-0.29244640469551086,-1.9525073766708374
1788861426779038700,2.032038818359375,0.24504247307777405,-0.13856014609336853,-1.7303866147994995
1788861426789044700,2.042044677734375,0.22198082506656647,-0.21290574967861176,-1.6286325454711914
1788861426799051800,2.0520517578125,0.23312082886695862,-0.3949357569217682,-1.5572359561920166
1788861426809057800,2.062057861328125,0.2373097985982895,-0.5531675815582275,-1.491857886314392
1788861426819063600,2.0720634765625,0.2409900277853012,-0.6021537184715271,-1.3668227195739746
1788861426829070800,2.08207080078125,0.2461937814950943,-0.5268007516860962,-1.177645206451416
1788861426839076900,2.092076904296875,0.23472566902637482,-0.401142954826355,-0.9815981984138489
1788861426849083600,2.102083740234375,0.2175467610359192,-0.35219132900238037,-0.8261684775352478
1788861426859089700,2.112089599609375,0.1959991157054901,-0.44281816482543945,-0.7321628928184509
1788861426869096700,2.1220966796875,0.18951459228992462,-0.44669491052627563,-0.6697974801063538
1788861426879102700,2.132102783203125,0.16861435770988464,-0.3073090612888336,-0.5729660391807556
1788861426889109500,2.142109619140625,0.143202006816864,-0.2417651116847992,-0.48789727687835693
1788861426899115800,2.15211572265625,0.12005195021629333,-0.23790273070335388,-0.33536314964294434
1788861426909122800,2.162122802734375,0.09577193111181259,-0.30148154497146606,-0.24269424378871918
1788861426919128600,2.172128662109375,0.06545397639274597,-0.3077777922153473,-0.21531188488006592
1788861426929134600,2.182134521484375,0.028022659942507744,-0.21028152108192444,-0.1924007534980774
1788861426939141600,2.1921416015625,-0.03855689987540245,-0.15123099088668823,-0.16921421885490417
1788861426949147600,2.202147705078125,-0.1023549735546112,-0.21199610829353333,-0.12625275552272797
1788861426959154700,2.21215478515625,-0.10790126770734787,-0.23865701258182526,-0.10304704308509827
1788861426969160700,2.22216064453125,-0.08948380500078201,-0.1277080774307251,-0.06267273426055908
1788861426979167700,2.232167724609375,-0.07508329302072525,-0.06338128447532654,-0.018467988818883896
1788861426989173800,2.242173828125,-0.06541819870471954,-0.013923674821853638,-0.017902923747897148
1788861426999180800,2.252180908203125,-0.03260086476802826,0.07110173255205154,-0.036783404648303986
1788861427009186800,2.262186767578125,-0.004589196294546127,0.1435585916042328,-0.06434980034828186
1788861427019193600,2.272193603515625,0.061687029898166656,0.25393277406692505,-0.18428127467632294
1788861427029200000,2.282199951171875,0.11479880660772324,0.30930808186531067,-0.2537979185581207
1788861427039206000,2.292205810546875,0.12104710936546326,0.408353716135025,-0.23710785806179047
1788861427049212700,2.302212646484375,0.1205696314573288,0.47938108444213867,-0.2509101331233978
1788861427059218700,2.31221875,0.1305045485496521,0.3616267740726471,-0.25395679473876953
1788861427069225700,2.322225830078125,0.14620880782604218,0.1946595162153244,-0.2851046621799469
1788861427079231700,2.332231689453125,0.11934391409158707,0.04843626171350479,-0.3324386179447174
1788861427089238500,2.342238525390625,0.09582053869962692,0.037868332117795944,-0.3489455282688141
1788861427099244800,2.352244873046875,0.16497936844825745,0.08346031606197357,-0.35861679911613464
1788861427109251800,2.362251953125,0.28183090686798096,0.18247215449810028,-0.32976454496383667
1788861427119257600,2.372257568359375,0.39000746607780457,0.37734392285346985,-0.14758063852787018
1788861427129265000,2.382264892578125,0.42624494433403015,0.5388987064361572,-0.01805277355015278
1788861427139270700,2.392270751953125,0.457565575838089,0.48145750164985657,-0.005057347007095814
1788861427149276700,2.402276611328125,0.4390333890914917,0.5383229851722717,0.12588411569595337
1788861427159283700,2.41228369140625,0.43219518661499023,0.6743322610855103,0.22220931947231293
1788861427169289700,2.422289794921875,0.4044709801673889,0.6722434163093567,0.20495641231536865
1788861427179296800,2.432296875,0.40219876170158386,0.7346641421318054,0.2203287035226822
1788861427189302800,2.442302734375,0.38387033343315125,0.7939805388450623,0.22263234853744507
1788861427199309800,2.452309814453125,0.3359646201133728,0.8375205993652344,0.24472033977508545
1788861427209315800,2.46231591796875,0.2799367308616638,0.843467116355896,0.2805192768573761
1788861427219322600,2.472322509765625,0.18569225072860718,0.7937811017036438,0.2697814106941223
1788861427229328600,2.48232861328125,0.09873422235250473,0.6704528331756592,0.2560795247554779
1788861427239335700,2.492335693359375,0.022736653685569763,0.6645128726959229,0.2617416977882385
1788861427249341700,2.502341796875,-0.023937774822115898,0.7048399448394775,0.24417567253112793
1788861427259347700,2.51234765625,-0.0396440364420414,0.7446795105934143,0.2979384958744049
1788861427269354800,2.522354736328125,-0.12610745429992676,0.7838326096534729,0.2997441291809082
1788861427279360800,2.53236083984375,-0.26069509983062744,0.8542413115501404,0.2507201135158539
1788861427289367600,2.542367431640625,-0.410781592130661,0.896591067314148,0.19233094155788422
1788861427299373600,2.55237353515625,-0.5355067849159241,0.8593742251396179,0.18649834394454956
1788861427309380900,2.562380859375,-0.6210512518882751,0.8447383046150208,0.19358612596988678
1788861427319386600,2.57238671875,-0.6890774369239807,0.8909188508987427,0.26726993918418884
1788861427329393700,2.5823935546875,-0.7630292773246765,0.9049118161201477,0.34213316440582275
1788861427339400000,2.59239990234375,-0.8350134491920471,0.7988178730010986,0.4363614022731781
1788861427349406700,2.60240673828125,-0.9011260867118835,0.6552528142929077,0.5037732124328613
1788861427359412700,2.612412841796875,-0.9631521701812744,0.5394255518913269,0.5075722336769104
1788861427369418500,2.62241845703125,-1.005996823310852,0.5258649587631226,0.568789005279541
1788861427379425800,2.63242578125,-1.0494763851165771,0.529122531414032,0.6107023358345032
1788861427389431800,2.642431884765625,-1.0406924486160278,0.4673082232475281,0.6321277618408203
1788861427399438600,2.6524384765625,-0.9857584238052368,0.4014005661010742,0.6632965803146362
1788861427409444900,2.66244482421875,-0.9083536267280579,0.32881060242652893,0.7226974964141846
1788861427419451600,2.67245166015625,-0.8504799604415894,0.27059391140937805,0.7457690238952637
1788861427429457700,2.682457763671875,-0.8052200078964233,0.23836667835712433,0.6876106262207031
1788861427439464700,2.692464599609375,-0.7182919979095459,0.18314017355442047,0.6158732771873474
1788861427449470700,2.702470703125,-0.6036497354507446,0.17926762998104095,0.5585401058197021
1788861427459477800,2.712477783203125,-0.4758622348308563,0.11455307900905609,0.4688892662525177
1788861427469483500,2.7224833984375,-0.33043694496154785,0.00245002843439579,0.3418334722518921
1788861427479490800,2.73249072265625,-0.20083846151828766,-0.04756972938776016,0.32042059302330017
1788861427489496800,2.742496826171875,-0.10817701369524002,-0.002527147065848112,0.35819268226623535
1788861427499502600,2.752502685546875,-0.04131808876991272,0.15120142698287964,0.395432710647583
1788861427509510000,2.762510009765625,0.009628387168049812,0.24976280331611633,0.41530317068099976
1788861427519515600,2.772515625,0.021794771775603294,0.24433475732803345,0.4233376681804657
1788861427529522700,2.782522705078125,-0.007970212958753109,0.22067822515964508,0.4396148920059204
1788861427539528700,2.79252880859375,-0.05959372594952583,0.21865715086460114,0.43445873260498047
1788861427549535700,2.80253564453125,-0.09033472090959549,0.2595736086368561,0.41449666023254395
1788861427559541800,2.812541748046875,-0.08990541845560074,0.28479453921318054,0.4517984986305237
1788861427569548500,2.822548583984375,-0.06212475523352623,0.2668033838272095,0.5085170865058899
1788861427579554800,2.832554931640625,-0.03466596454381943,0.2950406074523926,0.5744167566299438
1788861427589561600,2.8425615234375,-0.012967211194336414,0.40565043687820435,0.6315093040466309
1788861427599567600,2.852567626953125,0.006944977678358555,0.5263646245002747,0.675440788269043
1788861427609575000,2.862574951171875,0.0290372297167778,0.6067124605178833,0.6993655562400818
1788861427619580700,2.87258056640625,0.04906473308801651,0.599868655204773,0.6792683005332947
1788861427629586700,2.882586669921875,0.07169096171855927,0.5256154537200928,0.625016987323761
1788861427639593700,2.89259375,0.08445708453655243,0.42361316084861755,0.5871609449386597
1788861427649599700,2.902599853515625,0.06758082658052444,0.36878612637519836,0.5540640950202942
1788861427659606800,2.912606689453125,0.018236983567476273,0.41773635149002075,0.5104132890701294
1788861427669612300,2.9226123046875,-0.03097054362297058,0.4809756875038147,0.4836600124835968
1788861427679619600,2.93261962890625,-0.04988165199756622,0.46519672870635986,0.4823870360851288
1788861427689625600,2.94262548828125,-0.03184328228235245,0.35399046540260315,0.5017220377922058
1788861427699632400,2.95263232421875,-0.01717459037899971,0.24572472274303436,0.5300884246826172
1788861427709638400,2.962638427734375,-0.01804525777697563,0.2524729073047638,0.5957170724868774
1788861427719645400,2.9726455078125,-0.04955897480249405,0.31028586626052856,0.6464303135871887
1788861427729651500,2.9826513671875,-0.1063384860754013,0.3414161205291748,0.658649206161499
1788861427739658200,2.992658203125,-0.13195863366127014,0.3568933606147766,0.6857410669326782
1788861427749664500,3.00266455078125,-0.11039888858795166,0.3414517939090729,0.7274753451347351
1788861427759671600,3.012671630859375,-0.08287778496742249,0.2886817753314972,0.7418188452720642
1788861427769677300,3.02267724609375,-0.05308264121413231,0.2472640424966812,0.7416115999221802
1788861427779683600,3.03268359375,-0.017733706161379814,0.23852062225341797,0.7507750391960144
1788861427789690400,3.0426904296875,0.01944204978644848,0.30862778425216675,0.7798751592636108
1788861427799696400,3.0526962890625,0.05458192527294159,0.37540203332901,0.8084420561790466
1788861427809703700,3.06270361328125,0.07336249947547913,0.3215281367301941,0.8266316652297974
1788861427819709400,3.07270947265625,0.07996740192174911,0.23286086320877075,0.8600479364395142
1788861427829716500,3.082716552734375,0.05720093846321106,0.16075290739536285,0.9024161696434021
1788861427839722500,3.092722412109375,0.020039455965161324,0.14313635230064392,0.9534305930137634
1788861427849729500,3.1027294921875,-0.006923975422978401,0.19041383266448975,1.0059901475906372
1788861427859735600,3.112735595703125,-0.0013648930471390486,0.2770951986312866,1.061211347579956
1788861427869742300,3.122742431640625,0.055347051471471786,0.33643731474876404,1.0948152542114258
1788861427879748600,3.13274853515625,0.11684024333953857,0.3096190094947815,1.1014212369918823
1788861427889755400,3.14275537109375,0.1347726434469223,0.2606924772262573,1.1336543560028076
1788861427899761400,3.152761474609375,0.1189689040184021,0.26514795422554016,1.2119249105453491
1788861427909767400,3.162767333984375,0.10075924545526505,0.33821842074394226,1.2670278549194336
1788861427919774500,3.1727744140625,0.11594858020544052,0.42132607102394104,1.2861305475234985
1788861427929780500,3.182780517578125,0.1561434417963028,0.4290072023868561,1.3064771890640259
1788861427939787300,3.192787353515625,0.17473337054252625,0.4015689194202423,1.3484808206558228
1788861427949793500,3.20279345703125,0.1706457883119583,0.397928923368454,1.387174367904663
1788861427959800600,3.212800537109375,0.14584963023662567,0.46726858615875244,1.401818037033081
1788861427969806300,3.222806396484375,0.12008629739284515,0.547737181186676,1.3877320289611816
1788861427979813600,3.232813720703125,0.08744286745786667,0.48328468203544617,1.3341442346572876
1788861427989819600,3.242819580078125,0.060381583869457245,0.36198723316192627,1.3170759677886963
1788861427999826400,3.252826416015625,0.06876280903816223,0.39660781621932983,1.3916500806808472
1788861428009832400,3.26283251953125,0.06888142228126526,0.4671497941017151,1.4087402820587158
1788861428019839500,3.272839599609375,0.03333674743771553,0.40615034103393555,1.3337669372558594
1788861428029845500,3.282845458984375,0.004631794989109039,0.28695017099380493,1.2812670469284058
1788861428039852300,3.292852294921875,-0.0017523346468806267,0.23493890464305878,1.3280116319656372
1788861428049858600,3.302858642578125,-0.04377920553088188,0.2375321090221405,1.4016520977020264
1788861428059864600,3.312864501953125,-0.1240500807762146,0.1983354389667511,1.4148818254470825
1788861428069871400,3.322871337890625,-0.159063458442688,0.1366523653268814,1.3581509590148926
1788861428079877400,3.33287744140625,-0.13520286977291107,0.10550909489393234,1.2802613973617554
1788861428089884400,3.342884521484375,-0.08517704159021378,0.0879933089017868,1.2297569513320923
1788861428099890400,3.352890380859375,-0.03387044370174408,0.047316715121269226,1.1895816326141357
1788861428109897500,3.3628974609375,-0.004287358373403549,0.06607546657323837,1.1496658325195312
1788861428119903500,3.372903564453125,-0.02625257894396782,0.15321063995361328,1.1329134702682495
1788861428129910500,3.38291064453125,-0.07028571516275406,0.21145904064178467,1.1028989553451538
1788861428139916500,3.39291650390625,-0.08437357097864151,0.2052251249551773,1.0206929445266724
1788861428149923600,3.402923583984375,-0.07767246663570404,0.17999029159545898,0.9609431624412537
1788861428159929600,3.4129296875,-0.07435709983110428,0.20478086173534393,0.9954723715782166
1788861428169936400,3.422936279296875,-0.08302825689315796,0.30898845195770264,1.0853956937789917
1788861428179942400,3.4329423828125,-0.09817632287740707,0.4515810012817383,1.1307647228240967
1788861428189949400,3.442949462890625,-0.10219912230968475,0.6132317781448364,1.0909892320632935
1788861428199955500,3.45295556640625,-0.09801237285137177,0.5927140116691589,0.9980630874633789
1788861428209962500,3.46296240234375,-0.06090082228183746,0.42685413360595703,0.883913516998291
1788861428219968500,3.472968505859375,-0.003029270563274622,0.3590567111968994,0.7747066020965576
1788861428229974500,3.482974609375,0.03492128103971481,0.47056642174720764,0.6855689883232117
1788861428239981300,3.492981201171875,0.01823311112821102,0.567340075969696,0.6189566254615784
1788861428249987300,3.5029873046875,-0.03911816328763962,0.6298866868019104,0.5595446228981018
1788861428259994600,3.51299462890625,-0.0718979462981224,0.6891739368438721,0.5031540393829346
1788861428270000400,3.52300048828125,-0.07423225045204163,0.6417925953865051,0.45400795340538025
1788861428280007400,3.53300732421875,-0.0594053640961647,0.525851309299469,0.3921411335468292
1788861428290013400,3.543013427734375,-0.04894853010773659,0.4206894636154175,0.26599448919296265
1788861428300020500,3.5530205078125,-0.05787517875432968,0.3338126242160797,0.10409907251596451
1788861428310026500,3.563026611328125,-0.08633869886398315,0.17234596610069275,-0.020806502550840378
1788861428320033500,3.573033447265625,-0.11735866218805313,0.0012373297940939665,-0.1172611340880394
1788861428330039600,3.58303955078125,-0.1427442729473114,0.002517830580472946,-0.21909548342227936
1788861428340046300,3.59304638671875,-0.16316139698028564,0.13902081549167633,-0.27405276894569397
1788861428350052400,3.60305224609375,-0.16569700837135315,0.36357471346855164,-0.28174540400505066
1788861428360059400,3.613059326171875,-0.18235108256340027,0.4796070456504822,-0.2634279131889343
1788861428370065400,3.6230654296875,-0.17117726802825928,0.4818161725997925,-0.25690579414367676
1788861428380072400,3.633072509765625,-0.11579736322164536,0.45908182859420776,-0.2911279499530792
1788861428390078500,3.643078369140625,-0.044890277087688446,0.3478862941265106,-0.3609571158885956
1788861428400084500,3.65308447265625,0.008469618856906891,0.23793743550777435,-0.44897618889808655
1788861428410091500,3.663091552734375,0.034182652831077576,0.18257781863212585,-0.5440822243690491
1788861428420097500,3.67309765625,0.03648229315876961,0.16318121552467346,-0.6498281359672546
1788861428430104600,3.6831044921875,-0.007435572799295187,0.16305212676525116,-0.7530192732810974
1788861428440110300,3.6931103515625,-0.09628501534461975,0.14438576996326447,-0.8290802240371704
1788861428450117600,3.70311767578125,-0.21665896475315094,0.14602142572402954,-0.8966537117958069
1788861428460123600,3.71312353515625,-0.3342289924621582,0.1317487359046936,-0.9771230220794678
1788861428470130400,3.72313037109375,-0.39692649245262146,0.1267727166414261,-1.056024193763733
1788861428480136400,3.733136474609375,-0.3732563257217407,0.1414797604084015,-1.119073748588562
1788861428490143500,3.7431435546875,-0.27841439843177795,0.1403649002313614,-1.1625678539276123
1788861428500149500,3.7531494140625,-0.13629722595214844,0.141196608543396,-1.1945323944091797
1788861428510156300,3.76315625,0.005339673720300198,0.11743396520614624,-1.1978368759155273
1788861428520162600,3.77316259765625,0.08755998313426971,-0.11774899065494537,-1.1637159585952759
1788861428530169600,3.783169677734375,0.08822590112686157,-0.5384621024131775,-1.1445797681808472
1788861428540175400,3.79317529296875,0.05760674178600311,-0.6525918245315552,-1.2480446100234985
1788861428550182700,3.8031826171875,0.04090583324432373,-0.37208908796310425,-1.3710927963256836
1788861428560188400,3.8131884765625,0.016216199845075607,0.14936745166778564,-1.4101083278656006
1788861428570195500,3.823195556640625,-0.007075529545545578,0.7766989469528198,-1.5361639261245728
1788861428580201500,3.833201416015625,-0.012425553984940052,1.1292990446090698,-1.7074323892593384
1788861428590207500,3.84320751953125,0.02109687030315399,0.9001986980438232,-1.7033791542053223
1788861428600214500,3.853214599609375,0.08329925686120987,0.24293503165245056,-1.4384918212890625
1788861428610220500,3.863220458984375,0.14832554757595062,-0.4450943171977997,-1.0606842041015625
1788861428620227600,3.8732275390625,0.16755570471286774,-0.8318963646888733,-0.7251615524291992
1788861428630233600,3.883233642578125,0.17863266170024872,-0.8539429306983948,-0.49104252457618713
1788861428640240400,3.893240478515625,0.22074761986732483,-0.6442962288856506,-0.39196282625198364
1788861428650246400,3.903246337890625,0.2536332309246063,-0.5280996561050415,-0.40734511613845825
1788861428660253400,3.91325341796875,0.26649871468544006,-0.6981329321861267,-0.4725654125213623
1788861428670259500,3.923259521484375,0.253993958234787,-0.9060113430023193,-0.5449184775352478
1788861428680266500,3.9332666015625,0.20147587358951569,-1.0126583576202393,-0.5888084173202515
1788861428690272300,3.943272216796875,0.10615517944097519,-1.044614315032959,-0.588209331035614
1788861428700279300,3.953279296875,-0.02314767986536026,-0.9533306360244751,-0.5541634559631348
1788861428710285300,3.963285400390625,-0.17850114405155182,-0.5494086742401123,-0.5186817646026611
1788861428720292400,3.973292236328125,-0.3243265151977539,0.010819998569786549,-0.47332173585891724
1788861428730298400,3.98329833984375,-0.4265536963939667,0.41766640543937683,-0.4292237460613251
1788861428740305400,3.993305419921875,-0.500691294670105,0.5118618607521057,-0.412868469953537
1788861428750311400,4.0033115234375,-0.5553829669952393,0.31285521388053894,-0.3970569670200348
1788861428760318200,4.013318115234375,-0.5806939601898193,-0.07152124494314194,-0.39241933822631836
1788861428770324200,4.02332421875,-0.5698481202125549,-0.4281472861766815,-0.4128645360469818
1788861428780331300,4.033331298828125,-0.5247921943664551,-0.7071528434753418,-0.4400748610496521
1788861428790337300,4.043337158203125,-0.46526065468788147,-0.8070651888847351,-0.5229750275611877
1788861428800344300,4.05334423828125,-0.42106467485427856,-0.7487528920173645,-0.6408481597900391
1788861428810350300,4.063350341796875,-0.4298758804798126,-0.6452743411064148,-0.7343254685401917
1788861428820357400,4.073357421875,-0.4673774242401123,-0.558586597442627,-0.7677755951881409
1788861428830363400,4.08336328125,-0.47989338636398315,-0.5080676674842834,-0.7619768381118774
1788861428840369400,4.093369384765625,-0.4539339542388916,-0.44585463404655457,-0.7636730074882507
1788861428850376400,4.10337646484375,-0.41310882568359375,-0.3419305682182312,-0.7882981896400452
1788861428860382200,4.11338232421875,-0.35673049092292786,-0.2865016460418701,-0.8202300667762756
1788861428870389500,4.123389404296875,-0.2741054892539978,-0.3730364143848419,-0.8399052023887634
1788861428880395500,4.1333955078125,-0.18212896585464478,-0.4380130171775818,-0.8744874596595764
1788861428890402300,4.14340234375,-0.11908648163080215,-0.46373847126960754,-0.9015741348266602
1788861428900408300,4.153408203125,-0.0803244411945343,-0.5112607479095459,-0.8926522731781006
1788861428910415400,4.163415283203125,-0.0561612993478775,-0.6255640387535095,-0.8623592257499695
1788861428920421400,4.17342138671875,-0.03862252086400986,-0.7187954783439636,-0.8681300282478333
1788861428930428200,4.18342822265625,-0.03901812061667442,-0.7931110858917236,-0.9060793519020081
1788861428940434400,4.193434326171875,-0.04749070107936859,-0.8330723643302917,-0.9361477494239807
1788861428950441500,4.20344140625,-0.061907101422548294,-0.8134650588035583,-0.9473797082901001
1788861428960447200,4.213447265625,-0.06840521097183228,-0.7813974022865295,-0.9562557339668274
1788861428970454500,4.22345458984375,-0.06021634861826897,-0.8310656547546387,-0.9608246088027954
1788861428980460300,4.233460205078125,-0.020910754799842834,-0.9417644739151001,-0.9538399577140808
1788861428990467300,4.24346728515625,0.04263732582330704,-1.056631088256836,-0.9673674702644348
1788861429000473300,4.253473388671875,0.09712906926870346,-1.1133146286010742,-1.0044373273849487
1788861429010480400,4.26348046875,0.1340939998626709,-1.1426604986190796,-1.0246061086654663
1788861429020486400,4.273486328125,0.15432976186275482,-1.1922693252563477,-1.0198800563812256
1788861429030493200,4.2834931640625,0.15170274674892426,-1.2041630744934082,-1.0167649984359741
1788861429040499500,4.29349951171875,0.1408839076757431,-1.1629709005355835,-1.0753167867660522
1788861429050506200,4.30350634765625,0.15812116861343384,-1.177972435951233,-1.1063398122787476
1788861429060512300,4.31351220703125,0.19188952445983887,-1.189325213432312,-1.0816760063171387
1788861429070519600,4.32351953125,0.2077207863330841,-1.1255611181259155,-1.0850871801376343
1788861429080525300,4.333525390625,0.2005387842655182,-1.091673731803894,-1.1956377029418945
1788861429090532400,4.343532470703125,0.19454383850097656,-1.188886284828186,-1.324455738067627
1788861429100538400,4.353538330078125,0.1803172379732132,-1.270706057548523,-1.4459283351898193
1788861429110544400,4.36354443359375,0.11795875430107117,-1.0826919078826904,-1.7076417207717896
1788861429120551400,4.373551513671875,0.022922784090042114,-0.5370256304740906,-2.14396595954895
1788861429130557200,4.38355712890625,-0.029623299837112427,-0.05702424794435501,-2.2780635356903076
1788861429140564500,4.393564453125,-0.09919092804193497,0.010595807805657387,-1.7205959558486938
1788861429150570500,4.403570556640625,-0.20650459825992584,-0.0977027639746666,-1.1464680433273315
1788861429160577300,4.413577392578125,-0.26881858706474304,-0.31606626510620117,-1.1311825513839722
1788861429170583300,4.423583251953125,-0.2990056872367859,-0.2822687029838562,-1.3776851892471313
1788861429180590300,4.43359033203125,-0.31859350204467773,-0.09901127219200134,-1.2637168169021606
1788861429190596400,4.443596435546875,-0.32384344935417175,-0.028122298419475555,-1.139741063117981
1788861429200603100,4.45360302734375,-0.31130048632621765,0.043834179639816284,-1.1740827560424805
1788861429210609400,4.463609375,-0.29732900857925415,0.05510289967060089,-1.0653034448623657
1788861429220616400,4.473616455078125,-0.32762086391448975,0.04187577962875366,-1.0045641660690308
1788861429230622200,4.483622314453125,-0.3751917779445648,0.25908005237579346,-1.0735331773757935
1788861429240629500,4.49362939453125,-0.39325466752052307,0.40759605169296265,-1.0939702987670898
1788861429250635300,4.50363525390625,-0.37878185510635376,0.4036734104156494,-1.0655972957611084
1788861429260642300,4.513642333984375,-0.4014458954334259,0.42493581771850586,-0.9604299068450928
1788861429270648300,4.5236484375,-0.49084803462028503,0.4324967861175537,-0.8775923848152161
1788861429280655400,4.5336552734375,-0.5532333254814148,0.44722673296928406,-0.7993130087852478
1788861429290661400,4.543661376953125,-0.5570157766342163,0.3905368149280548,-0.661014974117279
1788861429300668200,4.553668212890625,-0.5161508917808533,0.4185279607772827,-0.5182556509971619
1788861429310674400,4.56367431640625,-0.4769964814186096,0.5592523813247681,-0.42350441217422485
1788861429320681200,4.57368115234375,-0.4410763084888458,0.6044643521308899,-0.34327614307403564
1788861429330687200,4.583687255859375,-0.42509210109710693,0.5707480907440186,-0.19079482555389404
1788861429340694500,4.593694580078125,-0.4249027371406555,0.5556772351264954,0.052767761051654816
1788861429350700300,4.6037001953125,-0.3985387682914734,0.6418901681900024,0.2793298065662384
1788861429360707300,4.613707275390625,-0.3666735589504242,0.6952857971191406,0.46688878536224365
1788861429370713300,4.62371337890625,-0.33654677867889404,0.7128320336341858,0.6434303522109985
1788861429380720400,4.633720458984375,-0.30063778162002563,0.7775266170501709,0.7567058205604553
1788861429390726400,4.643726318359375,-0.2549714744091034,0.7522996068000793,0.8760789036750793
1788861429400733200,4.653733154296875,-0.2573834955692291,0.6949364542961121,1.0190578699111938
1788861429410739500,4.663739501953125,-0.3005029857158661,0.6616368293762207,1.1376749277114868
1788861429420746200,4.673746337890625,-0.339702844619751,0.5896963477134705,1.265647530555725
1788861429430752300,4.683752197265625,-0.3704244792461395,0.5272901654243469,1.4424010515213013
1788861429440759300,4.69375927734375,-0.36266028881073,0.46709609031677246,1.627327799797058
1788861429450765300,4.703765380859375,-0.29355621337890625,0.45690250396728516,1.8032764196395874
1788861429460772400,4.7137724609375,-0.1823369860649109,0.5321884751319885,1.9874213933944702
1788861429470778400,4.7237783203125,-0.06671341508626938,0.6869062185287476,2.1749181747436523
1788861429480785400,4.733785400390625,0.002798818051815033,0.8421179056167603,2.3062899112701416
1788861429490791400,4.74379150390625,0.01809348724782467,1.0509635210037231,2.381046772003174
1788861429500798500,4.753798583984375,-0.01005985215306282,1.174634337425232,2.4028477668762207
1788861429510804500,4.763804443359375,-0.040849797427654266,1.1865001916885376,2.4114747047424316
1788861429520811300,4.773811279296875,-0.025655928999185562,1.2219215631484985,2.4217796325683594
1788861429530817300,4.7838173828125,0.02842225879430771,1.2005078792572021,2.379760265350342
1788861429540824300,4.79382421875,0.1091940775513649,1.0456058979034424,2.3108022212982178
1788861429550830300,4.803830322265625,0.18675169348716736,0.7941307425498962,2.2615554332733154
1788861429560837400,4.81383740234375,0.24257341027259827,0.5857844948768616,2.2222721576690674
1788861429570843400,4.823843505859375,0.2729990780353546,0.49584710597991943,2.1954281330108643
1788861429580850400,4.833850341796875,0.29166412353515625,0.5021460056304932,2.1694278717041016
1788861429590856200,4.843856201171875,0.3158193528652191,0.572475016117096,2.1211843490600586
1788861429600863500,4.853863525390625,0.3213438093662262,0.5337172150611877,2.059796094894409
1788861429610869500,4.863869384765625,0.30298271775245667,0.381422758102417,2.0306437015533447
1788861429620876300,4.873876220703125,0.2846234142780304,0.31225886940956116,2.0498039722442627
1788861429630882300,4.88388232421875,0.2258177250623703,0.3217911422252655,2.073991060256958
1788861429640889300,4.893889404296875,0.14052200317382812,0.4087928831577301,2.1040291786193848
1788861429650895400,4.903895263671875,0.05546024441719055,0.47025513648986816,2.1752865314483643
1788861429660902100,4.913902099609375,-0.01013554260134697,0.5512942671775818,2.2056846618652344
1788861429670908400,4.923908447265625,-0.02576078660786152,0.571520984172821,2.162623167037964
1788861429680915500,4.93391552734375,0.0006678925128653646,0.5208210945129395,2.058800220489502
1788861429690921200,4.943921142578125,0.021053260192275047,0.5384471416473389,1.9496408700942993
1788861429700928500,4.953928466796875,-0.005701655521988869,0.5969990491867065,1.853126883506775
1788861429710934500,4.9639345703125,-0.07215890288352966,0.585922122001648,1.7660892009735107
1788861429720941300,4.97394140625,-0.12628339231014252,0.5389106273651123,1.7068111896514893
1788861429730947300,4.983947265625,-0.1309984028339386,0.5640225410461426,1.6651067733764648
1788861429740953300,4.993953369140625,-0.09785562753677368,0.6284507513046265,1.6323834657669067
1788861429750960400,5.00396044921875,-0.052311547100543976,0.6728373169898987,1.5850788354873657
1788861429760967200,5.01396728515625,-0.003232685150578618,0.6874103546142578,1.492419958114624
1788861429770973400,5.023973388671875,0.02628043293952942,0.6551492810249329,1.3719311952590942
1788861429780980200,5.033980224609375,0.043349433690309525,0.6436612010002136,1.217280626296997
1788861429790986200,5.043986328125,0.06972336769104004,0.7504620552062988,1.0137102603912354
1788861429800992300,5.0539921875,0.10424059629440308,0.9306976199150085,0.805060863494873
1788861429810999300,5.063999267578125,0.12447105348110199,1.0248196125030518,0.6100168824195862
1788861429821006300,5.07400634765625,0.13410210609436035,0.9318656921386719,0.41241464018821716
1788861429831012400,5.084012451171875,0.14171567559242249,0.7178578972816467,0.201524019241333
1788861429841019400,5.094019287109375,0.15701182186603546,0.49785515666007996,-0.009105922654271126
1788861429851025400,5.104025390625,0.1572074443101883,0.37990981340408325,-0.21057920157909393
1788861429861032200,5.1140322265625,0.15921467542648315,0.35468995571136475,-0.42134734988212585
1788861429871038500,5.12403857421875,0.16862060129642487,0.3247143030166626,-0.6387724280357361
1788861429881045200,5.134045166015625,0.19887518882751465,0.22713740170001984,-0.8407596349716187
1788861429891051300,5.14405126953125,0.2608416974544525,0.046390242874622345,-1.0108311176300049
1788861429901058600,5.15405859375,0.34128060936927795,-0.18659187853336334,-1.1633769273757935
1788861429911064300,5.164064208984375,0.39426445960998535,-0.42503613233566284,-1.3136050701141357
1788861429921071400,5.1740712890625,0.41777512431144714,-0.5554341077804565,-1.479077935218811
1788861429931077000,5.1840771484375,0.4182201623916626,-0.47625958919525146,-1.6585263013839722
1788861429941084400,5.19408447265625,0.3975212574005127,-0.2858709990978241,-1.8065743446350098
1788861429951090400,5.20409033203125,0.35812872648239136,-0.08625680953264236,-1.8781789541244507
1788861429961097200,5.21409716796875,0.32935938239097595,0.09931837767362595,-1.9557908773422241
1788861429971103500,5.224103515625,0.2909124493598938,0.13524587452411652,-2.1047725677490234
1788861429981110300,5.2341103515625,0.2809833884239197,0.07707071304321289,-2.2439188957214355
1788861429991116300,5.2441162109375,0.294129341840744,0.07194819301366806,-2.2381510734558105
1788861430001123300,5.254123291015625,0.3013949692249298,0.12709854543209076,-2.0375723838806152
1788861430011129300,5.26412939453125,0.2475806474685669,0.07938390225172043,-1.7025388479232788
1788861430021136400,5.274136474609375,0.1304827779531479,-0.03980640321969986,-1.3818223476409912
1788861430031142100,5.28414208984375,-0.007359410170465708,-0.18808533251285553,-1.1753720045089722
1788861430041149400,5.2941494140625,-0.11954320967197418,-0.20177823305130005,-1.119781255722046
1788861430051155500,5.304155517578125,-0.1725095808506012,-0.051652941852808,-1.1622066497802734
1788861430061162200,5.314162353515625,-0.1827521026134491,0.023710519075393677,-1.2205088138580322
1788861430071168500,5.32416845703125,-0.1985645294189453,-0.13606801629066467,-1.2774626016616821
1788861430081175300,5.33417529296875,-0.21476000547409058,-0.39662638306617737,-1.311341404914856
1788861430091181300,5.344181396484375,-0.21627987921237946,-0.5883108377456665,-1.2950884103775024
1788861430101188400,5.354188232421875,-0.19495834410190582,-0.7065261602401733,-1.2267943620681763
1788861430111194400,5.3641943359375,-0.16276247799396515,-0.6475430130958557,-1.2048556804656982
1788861430121201200,5.374201171875,-0.1263357698917389,-0.4766809642314911,-1.25394606590271
1788861430131207200,5.384207275390625,-0.11558528244495392,-0.33054956793785095,-1.3370436429977417
1788861430141214500,5.39421435546875,-0.15168336033821106,-0.33326253294944763,-1.37271249294281
1788861430151220200,5.40422021484375,-0.22052013874053955,-0.43188464641571045,-1.3647472858428955
1788861430161227500,5.4142275390625,-0.2834671139717102,-0.5896100401878357,-1.3115471601486206
1788861430171233500,5.424233642578125,-0.2688364088535309,-0.7512059211730957,-1.239209771156311
1788861430181240300,5.434240234375,-0.22575069963932037,-0.8025059103965759,-1.2388782501220703
1788861430191246300,5.444246337890625,-0.21437698602676392,-0.7774458527565002,-1.3218740224838257
1788861430201253400,5.45425341796875,-0.2470526397228241,-0.6422742009162903,-1.4320119619369507
1788861430211259400,5.46425927734375,-0.28205063939094543,-0.5040529370307922,-1.4774757623672485
1788861430221266200,5.47426611328125,-0.26350679993629456,-0.4726491868495941,-1.4804209470748901
1788861430231272400,5.4842724609375,-0.1852588951587677,-0.508732795715332,-1.4747734069824219
1788861430241279500,5.494279541015625,-0.07532813400030136,-0.6030520796775818,-1.4337197542190552
1788861430251285200,5.50428515625,0.032816607505083084,-0.726593554019928,-1.350437879562378
1788861430261292500,5.51429248046875,0.10920751839876175,-0.828808605670929,-1.2931489944458008
1788861430271298300,5.52429833984375,0.16474518179893494,-0.8633012771606445,-1.3209021091461182
1788861430281305300,5.534305419921875,0.21181762218475342,-0.8760106563568115,-1.4035123586654663
1788861430291311400,5.544311279296875,0.22386309504508972,-0.9467872381210327,-1.4591271877288818
1788861430301318400,5.554318359375,0.2123691588640213,-1.0556758642196655,-1.4751986265182495
1788861430311324400,5.564324462890625,0.23159854114055634,-1.227331280708313,-1.471523404121399
1788861430321331200,5.574331298828125,0.2689081132411957,-1.4427671432495117,-1.4150851964950562
1788861430331337500,5.58433740234375,0.3246402144432068,-1.554132342338562,-1.4056628942489624
1788861430341344300,5.59434423828125,0.4027233123779297,-1.5477620363235474,-1.4411851167678833
1788861430351350300,5.604350341796875,0.4426318407058716,-1.2770559787750244,-1.5441277027130127
1788861430361357600,5.614357666015625,0.4477211534976959,-0.8362284302711487,-1.7078546285629272
1788861430371363300,5.62436328125,0.44029438495635986,-0.4558085799217224,-1.8130861520767212
1788861430381370400,5.634370361328125,0.42647045850753784,-0.20215076208114624,-1.8668709993362427
1788861430391376400,5.64437646484375,0.3808685839176178,-0.025971150025725365,-1.7978272438049316
1788861430401383400,5.654383544921875,0.33126986026763916,0.05243204906582832,-1.5378228425979614
1788861430411389400,5.664389404296875,0.3205874264240265,-0.04081493988633156,-1.2440706491470337
1788861430421396200,5.674396240234375,0.3050904870033264,-0.11651795357465744,-1.2395025491714478
1788861430431402500,5.684402587890625,0.2845814824104309,-0.029118111357092857,-1.270084261894226
1788861430441409300,5.6944091796875,0.2631648778915405,0.030235493555665016,-1.017463207244873
1788861430451415300,5.704415283203125,0.2285795360803604,-0.032961245626211166,-0.7205631136894226
1788861430461422300,5.71442236328125,0.20814110338687897,-0.06339718401432037,-0.5795806646347046
1788861430471428400,5.724428466796875,0.1389736384153366,0.0038189319893717766,-0.4853757321834564
1788861430481435400,5.734435302734375,0.06188472732901573,0.14302262663841248,-0.329990416765213
1788861430491441200,5.744441162109375,0.03144911676645279,0.2800059914588928,-0.19311879575252533
1788861430501448400,5.754448486328125,0.03333117067813873,0.3541734516620636,-0.07896507531404495
1788861430511454500,5.764454345703125,0.01770632527768612,0.4910067319869995,0.055375125259160995
1788861430521461200,5.774461181640625,-0.032689470797777176,0.5467299222946167,0.19053587317466736
1788861430531467500,5.784467529296875,-0.08747972548007965,0.54112309217453,0.33555376529693604
1788861430541474300,5.794474365234375,-0.12301348894834518,0.5535744428634644,0.5076019763946533
1788861430551481300,5.8044814453125,-0.11904896795749664,0.5302124619483948,0.6610613465309143
1788861430561487400,5.8144873046875,-0.07788555324077606,0.5554558038711548,0.8607986569404602
1788861430571494400,5.824494384765625,-0.03527162969112396,0.6407870650291443,1.0833481550216675
1788861430581500400,5.83450048828125,0.005470204632729292,0.7017151117324829,1.2840410470962524
1788861430591507500,5.844507568359375,0.03582010045647621,0.7463703751564026,1.4831160306930542
1788861430601513500,5.854513427734375,0.04427830129861832,0.7626234292984009,1.6780482530593872
1788861430611520300,5.864520263671875,0.014171388000249863,0.7542843818664551,1.8757489919662476
1788861430621526300,5.8745263671875,-0.03331596776843071,0.7511796951293945,2.049339771270752
1788861430631533300,5.884533203125,-0.03432471305131912,0.8063796758651733,2.165673017501831
1788861430641539300,5.894539306640625,-0.0014668998774141073,0.8907209038734436,2.2635953426361084
1788861430651546000,5.904546142578125,0.023368656635284424,0.9180144667625427,2.340475559234619
1788861430661552400,5.914552490234375,0.03952791914343834,0.9334182143211365,2.386337995529175
1788861430671559400,5.924559326171875,0.06631772220134735,0.9608761668205261,2.369936466217041
1788861430681565400,5.9345654296875,0.12089654058218002,0.9403131008148193,2.3206253051757812
1788861430691572700,5.94457275390625,0.2094888985157013,0.8427852988243103,2.2729885578155518
1788861430701578500,5.95457861328125,0.28741323947906494,0.7742080688476562,2.229809284210205
1788861430711585500,5.96458544921875,0.33505746722221375,0.7346935868263245,2.200549840927124
1788861430721591800,5.974591796875,0.34741881489753723,0.6553561687469482,2.164285182952881
1788861430731598600,5.9845986328125,0.32048720121383667,0.5941770076751709,2.1475257873535156
1788861430741604600,5.9946044921875,0.2845587730407715,0.5858173370361328,2.1765992641448975
1788861430751611600,6.004611572265625,0.2820894122123718,0.5686243176460266,2.234567403793335
1788861430761617700,6.01461767578125,0.3008878827095032,0.5753152370452881,2.336066484451294
1788861430771624400,6.02462451171875,0.31944742798805237,0.6057841181755066,2.470989465713501
1788861430781630700,6.034630615234375,0.3109399378299713,0.5442749857902527,2.5761067867279053
1788861430791637800,6.0446376953125,0.2746921479701996,0.41845789551734924,2.6009254455566406
1788861430801643500,6.0546435546875,0.20374071598052979,0.3215574324131012,2.5413870811462402
1788861430811650800,6.06465087890625,0.13108716905117035,0.3079609274864197,2.4158313274383545
1788861430821656600,6.074656494140625,0.08937513828277588,0.39042678475379944,2.29819917678833
1788861430831663600,6.08466357421875,0.07950100302696228,0.4382164478302002,2.2440075874328613
1788861430841669600,6.094669677734375,0.08206376433372498,0.439243882894516,2.244330883026123
1788861430851676700,6.1046767578125,0.07746292650699615,0.4893921911716461,2.2615489959716797
1788861430861682700,6.1146826171875,0.07625199109315872,0.6408240795135498,2.262287139892578
1788861430871689500,6.124689453125,0.06875643879175186,0.8339640498161316,2.198500871658325
1788861430881696800,6.13469677734375,0.05887717753648758,0.9586809277534485,2.0181686878204346
1788861430891702500,6.14470263671875,0.03270020708441734,0.9912166595458984,1.7656399011611938
1788861430901709600,6.15470947265625,0.005645154044032097,0.9010268449783325,1.4952510595321655
1788861430911715800,6.1647158203125,-0.0001858980394899845,0.6849309206008911,1.2588754892349243
1788861430921722600,6.17472265625,0.0465075708925724,0.4790358245372772,1.0725071430206299
1788861430931728600,6.184728759765625,0.11100279539823532,0.4212060570716858,0.9290755987167358
1788861430941735700,6.194735595703125,0.12206796556711197,0.4145987629890442,0.7623507976531982
1788861430951741700,6.20474169921875,0.08695065975189209,0.25663554668426514,0.5191482305526733
1788861430961748500,6.21474853515625,0.04634784534573555,-0.020036514848470688,0.21790635585784912
1788861430971754500,6.22475439453125,0.04042992740869522,-0.15791523456573486,-0.08781988173723221
1788861430981761800,6.23476171875,0.07859888672828674,-0.09992942214012146,-0.3810719847679138
1788861430991767600,6.244767578125,0.11117570102214813,-0.05944306030869484,-0.6414251923561096
1788861431001774600,6.254774658203125,0.12722310423851013,-0.11111318320035934,-0.8652558922767639
1788861431011780900,6.26478076171875,0.14630798995494843,-0.1766861230134964,-1.0453120470046997
1788861431021787600,6.27478759765625,0.14551304280757904,-0.23376059532165527,-1.189406394958496
1788861431031793700,6.284793701171875,0.0957266166806221,-0.3540653586387634,-1.2857414484024048
1788861431041800700,6.29480078125,0.01882224902510643,-0.5345562696456909,-1.3710707426071167
1788861431051806700,6.304806640625,-0.022282063961029053,-0.623694121837616,-1.492011308670044
1788861431061813500,6.3148134765625,-0.017113136127591133,-0.5038889050483704,-1.619112253189087
1788861431071819500,6.324819580078125,-0.006974049378186464,-0.3494725227355957,-1.7231343984603882
1788861431081826600,6.33482666015625,-0.03605656698346138,-0.30418282747268677,-1.7609504461288452
1788861431091832600,6.34483251953125,-0.08757150918245316,-0.236106738448143,-1.6951287984848022
1788861431101839600,6.354839599609375,-0.1611943244934082,-0.166902095079422,-1.5364198684692383
1788861431111845600,6.364845703125,-0.24178847670555115,-0.08841327577829361,-1.3356096744537354
1788861431121852700,6.374852783203125,-0.293986439704895,0.03416856378316879,-1.2000244855880737
1788861431131858700,6.384858642578125,-0.32712891697883606,0.062059659510850906,-1.1866503953933716
1788861431141865700,6.39486572265625,-0.35341858863830566,0.012047892436385155,-1.2776048183441162
1788861431151872500,6.40487255859375,-0.3600091338157654,-0.13013267517089844,-1.3832151889801025
1788861431161878500,6.41487841796875,-0.3547248840332031,-0.3735378682613373,-1.4258537292480469
1788861431171885800,6.4248857421875,-0.3304382860660553,-0.6179069876670837,-1.3926506042480469
1788861431181891600,6.4348916015625,-0.29451462626457214,-0.7379399538040161,-1.3249932527542114
1788861431191898600,6.444898681640625,-0.2592562735080719,-0.7431086301803589,-1.259272813796997
1788861431201904600,6.454904541015625,-0.2286062240600586,-0.6403276324272156,-1.2476680278778076
1788861431211911700,6.46491162109375,-0.21853530406951904,-0.5814555883407593,-1.2864298820495605
1788861431221917700,6.474917724609375,-0.2070261836051941,-0.5988098382949829,-1.3578436374664307
1788861431231924500,6.484924560546875,-0.19482755661010742,-0.6760415434837341,-1.4206576347351074
1788861431241930800,6.4949306640625,-0.19191431999206543,-0.773624837398529,-1.4413056373596191
1788861431251937500,6.5049375,-0.20159824192523956,-0.8147258758544922,-1.4318068027496338
1788861431261943600,6.514943603515625,-0.2016400545835495,-0.7548393607139587,-1.3973952531814575
1788861431271950800,6.524950927734375,-0.18010097742080688,-0.6734151840209961,-1.3984360694885254
1788861431281956600,6.53495654296875,-0.14076076447963715,-0.6487534046173096,-1.4363278150558472
1788861431291963600,6.544963623046875,-0.1085028275847435,-0.7214069366455078,-1.4925618171691895
1788861431301969400,6.554969482421875,-0.10028031468391418,-0.8546051979064941,-1.5753291845321655
1788861431311976700,6.564976806640625,-0.0836089476943016,-0.9854081273078918,-1.6411768198013306
1788861431321982700,6.574982666015625,-0.013165941461920738,-0.9901850819587708,-1.663848876953125
1788861431331989500,6.584989501953125,0.07953941076993942,-0.9966975450515747,-1.664601445198059
1788861431341995800,6.594995849609375,0.1314566731452942,-1.0695501565933228,-1.6671396493911743
1788861431352002600,6.60500244140625,0.1605122685432434,-1.1235929727554321,-1.7070990800857544
1788861431362008600,6.615008544921875,0.20738522708415985,-1.242493748664856,-1.7614641189575195
1788861431372015600,6.625015625,0.2523500919342041,-1.324890375137329,-1.8375253677368164
1788861431382021600,6.635021728515625,0.2730564475059509,-1.3251644372940063,-1.8512827157974243
1788861431392028700,6.645028564453125,0.24201972782611847,-1.2485973834991455,-1.8254700899124146
1788861431402035700,6.65503564453125,0.21268554031848907,-1.050986409187317,-1.8711962699890137
1788861431412041700,6.665041748046875,0.24859875440597534,-0.8764058351516724,-1.9356573820114136
1788861431422048500,6.675048583984375,0.31834056973457336,-0.8132374882698059,-1.9497113227844238
1788861431432054500,6.685054443359375,0.3455023467540741,-0.7401978969573975,-1.9932546615600586
1788861431442061600,6.6950615234375,0.326044499874115,-0.5927914381027222,-2.007024049758911
1788861431452067600,6.705067626953125,0.27752313017845154,-0.41270560026168823,-1.984178066253662
1788861431462075000,6.715074951171875,0.18789871037006378,-0.23619979619979858,-1.9841240644454956
1788861431472080600,6.72508056640625,0.0936015397310257,-0.04453522711992264,-1.9732784032821655
1788861431482087700,6.735087646484375,0.04175831750035286,0.06354836374521255,-1.7060149908065796
1788861431492093400,6.745093505859375,0.027252424508333206,-0.03902161121368408,-1.2614737749099731
1788861431502100700,6.755100830078125,0.03677695244550705,-0.21130815148353577,-0.9259138703346252
1788861431512106800,6.765106689453125,0.014587393030524254,-0.14628630876541138,-0.7726025581359863
1788861431522113500,6.775113525390625,-0.07188571244478226,0.03801136091351509,-0.654569685459137
1788861431532119800,6.785119873046875,-0.12506666779518127,0.02771642617881298,-0.36813896894454956
1788861431542126600,6.795126708984375,-0.09231723845005035,0.12593886256217957,-0.21764717996120453
1788861431552132600,6.805132568359375,-0.06020091101527214,0.3307814598083496,-0.20379838347434998
1788861431562139600,6.8151396484375,-0.02288150042295456,0.40862005949020386,-0.15006165206432343
1788861431572145700,6.825145751953125,-0.013332388363778591,0.5917429327964783,-0.017048444598913193
1788861431582152700,6.835152587890625,-0.021805500611662865,0.6961833238601685,0.18208223581314087
1788861431592158500,6.845158447265625,-0.008319150656461716,0.6863437294960022,0.4166329503059387
1788861431602165800,6.855165771484375,0.02228243462741375,0.7870064377784729,0.6171689629554749
1788861431612172500,6.865172607421875,0.06892577558755875,0.9033921360969543,0.8134759664535522
1788861431622178600,6.875178466796875,0.15280656516551971,0.9094348549842834,0.9902811050415039
1788861431632185600,6.885185546875,0.22416754066944122,0.9258330464363098,1.221868872642517
1788861431642191600,6.895191650390625,0.2724996507167816,0.8943475484848022,1.4722912311553955
1788861431652198700,6.90519873046875,0.28780773282051086,0.857273519039154,1.719124674797058
1788861431662204700,6.91520458984375,0.2663538157939911,0.8454920053482056,1.9618595838546753
1788861431672211700,6.925211669921875,0.23156523704528809,0.8702362179756165,2.163431406021118
1788861431682217200,6.93521728515625,0.1986733376979828,0.8953216075897217,2.2901339530944824
1788861431692224000,6.94522412109375,0.192610964179039,0.827038586139679,2.368276834487915
1788861431702230000,6.95522998046875,0.2132057249546051,0.7309703826904297,2.4109177589416504
1788861431712237000,6.965237060546875,0.2426241785287857,0.7250152826309204,2.4800713062286377
1788861431722243000,6.9752431640625,0.25006160140037537,0.8122833967208862,2.623090982437134
1788861431732249900,6.985249755859375,0.24880191683769226,0.8915754556655884,2.7905900478363037
1788861431742255900,6.995255859375,0.26231640577316284,0.9827903509140015,2.8796112537384033
1788861431752263200,7.00526318359375,0.29769542813301086,1.0592944622039795,2.859647750854492
1788861431762269000,7.01526904296875,0.3595800995826721,1.072089672088623,2.8250677585601807
1788861431772276000,7.02527587890625,0.4290953278541565,1.0111956596374512,2.809612989425659
1788861431782282200,7.0352822265625,0.4973353445529938,0.8907089233398438,2.7454774379730225
1788861431792289000,7.0452890625,0.5247899889945984,0.6794752478599548,2.6823644638061523
1788861431802295000,7.055294921875,0.5221044421195984,0.46393468976020813,2.6435132026672363
1788861431812302000,7.065302001953125,0.49329134821891785,0.42202383279800415,2.6423227787017822
1788861431822309000,7.07530908203125,0.44873905181884766,0.5411198139190674,2.636901378631592
1788861431832315000,7.08531494140625,0.38809552788734436,0.6282435059547424,2.5799403190612793
1788861431842322200,7.095322265625,0.2991105318069458,0.5892186164855957,2.5305707454681396
1788861431852328000,7.105327880859375,0.21072570979595184,0.5050036907196045,2.547628164291382
1788861431862335000,7.1153349609375,0.16501548886299133,0.48954564332962036,2.607825517654419
1788861431872341000,7.125341064453125,0.1490635722875595,0.5006775856018066,2.6569199562072754
1788861431882348000,7.13534814453125,0.117172472178936,0.48364323377609253,2.6664397716522217
1788861431892354000,7.14535400390625,0.05229032039642334,0.49898284673690796,2.603658437728882
1788861431902360800,7.15536083984375,-0.03636365011334419,0.552922248840332,2.4503355026245117
1788861431912367000,7.1653671875,-0.09942783415317535,0.6279008984565735,2.2069740295410156
1788861431922374000,7.175373779296875,-0.09774969518184662,0.633958101272583,1.9155676364898682
1788861431932380000,7.1853798828125,-0.028971003368496895,0.5451177358627319,1.6182905435562134
1788861431942387200,7.19538720703125,0.0739324763417244,0.4123513996601105,1.3705968856811523
1788861431952393000,7.20539306640625,0.15553686022758484,0.3462783992290497,1.1891087293624878
1788861431962400000,7.21539990234375,0.20232167840003967,0.38830041885375977,1.0099232196807861
1788861431972406000,7.225406005859375,0.19680571556091309,0.4726719260215759,0.7451274991035461
1788861431982413000,7.2354130859375,0.13150367140769958,0.4487040042877197,0.38395097851753235
1788861431992419000,7.245419189453125,0.07804781198501587,0.31197792291641235,-0.015083521604537964
1788861432002425900,7.25542578125,0.07503045350313187,0.1221693828701973,-0.3578858971595764
1788861432012433200,7.26543310546875,0.10053151845932007,-0.10230232775211334,-0.6017366647720337
1788861432022439000,7.27543896484375,0.12104078382253647,-0.30950239300727844,-0.7768989205360413
1788861432032446000,7.285446044921875,0.13429220020771027,-0.42037513852119446,-0.9064653515815735
1788861432042452200,7.2954521484375,0.1349332332611084,-0.45705005526542664,-0.9923115372657776
1788861432052459000,7.305458984375,0.12235754728317261,-0.4665871560573578,-1.0445430278778076
1788861432062465000,7.315465087890625,0.10211752355098724,-0.44695883989334106,-1.0817064046859741
1788861432072472000,7.32547216796875,0.09048335999250412,-0.35431745648384094,-1.1205861568450928
1788861432082478000,7.33547802734375,0.09765525162220001,-0.24728445708751678,-1.1493315696716309
1788861432092484900,7.34548486328125,0.10973070561885834,-0.21893438696861267,-1.1901637315750122
1788861432102491000,7.355490966796875,0.0886017233133316,-0.2649173140525818,-1.2677757740020752
1788861432112498000,7.365497802734375,0.024578282609581947,-0.31837552785873413,-1.4004275798797607
1788861432122504000,7.37550390625,-0.04351581633090973,-0.31145423650741577,-1.541547417640686
1788861432132511000,7.385510986328125,-0.08063964545726776,-0.33460861444473267,-1.6230028867721558
1788861432142517000,7.39551708984375,-0.09985115379095078,-0.4634222388267517,-1.6379890441894531
1788861432152524000,7.40552392578125,-0.10565422475337982,-0.5620228052139282,-1.619446873664856
1788861432162530000,7.415530029296875,-0.10824574530124664,-0.4912279546260834,-1.566427230834961
1788861432172537000,7.425537109375,-0.15400512516498566,-0.39793986082077026,-1.4683856964111328
1788861432182543000,7.435543212890625,-0.22655202448368073,-0.2756592035293579,-1.4160383939743042
1788861432192550000,7.4455498046875,-0.29650983214378357,-0.21450388431549072,-1.4430216550827026
1788861432202557200,7.45555712890625,-0.35588526725769043,-0.3360801041126251,-1.5002760887145996
1788861432212563000,7.46556298828125,-0.39772048592567444,-0.5622427463531494,-1.554914951324463
1788861432222570000,7.475570068359375,-0.4060228765010834,-0.7528864741325378,-1.6082741022109985
1788861432232576300,7.485576171875,-0.4084598422050476,-0.8229342699050903,-1.655260682106018
1788861432242583000,7.4955830078125,-0.4180181920528412,-0.8608254790306091,-1.6518064737319946
1788861432252589000,7.505589111328125,-0.4296990931034088,-0.9005395174026489,-1.590739369392395
1788861432262596000,7.51559619140625,-0.41929304599761963,-0.870707631111145,-1.5517762899398804
1788861432272602000,7.52560205078125,-0.3681851029396057,-0.7916063070297241,-1.609073281288147
1788861432282609000,7.53560888671875,-0.28486013412475586,-0.771064817905426,-1.7232856750488281
1788861432292615000,7.545614990234375,-0.20522871613502502,-0.876526415348053,-1.81875479221344
1788861432302622000,7.5556220703125,-0.1621406376361847,-0.9761291742324829,-1.8560307025909424
1788861432312628000,7.5656279296875,-0.13492226600646973,-1.0345567464828491,-1.8561457395553589
1788861432322635000,7.575635009765625,-0.11899416893720627,-1.0970755815505981,-1.8490151166915894
1788861432332641000,7.58564111328125,-0.07137305289506912,-1.1659390926361084,-1.8262137174606323
1788861432342648000,7.59564794921875,-0.00998665951192379,-1.1617882251739502,-1.8669049739837646
1788861432352654000,7.605654052734375,0.02606040984392166,-1.1110857725143433,-2.040261745452881
1788861432362661000,7.6156611328125,0.058824483305215836,-1.114753246307373,-2.194776773452759
1788861432372667100,7.625667236328125,0.09255056083202362,-1.1540329456329346,-2.2283225059509277
1788861432382674000,7.635673828125,0.1186135858297348,-1.2183911800384521,-2.232797622680664
1788861432392681200,7.64568115234375,0.14922967553138733,-1.150573968887329,-2.2061164379119873
1788861432402687000,7.65568701171875,0.17407271265983582,-1.0867207050323486,-2.1236162185668945
1788861432412694000,7.665694091796875,0.14179682731628418,-0.9989681243896484,-2.045252561569214
1788861432422700000,7.675699951171875,0.06678169965744019,-0.8116708993911743,-2.0521128177642822
1788861432432707000,7.68570703125,0.029824811965227127,-0.7580066919326782,-2.0412485599517822
1788861432442713000,7.695713134765625,-0.0017411040607839823,-0.7930706739425659,-2.010676622390747
1788861432452719900,7.705719970703125,-0.034213174134492874,-0.736828625202179,-1.9924724102020264
1788861432462726100,7.71572607421875,-0.0699450671672821,-0.540840744972229,-1.9897178411483765
1788861432472733000,7.72573291015625,-0.11178689450025558,-0.39408761262893677,-1.9708505868911743
1788861432482739000,7.735739013671875,-0.140288308262825,-0.4640011787414551,-1.8572465181350708
1788861432492746200,7.745746337890625,-0.17896457016468048,-0.5937942862510681,-1.645116925239563
1788861432502752000,7.755751953125,-0.1975204199552536,-0.5005660653114319,-1.3540387153625488
1788861432512759000,7.765759033203125,-0.16257424652576447,-0.29323524236679077,-1.11870276927948
1788861432522764800,7.775764892578125,-0.14149531722068787,-0.19785866141319275,-1.015647530555725
1788861432532772000,7.785772216796875,-0.1408560574054718,-0.13268443942070007,-0.8126424551010132
1788861432542778000,7.795778076171875,-0.1511387974023819,0.0373365692794323,-0.5009205341339111
1788861432552785000,7.805784912109375,-0.18784791231155396,0.19896546006202698,-0.2620832920074463
1788861432562792000,7.8157919921875,-0.2031475007534027,0.40278226137161255,-0.10109200328588486
1788861432572798000,7.8257978515625,-0.18346817791461945,0.5230630040168762,0.08454567193984985
1788861432582805000,7.835804931640625,-0.1542261391878128,0.6172563433647156,0.24695588648319244
1788861432592811000,7.84581103515625,-0.11014536768198013,0.7711588740348816,0.45316559076309204
1788861432602818000,7.855818115234375,-0.07615144550800323,0.9606569409370422,0.6657406687736511
1788861432612824000,7.865823974609375,-0.07099929451942444,1.075216293334961,0.880260705947876
1788861432622831000,7.8758310546875,-0.06458427011966705,1.0314579010009766,1.1291805505752563
1788861432632837000,7.885837158203125,-0.0852266326546669,1.0143933296203613,1.4016871452331543
1788861432642844000,7.895843994140625,-0.11904478073120117,1.127549171447754,1.686977505683899
1788861432652850000,7.905849853515625,-0.1163628101348877,1.153732419013977,1.9078296422958374
1788861432662857000,7.91585693359375,-0.07933128625154495,1.0905488729476929,2.0586628913879395
1788861432672863000,7.925863037109375,-0.036379553377628326,1.0149269104003906,2.222121238708496
1788861432682870500,7.93587060546875,0.0302620567381382,1.0075712203979492,2.3647680282592773
1788861432692876500,7.94587646484375,0.09463304281234741,1.1202796697616577,2.4370124340057373
1788861432702883600,7.955883544921875,0.11748828738927841,1.257374882698059,2.529294967651367
1788861432712889600,7.9658896484375,0.12899601459503174,1.337537407875061,2.6859006881713867
1788861432722896600,7.975896728515625,0.14497683942317963,1.3338699340820312,2.86482834815979
1788861432732902400,7.98590234375,0.16055528819561005,1.2829372882843018,2.990360736846924
1788861432742909700,7.99590966796875,0.17664584517478943,1.2094100713729858,3.0248165130615234
1788861432752916500,8.00591650390625,0.19244466722011566,1.1355229616165161,3.012754440307617
1788861432762922500,8.015922607421874,0.2281411588191986,1.0452876091003418,2.987952947616577
1788861432772929800,8.0259296875,0.28325510025024414,0.8817199468612671,2.94502854347229
1788861432782935600,8.035935546875,0.33702725172042847,0.6963229179382324,2.960172414779663
1788861432792942600,8.045942626953124,0.39702606201171875,0.5611976981163025,3.0222582817077637
1788861432802948600,8.055948486328125,0.46804749965667725,0.5231637358665466,3.014042377471924
1788861432812955600,8.06595556640625,0.5016337633132935,0.5737261176109314,2.921389579772949
1788861432822961700,8.075961669921876,0.48049572110176086,0.5793381929397583,2.8036324977874756
1788861432832968700,8.08596875,0.4176607131958008,0.5067752599716187,2.699958086013794
1788861432842974700,8.095974609375,0.35084009170532227,0.5073472857475281,2.616297960281372
1788861432852981500,8.1059814453125,0.3154522180557251,0.6016567945480347,2.535179615020752
1788861432862987500,8.115987548828125,0.3090076446533203,0.691594660282135,2.435253143310547
1788861432872994600,8.12599462890625,0.3044569194316864,0.7369087338447571,2.329272508621216
1788861432883000600,8.13600048828125,0.30752992630004883,0.7865092754364014,2.232062578201294
1788861432893007600,8.146007568359375,0.3192594647407532,0.8794068098068237,2.1020312309265137
1788861432903014700,8.1560146484375,0.3280883729457855,0.9212511777877808,1.9478037357330322
1788861432913020700,8.166020751953125,0.3300809860229492,0.8084591627120972,1.79189932346344
1788861432923027500,8.17602734375,0.3272452652454376,0.5427374839782715,1.648215651512146
1788861432933033700,8.18603369140625,0.316049188375473,0.29196402430534363,1.5053478479385376
1788861432943040500,8.19604052734375,0.2897808253765106,0.2311219722032547,1.3377183675765991
1788861432953046500,8.206046630859374,0.24759294092655182,0.2775280773639679,1.1247607469558716
1788861432963053800,8.2160537109375,0.1794373244047165,0.29622507095336914,0.8398149609565735
1788861432973059600,8.2260595703125,0.12202277034521103,0.22859986126422882,0.48897024989128113
1788861432983066600,8.236066650390624,0.1084292009472847,0.11379525065422058,0.12959825992584229
1788861432993072400,8.246072265625,0.11831042915582657,-0.028557520359754562,-0.17196178436279297
1788861433003079700,8.25607958984375,0.12385193258523941,-0.17094874382019043,-0.3786579370498657
1788861433013085700,8.266085693359376,0.10229266434907913,-0.26461294293403625,-0.4991576075553894
1788861433023092500,8.276092529296875,0.0779777392745018,-0.2644675374031067,-0.5833547711372375
1788861433033098800,8.2860986328125,0.03284866362810135,-0.25916436314582825,-0.662498414516449
1788861433043105500,8.29610546875,-0.01034034974873066,-0.22912761569023132,-0.7706118226051331
1788861433053111600,8.306111572265625,-0.04958627372980118,-0.19803783297538757,-0.90625
1788861433063118600,8.31611865234375,-0.0940868929028511,-0.2490118145942688,-1.0508768558502197
1788861433073124600,8.32612451171875,-0.13450171053409576,-0.3795264661312103,-1.1744999885559082
1788861433083131600,8.336131591796875,-0.15086764097213745,-0.4412579834461212,-1.282875657081604
1788861433093138700,8.346138671875,-0.15722443163394928,-0.4103207290172577,-1.3622456789016724
1788861433103144700,8.356144775390625,-0.18497483432292938,-0.3477998375892639,-1.4023677110671997
1788861433113151500,8.3661513671875,-0.24274104833602905,-0.3346438705921173,-1.410292387008667
1788861433123157500,8.376157470703125,-0.2977025508880615,-0.38337865471839905,-1.3922289609909058
1788861433133164500,8.38616455078125,-0.3286868929862976,-0.5043594241142273,-1.3751389980316162
1788861433143170600,8.396170654296874,-0.32483169436454773,-0.6277822852134705,-1.3814491033554077
1788861433153177600,8.406177490234375,-0.32061851024627686,-0.6875081658363342,-1.4066050052642822
1788861433163183600,8.41618359375,-0.3584047555923462,-0.7016658186912537,-1.463396430015564
1788861433173190700,8.426190673828126,-0.42044633626937866,-0.6447679996490479,-1.5277503728866577
1788861433183196700,8.43619677734375,-0.48178213834762573,-0.5291250348091125,-1.5710629224777222
1788861433193203700,8.44620361328125,-0.5314253568649292,-0.46374306082725525,-1.6036787033081055
1788861433203209700,8.456209716796875,-0.5499396324157715,-0.4662693440914154,-1.6480028629302979
1788861433213216500,8.466216552734375,-0.52918541431427,-0.5472406148910522,-1.6975483894348145
1788861433223222500,8.476222412109376,-0.4808448255062103,-0.711054801940918,-1.7399126291275024
1788861433233229600,8.4862294921875,-0.4133535921573639,-0.7958477139472961,-1.7443910837173462
1788861433243235600,8.496235595703125,-0.3605092763900757,-0.753632664680481,-1.6909558773040771
1788861433253242400,8.506242431640626,-0.32398077845573425,-0.738320529460907,-1.6069921255111694
1788861433263249700,8.516249755859375,-0.2798532545566559,-0.8082404732704163,-1.5912929773330688
1788861433273255700,8.526255615234374,-0.21693943440914154,-0.9743160605430603,-1.682115912437439
1788861433283262500,8.536262451171876,-0.1388009488582611,-1.1984034776687622,-1.8441098928451538
1788861433293268700,8.546268798828125,-0.0478304922580719,-1.4270999431610107,-1.9769036769866943
1788861433303275500,8.556275634765624,0.044322870671749115,-1.438440203666687,-2.0762062072753906
1788861433313281500,8.566281494140625,0.08125727623701096,-1.2492982149124146,-2.119980573654175
1788861433323288600,8.57628857421875,0.08407596498727798,-1.0430928468704224,-2.0978522300720215
1788861433333294600,8.586294677734376,0.07325969636440277,-0.8995915651321411,-2.062274217605591
1788861433343301600,8.596301513671875,0.08824663609266281,-0.8081585764884949,-2.0710957050323486
1788861433353307400,8.606307373046874,0.12968753278255463,-0.8628643751144409,-2.1126492023468018
1788861433363314700,8.616314697265626,0.17611388862133026,-0.9779510498046875,-2.165191888809204
1788861433373320700,8.62632080078125,0.19966374337673187,-1.0416640043258667,-2.1703457832336426
1788861433383327500,8.636327392578124,0.18897807598114014,-1.0527549982070923,-2.1699001789093018
1788861433393333800,8.646333740234375,0.1614280343055725,-1.0176936388015747,-2.2098653316497803
1788861433403340500,8.656340576171875,0.14740516245365143,-0.9130231738090515,-2.232882499694824
1788861433413346600,8.6663466796875,0.14307332038879395,-0.811454176902771,-2.2127814292907715
1788861433423353600,8.676353515625,0.11207971721887589,-0.7252010703086853,-2.1936261653900146
1788861433433360600,8.686360595703125,0.08595689386129379,-0.6838481426239014,-2.1421687602996826
1788861433443366400,8.696366455078126,0.06820159405469894,-0.737748384475708,-2.077486991882324
1788861433453373700,8.706373779296875,0.045669667422771454,-0.7321274876594543,-2.0211105346679688
1788861433463379700,8.716379638671874,0.03282657265663147,-0.6437036395072937,-1.942465901374817
1788861433473386500,8.726386474609376,0.017899155616760254,-0.5703547596931458,-1.8244130611419678
1788861433483392800,8.736392822265625,-0.00890369527041912,-0.450558066368103,-1.6809583902359009
1788861433493399600,8.746399658203124,0.01266942173242569,-0.2146303951740265,-1.4944655895233154
1788861433503405600,8.756405517578125,0.06526525318622589,0.07716523110866547,-1.200562596321106
1788861433513412600,8.76641259765625,0.10348888486623764,0.2336522936820984,-0.8650048971176147
1788861433523418600,8.776418701171876,0.08842790871858597,0.1444249451160431,-0.5763185024261475
1788861433533425700,8.78642578125,0.0321815051138401,0.05939890816807747,-0.3660072684288025
1788861433543431400,8.796431396484374,-0.023110244423151016,0.14302483201026917,-0.09877478331327438
1788861433553438700,8.806438720703126,-0.048364512622356415,0.3300398290157318,0.21335811913013458
1788861433563444700,8.81644482421875,-0.03010108694434166,0.5220723748207092,0.4441729485988617
1788861433573451500,8.826451416015624,0.017064275220036507,0.6081587076187134,0.6235447525978088
1788861433583457800,8.836457763671875,0.04163779318332672,0.6674140691757202,0.8332218527793884
1788861433593464600,8.846464599609375,0.054649729281663895,0.80592942237854,1.0952330827713013
1788861433603471600,8.8564716796875,0.08370481431484222,0.9357628226280212,1.353777527809143
1788861433613477600,8.8664775390625,0.08577145636081696,1.0452630519866943,1.6074210405349731
1788861433623484700,8.876484619140625,0.09722518175840378,1.0385340452194214,1.8675048351287842
1788861433633490700,8.88649072265625,0.13688887655735016,1.018792748451233,2.112877130508423
1788861433643497700,8.896497802734375,0.1696614772081375,1.0862617492675781,2.318153142929077
1788861433653503700,8.906503662109374,0.20561949908733368,1.083591341972351,2.4748306274414062
1788861433663510500,8.916510498046875,0.2433229386806488,1.029658317565918,2.61391019821167
1788861433673516500,8.9265166015625,0.25910958647727966,1.0665968656539917,2.7247660160064697
1788861433683523000,8.936523193359376,0.2604225277900696,1.1364086866378784,2.8085124492645264
1788861433693529300,8.946529296875,0.2711223363876343,1.1828337907791138,2.876568078994751
1788861433703536400,8.956536376953125,0.2918635606765747,1.121852993965149,2.913869857788086
1788861433713542100,8.966542236328126,0.2987459897994995,1.000988245010376,2.892364025115967
1788861433723549400,8.976549560546875,0.2605493366718292,0.9757025837898254,2.8798553943634033
1788861433733555200,8.98655517578125,0.2263181060552597,0.9886884689331055,2.903599262237549
1788861433743562200,8.996562255859375,0.21979868412017822,0.8869125843048096,2.8966939449310303
1788861433753568300,9.006568359375,0.22849318385124207,0.731296181678772,2.902086019515991
1788861433763575300,9.0165751953125,0.2712632715702057,0.641265869140625,2.9471428394317627
1788861433773581300,9.026581298828125,0.31491515040397644,0.5835448503494263,3.0129168033599854
1788861433783588000,9.036588134765625,0.33689048886299133,0.535524845123291,3.068462610244751
1788861433793595400,9.046595458984376,0.3255927562713623,0.45864003896713257,3.058331251144409
1788861433803601200,9.05660107421875,0.294986367225647,0.35790571570396423,2.9821131229400635
1788861433813608200,9.066608154296874,0.250728964805603,0.31211379170417786,2.901588201522827
1788861433823614500,9.076614501953125,0.1995382159948349,0.32712921500205994,2.85648512840271
1788861433833621200,9.086621337890625,0.14580483734607697,0.3566991686820984,2.7969701290130615
1788861433843627300,9.096627197265626,0.0875529795885086,0.3553646504878998,2.697148323059082
1788861433853634300,9.10663427734375,0.03262602910399437,0.3979033827781677,2.569615602493286
1788861433863640300,9.116640380859375,-0.00227336585521698,0.43068182468414307,2.447244644165039
1788861433873647000,9.126647216796876,-0.0008818670175969601,0.4117508828639984,2.3136723041534424
1788861433883653000,9.136653076171875,0.021390682086348534,0.401050329208374,2.143930196762085
1788861433893660400,9.146660400390624,0.03524123132228851,0.4580088257789612,1.8998652696609497
1788861433903666200,9.156666259765625,0.0452219620347023,0.6343032121658325,1.573573112487793
1788861433913673200,9.166673095703125,0.07603686302900314,0.9189611673355103,1.1986966133117676
1788861433923679200,9.17667919921875,0.11532860994338989,1.1062043905258179,0.8492904305458069
1788861433933686300,9.186686279296875,0.1329691857099533,0.9743756651878357,0.5492303371429443
1788861433943692300,9.1966923828125,0.13284029066562653,0.4878254234790802,0.30847179889678955
1788861433953699300,9.20669921875,0.09867715835571289,-0.042383331805467606,0.11108951270580292
1788861433963706400,9.216706298828125,0.026167001575231552,-0.3898608684539795,-0.10187362134456635
1788861433973712100,9.226712158203124,-0.04242703318595886,-0.5151391625404358,-0.3580227494239807
1788861433983719400,9.236719482421876,-0.0735764354467392,-0.4151169955730438,-0.6308276653289795
1788861433993725200,9.24672509765625,-0.08424309641122818,-0.23754103481769562,-0.8849413394927979
1788861434003732200,9.256732177734374,-0.08451580256223679,-0.15389007329940796,-1.089438557624817
1788861434013738200,9.26673828125,-0.06994882225990295,-0.19194775819778442,-1.2277251482009888
1788861434023745300,9.276745361328125,-0.05301138013601303,-0.2971583306789398,-1.3075240850448608
1788861434033751300,9.286751220703126,-0.04150017350912094,-0.4009653925895691,-1.3510921001434326
1788861434043758000,9.296758056640625,-0.05864773690700531,-0.46942993998527527,-1.3735233545303345
1788861434053764400,9.306764404296874,-0.11812906712293625,-0.4740751087665558,-1.3937486410140991
1788861434063771100,9.316771240234376,-0.19723187386989594,-0.4860268235206604,-1.4254002571105957
1788861434073777200,9.326777099609375,-0.2844599485397339,-0.5851953029632568,-1.4695605039596558
1788861434083784400,9.336784423828124,-0.3565996587276459,-0.6800277829170227,-1.5031014680862427
1788861434093790200,9.346790283203125,-0.3820280432701111,-0.7667238116264343,-1.526463508605957
1788861434103797200,9.35679736328125,-0.3822735846042633,-0.7981035709381104,-1.552774429321289
1788861434113803300,9.36680322265625,-0.3834870457649231,-0.7298116087913513,-1.577803373336792
1788861434123810300,9.376810302734375,-0.4307192862033844,-0.6606525182723999,-1.579752802848816
1788861434133817000,9.386817138671875,-0.5184102654457092,-0.6387665271759033,-1.5509312152862549
1788861434143823000,9.396822998046876,-0.5947748422622681,-0.6344401836395264,-1.5370646715164185
1788861434153830400,9.406830322265625,-0.6079227328300476,-0.6012437343597412,-1.576580286026001
1788861434163836200,9.416836181640624,-0.5644695162773132,-0.6146860718727112,-1.6465317010879517
1788861434173843200,9.42684326171875,-0.5113292336463928,-0.6367197036743164,-1.6864162683486938
1788861434183849200,9.43684912109375,-0.46690207719802856,-0.5805483460426331,-1.6442155838012695
1788861434193856300,9.446856201171874,-0.42659348249435425,-0.4833167791366577,-1.5937312841415405
1788861434203862300,9.4568623046875,-0.3950400948524475,-0.518503725528717,-1.6431411504745483
1788861434213869300,9.466869384765625,-0.3697553873062134,-0.7428823113441467,-1.8106013536453247
1788861434223875300,9.476875244140626,-0.3190075159072876,-1.083206057548523,-1.9837006330490112
1788861434233882000,9.486882080078125,-0.2029563933610916,-1.373464822769165,-2.1018807888031006
1788861434243888400,9.496888427734374,-0.06761056184768677,-1.4602508544921875,-2.180583953857422
1788861434253895200,9.506895263671876,0.047631241381168365,-1.3043622970581055,-2.2299718856811523
1788861434263901200,9.516901123046875,0.12214808911085129,-1.0213170051574707,-2.228269100189209
1788861434273908500,9.526908447265624,0.16672727465629578,-0.7313518524169922,-2.2295539379119873
1788861434283914200,9.536914306640625,0.19836537539958954,-0.6066234707832336,-2.238126039505005
1788861434293921300,9.54692138671875,0.2125207930803299,-0.6974101662635803,-2.2230305671691895
1788861434303928300,9.55692822265625,0.21884341537952423,-0.8642556071281433,-2.2472925186157227
1788861434313934300,9.566934326171875,0.22196803987026215,-1.0088289976119995,-2.301295757293701
1788861434323941000,9.576941162109375,0.2264663726091385,-1.02901291847229,-2.351222276687622
1788861434333947100,9.586947021484375,0.23068200051784515,-1.0597774982452393,-2.3478667736053467
1788861434343954400,9.596954345703125,0.21897421777248383,-1.0587787628173828,-2.320847511291504
1788861434353960200,9.606960205078124,0.18936844170093536,-0.9003537893295288,-2.3098866939544678
1788861434363967200,9.61696728515625,0.18449220061302185,-0.759052574634552,-2.2526400089263916
1788861434373973200,9.62697314453125,0.18225327134132385,-0.6643427610397339,-2.17187237739563
1788861434383980300,9.636980224609376,0.17276284098625183,-0.5758621692657471,-2.0979325771331787
1788861434393986300,9.646986328125,0.14662905037403107,-0.5328428149223328,-2.0385854244232178
1788861434403993300,9.656993408203125,0.09937205910682678,-0.5086109638214111,-1.9758058786392212
1788861434413999400,9.666999267578126,0.06758091598749161,-0.46250680088996887,-1.8382281064987183
1788861434424006100,9.677006103515625,0.049816567450761795,-0.4737274944782257,-1.6603214740753174
1788861434434012200,9.68701220703125,0.012865290977060795,-0.4666709899902344,-1.4995230436325073
1788861434444019200,9.697019287109375,0.0011330016423016787,-0.37020546197891235,-1.2315586805343628
1788861434454025200,9.707025146484375,0.043308909982442856,-0.23956328630447388,-0.8241784572601318
1788861434464032300,9.7170322265625,0.08115296065807343,-0.14316165447235107,-0.5192452073097229
1788861434474038300,9.727038330078125,0.07653796672821045,-0.07709367573261261,-0.37260913848876953
1788861434484045300,9.73704541015625,0.038398001343011856,0.13807642459869385,-0.17618004977703094
1788861434494051300,9.74705126953125,0.00279604340903461,0.29329580068588257,0.07353381812572479
1788861434504058400,9.757058349609375,-0.0058096954599022865,0.35937708616256714,0.27192172408103943
1788861434514065200,9.767065185546874,0.00326690636575222,0.4682086110115051,0.4377673864364624
1788861434524071200,9.7770712890625,0.004501281306147575,0.5471572279930115,0.6512418389320374
1788861434534078500,9.787078369140625,0.0006474248366430402,0.575980544090271,0.9114448428153992
1788861434544084200,9.797084228515626,0.0015451764920726418,0.6931117177009583,1.1511636972427368
1788861434554091300,9.80709130859375,0.009707273915410042,0.8579816222190857,1.3712273836135864
1788861434564097300,9.81709716796875,0.03058112971484661,0.9726975560188293,1.594534993171692
1788861434574104300,9.827104248046876,0.05927015841007233,1.0177401304244995,1.8192375898361206
1788861434584110300,9.8371103515625,0.08354700356721878,1.0852054357528687,2.060859441757202
1788861434594117000,9.8471171875,0.10700174421072006,1.1853454113006592,2.303210735321045
1788861434604123400,9.857123291015625,0.12378951162099838,1.267053246498108,2.481058120727539
1788861434614130200,9.867130126953125,0.11584614217281342,1.2292295694351196,2.614879608154297
1788861434624136200,9.87713623046875,0.06274138391017914,1.0997653007507324,2.7629408836364746
1788861434634143200,9.887143310546875,-0.004376733209937811,1.0303728580474854,2.9429750442504883
1788861434644149200,9.897149169921875,-0.04285461828112602,1.051864504814148,3.104207992553711
1788861434654156300,9.90715625,-0.033241789788007736,1.031569004058838,3.182586908340454
1788861434664162000,9.917162109375,-0.012701362371444702,0.9758274555206299,3.1221399307250977
1788861434674169300,9.92716943359375,-0.02140367217361927,0.9499107599258423,3.012098550796509
1788861434684175600,9.937175537109376,-0.05647004395723343,0.9101697206497192,2.96801495552063
1788861434694183000,9.947182861328125,-0.09281525015830994,0.8690781593322754,3.0303845405578613
1788861434704189700,9.957189697265624,-0.12284292280673981,0.9056422710418701,3.1703274250030518
1788861434714195700,9.96719580078125,-0.13007347285747528,0.943071722984314,3.313034772872925
1788861434724202800,9.97720263671875,-0.11908552795648575,0.9054418206214905,3.3937137126922607
1788861434734208800,9.987208740234376,-0.09999977797269821,0.8139716982841492,3.4095230102539062
1788861434744216000,9.997216064453125,-0.07235617190599442,0.7197732925415039,3.372570276260376
1788861434754221800,10.007221923828125,-0.035292237997055054,0.6901007294654846,3.2745063304901123
1788861434764228900,10.017228759765626,-0.008908038027584553,0.7145125865936279,3.1478941440582275
1788861434774235000,10.02723486328125,-0.00025022332556545734,0.752318799495697,3.0155129432678223
1788861434784242000,10.037241943359374,0.003244376741349697,0.7848010659217834,2.855289936065674
1788861434794248000,10.047248046875,0.03597474843263626,0.8558350801467896,2.634817600250244
1788861434804254700,10.057254638671875,0.09440503269433975,0.9006425142288208,2.349355697631836
1788861434814261000,10.067260986328124,0.14918361604213715,0.8441570401191711,2.0431506633758545
1788861434824267800,10.077267822265625,0.18524786829948425,0.79500412940979,1.7702572345733643
1788861434834273800,10.087273681640625,0.22220632433891296,0.7924680709838867,1.5157620906829834
1788861434844280800,10.09728076171875,0.27127906680107117,0.8363732099533081,1.232704758644104
1788861434854286800,10.107286865234375,0.3185398578643799,0.9554228186607361,0.9403114318847656
1788861434864294000,10.1172939453125,0.32867559790611267,1.0267037153244019,0.6774954795837402
1788861434874299600,10.127299560546875,0.31205275654792786,0.8719359040260315,0.42206522822380066
1788861434884307000,10.137306884765625,0.27751636505126953,0.4668180048465729,0.15199431777000427
1788861434894313000,10.14731298828125,0.23397600650787354,0.026559535413980484,-0.11498884111642838
1788861434904319700,10.15731982421875,0.20851857960224152,-0.2952222228050232,-0.34543243050575256
1788861434914326800,10.167326904296875,0.18695218861103058,-0.3933486342430115,-0.49686306715011597
1788861434924332800,10.177332763671876,0.16518697142601013,-0.3696480989456177,-0.5605815649032593
1788861434934339800,10.18733984375,0.13795273005962372,-0.36069580912590027,-0.5943801403045654
1788861434944345900,10.197345947265624,0.0997915044426918,-0.38409513235092163,-0.6303905844688416
1788861434954353000,10.207352783203126,0.041911154985427856,-0.2997159957885742,-0.717729389667511
1788861434964359000,10.21735888671875,-0.03552398458123207,-0.11772595345973969,-0.8917320370674133
1788861434974366000,10.227365966796874,-0.11497746407985687,0.024936169385910034,-1.0871028900146484
1788861434984372000,10.2373720703125,-0.18360686302185059,0.041551098227500916,-1.2473231554031372
1788861434994378800,10.247378662109375,-0.20545917749404907,-0.04938941448926926,-1.3941985368728638
1788861435004384800,10.257384765625,-0.2053004503250122,-0.21547318994998932,-1.538303256034851
1788861435014391800,10.267391845703125,-0.19038009643554688,-0.4166443943977356,-1.6327317953109741
1788861435024397800,10.277397705078124,-0.14878471195697784,-0.5593200922012329,-1.6736078262329102
1788861435034404900,10.28740478515625,-0.10038153827190399,-0.6043021082878113,-1.7238630056381226
1788861435044411000,10.297410888671875,-0.06935491412878036,-0.5579354166984558,-1.789503812789917
1788861435054418000,10.30741796875,-0.07455401122570038,-0.4979097247123718,-1.805854320526123
1788861435064423700,10.317423583984375,-0.13772553205490112,-0.4919884502887726,-1.7506898641586304
1788861435074431000,10.327430908203125,-0.2441651076078415,-0.4423290491104126,-1.7273224592208862
1788861435084437000,10.33743701171875,-0.3430589437484741,-0.40171557664871216,-1.770829200744629
1788861435094443800,10.34744384765625,-0.4030022621154785,-0.44934672117233276,-1.845232367515564
1788861435104449800,10.35744970703125,-0.4181865453720093,-0.5387368202209473,-1.9101144075393677
1788861435114456800,10.367456787109376,-0.3857613503932953,-0.5881367325782776,-1.9219733476638794
1788861435124463900,10.3774638671875,-0.33112579584121704,-0.549624502658844,-1.8712893724441528
1788861435134469600,10.3874697265625,-0.28286001086235046,-0.47593533992767334,-1.778727412223816
1788861435144477000,10.397476806640626,-0.2662895619869232,-0.5308406949043274,-1.7259619235992432
1788861435154483000,10.40748291015625,-0.23783166706562042,-0.6722641587257385,-1.783595323562622
1788861435164489700,10.41748974609375,-0.15436100959777832,-0.8843649625778198,-1.9136430025100708
1788861435174496000,10.42749609375,-0.03007223829627037,-1.1652323007583618,-2.0299487113952637
1788861435184502800,10.437502685546875,0.08218159526586533,-1.3217875957489014,-2.0574822425842285
1788861435194508800,10.4475087890625,0.1811489313840866,-1.285836935043335,-2.014355182647705
1788861435204515800,10.457515869140625,0.2452823668718338,-1.1662352085113525,-2.0322322845458984
1788861435214521900,10.46752197265625,0.2505114674568176,-1.0217622518539429,-2.1280627250671387
1788861435224529000,10.47752880859375,0.21349938213825226,-0.9632294178009033,-2.2240779399871826
1788861435234534700,10.48753466796875,0.2056434601545334,-0.9536190629005432,-2.2843170166015625
1788861435244542000,10.4975419921875,0.24600686132907867,-1.027611494064331,-2.234961986541748
1788861435254547700,10.507547607421875,0.2966422438621521,-1.1535664796829224,-2.1471076011657715
1788861435264554800,10.5175546875,0.3138912618160248,-1.0762879848480225,-2.121290445327759
1788861435274561000,10.52756103515625,0.3046357035636902,-0.8597956895828247,-2.104410171508789
1788861435284567800,10.53756787109375,0.26944416761398315,-0.763173520565033,-2.0364227294921875
1788861435294573800,10.54757373046875,0.21753785014152527,-0.8233709335327148,-1.9710865020751953
1788861435304580900,10.557580810546876,0.15458524227142334,-0.9132281541824341,-1.932761788368225
1788861435314587000,10.5675869140625,0.10149011015892029,-0.9835547208786011,-1.9171632528305054
1788861435324593700,10.57759375,0.06293871998786926,-0.9242445230484009,-1.940791368484497
1788861435334599700,10.587599609375,0.04257439076900482,-0.7616142630577087,-2.014080762863159
1788861435344607000,10.59760693359375,0.018279969692230225,-0.5882132053375244,-2.059309244155884
1788861435354613800,10.60761376953125,0.03708001971244812,-0.503383457660675,-1.9004234075546265
1788861435364619800,10.617619873046875,0.05519990250468254,-0.5008488893508911,-1.5791771411895752
1788861435374626800,10.627626708984375,0.06543650478124619,-0.380156934261322,-1.269705891609192
1788861435384632800,10.6376328125,0.09647058695554733,-0.26259276270866394,-1.111305594444275
1788861435394639600,10.6476396484375,0.11489832401275635,-0.1847219318151474,-1.0086593627929688
1788861435404646000,10.65764599609375,0.11087775230407715,-0.13650353252887726,-0.7692819237709045
1788861435414653000,10.66765283203125,0.08003035187721252,-0.09041452407836914,-0.45772579312324524
1788861435424658700,10.67765869140625,-0.0019989993888884783,0.047882892191410065,-0.1950552761554718
1788861435434666000,10.687666015625,-0.06254901736974716,0.182898610830307,0.009122176095843315
1788861435444671700,10.697671630859375,-0.060514092445373535,0.2539043724536896,0.2050599902868271
1788861435454678800,10.7076787109375,-0.02202439121901989,0.38130369782447815,0.43241602182388306
1788861435464685000,10.71768505859375,0.006490073166787624,0.5522240400314331,0.6831478476524353
1788861435474691800,10.72769189453125,0.022663040086627007,0.7147641181945801,0.9406542778015137
1788861435484697900,10.73769775390625,0.0582420751452446,0.8778824210166931,1.1970653533935547
1788861435494705000,10.747704833984375,0.08652882277965546,1.0372066497802734,1.4381029605865479
1788861435504711000,10.7577109375,0.09241440147161484,1.0491820573806763,1.714321255683899
1788861435514717700,10.7677177734375,0.07870008796453476,0.9358885884284973,2.0065858364105225
1788861435524723700,10.7777236328125,0.04292504861950874,0.8960056304931641,2.282780647277832
1788861435534731000,10.78773095703125,0.002111814683303237,0.9853391051292419,2.5424633026123047
1788861435544736800,10.79773681640625,0.0006883550668135285,1.0746160745620728,2.683865785598755
1788861435554743800,10.807743896484375,0.022996671497821808,1.118357539176941,2.7105448246002197
1788861435564750000,10.81775,0.05449147894978523,1.1119385957717896,2.716165781021118
1788861435574756900,10.8277568359375,0.12301365286111832,1.1605702638626099,2.748809337615967
1788861435584763000,10.837762939453125,0.20835252106189728,1.2453298568725586,2.8216373920440674
1788861435594770000,10.84777001953125,0.2842853367328644,1.1933119297027588,2.8977291584014893
1788861435604776000,10.85777587890625,0.31574979424476624,1.0480703115463257,2.9604315757751465
1788861435614782700,10.86778271484375,0.28365808725357056,0.9588338136672974,3.01263165473938
1788861435624788700,10.877788818359376,0.2378045618534088,0.9259448051452637,3.0825090408325195
1788861435634796000,10.887796142578125,0.18700848519802094,0.8291112184524536,3.149771213531494
1788861435644802800,10.897802734375,0.1589134782552719,0.7251424789428711,3.190722703933716
1788861435654808800,10.907808837890625,0.17867262661457062,0.6704374551773071,3.153475522994995
1788861435664815900,10.91781591796875,0.22777973115444183,0.6462007761001587,3.055837631225586
1788861435674822000,10.92782177734375,0.2794325649738312,0.5879203677177429,2.9573354721069336
1788861435684828200,10.937828125,0.31893736124038696,0.47106462717056274,2.87101411819458
1788861435694834200,10.947834228515624,0.34012794494628906,0.3936910629272461,2.7963836193084717
1788861435704841200,10.95784130859375,0.32737675309181213,0.4211149513721466,2.7188501358032227
1788861435714847200,10.96784716796875,0.2851572334766388,0.5007714033126831,2.6417479515075684
1788861435724854300,10.977854248046874,0.22001150250434875,0.5675839781761169,2.5615429878234863
1788861435734860300,10.9878603515625,0.15472638607025146,0.5987725257873535,2.4751060009002686
1788861435744867300,10.997867431640625,0.11284898221492767,0.5830992460250854,2.3713202476501465
1788861435754873300,11.007873291015626,0.10205826163291931,0.5373549461364746,2.2291672229766846
1788861435764880100,11.017880126953125,0.11165576428174973,0.521921694278717,2.0461459159851074
1788861435774886100,11.02788623046875,0.11164303869009018,0.5528086423873901,1.8104195594787598
1788861435784893200,11.03789306640625,0.09699245542287827,0.607811689376831,1.5232503414154053
1788861435794899200,11.047899169921875,0.0686626136302948,0.6042507290840149,1.217283844947815
1788861435804906200,11.05790625,0.03829645365476608,0.531691312789917,0.9219978451728821
1788861435814912300,11.067912353515625,0.010039493441581726,0.4240786135196686,0.6346132755279541
1788861435824919300,11.077919189453125,-0.02898327261209488,0.24186564981937408,0.35410699248313904
1788861435834925000,11.087925048828126,-0.07547628879547119,-0.016674181446433067,0.06452861428260803
1788861435844932400,11.097932373046875,-0.0656934306025505,-0.1569729596376419,-0.23529165983200073
1788861435854938400,11.1079384765625,-0.031754542142152786,-0.2601584494113922,-0.49064356088638306
1788861435864945200,11.117945068359376,-0.08507315069437027,-0.32559633255004883,-0.6262490749359131
1788861435874951200,11.127951171875,-0.15698844194412231,-0.3544172942638397,-0.6806269288063049
1788861435884958200,11.137958251953124,-0.1828615814447403,-0.3516598641872406,-0.7646887898445129
1788861435894964200,11.147964111328125,-0.17365562915802002,-0.2667267322540283,-0.9197401404380798
1788861435904971000,11.157970947265625,-0.16378967463970184,-0.13832828402519226,-1.0879579782485962
1788861435914977300,11.167977294921876,-0.18164391815662384,-0.1297074556350708,-1.2162045240402222
1788861435924984300,11.177984375,-0.21224230527877808,-0.2743287980556488,-1.30483078956604
1788861435934991000,11.1879912109375,-0.22734768688678741,-0.5148317217826843,-1.343877911567688
1788861435944997400,11.197997314453126,-0.2552642524242401,-0.756346583366394,-1.3419945240020752
1788861435955004200,11.208004150390625,-0.3069896101951599,-0.8962066769599915,-1.3466817140579224
1788861435965010200,11.21801025390625,-0.36817920207977295,-0.9137092232704163,-1.4021836519241333
1788861435975017200,11.228017333984376,-0.44148963689804077,-0.733997642993927,-1.4975214004516602
1788861435985023200,11.238023193359375,-0.49710655212402344,-0.4878813624382019,-1.5852563381195068
1788861435995030300,11.2480302734375,-0.5154334902763367,-0.28019553422927856,-1.6544198989868164
1788861436005036000,11.2580361328125,-0.4657311737537384,-0.21278558671474457,-1.6873246431350708
1788861436015043300,11.268043212890625,-0.3991451859474182,-0.3316878378391266,-1.6783276796340942
1788861436025049000,11.278049072265626,-0.3468979597091675,-0.40983349084854126,-1.6586064100265503
1788861436035056000,11.28805615234375,-0.3074617385864258,-0.3469178080558777,-1.676910161972046
1788861436045062400,11.2980625,-0.2699388563632965,-0.31807735562324524,-1.7266204357147217
1788861436055069200,11.308069091796876,-0.23383624851703644,-0.43363332748413086,-1.747164011001587
1788861436065075200,11.3180751953125,-0.18386788666248322,-0.581397533416748,-1.7735769748687744
1788861436075082200,11.328082275390624,-0.13565824925899506,-0.7265730500221252,-1.805557131767273
1788861436085088300,11.338088134765625,-0.1015855148434639,-0.9022388458251953,-1.8739702701568604
1788861436095095000,11.348094970703125,-0.07699288427829742,-1.046735405921936,-1.9895414113998413
1788861436105101000,11.35810107421875,-0.04683125764131546,-1.101293921470642,-2.088135004043579
1788861436115108400,11.3681083984375,0.016154909506440163,-1.1143033504486084,-2.1628761291503906
1788861436125114000,11.378114013671874,0.08802536875009537,-1.0550943613052368,-2.2016212940216064
1788861436135121200,11.38812109375,0.13254693150520325,-0.953366756439209,-2.1807162761688232
1788861436145127400,11.39812744140625,0.17224454879760742,-0.8533949255943298,-2.1134705543518066
1788861436155134200,11.40813427734375,0.20603398978710175,-0.7823068499565125,-2.0832040309906006
1788861436165140200,11.41814013671875,0.23126105964183807,-0.7932924032211304,-2.1427416801452637
1788861436175147300,11.428147216796875,0.24148701131343842,-0.8871020078659058,-2.228969097137451
1788861436185153300,11.4381533203125,0.2566971182823181,-1.005407691001892,-2.31095814704895
1788861436195160000,11.44816015625,0.2949596643447876,-1.102192759513855,-2.3223700523376465
1788861436205166300,11.458166259765624,0.29851603507995605,-1.1225358247756958,-2.24414324760437
1788861436215173000,11.468173095703126,0.2913879156112671,-1.0514893531799316,-2.1907036304473877
1788861436225179100,11.47817919921875,0.3004959225654602,-0.903528094291687,-2.188189744949341
1788861436235186400,11.4881865234375,0.2965482175350189,-0.79860919713974,-2.151594400405884
1788861436245192200,11.498192138671875,0.2602410912513733,-0.755419909954071,-2.122314214706421
1788861436255199200,11.50819921875,0.21048107743263245,-0.7080265283584595,-2.1213464736938477
1788861436265205200,11.518205322265626,0.17525145411491394,-0.6148691177368164,-2.14982008934021
1788861436275212300,11.52821240234375,0.18074239790439606,-0.535460352897644,-2.1139798164367676
1788861436285218300,11.53821826171875,0.19692909717559814,-0.5349380970001221,-2.0048959255218506
1788861436295225000,11.54822509765625,0.21167199313640594,-0.5671754479408264,-1.835841178894043
1788861436305231400,11.5582314453125,0.21320012211799622,-0.484301894903183,-1.6339669227600098
1788861436315238100,11.568238037109374,0.2091866284608841,-0.2776499390602112,-1.4155372381210327
1788861436325244200,11.578244140625,0.19943520426750183,-0.10787155479192734,-1.1258556842803955
1788861436335251500,11.58825146484375,0.1778445839881897,-0.034236300736665726,-0.8366107940673828
1788861436345258200,11.59825830078125,0.1586296111345291,-0.07700400054454803,-0.6214630603790283
1788861436355264300,11.60826416015625,0.13035008311271667,-0.10473749786615372,-0.4538445770740509
1788861436365271300,11.618271240234375,0.06622276455163956,-0.02075631357729435,-0.23243311047554016
1788861436375277300,11.62827734375,0.0069901300594210625,0.09575115889310837,0.03468450531363487
1788861436385284000,11.6382841796875,0.009371795691549778,0.30747857689857483,0.25774291157722473
1788861436395290000,11.6482900390625,0.06785264611244202,0.5360550880432129,0.45049601793289185
1788861436405297200,11.658297119140625,0.1425607055425644,0.6646287441253662,0.6502594947814941
1788861436415303200,11.66830322265625,0.16749058663845062,0.7341954708099365,0.8808505535125732
1788861436425310200,11.678310302734374,0.1506812423467636,0.7373510599136353,1.1859655380249023
1788861436435316200,11.688316162109375,0.12056495994329453,0.6607708930969238,1.5655517578125
1788861436445323300,11.6983232421875,0.09705537557601929,0.6811816096305847,1.9462921619415283
1788861436455329300,11.708329345703126,0.11142171174287796,0.7789651155471802,2.2426340579986572
1788861436465336300,11.71833642578125,0.1374911218881607,0.8997895121574402,2.4364895820617676
1788861436475342300,11.72834228515625,0.1672336906194687,0.9947128295898438,2.513364315032959
1788861436485349000,11.73834912109375,0.20128247141838074,1.054692029953003,2.481414556503296
1788861436495355100,11.748355224609375,0.22515769302845,1.0443350076675415,2.4089748859405518
1788861436505362200,11.758362060546874,0.23515678942203522,0.9060153961181641,2.402801513671875
1788861436515368200,11.7683681640625,0.2154245525598526,0.8090265393257141,2.538299083709717
1788861436525375200,11.778375244140625,0.19283829629421234,0.9133263230323792,2.787912368774414
1788861436535381200,11.78838134765625,0.18373307585716248,1.0138282775878906,3.014615535736084
1788861436545388300,11.79838818359375,0.15838856995105743,0.8965750932693481,3.076435089111328
1788861436555394000,11.80839404296875,0.09306933730840683,0.7038861513137817,3.0476155281066895
1788861436565401300,11.8184013671875,0.028813118115067482,0.5479756593704224,3.0250039100646973
1788861436575407400,11.828407470703125,-0.002359475241973996,0.45202237367630005,3.043039083480835
1788861436585414100,11.8384140625,0.00484863668680191,0.4639672040939331,3.0784385204315186
1788861436595420200,11.848420166015625,0.04166776314377785,0.5368512868881226,3.1101720333099365
1788861436605427200,11.85842724609375,0.08675774186849594,0.5640043616294861,3.104814291000366
1788861436615433200,11.86843310546875,0.12564364075660706,0.5097869038581848,3.0377895832061768
1788861436625440000,11.87843994140625,0.1664198338985443,0.48012858629226685,2.9577322006225586
1788861436635446300,11.8884462890625,0.20444414019584656,0.5038251876831055,2.90731143951416
1788861436645453300,11.898453369140626,0.23284249007701874,0.5269914865493774,2.8444652557373047
1788861436655459000,11.908458984375,0.23230502009391785,0.5008443593978882,2.7489967346191406
1788861436665466400,11.91846630859375,0.19226332008838654,0.46034616231918335,2.638981819152832
1788861436675472400,11.928472412109375,0.13403619825839996,0.48305678367614746,2.5293376445770264
1788861436685479200,11.938479248046875,0.08745111525058746,0.5558410286903381,2.4151642322540283
1788861436695485200,11.948485107421876,0.04285131394863129,0.5872803926467896,2.270817995071411
1788861436705492000,11.958491943359375,-0.0021624998189508915,0.5365655422210693,2.0926144123077393
1788861436715498200,11.968498291015624,-0.026926031336188316,0.4004504978656769,1.883461833000183
1788861436725505000,11.978505126953126,-0.0026388003025203943,0.18187344074249268,1.6484556198120117
1788861436735511000,11.988510986328125,0.05501222237944603,0.020949766039848328,1.3881405591964722
1788861436745518000,11.99851806640625,0.09651704877614975,0.04979659616947174,1.1312658786773682
1788861436755524000,12.008524169921875,0.08816739171743393,0.20605413615703583,0.8517783880233765
1788861436765531100,12.01853125,0.05604274198412895,0.30778396129608154,0.5238814949989319
1788861436775537000,12.028536865234376,0.015785787254571915,0.27654507756233215,0.19072440266609192
1788861436785544200,12.038544189453125,-0.014199275523424149,0.11628084629774094,-0.10847428441047668
1788861436795550200,12.04855029296875,-0.054660070687532425,-0.028492864221334457,-0.352027952671051
1788861436805557000,12.058556884765625,-0.13373517990112305,-0.09557949006557465,-0.5636432766914368
1788861436815563300,12.068563232421875,-0.19549602270126343,-0.23859868943691254,-0.7872587442398071
1788861436825570000,12.078570068359374,-0.2264893501996994,-0.46073323488235474,-1.0022406578063965
1788861436835576000,12.088576171875,-0.2589602768421173,-0.6403647065162659,-1.1687790155410767
1788861436845583000,12.0985830078125,-0.28143230080604553,-0.7331622838973999,-1.282325267791748
1788861436855589000,12.108589111328126,-0.27420881390571594,-0.734506368637085,-1.345044493675232
1788861436865596200,12.11859619140625,-0.24660220742225647,-0.6351648569107056,-1.3747673034667969
1788861436875602000,12.128601806640624,-0.2251778095960617,-0.4561326503753662,-1.3901951313018799
1788861436885609200,12.138609130859376,-0.25101765990257263,-0.3136466145515442,-1.4153507947921753
1788861436895615000,12.148614990234375,-0.3332616090774536,-0.2961362898349762,-1.4511795043945312
1788861436905622000,12.1586220703125,-0.41833680868148804,-0.329999715089798,-1.4944615364074707
1788861436915628300,12.168628173828125,-0.47179195284843445,-0.42484813928604126,-1.5248910188674927
1788861436925635000,12.178635009765625,-0.5205602645874023,-0.6051803827285767,-1.5178290605545044
1788861436935641000,12.18864111328125,-0.5784834027290344,-0.859204888343811,-1.4846447706222534
1788861436945648000,12.198648193359375,-0.6369714736938477,-1.0047999620437622,-1.4992631673812866
1788861436955654100,12.208654052734374,-0.6914654970169067,-1.0350960493087769,-1.5879288911819458
1788861436965661000,12.218660888671875,-0.7234817147254944,-0.9130394458770752,-1.6988071203231812
1788861436975667000,12.2286669921875,-0.7085323333740234,-0.576752781867981,-1.7637017965316772
1788861436985674200,12.23867431640625,-0.6308944821357727,-0.21815788745880127,-1.7687559127807617
1788861436995680000,12.248679931640625,-0.5325442552566528,-0.10445448756217957,-1.7095749378204346
1788861437005687000,12.25868701171875,-0.42284196615219116,-0.2905692458152771,-1.6135280132293701
1788861437015693300,12.268693359375,-0.2949955463409424,-0.6340391039848328,-1.6043260097503662
1788861437025700000,12.2787001953125,-0.15097074210643768,-0.8411038517951965,-1.7757490873336792
1788861437035706000,12.2887060546875,-0.04022931307554245,-0.7842533588409424,-2.0356762409210205
1788861437045713200,12.298713134765626,0.026426944881677628,-0.8605313301086426,-2.206019401550293
1788861437055719200,12.30871923828125,0.07811091095209122,-1.122841238975525,-2.281994342803955
1788861437065726000,12.318725830078124,0.12763719260692596,-1.3651363849639893,-2.285968065261841
1788861437075732000,12.32873193359375,0.1573706865310669,-1.4114857912063599,-2.268887996673584
1788861437085739000,12.338739013671875,0.1907976120710373,-1.2498537302017212,-2.2404823303222656
1788861437095745000,12.3487451171875,0.21201659739017487,-1.0225560665130615,-2.1959776878356934
1788861437105752000,12.358751953125,0.19359257817268372,-0.7708614468574524,-2.211453914642334
1788861437115759000,12.368759033203125,0.15144413709640503,-0.6041519045829773,-2.2613329887390137
1788861437125765000,12.37876513671875,0.1052745059132576,-0.6430955529212952,-2.262023448944092
1788861437135771100,12.388771240234375,0.0701732486486435,-0.8466776013374329,-2.238349199295044
1788861437145778200,12.398778076171874,0.06355876475572586,-1.0436713695526123,-2.236551523208618
1788861437155784200,12.4087841796875,0.0969090536236763,-1.0448826551437378,-2.2731993198394775
1788861437165791000,12.418791015625,0.15286552906036377,-0.9481540322303772,-2.2624897956848145
1788861437175797000,12.428796875,0.18789243698120117,-0.8028876185417175,-2.230470895767212
1788861437185804000,12.438803955078125,0.19376656413078308,-0.6962592005729675,-2.207852363586426
1788861437195810000,12.44881005859375,0.16561149060726166,-0.5829558372497559,-2.183830976486206
1788861437205817000,12.458817138671876,0.142629474401474,-0.3926253318786621,-2.1526341438293457
1788861437215823000,12.468822998046875,0.12373841553926468,-0.2041797786951065,-2.071192502975464
1788861437225830100,12.478830078125,0.11081995069980621,-0.1277044415473938,-1.8961557149887085
1788861437235836000,12.4888359375,0.11025073379278183,-0.24129965901374817,-1.6944199800491333
1788861437245843200,12.49884326171875,0.09038781374692917,-0.33876124024391174,-1.5087751150131226
