time,seconds_elapsed,z,y,x
1789031206663549400,0.036549560546875,8.230517119598389,2.546083827972412,-0.5470750793457031
1789031206673555500,0.046555419921875,8.087164295196533,2.7383681488037106,-0.8601169464111328
1789031206683562500,0.0565625,7.9183730781555175,2.7754782745361326,-0.9180266990661621
1789031206693568500,0.066568603515625,7.541136679077148,2.4263737449645997,-0.4364928901672363
1789031206703575300,0.0765751953125,7.645883001708984,2.5471312911987303,-0.20784663162231445
1789031206713581600,0.08658154296875,7.795670243072509,2.3406313980102538,0.050427872467041016
1789031206723587600,0.096587646484375,7.882908966064453,1.913266401672363,0.8046013954162597
1789031206733594400,0.106594482421875,8.020276286315918,1.5870564254760742,1.174056639099121
1789031206743600400,0.116600341796875,8.247426168823242,1.1649287452697754,1.1656769332885741
1789031206753607400,0.126607421875,8.405144203186035,1.0422259101867675,1.5267524711608886
1789031206763613400,0.136613525390625,8.541164785003662,1.0298059890747069,1.9443910232543944
1789031206773620500,0.146620361328125,8.454075699615478,0.8246528343200683,2.0561703132629394
1789031206783626500,0.15662646484375,8.442104691314697,0.4921580787658691,2.098966667938232
1789031206793632500,0.166632568359375,8.480262280273436,0.33354221878051754,2.3391350219726563
1789031206803639300,0.176639404296875,8.38883370437622,0.436043977355957,2.4167969383239747
1789031206813645300,0.186645263671875,8.550591954040527,0.5942109245300292,1.848922232055664
1789031206823652600,0.196652587890625,9.14300722732544,0.9904512992858886,1.2196961082458495
1789031206833658400,0.206658447265625,9.868001417541503,1.820790362548828,1.0015244819641114
1789031206843665400,0.21666552734375,10.091859272766113,2.568828743743896,1.2255319747924804
1789031206853671400,0.22667138671875,9.668384854125977,2.8865093765258787,1.9653402877807615
1789031206863677400,0.236677490234375,8.767117566680907,2.987215483856201,2.7042507751464844
1789031206873684500,0.2466845703125,8.332569965362548,3.13475816116333,2.6294319732666014
1789031206883690200,0.256690185546875,9.1676974319458,3.4069489624023435,0.7492354820251464
1789031206893697500,0.266697509765625,9.549722234344483,4.025401178741455,-0.4147954376220703
1789031206903703600,0.27670361328125,9.061005820465088,3.480869938659668,0.04548983154296875
1789031206913709300,0.286709228515625,9.520093988800049,2.9134441452026367,0.0809539436340332
1789031206923716600,0.296716552734375,9.894038360595703,2.6696844886779783,0.7695861961364746
1789031206933722600,0.30672265625,9.46173532333374,3.0719103675842283,1.1581950531005858
1789031206943729400,0.3167294921875,8.752004168701172,3.7955578193664548,1.2605471740722656
1789031206953735400,0.3267353515625,7.923610394287109,3.233518979644775,1.6653168922424315
1789031206963742500,0.336742431640625,7.9463553100585935,2.4856302360534666,1.565957523345947
1789031206973748500,0.34674853515625,8.2613424659729,2.445826633453369,1.029207438659668
1789031206983754500,0.35675439453125,8.898200107574462,1.6977882522583008,1.2093711135864258
1789031206993761500,0.366761474609375,9.660753336334228,0.8644564369201659,1.9874866531372068
1789031207003767600,0.376767578125,9.78629928588867,1.1962030044555663,2.486528061676025
1789031207013774300,0.3867744140625,9.856180046844482,2.1793220611572264,2.7910405853271483
1789031207023780400,0.3967802734375,9.8442090385437,2.203114440155029,3.2513258544921873
1789031207033787400,0.406787353515625,10.852018299865723,1.5536872398376464,3.4497453170776367
1789031207043793400,0.41679345703125,13.428927474212646,0.9621697921752929,3.0769980461120605
1789031207053799400,0.42679931640625,16.240169136047363,0.36526539077758785,3.046322337341308
1789031207063806500,0.436806396484375,17.005565479278562,-0.23433248748779295,3.1299697578430172
1789031207073812500,0.4468125,15.34832901763916,-0.37020343170166015,3.3755250656127926
1789031207083819300,0.4568193359375,11.719317851257324,-0.548421817779541,3.519626078033447
1789031207093825300,0.4668251953125,7.909544459533691,-1.0760440086364746,3.8756139373779295
1789031207103832600,0.47683251953125,5.4501008041381835,-1.3506290115356445,5.610213040161132
1789031207113838300,0.48683837890625,4.624250868988037,-1.8604443275451659,6.476914041137695
1789031207123844400,0.49684423828125,4.26482134475708,-1.3462895210266113,6.939443874359131
1789031207133851600,0.5068515625,4.459649504852295,-1.331026485443115,8.921693211364746
1789031207143857400,0.516857421875,3.3215058906555175,-0.8394669570922851,10.151415039062499
1789031207153864400,0.526864501953125,4.037222549438476,0.29777883148193357,10.545859762573242
1789031207163870200,0.5368701171875,5.5632268325805665,1.151162085723877,10.741136835479736
1789031207173877500,0.54687744140625,5.540033003997802,1.0299556266784666,10.033201332092284
1789031207183883500,0.556883544921875,4.460397692871093,0.40566754379272457,9.615413142395019
1789031207193889300,0.56688916015625,3.858704888153076,0.041748891448974604,9.733028298950195
1789031207203896600,0.576896484375,2.5303718795776367,-0.5608417388916015,10.088267970275878
1789031207213902600,0.586902587890625,1.3064859184265136,-0.7275380294799805,10.960954475402831
1789031207223909400,0.596909423828125,0.8447042732238769,-0.09038111267089843,11.3006318359375
1789031207233915400,0.606915283203125,0.8665513633728027,-0.18031331253051758,10.273668961334227
1789031207243922400,0.61692236328125,0.7906850982666015,-0.7956231391906737,9.063699297332763
1789031207253928400,0.626928466796875,-0.037110125732421874,-1.1575965026855468,9.334393722534179
1789031207263935500,0.636935546875,-2.980781066894531,-0.3354875076293945,11.622502321624756
1789031207273941500,0.64694140625,-5.151274509429931,1.5643115097045897,11.346420942687988
1789031207283947500,0.656947509765625,-6.678775168609619,2.0245967788696286,9.853037657165526
1789031207293954300,0.666954345703125,-8.77265415802002,0.008678981018066407,6.19290186920166
1789031207303960600,0.676960693359375,-9.462184236145019,-2.1021090576171875,3.5966894439697263
1789031207313967400,0.68696728515625,-9.337087199401855,-2.5119664543151856,4.139574670410156
1789031207323973400,0.696973388671875,-8.786720092773438,-2.1990742248535153,6.3806970619201655
1789031207333980700,0.706980712890625,-8.074145823669433,-1.6817770286560059,7.568669998168945
1789031207343986400,0.716986328125,-6.34583150024414,-1.4401122985839843,7.653813794708252
1789031207353992400,0.726992431640625,-4.205864128875732,-3.8516719207763668,8.269871809387206
1789031207363999500,0.73699951171875,-3.2255881866455076,-4.932953245544433,8.421903614807128
1789031207374005500,0.747005615234375,-2.6804583961486816,-5.078251358795166,8.094496537780762
1789031207384012500,0.757012451171875,-2.971802810668945,-5.279513935852051,7.49534757232666
1789031207394018300,0.767018310546875,-2.742857276916504,-5.021089794158935,6.9348051086425775
1789031207404025600,0.777025634765625,-4.1009681686401365,-2.945616230010986,4.825513446044922
1789031207414031600,0.787031494140625,-5.218312155914306,-4.043656966400146,4.931157594299316
1789031207424037400,0.797037353515625,-4.16231958618164,-3.8328175827026363,4.359541947937012
1789031207434044400,0.80704443359375,-3.262847949981689,-4.897938046264648,4.848856912231445
1789031207444050400,0.817050537109375,-2.926612254333496,-8.498518067932128,5.566518859863281
1789031207454057500,0.827057373046875,-2.2922984519958494,-12.95442663269043,6.832452987670898
1789031207464063500,0.8370634765625,-1.1706149742126464,-15.270667101287842,7.707832969665527
1789031207474070500,0.847070556640625,-1.3862427612304686,-15.14317586288452,7.976582106018066
1789031207484076500,0.85707666015625,-2.051681185150146,-15.15634397201538,6.18003303527832
1789031207494083300,0.867083251953125,-1.8930653251647949,-14.741847809600829,4.9732057609558105
1789031207504090400,0.87709033203125,-1.8076222534179687,-11.449970164489745,4.307916974639892
1789031207514096400,0.887096435546875,-2.8625673599243164,-7.352443660736084,3.4434605377197265
1789031207524103200,0.897103271484375,-3.505560143280029,-4.729895017242431,2.880074959564209
1789031207534109200,0.907109130859375,-3.686771281433105,-3.6545991966247557,2.4914661026000977
1789031207544116200,0.9171162109375,-3.770568339538574,-3.539677516937256,1.3959692054748534
1789031207554122200,0.927122314453125,-3.3090859695434567,-4.144363073730468,0.5035305366516113
1789031207564129000,0.93712890625,-2.8631659103393554,-4.745756603240967,0.32306758651733397
1789031207574135300,0.94713525390625,-3.0768484085083005,-5.253177717590332,0.6760626937866211
1789031207584141300,0.957141357421875,-2.9613281784057617,-6.358550696563721,1.1127052215576172
1789031207594148000,0.967148193359375,-2.705747151184082,-7.255179218292236,0.9252093040466308
1789031207604154000,0.977154052734375,-2.3274632888793945,-7.924059307098388,0.1592144104003906
1789031207614161200,0.9871611328125,-2.235286524963379,-7.711274634552002,-0.5240308883666992
1789031207624167200,0.997167236328125,-3.3361703758239742,-8.100482041931151,-1.2126631408691406
1789031207634174200,1.00717431640625,-4.982483292388916,-10.60436806564331,-2.2273557319641113
1789031207644180200,1.01718017578125,-5.363610269165039,-12.405705539703368,-2.099565218353271
1789031207654187300,1.027187255859375,-6.0054059516906735,-12.143690095520018,-1.1623849060058593
1789031207664193300,1.037193359375,-3.3460464576721187,-10.493336963653563,-0.2989759323120117
1789031207674199000,1.047198974609375,-1.0729016189575196,-9.171438372039795,0.009726444244384765
1789031207684206300,1.057206298828125,-1.6858172439575194,-8.648903859710693,0.15951368560791016
1789031207694212000,1.067212158203125,-3.807528827667236,-9.094973556518553,0.41674072647094723
1789031207704219100,1.07721923828125,-4.365976364898682,-9.495254146575927,0.8445546356201171
1789031207714225400,1.087225341796875,-3.619135084533691,-9.674669633483886,1.2183493698120116
1789031207724232200,1.097232177734375,-3.1311668586730956,-10.37452470626831,1.3747206657409667
1789031207734238200,1.10723828125,-1.3838485595703125,-10.317812054443358,1.2214917594909667
1789031207744245200,1.117245361328125,-0.539443561553955,-9.950451737213134,1.6566379112243652
1789031207754251300,1.127251220703125,-1.6545429847717283,-8.709207814025879,1.8088193542480469
1789031207764257300,1.13725732421875,-3.125779904937744,-9.169044170379639,1.55129303817749
1789031207774264000,1.14726416015625,-4.221276802062988,-9.463830249786376,1.5583260055541992
1789031207784270300,1.157270263671875,-5.794117655181885,-7.507168943023681,1.9188029930114745
1789031207794277000,1.167277099609375,-4.658966793060302,-5.775113679504394,1.0621277114868164
1789031207804283100,1.177283203125,-6.956502561187744,-10.049212555694579,-0.23687632675170897
1789031207814290200,1.187290283203125,-6.992415586090088,-16.98371838912964,-2.324470536804199
1789031207824296200,1.197296142578125,-5.440075084686279,-20.919337005615233,-2.3992893386840817
1789031207834303200,1.20730322265625,-2.0527286483764646,-21.01106485671997,-0.14634557647705076
1789031207844309000,1.21730908203125,1.834856297302246,-18.24127281112671,2.446275546264648
1789031207854315300,1.227315185546875,2.2833201957702633,-14.251335744476318,3.8045360755920408
1789031207864322300,1.237322265625,-0.8372223930358886,-10.718541557312012,3.999813148498535
1789031207874328000,1.247328125,-5.039345581817627,-7.662043862915039,3.4970307998657226
1789031207884335400,1.25733544921875,-8.118139279174803,-6.133046827697753,3.520224628448486
1789031207894341000,1.267341064453125,-8.418162674713134,-6.266224295043945,3.661332888793945
1789031207904348200,1.27734814453125,-6.341043096923828,-7.304260352325439,2.667290287017822
1789031207914354200,1.287354248046875,-3.1904233497619625,-8.651447698974609,1.25770405960083
1789031207924361200,1.297361328125,-1.7055694076538086,-9.765798934173583,0.4948515556335449
1789031207934367200,1.3073671875,-1.6959926010131834,-10.234613546752929,0.4914098907470703
1789031207944374000,1.3173740234375,-3.5212720916748044,-0.38456864166259763,4.786158756256103
1789031207954380300,1.32738037109375,-4.814889176177978,-3.989637791442871,1.0998363876342774
1789031207964386300,1.33738623046875,-4.138976119995117,-14.730624989318846,-3.4671032791137693
1789031207974393000,1.34739306640625,-4.020463137817383,-11.947515196990967,-0.4465186096191406
1789031207984399000,1.357399169921875,-3.5296517974853514,-10.986243230438232,1.1604396171569824
1789031207994406100,1.36740625,-2.401234627532959,-5.773318028259277,3.388992449951172
1789031208004412200,1.377412109375,-1.9819500617980956,14.678850378417968,9.3346929977417
1789031208014419200,1.387419189453125,-8.042123376464843,-6.3907227813720695,-2.608781983947754
1789031208024425200,1.39742529296875,-2.8776807579040526,-17.25695665359497,-5.490802232360839
1789031208034432300,1.407432373046875,-2.814982601928711,-18.605341101074217,-3.4126351913452146
1789031208044438000,1.41743798828125,-3.125181354522705,-19.374179109191893,0.05327098693847656
1789031208054445300,1.4274453125,-0.9657610946655273,-10.385597888946533,6.14172580871582
1789031208064451300,1.437451416015625,-1.8707693222045898,-4.639962817382812,6.350619903564453
1789031208074457000,1.44745703125,-5.273827706909179,-3.7831378982543944,6.8685156501770015
1789031208084464400,1.45746435546875,-7.097910096740722,-6.983886242675781,7.991845141601562
1789031208094470100,1.46747021484375,-4.7387236358642575,-9.08584566268921,7.75676446609497
1789031208104477200,1.477477294921875,-2.246658982849121,-8.649352772521972,6.669347999572754
1789031208114483200,1.487483154296875,-1.4733318466186522,-8.654290813446044,5.125836116790771
1789031208124490200,1.497490234375,-2.9177836357116695,-8.837297602844238,4.064157318115234
1789031208134496300,1.507496337890625,-4.749198268127441,-8.630199159240723,4.4373535018920895
1789031208144503000,1.5175029296875,-4.020612775421142,-8.332420327758788,4.889109427642822
1789031208154509300,1.52750927734375,-3.571400688934326,-7.724293106079101,4.266766633605957
1789031208164516000,1.53751611328125,-3.9264907226562498,-7.802403935241699,3.478026824188232
1789031208174522000,1.547522216796875,-4.20676195449829,-8.491934013366699,2.8565818557739258
1789031208184528100,1.557528076171875,-3.425204750061035,-8.740781348419189,2.4838345848083496
1789031208194535200,1.56753515625,-4.933551795959472,-10.828974108886719,2.3247698120117186
1789031208204541200,1.577541259765625,-3.533692012786865,-10.001627797698974,2.047491332244873
1789031208214548200,1.58754833984375,-2.922123126220703,-7.315782447814941,2.6663924613952634
1789031208224554200,1.59755419921875,-4.345924925994873,-6.29510435256958,4.463240807342529
1789031208234561300,1.607561279296875,-4.536114320373535,-5.6015340591430665,5.3296425331115715
1789031208244567000,1.617567138671875,-3.8621465530395507,-4.963778591918945,5.345055206298828
1789031208254574300,1.62757421875,-4.501847309112549,-5.7713727394104,5.515043524169921
1789031208264580400,1.637580322265625,-3.5887586509704588,-6.425438705444336,5.2563201072692864
1789031208274587100,1.647587158203125,-2.118868469238281,-5.849034655761718,5.5276130828857415
1789031208284593200,1.65759326171875,-3.066972326660156,-6.197540634918212,6.043264265441894
1789031208294600200,1.66760009765625,-5.061491947174072,-7.304260352325439,5.963657060241699
1789031208304606200,1.677606201171875,-4.187159428405762,-6.777535987091064,5.397129092407226
1789031208314612200,1.6876123046875,-1.868674395751953,-7.152228546905517,5.233874466705322
1789031208324619300,1.697619384765625,-1.1807903312683106,-7.306355278778076,6.589591156768798
1789031208334625300,1.707625244140625,-3.1670798835754392,-6.9068228767395015,7.5333555236816405
1789031208344632000,1.717632080078125,-4.686799387359619,-8.686163623046875,7.852233257293701
1789031208354638000,1.72763818359375,-3.7077205459594724,-9.394248764038085,7.287650578308105
1789031208364645000,1.73764501953125,-2.1978771240234374,-8.858845417785645,5.090372004699707
1789031208374651100,1.747651123046875,-2.1498434532165525,-7.962516171264648,3.516932601165771
1789031208384658200,1.757658203125,-2.991704611968994,-4.712387417602539,1.4541782333374023
1789031208394664200,1.767664306640625,-3.536385489654541,-2.999934680175781,-0.09472060317993164
1789031208404671200,1.777671142578125,-3.7092169219970703,-3.948637088012695,0.45025954971313475
1789031208414677200,1.78767724609375,-3.675997373962402,-6.18033231048584,2.9191303741455075
1789031208424684300,1.797684326171875,-3.7440824836730955,-7.87168614578247,4.39276149597168
1789031208434690300,1.807690185546875,-2.777722838592529,-9.025990621185302,5.013907189178466
1789031208444696000,1.817696044921875,-1.3705308128356932,-9.593566052246093,5.569212336730956
1789031208454703000,1.827703125,-2.175132208251953,-9.314940834045409,6.529287202453613
1789031208464709400,1.83770947265625,-3.240701584625244,-9.432406352996825,6.9618895149230955
1789031208474716200,1.847716064453125,-4.120421057128906,-9.719860189819336,7.64199242401123
1789031208484722200,1.85772216796875,-3.98365228729248,-8.750807067871094,6.72261898651123
1789031208494729200,1.867729248046875,-3.0789433349609374,-7.653963432312011,5.456235945892334
1789031208504734700,1.877734619140625,-3.744980309295654,-7.76963330001831,4.744559502410889
1789031208514741800,1.88774169921875,-3.478176461791992,-7.6008420829772945,2.9728502738952636
1789031208524747800,1.897747802734375,-3.3578678283691406,-8.93755479736328,4.440795166778564
1789031208534754800,1.9077548828125,-3.4157775810241695,-9.607183074188232,5.594501091766357
1789031208544760800,1.9177607421875,-4.489427388000488,-10.767473053741455,6.190806942749023
1789031208554768000,1.927767822265625,-2.5189994216918943,-10.639682540130615,3.65804086151123
1789031208564774000,1.93777392578125,-2.314145542144775,-10.161889671325683,4.295796328735351
1789031208574780700,1.94778076171875,-3.1292215698242187,-9.307907866668701,2.5522189697265625
1789031208584786700,1.95778662109375,-3.3948283164978026,-7.908496996307373,1.2737152832031249
1789031208594793000,1.96779296875,-4.7752352111816405,-9.605537060546874,1.177947216796875
1789031208604799700,1.9777998046875,-5.08827707824707,-10.153809240722655,-0.00613514175415039
1789031208614805800,1.9878056640625,-4.4273277824401855,-9.16156229019165,0.17328034515380858
1789031208624812800,1.997812744140625,-2.932298483276367,-8.848071510314941,1.7992425476074219
1789031208634818800,2.00781884765625,-1.8638859924316404,-8.559869485473632,4.200177899932861
1789031208644825600,2.01782568359375,-2.4823382087707517,-9.767594585418701,7.574805139923095
1789031208654831600,2.02783154296875,-3.39018955078125,-9.804854348754882,9.944466233062743
1789031208664839000,2.0378388671875,-3.5109470970153804,-8.629151696014404,11.14066923751831
1789031208674844700,2.0478447265625,-3.9631519355773923,-8.705017961120605,10.686668747711181
1789031208684851700,2.057851806640625,-4.409670545196533,-8.673594064331054,8.71429549255371
1789031208694857700,2.067857666015625,-4.0714895606994626,-7.841608987426757,6.967875019073486
1789031208704864800,2.07786474609375,-4.294449590301514,-8.173355554962157,6.231658008575439
1789031208714870800,2.087870849609375,-3.6158430572509763,-6.916698958587646,4.3555017326354974
1789031208724876500,2.09787646484375,-3.521122454071045,-6.750152305603027,4.278737641906738
1789031208734883800,2.1078837890625,-3.666420567321777,-7.646032639312744,5.95662409286499
1789031208744889900,2.117889892578125,-3.774458917236328,-8.354566693115235,8.367585164642334
1789031208754896600,2.127896728515625,-5.059546658325195,-8.83565158920288,9.41040962524414
1789031208764903000,2.13790283203125,-4.7469537040710446,-8.870068238067626,9.271994841766357
1789031208774909700,2.14790966796875,-2.779967402648926,-9.890596695709228,8.737938233947753
1789031208784915700,2.157915771484375,-2.624643569946289,-10.553940193176269,5.0394952194213865
1789031208794922800,2.1679228515625,-3.693355335998535,-12.200103472137451,3.0877719535827635
1789031208804928800,2.1779287109375,-4.440346253967285,-13.177985212707519,0.9100959060668945
1789031208814935800,2.187935791015625,-5.9771244445800775,-13.045855208587646,-0.5054758255004882
1789031208824941600,2.197941650390625,-6.950217781829833,-11.988216625213623,0.12195464706420897
1789031208834948900,2.207948974609375,-6.687753424835205,-10.197653058624267,0.6136638130187988
1789031208844954600,2.21795458984375,-5.004480020141601,-7.120804650115966,0.2775777549743652
1789031208854961700,2.227961669921875,-2.785952906799316,-5.994332769012451,2.3077111251831055
1789031208864968000,2.237968017578125,-2.118269918823242,-6.599018325805663,4.82012649230957
1789031208874973700,2.2479736328125,-3.980060984802246,-4.655674765777587,5.405209523010254
1789031208884980700,2.257980712890625,-4.255992726135253,-2.8790274963378906,5.4686558670043945
1789031208894986800,2.26798681640625,-2.447771922302246,-3.698592652130127,5.480626875305176
1789031208904993800,2.277993896484375,-1.605611488342285,-4.1566333572387695,5.75221912612915
1789031208914999800,2.287999755859375,-2.482188571166992,-3.8144121574401852,6.268768134307861
1789031208925006600,2.298006591796875,-3.7491701622009277,-4.02794501800537,6.508936488342285
1789031208935012900,2.308012939453125,-4.44962378540039,-3.2339678924560546,6.041468614196777
1789031208945019600,2.31801953125,-4.483741159057617,-2.5124153671264646,4.059368914794922
1789031208955025700,2.328025634765625,-3.9873932273864745,-3.0137013397216794,3.0541034927368162
1789031208965032700,2.33803271484375,-2.7748797241210936,-5.729623847961426,3.716399526977539
1789031208975038700,2.348038818359375,-2.8130373130798336,-7.22031365661621,4.086303683471679
1789031208985045800,2.358045654296875,-4.642357019042969,-5.1894320983886715,4.1189246810913085
1789031208995051500,2.368051513671875,-6.079775840759277,-3.9309798507690425,4.331410078430175
1789031209005058800,2.378058837890625,-4.571728070068359,-4.736329434204102,4.34158543548584
1789031209015064800,2.38806494140625,-0.6162076522827148,-6.005256314086914,4.046948993682861
1789031209025070600,2.398070556640625,-3.3171664001464842,-6.4561144142150875,4.0520366722106935
1789031209035078000,2.408077880859375,-4.687098662567139,-6.8402341430664055,4.337096307373047
1789031209045083600,2.418083740234375,-4.021061688232422,-6.776189248657226,3.986944314575195
1789031209055090700,2.428090576171875,-3.801992236328125,-7.247697338104247,3.7802947837829586
1789031209065097000,2.438096923828125,-4.029441394042968,-7.636455832672119,3.7274727096557614
1789031209075103700,2.448103759765625,-3.976768957519531,-8.416965573883056,3.656245210266113
1789031209085109800,2.45810986328125,-4.68590156173706,-9.87712931137085,4.139425032806396
1789031209095116800,2.46811669921875,-4.738274723052978,-9.074173929595947,3.8099230293273925
1789031209105122800,2.478122802734375,-4.433911837005615,-7.400477331542969,3.337666751861572
1789031209115129600,2.488129638671875,-4.224868104553223,-7.441029122161865,3.366247534179687
1789031209125135600,2.498135498046875,-4.229506870269775,-7.700500727081298,3.328688495635986
1789031209135143000,2.508142822265625,-4.242226066589355,-7.883208241271972,3.609558277893066
1789031209145148700,2.518148681640625,-3.577835105895996,-7.8529814453124995,3.8578070625305174
1789031209155155700,2.52815576171875,-3.1947628402709958,-8.312069613647461,4.313303928375244
1789031209165161700,2.53816162109375,-3.367145359802246,-8.873210627746582,4.634276588439941
1789031209175168800,2.548168701171875,-3.4439094505310055,-9.348758932495116,4.672583815002441
1789031209185174800,2.5581748046875,-3.7460277725219724,-9.479841473388671,4.592228421783447
1789031209195180500,2.5681806640625,-3.9935283691406247,-9.356091175079346,4.613626599121093
1789031209205187800,2.578187744140625,-4.3813890380859375,-8.942193563079833,4.6532805641174315
1789031209215193900,2.58819384765625,-4.6064439941406246,-8.316708379364012,4.533570481109619
1789031209225200600,2.59820068359375,-4.290409374999999,-7.872883246612548,4.4470799461364745
1789031209235207000,2.60820703125,-3.8072295524597166,-7.652167781066894,4.377199185180664
1789031209245213700,2.618213623046875,-3.4174235946655274,-7.555501889038085,4.306420598602295
1789031209255219700,2.6282197265625,-3.275716783905029,-7.6187985954284665,4.3725604194641114
1789031209265226800,2.638226806640625,-3.3253964683532713,-7.856123834991455,4.734234507751465
1789031209275232800,2.648232666015625,-3.4171243194580074,-8.107664646911621,5.138256037902832
1789031209285239800,2.65823974609375,-3.574543078613281,-8.107066096496581,5.439626171875
1789031209295245600,2.66824560546875,-3.6852749053955076,-8.10901138534546,5.670516994476318
1789031209305252900,2.6782529296875,-3.3174656753540037,-8.136544704437256,5.900061078643798
1789031209315258600,2.688258544921875,-2.7373206855773926,-8.181136710357665,5.899911441040039
1789031209325265700,2.698265625,-2.24067347869873,-8.103175518798828,5.531503660583496
1789031209335272000,2.70827197265625,-1.7899650161743164,-8.084021905517577,4.908861591339111
1789031209345278700,2.71827880859375,-1.3287819213867187,-8.173205917358398,4.4750621780395505
1789031209355284700,2.72828466796875,-1.0021230323791503,-8.219593574523925,4.3640310760498044
1789031209365291800,2.738291748046875,-1.3527239379882812,-8.240393201446533,4.687846850585937
1789031209375297800,2.7482978515625,-2.0026000511169433,-8.377311608886718,5.339219339752197
1789031209385303800,2.7583037109375,-2.596960613250732,-8.415918110656738,6.129904438018799
1789031209395310600,2.768310546875,-3.136553812408447,-8.413823184204102,6.846668560028076
1789031209405316900,2.77831689453125,-3.531896361541748,-8.32478880996704,7.225102059936523
1789031209415323600,2.78832373046875,-3.764283560180664,-8.340351120758056,7.414393628692626
1789031209425329700,2.79832958984375,-3.871274446868896,-8.22288560180664,7.135169860076904
1789031209435336700,2.808336669921875,-3.643526013946533,-7.867945205688476,6.318597456359863
1789031209445342700,2.8183427734375,-3.2516251296997067,-7.975385005187988,5.57340218963623
1789031209455349800,2.828349853515625,-3.514987312316894,-8.32508808517456,4.808305121612548
1789031209465355500,2.83835546875,-2.888903578186035,-8.664466170501708,3.161393654632568
1789031209475362800,2.84836279296875,-2.1157260795593262,-9.255534705352783,2.1718401809692383
1789031209485368800,2.858368896484375,-2.6261399459838866,-9.62783306350708,1.8020856620788572
1789031209495375600,2.868375732421875,-2.7041011375427244,-9.747393508911133,2.607435245513916
1789031209505381600,2.878381591796875,-2.397942600250244,-9.294590119934082,4.143016335296631
1789031209515388400,2.888388427734375,-2.3062147491455076,-8.477269528198242,5.486911654663086
1789031209525394400,2.89839453125,-1.483058290863037,-7.620294971466064,6.2128036705017085
1789031209535401500,2.9084013671875,-1.2415431983947753,-7.307552379608154,6.468683972930908
1789031209545407500,2.918407470703125,-1.8275240547180174,-7.513902635192871,6.490531063079834
1789031209555414500,2.92841455078125,-1.7802385719299316,-7.705139492797851,6.2493152458190915
1789031209565420300,2.938420166015625,-1.9399018951416014,-7.947103498077392,5.399822569274902
1789031209575427600,2.948427490234375,-2.5145102935791015,-8.079383139801024,4.413710760498047
1789031209585433600,2.95843359375,-2.6713305023193357,-8.147767524719237,4.059368914794922
1789031209595440400,2.9684404296875,-2.3675661666870114,-7.968800950622558,4.232200347137451
1789031209605446700,2.97844677734375,-2.4269722953796387,-7.658901473236083,4.664802659606933
1789031209615453400,2.988453369140625,-2.223016241455078,-7.653364881896972,5.146186830902099
1789031209625459500,2.99845947265625,-1.8665794692993163,-8.066813581085205,5.370194323730469
1789031209635466500,3.008466552734375,-1.8198925369262695,-8.378957622528075,5.070021290588379
1789031209645472500,3.018472412109375,-2.1273978126525876,-8.598176712036132,4.508730638885498
1789031209655478500,3.028478515625,-2.3555951583862305,-8.978555500793457,4.172794218444824
1789031209665485300,3.0384853515625,-2.26641114654541,-9.264363323974608,4.036474361419677
1789031209675491600,3.04849169921875,-2.0780174034118652,-9.316287572479247,3.6942531616210936
1789031209685498400,3.058498291015625,-2.1058499977111813,-9.339032488250732,3.152565036010742
1789031209695504400,3.06850439453125,-2.1238065101623533,-9.567379471588135,3.2785598983764648
1789031209705511700,3.07851171875,-2.0925322509765625,-9.522937103271484,3.714903150939941
1789031209715517400,3.088517333984375,-1.4719851081848143,-9.14225903930664,4.043956241607666
1789031209725524500,3.0985244140625,-0.9240122032165526,-8.578125273132324,4.4583027664184565
1789031209735530500,3.108530517578125,-0.5671265182495117,-8.032696207427978,5.069871652984619
1789031209745537500,3.11853759765625,-0.8836100502014159,-7.574056951904296,5.3305403587341305
1789031209755543600,3.12854345703125,-1.025915411376953,-7.570764924621582,5.495291360473632
1789031209765550300,3.13855029296875,-1.1501146224975585,-7.950545162963866,5.650764830780029
1789031209775556600,3.148556640625,-1.0678139404296874,-8.299799330139159,5.549759448242187
1789031209785563400,3.1585634765625,-0.7730278610229492,-8.31236888885498,5.291335306549072
1789031209795569400,3.1685693359375,-1.120336739349365,-8.110358123779296,5.080346285247803
1789031209805576400,3.178576416015625,-1.0902595809936524,-8.034042945861817,5.1146132965087885
1789031209815582500,3.18858251953125,-1.7155951271057128,-8.142530208587646,4.57127915725708
1789031209825589500,3.198589599609375,-0.8770259956359863,-8.901492134857177,4.313902478790283
1789031209835595500,3.208595458984375,-1.3513771995544432,-9.159168088531494,4.47551109085083
1789031209845602600,3.2186025390625,-1.678335363769531,-9.285013313293456,4.305522772979736
1789031209855608600,3.228608642578125,-1.5728408531188964,-9.342773428344726,3.937713542938232
1789031209865615600,3.23861572265625,-2.225709718322754,-9.358036463928222,3.601178572082519
1789031209875621600,3.24862158203125,-2.090736599731445,-9.48687444076538,3.958962082672119
1789031209885628400,3.25862841796875,-1.921047557067871,-9.325116191101074,4.2515035980224605
1789031209895634400,3.268634521484375,-1.5496470245361327,-8.949376168060303,4.624250868988037
1789031209905641500,3.278641357421875,-1.4924854598999022,-8.81619870071411,4.523844036865234
1789031209915647500,3.2886474609375,-1.369483349609375,-8.713696942138672,4.322731097412109
1789031209925654500,3.298654541015625,-1.6490063934326171,-8.652794437408447,4.5331215682983395
1789031209935660500,3.30866064453125,-1.38549457321167,-8.736142582702636,4.748300442504883
1789031209945667600,3.31866748046875,-1.4257470886230468,-8.520215520477294,5.06253941040039
1789031209955673300,3.32867333984375,-0.7643488800048828,-8.32508808517456,5.231779540252686
1789031209965680600,3.3386806640625,-0.5551555099487304,-8.033594033050537,5.204844771575927
1789031209975686700,3.348686767578125,-0.8327332649230956,-7.905354606628418,4.949413381958007
1789031209985693400,3.358693359375,-0.9977835418701171,-8.049006706237792,4.874444942474365
1789031209995699500,3.368699462890625,-2.03671742477417,-8.193556631469725,4.74351203918457
1789031210005706500,3.37870654296875,-1.9551649307250976,-8.703970497894286,4.425382493591308
1789031210015712500,3.38871240234375,-1.3385083656311034,-9.046790248107909,4.467580297851562
1789031210025718500,3.398718505859375,-1.431433317565918,-9.129988755798339,4.603750517272949
1789031210035725600,3.4087255859375,-1.5195698661804198,-9.41025998764038,4.2791865547180175
1789031210045731600,3.418731689453125,-1.7476175743103026,-9.617358431243895,3.761590083312988
1789031210055738400,3.42873828125,-2.045546043395996,-9.51261210861206,3.7104140228271483
1789031210065744400,3.438744384765625,-2.316689381408691,-9.240421307373046,4.0717888359069825
1789031210075751400,3.44875146484375,-2.539050860595703,-9.02150149307251,4.653579839324951
1789031210085757400,3.45875732421875,-2.9132945075988768,-8.911517854309082,5.079598097229003
1789031210095764500,3.468764404296875,-3.5480572227478024,-9.030180474090576,5.195866515350342
1789031210105770500,3.4787705078125,-4.2034699272155756,-9.243264421844481,5.475988109588623
1789031210115777500,3.488777587890625,-4.886715225982666,-9.383325218963623,6.488585774230956
1789031210125783600,3.498783447265625,-5.714809725189209,-9.467720827484131,7.924657857513427
1789031210135790600,3.50879052734375,-6.295702902984619,-9.6396544342041,8.973018909454344
1789031210145796600,3.518796630859375,-5.60557427444458,-9.92172131729126,9.253739054107665
1789031210155803400,3.528803466796875,-4.406977068328858,-9.857077872467041,8.721777372741698
1789031210165809400,3.538809326171875,-3.334673999786377,-9.713276135253906,8.225579078674317
1789031210175816400,3.54881640625,-2.000205849456787,-9.379733916473388,8.195651557922362
1789031210185822500,3.558822509765625,-1.5466542724609373,-8.792256684112548,8.262389929199218
1789031210195829500,3.56882958984375,-2.1054010848999023,-8.29306563796997,8.467991996765136
1789031210205835500,3.57883544921875,-3.0301614761352536,-8.224232340240478,9.02718772201538
1789031210215842600,3.588842529296875,-3.9366660797119137,-8.538770583343505,9.662997900390625
1789031210225848300,3.598848388671875,-4.444835382080078,-9.028235185241698,9.733477211761475
1789031210235855600,3.608855712890625,-4.45022233581543,-9.360281027984618,8.935160595703124
1789031210245861600,3.618861572265625,-3.7496190750122067,-9.38422304458618,7.920318367004394
1789031210255868400,3.628868408203125,-2.906111902618408,-9.196577489471435,7.478737798309326
1789031210265874400,3.63887451171875,-2.9135937828063962,-8.875904104614257,7.281665074157714
1789031210275881500,3.648881591796875,-3.3551743515014647,-8.384194938659668,6.853102976989746
1789031210285887500,3.658887451171875,-4.115632653808594,-7.867496292877197,6.497863305664062
1789031210295894300,3.668894287109375,-4.67318236541748,-7.6288243148803705,6.443544855499267
1789031210305900500,3.678900634765625,-4.8980876838684075,-7.2988733985900875,6.617423751068115
1789031210315907600,3.688907470703125,-5.129277781677246,-6.689848351287841,6.457012239837646
1789031210325913300,3.698913330078125,-5.356876576995849,-5.652261206817626,6.1833250625610345
1789031210335920600,3.708920654296875,-4.578910675048828,-4.746504791259765,5.952134964752197
1789031210345926400,3.718926513671875,-4.725555526733398,-4.13703083114624,5.44576131362915
1789031210355933400,3.728933349609375,-5.546617058563232,-4.179976823425292,5.415833792877197
1789031210365939500,3.738939453125,-5.697601400756835,-4.667795411682128,5.249287139892578
1789031210375946500,3.748946533203125,-5.884349130249023,-4.780771802520752,4.604797980499267
1789031210385952500,3.758952392578125,-5.763591584014892,-4.888810152435302,4.049492832946777
1789031210395959300,3.768959228515625,-5.422268209838867,-5.0571524566650385,3.3301848716735836
1789031210405965600,3.778965576171875,-5.354183100128173,-4.206163404083251,2.874388730621338
1789031210415972400,3.788972412109375,-5.093664031982422,-2.572420046234131,3.5947441551208494
1789031210425978400,3.798978271484375,-4.759523262786865,-1.0883142921447753,4.553621920013428
1789031210435985700,3.808985595703125,-4.201524638366699,0.018704700469970702,5.24779076385498
1789031210445991400,3.818991455078125,-4.491372676849365,0.881664761352539,5.7980082328796385
1789031210455998500,3.82899853515625,-5.556792415618896,1.1040262405395507,6.151152977752685
1789031210466004500,3.83900439453125,-6.826916396331787,0.5285200164794922,6.174047531127929
1789031210476011500,3.849011474609375,-6.3521162796020505,-0.6949170318603515,5.491550420379638
1789031210486017500,3.859017578125,-4.947019180297851,-1.3150152618408202,4.806659107971191
1789031210496024600,3.869024658203125,-4.312106827545166,-0.8827122245788573,4.800823241424561
1789031210506030600,3.879030517578125,-5.568314511108398,0.08274959487915039,4.837334816741943
1789031210516038100,3.8890380859375,-6.772597946166992,0.6106710609436035,4.572176982879639
1789031210526044200,3.899044189453125,-7.391798350524902,0.6775590698242188,3.631255730438232
1789031210536051000,3.909051025390625,-8.03703569793701,0.06150105514526367,3.286041778564453
1789031210546057000,3.919056884765625,-8.940996462249755,-0.9879074600219726,3.5965398063659664
1789031210556064300,3.929064208984375,-8.008305278015136,-1.6684592819213866,3.9255928970336913
1789031210566070000,3.939070068359375,-6.667253073120117,-1.9514239906311035,4.708796115112304
1789031210576077000,3.9490771484375,-6.387430754089355,-2.4814403831481933,6.682366471099853
1789031210586083000,3.9590830078125,-7.509862419891357,-2.851344539642334,9.174880036926268
1789031210596090000,3.969090087890625,-7.809137627410888,-2.9302035568237303,10.536133318328856
1789031210606096100,3.97909619140625,-7.44402187423706,-2.4932617538452146,10.235062459564208
1789031210616103200,3.989103271484375,-8.780734588623046,-1.4155717315673828,8.618228150939942
1789031210626109200,3.999109130859375,-10.222343263244628,0.18719664230346678,6.3515177291870115
1789031210636116000,4.009115966796875,-10.465205094146729,0.45444940261840816,4.9157449211120605
1789031210646122000,4.0191220703125,-10.36255369796753,-0.8934861320495605,4.132242427825927
1789031210656129000,4.02912890625,-9.479242922973633,-2.5767595367431637,2.9728502738952636
1789031210666135000,4.039135009765625,-7.727435495758056,-4.0252515411376955,2.5513211441040036
1789031210676142000,4.04914208984375,-5.699995602416992,-3.6150948692321774,4.5678374923706055
1789031210686148000,4.059148193359375,-4.517858532714843,-1.9493290641784666,8.265083406066895
1789031210696155100,4.069155029296875,-4.572925170898437,-0.4704606262207031,10.368988114929198
1789031210706161000,4.079160888671875,-6.048351943969727,0.754622435760498,8.925733426666259
1789031210716168200,4.089168212890625,-6.830358061218261,0.7945756759643554,6.624755993652343
1789031210726174200,4.09917431640625,-6.86941347579956,-0.9757868141174316,7.365312494659423
1789031210736181000,4.109180908203125,-9.317783948516846,-1.6885107208251953,6.508637213134765
1789031210746187000,4.11918701171875,-11.40223576889038,-2.15148946685791,5.440523997497558
1789031210756194000,4.129194091796875,-11.518803462219237,-3.0934581825256346,5.039794494628906
1789031210766200000,4.139199951171875,-9.52563058013916,-3.9303813003540036,4.243872080230712
1789031210776206800,4.149206787109375,-7.857021660614013,-3.3036990158081054,3.789572315216064
1789031210786213000,4.159213134765625,-7.181407879638671,-1.9895815795898437,4.560355612182617
1789031210796220200,4.16922021484375,-6.56310530090332,-1.243638124847412,6.0324903579711915
1789031210806226000,4.179225830078125,-6.068104107666016,-0.7495347572326659,7.314585346984863
1789031210816233200,4.189233154296875,-6.373514456939697,-0.08140285644531249,7.5519105865478515
1789031210826240000,4.199239990234375,-7.093420968627929,-0.09741408004760742,7.216722354125976
1789031210836246000,4.20924609375,-7.6176014945983885,-1.006761798095703,6.4739212890625
1789031210846253000,4.219253173828125,-8.266579782104492,-2.1538836685180662,5.390395400238037
1789031210856259000,4.229259033203125,-8.37566559524536,-2.655319278717041,4.76910006942749
1789031210866266000,4.23926611328125,-7.3802762550354,-2.5095722526550293,4.707748651885986
1789031210876271900,4.24927197265625,-6.445939057159423,-1.9897312171936035,4.893748193359374
1789031210886279200,4.259279052734375,-6.272808349609375,-0.8128314636230468,5.0179474044799806
1789031210896285200,4.26928515625,-6.598270137786865,0.2867056488037109,5.898115789794922
1789031210906292000,4.2792919921875,-7.482029825592041,0.3553893089294433,7.218817280578613
1789031210916298200,4.28929833984375,-8.328529750061035,0.048183308410644526,7.428758838653564
1789031210926305000,4.299304931640625,-9.072378278350829,-0.6280290229797363,7.8244006629943845
1789031210936311000,4.30931103515625,-10.912322254180907,-1.952920366668701,8.224381977844239
1789031210946318000,4.319318115234375,-11.465382837677002,-3.6721067962646483,9.106346014404297
1789031210956324000,4.329323974609375,-10.62995609588623,-5.678298149871826,9.4105592628479
1789031210966331000,4.339330810546875,-9.358934289550781,-6.2675710334777825,6.970568495941162
1789031210976337000,4.3493369140625,-8.515127841949463,-4.345326375579834,4.183568125915527
1789031210986344200,4.35934423828125,-8.374019581604003,-2.1058499977111813,3.7351042274475095
1789031210996350000,4.369349853515625,-8.738686421966552,-0.579696076965332,3.454683358001709
1789031211006357000,4.37935693359375,-8.463951781463622,0.20605098037719724,4.603750517272949
1789031211016363300,4.38936328125,-8.675389715576172,-1.3823521835327148,5.7329158752441405
1789031211026370000,4.3993701171875,-7.798214082336425,-2.9530981101989746,4.901230073547363
1789031211036376000,4.4093759765625,-6.271910523986816,-2.325817275238037,3.146280256652832
1789031211046383000,4.419383056640625,-5.421071109008789,-1.1595417915344237,0.9293991569519042
1789031211056389000,4.42938916015625,-4.697872570037841,-0.28805238723754883,-0.03426701126098632
1789031211066396000,4.43939599609375,-5.403413871765136,0.5731120223999023,0.6579565437316894
1789031211076402200,4.449402099609375,-6.6145806365966795,0.2893991256713867,2.5137621055603026
1789031211086409200,4.4594091796875,-6.6896987136840815,-0.538845011138916,3.3162685745239258
1789031211096415000,4.4694150390625,-7.945158209228516,-0.8367734802246093,3.5633202583312986
1789031211106422300,4.47942236328125,-8.7455697517395,-0.04878185882568359,5.15830747680664
1789031211116428000,4.489427978515625,-8.6321444480896,1.1106102951049803,7.849090867614746
1789031211126435000,4.49943505859375,-7.557297540283202,0.9859621711730956,9.81906992111206
1789031211136441000,4.509441162109375,-7.708132244873046,-0.35583822174072266,11.262025334167479
1789031211146448100,4.5194482421875,-9.697264911651612,-1.1489175216674803,11.04520044631958
1789031211156455000,4.529454833984375,-10.006116925811767,-0.7870937957763672,9.085097474670409
1789031211166461000,4.5394609375,-8.967033405303955,-0.5090671279907226,6.369923154449462
1789031211176468200,4.54946826171875,-8.506897773742676,-1.5547347030639647,5.083488674926757
1789031211186474000,4.559473876953125,-7.639298947143554,-3.9037458068847655,6.297348916625976
1789031211196481000,4.56948095703125,-8.13953745651245,-4.225616292572021,6.436212612915039
1789031211206487300,4.5794873046875,-9.388712172698973,-2.4254759193420408,5.616497819519043
1789031211216494000,4.589494140625,-10.053552046203613,-0.6590040069580078,4.811896424102783
1789031211226500000,4.5995,-8.258200076293944,0.3101987525939941,5.886892969512939
1789031211236507100,4.609507080078125,-7.153575285339355,-0.03965396499633789,8.672097688293457
1789031211246513200,4.61951318359375,-6.381445249938965,-1.3076830192565918,9.94715970993042
1789031211256520000,4.62952001953125,-6.086359895324707,-2.31758720703125,8.250119645690917
1789031211266526000,4.63952587890625,-7.326107442474365,-2.3918074584960936,5.686228942871093
1789031211276533200,4.649533203125,-7.522282341003417,-1.324741706085205,3.742286832427978
1789031211286539000,4.6595390625,-6.552780306243896,0.26755203552246093,2.864662286376953
1789031211296546000,4.669546142578125,-5.581183345031738,1.0462661254882812,3.3143232856750484
1789031211306552000,4.679552001953125,-5.0848354133605955,0.8372223930358886,4.463689720153808
1789031211316559000,4.68955908203125,-4.841375032043457,0.18420389022827147,4.957942725372314
1789031211326565000,4.699565185546875,-4.956895262145996,-0.4656722229003906,4.809651860046387
1789031211336572200,4.709572265625,-5.470301880645752,-0.9232640151977538,4.637269340515137
1789031211346578200,4.719578125,-5.455038845062256,-0.9018658378601073,4.427627057647705
1789031211356585000,4.7295849609375,-4.9735050361633295,-0.38756139373779297,4.575169734954834
1789031211366591000,4.739591064453125,-4.2417771537780755,0.009427169036865234,5.379471855163574
1789031211376598000,4.749597900390625,-3.5262101325988766,-0.40880993347167965,5.766733973693848
1789031211386605000,4.75960498046875,-3.3845033218383787,-0.8598176712036132,5.385756634521484
1789031211396611000,4.769611083984375,-4.116231204223633,-1.1517606361389159,4.57771357421875
1789031211406618000,4.7796181640625,-6.553678131866454,-0.7769184387207031,3.2812533752441406
1789031211416624000,4.7896240234375,-8.928726178741455,0.6567594429016113,2.324320899200439
1789031211426631000,4.799630859375,-8.33077431411743,3.0258219856262207,2.690334477996826
1789031211436637200,4.80963720703125,-5.2444987365722655,4.190451455688477,4.179378273010253
1789031211446644000,4.81964404296875,-5.788132151031494,3.698443014526367,5.855618710327148
1789031211456650000,4.82964990234375,-8.542511523437499,1.9532196418762207,6.707655226135254
1789031211466657300,4.8396572265625,-8.901342497253417,-0.201112939453125,7.50133307647705
1789031211476663000,4.8496630859375,-9.395894777679443,-1.678335363769531,8.81604906311035
1789031211486670000,4.859670166015625,-8.284685932159423,-1.9674352142333984,10.276811351013183
1789031211496676000,4.869676025390625,-7.258321607971191,-1.0785878479003905,11.776329778289794
1789031211506683100,4.87968310546875,-7.130082181549072,-0.05850830307006836,12.416329809570312
1789031211516689000,4.88968896484375,-6.811503723144531,0.8354267417907715,11.073332315826415
1789031211526695700,4.89969580078125,-6.542156036376952,1.2400468223571777,9.023746057128905
1789031211536702000,4.909701904296875,-6.163572898864746,1.2265794380187987,7.816320232391357
1789031211546708700,4.919708740234375,-5.9850552375793455,1.2855366539001465,7.352144385528564
1789031211556715800,4.9297158203125,-6.253654736328125,1.1749544647216796,7.328202368927002
1789031211566721800,4.9397216796875,-6.058228025817871,0.7091326042175292,7.724143468475341
1789031211576728800,4.949728759765625,-5.597493843841552,0.04683656997680664,7.990049490356445
1789031211586734800,4.95973486328125,-5.391143588256836,-0.48617257461547847,7.8900915710449215
1789031211596742000,4.969741943359375,-4.978443077087402,-0.7231985389709472,7.674613421630859
1789031211606748000,4.979747802734375,-4.450072698211669,-0.8655039001464844,7.738658316040039
1789031211616754700,4.989754638671875,-3.84329221496582,-0.8257002975463866,8.207472928619385
1789031211626760700,4.9997607421875,-3.8405987380981443,-0.5397428367614746,8.980201514434814
1789031211636767700,5.009767822265625,-3.705326344299316,-0.22700024490356444,9.875034384918212
1789031211646773800,5.019773681640625,-3.635295945739746,0.0234931037902832,9.767295310211182
1789031211656780800,5.02978076171875,-5.82868394165039,0.05820902786254883,9.567678746795654
1789031211666786800,5.039786865234375,-5.683535466003417,-0.2507926239013672,9.236830004882812
1789031211676793900,5.0497939453125,-5.524919606018066,-0.45669396667480466,8.576179984283447
1789031211686800000,5.0597998046875,-6.264279006195068,-0.8445546356201171,8.062174815368651
1789031211696807000,5.069806884765625,-5.7900774398803705,-1.467047067260742,7.139060437774658
1789031211706813700,5.079813720703125,-5.314828410339355,-1.9853917266845702,6.280888780212402
1789031211716819700,5.08981982421875,-5.110573081207275,-2.333448793029785,5.973084229278564
1789031211726827000,5.099826904296875,-4.380640850067138,-2.39420166015625,5.978171907806396
1789031211736832800,5.109832763671875,-4.554370108032226,-2.3006781578063964,6.609343320465087
1789031211746839800,5.11983984375,-4.734533782958984,-2.028936269378662,7.549815660095215
1789031211756845800,5.129845703125,-4.340687609863281,-1.7212813560485838,8.084770093536376
1789031211766852900,5.139852783203125,-4.142268147277832,-1.5310919616699217,8.314314177703857
1789031211776859000,5.14985888671875,-4.030937770080566,-1.3992612327575682,8.21645118484497
1789031211786865700,5.15986572265625,-3.987692502593994,-1.3859434860229491,8.096441826629638
1789031211796872000,5.169871826171875,-4.029890306854248,-1.28957686920166,7.8347256576538085
1789031211806878700,5.179878662109375,-3.779995508575439,-1.2210428466796874,7.543830155944824
1789031211816884700,5.189884765625,-3.6688147689819335,-1.2714707191467285,7.700201451873779
1789031211826891800,5.199891845703125,-4.025850091552734,-1.5939397552490233,8.186074751281739
1789031211836897800,5.209897705078125,-4.161421760559082,-2.456600540924072,8.690054200744628
1789031211846904800,5.21990478515625,-4.974402861785888,-3.5097499961853025,9.071779727935791
1789031211856912000,5.229911865234375,-5.751022025299072,-4.387673817443847,9.509320081329346
1789031211866918000,5.23991796875,-6.410923857879638,-5.02453145904541,9.98561657409668
1789031211876924700,5.249924560546875,-5.875520511627197,-5.119850612640381,10.077643700408935
1789031211886930700,5.2599306640625,-4.679167869567871,-4.517259982299804,9.42342809677124
1789031211896937700,5.269937744140625,-4.1940427581787105,-3.903895444488525,8.677634279632567
1789031211906943700,5.27994384765625,-4.348917678070068,-3.861847277832031,8.35067611541748
1789031211916951000,5.289950927734375,-4.621707029724121,-4.168604365539551,8.110507761383056
1789031211926956800,5.299956787109375,-4.534468306732178,-4.727351177978515,7.4974424987792965
1789031211936963800,5.3099638671875,-4.8686090759277345,-5.514893886566162,6.8770449935913085
1789031211946969900,5.319969970703125,-5.237765044403075,-6.555623420715332,6.653636051177978
1789031211956977000,5.329976806640625,-5.216965417480468,-7.164648468017577,6.651541124725341
1789031211966983700,5.339983642578125,-4.923077163696289,-7.222707858276367,6.7380316596984855
1789031211976989700,5.34998974609375,-4.773140284729004,-7.1218521133422845,7.147290505981445
1789031211986997000,5.3599970703125,-4.498854557037353,-6.960991689300537,7.735067013549804
1789031211997002800,5.370002685546875,-4.145410536956787,-7.036558679199218,8.403198914337157
1789031212007009800,5.380009765625,-4.455758927154541,-7.47619395904541,9.098864134216308
1789031212017015800,5.390015869140625,-5.53539423828125,-8.336011630249024,9.766247846984863
1789031212027022800,5.40002294921875,-6.598719050598144,-9.24984847640991,10.024522351074218
1789031212037028900,5.41002880859375,-6.662763945007324,-9.88236662750244,9.9215716796875
1789031212047036000,5.420035888671875,-6.6331356994628905,-9.753977563476562,9.1676974319458
1789031212057042000,5.4300419921875,-6.386233653259277,-9.028235185241698,7.948749511718749
1789031212067048700,5.440048583984375,-6.052841072082519,-8.589797006225586,6.932111631774902
1789031212077056000,5.450055908203125,-5.528361270904541,-8.3119199760437,6.1833250625610345
1789031212087061800,5.460061767578125,-4.518008170318604,-8.006509626770018,5.705532193756103
1789031212097068800,5.47006884765625,-3.3638533325195312,-7.484723302459717,5.604227536010741
1789031212107074800,5.48007470703125,-2.3183353950500485,-6.927772141265868,6.067954470062255
1789031212117081900,5.490081787109375,-1.8834885185241699,-6.338050344848632,6.93959351196289
1789031212127087900,5.500087890625,-1.9731214431762694,-5.886892969512939,7.972691528320312
1789031212137094700,5.5100947265625,-2.242169854736328,-5.673210471343994,8.951920007324219
1789031212147101000,5.520100830078125,-2.7459996665954587,-5.496189186096191,9.700108026123047
1789031212157107700,5.530107666015625,-3.629460079193115,-5.45863014755249,9.883114815521239
1789031212167113700,5.54011376953125,-4.504091873168945,-5.57370146484375,9.283666574859618
1789031212177121000,5.55012109375,-5.185391883087158,-5.904250931549072,8.258050438690185
1789031212187127800,5.5601279296875,-6.008697978973388,-6.32039310760498,7.290493692779541
1789031212197133800,5.5701337890625,-6.635978813934326,-6.592883184051513,6.883329772949218
1789031212207140900,5.580140869140625,-6.277746390533447,-6.319046369171142,6.90787033996582
1789031212217147000,5.59014697265625,-4.887613051605224,-5.795015480804443,7.204452070617675
1789031212227153700,5.600153564453125,-3.149871559143066,-5.333084197998047,7.4031708084106445
1789031212237159700,5.61015966796875,-1.7516577896118164,-5.010465524291992,7.313088970947265
1789031212247167000,5.6201669921875,-1.2728174575805664,-4.644601583099365,7.139060437774658
1789031212257172700,5.6301728515625,-1.679682102203369,-4.32811805114746,7.2988733985900875
1789031212267179800,5.6401796875,-2.5004443588256833,-4.131194964599609,7.68059892578125
1789031212277186800,5.650186767578125,-3.5194764404296874,-4.008492129516601,7.7593083053588865
1789031212287192800,5.66019287109375,-4.261230042266845,-4.065952969360351,7.480234174346923
1789031212297199600,5.67019970703125,-4.794239186859131,-4.313453565979004,7.081300322723388
1789031212307206000,5.680205810546875,-4.98592495727539,-4.603600879669189,7.039401793670653
1789031212317213000,5.690212890625,-4.808754034423828,-4.660014256286621,7.081599597930908
1789031212327218700,5.70021875,-4.5708302444458,-4.583399803161621,7.349001995849609
1789031212337226000,5.71022607421875,-4.577264661407471,-4.382735776519775,7.863755352783203
1789031212347231700,5.720231689453125,-4.984578218841553,-4.225616292572021,8.717886795043945
1789031212357238800,5.73023876953125,-5.140799877166748,-3.979312796783447,9.277980345916747
1789031212367244800,5.740244873046875,-5.023633633422851,-3.4859576171874997,9.41011035003662
1789031212377251800,5.750251953125,-4.867860887908935,-2.77083950881958,9.009380847167968
1789031212387259000,5.7602587890625,-4.54569112701416,-2.131886940765381,8.086565744781494
1789031212397264600,5.7702646484375,-3.865139305114746,-1.7036241188049315,7.41214906463623
1789031212407272000,5.78027197265625,-3.2888848930358883,-1.6090531532287597,7.419630944824219
1789031212417277700,5.790277587890625,-3.6547488342285153,-1.7521067024230956,7.864204265594482
1789031212427284700,5.80028466796875,-4.760870001220703,-2.015468885040283,8.398560148620605
1789031212437291000,5.810291015625,-5.58642066116333,-2.4033295539855954,8.851962088012694
1789031212447297800,5.8202978515625,-5.98849690246582,-2.798971378326416,9.087342038726806
1789031212457303800,5.8303037109375,-5.9682958259582515,-3.210175513458252,8.847921872711181
1789031212467310800,5.840310791015625,-5.574748928070068,-3.348590296936035,8.537872757720947
1789031212477318000,5.85031787109375,-5.483021076965332,-3.057545157623291,8.501361182403564
1789031212487323600,5.86032373046875,-5.5644239334106445,-2.811391299438476,8.579172736358641
1789031212497331000,5.8703310546875,-5.45848050994873,-2.6240450195312497,8.811709572601318
1789031212507337000,5.8803369140625,-4.952705409240722,-2.3315035041809082,9.042001844787597
1789031212517344000,5.890343994140625,-4.659714981079102,-2.1930887207031247,9.25792890701294
1789031212527350000,5.90035009765625,-4.949712657165527,-2.0757728393554684,9.572616787719726
1789031212537356800,5.910356689453125,-5.409698651123047,-2.145503962707519,9.68529390335083
1789031212547363000,5.920363037109375,-4.908113403320312,-2.208351756286621,9.452008879089355
1789031212557369900,5.930369873046875,-4.078223252868652,-1.8397943382263182,9.487622628784179
1789031212567377000,5.940376953125,-4.270208298492431,-1.5345336265563965,9.891793796539305
1789031212577383200,5.950383056640625,-5.275174445343017,-1.3449427825927733,9.67227543182373
1789031212587390000,5.960389892578125,-5.763591584014892,-1.2554594955444336,8.459761928558349
1789031212597396000,5.97039599609375,-5.279364298248291,-1.7139491134643554,7.0832456115722655
1789031212607403000,5.980403076171875,-4.9461213546752925,-2.3900118072509766,6.73563745803833
1789031212617409000,5.990408935546875,-5.530905110168456,-2.5668834548950192,7.5587939163208
1789031212627415800,6.000415771484375,-6.884377236175537,-1.3513771995544432,8.153304116058349
1789031212637421800,6.010421875,-6.823624369049072,0.4798877952575683,8.411279344940185
1789031212647428900,6.020428955078125,-5.920262155151367,0.4878185882568359,8.686163623046875
1789031212657436000,6.030435791015625,-5.449502253723145,-0.9838672447204589,8.608501706695556
1789031212667442000,6.04044189453125,-4.511723390960693,-2.6741736167907715,8.556876733398436
1789031212677449000,6.050448974609375,-4.036175086212158,-3.8703766212463377,9.156175336456299
1789031212687455000,6.060455078125,-5.72663109588623,-4.3616368743896485,10.57818148498535
1789031212697461800,6.070461669921875,-7.708281882476806,-3.7671266746520993,12.306795083618164
1789031212707468000,6.080468017578125,-7.4895117057800284,-2.090736599731445,12.831274884796143
1789031212717474800,6.090474853515625,-5.563376470184326,-0.32411504974365235,10.742184298706054
1789031212727481900,6.10048193359375,-4.390367294311523,0.18285715179443357,8.345289161682128
1789031212737488100,6.110488037109375,-4.811148236083984,0.5422866760253906,7.798214082336425
1789031212747495000,6.120494873046875,-4.355651370239258,0.6465840858459472,6.707355950927734
1789031212757501000,6.1305009765625,-3.999813148498535,0.42766427154541015,3.7178959030151364
1789031212767508000,6.140508056640625,-5.350591797637939,-0.09756371765136718,2.4349030883789062
1789031212777514000,6.150513916015625,-5.621884773254394,-0.5874772323608398,2.3765444229125974
1789031212787520800,6.160520751953125,-4.754435584259033,-0.43290158767700193,1.9470845001220702
1789031212797526800,6.17052685546875,-5.508758744812011,0.0004489128112792969,2.2053590042114255
1789031212807534000,6.1805341796875,-6.2307601829528805,0.15771803436279297,2.475005966186523
1789031212817540900,6.190540771484375,-5.199308180236816,0.13631985702514648,3.5984850952148437
1789031212827547000,6.200546875,-4.464886820983886,0.3485059791564941,5.3676504844665525
1789031212837554000,6.210553955078125,-4.746205516052246,0.28206688308715816,7.03566085357666
1789031212847560000,6.220559814453125,-5.297171173095703,-0.15442600708007811,7.278971597290039
1789031212857566700,6.230566650390625,-5.063586873626709,-0.385616104888916,6.7803791015625
1789031212867573000,6.240572998046875,-4.5313259170532225,0.26231471939086914,6.151003340148925
1789031212877580000,6.250580078125,-4.065653694152831,1.1655272956848144,4.824615620422363
1789031212887586800,6.2605869140625,-3.6737528099060057,1.7916110298156738,4.508132088470458
1789031212897593000,6.270593017578125,-3.6646249160766597,2.9459155052185055,4.7295957420349115
1789031212907600000,6.280599853515625,-4.633528400421143,3.736750241088867,6.479308242797851
1789031212917606000,6.29060595703125,-6.250811621856689,3.697694826507568,8.476371702575683
1789031212927613000,6.300613037109375,-5.670516994476318,3.0520085662841794,10.098144052124022
1789031212937619000,6.310618896484375,-4.643703757476806,1.8593968643188477,11.562497642517089
1789031212947626000,6.3206259765625,-4.253149611663818,0.6362590911865234,11.290456478881834
1789031212957632000,6.330632080078125,-3.9522283905029294,0.1352723937988281,8.480262280273436
1789031212967639000,6.34063916015625,-4.020014225006103,0.736067372894287,5.333533110809326
1789031212977645800,6.350645751953125,-5.364657732391357,2.2022166145324706,3.2914287322998046
1789031212987652000,6.360652099609375,-5.650615193176269,3.473687333679199,2.50912333984375
1789031212997659000,6.370658935546875,-5.2831052383422845,3.727323072052002,3.6522049949645994
1789031213007665000,6.380664794921875,-4.679167869567871,2.8655601119995118,5.716904651641846
1789031213017672000,6.390671875,-4.07298593673706,1.3013982398986816,7.544428706359863
1789031213027678000,6.400677978515625,-3.952527665710449,-0.06958148574829101,8.320150044250488
1789031213037685000,6.41068505859375,-4.001608799743652,-1.2184990074157713,8.18457837524414
1789031213047692000,6.420692138671875,-4.238036213684082,-2.1772271347045895,7.620893521881103
1789031213057698000,6.430697998046875,-4.403535403442382,-2.646191384887695,6.797737063598633
1789031213067704800,6.440704833984375,-4.750694644165039,-3.1645360443115234,6.289418123626708
1789031213077710800,6.4507109375,-5.791723453521728,-2.9605799903869627,6.063166066741943
1789031213087718000,6.4607177734375,-5.386953735351562,-2.2694038986206055,6.356455770111084
1789031213097724000,6.470723876953125,-4.5973161003112795,-1.9645920997619628,7.117811898040771
1789031213107731000,6.48073095703125,-3.9586628074645995,-1.9773112960815429,7.664138789367676
1789031213117738000,6.490738037109375,-2.816927890777588,-2.3774422485351563,7.877372374725342
1789031213127744000,6.500743896484375,-2.369212180328369,-2.542043612670898,6.775889973449707
1789031213137750800,6.510750732421875,-3.5748423538208005,-2.5101708030700682,5.390694675445556
1789031213147757000,6.520757080078125,-4.917839847564697,-2.4568998161315916,4.482394420623779
1789031213157763800,6.530763916015625,-5.839158573913574,-2.6108769104003904,4.144811986541748
1789031213167769900,6.540769775390625,-7.22674807357788,-2.9505542709350583,4.7183729217529295
1789031213177777200,6.550777099609375,-7.365911045074462,-3.1733646629333494,5.8919806480407715
1789031213187784000,6.560783935546875,-6.100575467681884,-3.4597710365295407,7.062296347045898
1789031213197790000,6.5707900390625,-6.180481948089599,-4.077175789642334,8.070853796386718
1789031213207797000,6.580796875,-6.288071385192871,-5.047276374816894,9.074772480010985
1789031213217803000,6.590802978515625,-6.376507209014892,-6.280439867401123,10.450241333770752
1789031213227809800,6.600809814453125,-6.281936243438721,-7.363666481018066,12.105831781768797
1789031213237815800,6.61081591796875,-5.144840092468262,-7.991845141601562,13.486537951660155
1789031213247823000,6.620822998046875,-4.196586597442627,-8.330175763702393,14.323311431884765
1789031213257830000,6.630829833984375,-4.428973796081543,-8.074744374084473,14.324658170318603
1789031213267836000,6.6408359375,-4.375253896331787,-7.107935816192627,13.723713553619383
1789031213277843000,6.650843017578125,-3.778648770141601,-6.046406655120849,12.693907564544677
1789031213287849000,6.660848876953125,-3.188777336120605,-5.567566323089599,11.14111815032959
1789031213297855700,6.670855712890625,-2.7850550811767576,-5.269488216400146,9.449913952636718
1789031213307862000,6.680862060546875,-3.0412346588134764,-5.353285274505615,8.528595226287841
1789031213317869000,6.690869140625,-3.6002807464599607,-5.908740059661865,8.402600363922119
1789031213327875800,6.700875732421875,-4.703109886169433,-6.68416212234497,8.371775017547607
1789031213337882000,6.710882080078125,-6.675632778930663,-7.47619395904541,8.154950129699706
1789031213347889000,6.720888916015625,-8.035688959503174,-8.38299783782959,8.392724282073974
1789031213357895000,6.73089501953125,-8.129960649871826,-9.279327084350586,8.965537029266358
1789031213367902000,6.74090185546875,-6.987178269958496,-9.579350479888916,9.663895726013182
1789031213377909000,6.750908935546875,-5.959317569732666,-9.396194052886962,9.915735813140868
1789031213387915000,6.7609150390625,-6.013336744689941,-9.11038622970581,9.102455436706542
1789031213397922000,6.770922119140625,-6.515670180511474,-9.018957653808593,7.9295958984374995
1789031213407928000,6.780927978515625,-6.871957315063476,-8.919448647308348,7.061997071838379
1789031213417934800,6.790934814453125,-6.1088055358886715,-8.175151206207275,6.8320040748596185
1789031213427940900,6.80094091796875,-4.890905078887939,-7.134272034454345,7.344662505340576
1789031213437948000,6.810947998046875,-3.85616104888916,-6.251559809875488,7.918223440551757
1789031213447955000,6.820954833984375,-3.2863410537719724,-5.46461565170288,8.010250566864013
1789031213457961000,6.8309609375,-3.4108395401000973,-4.789750058746337,7.72489165649414
1789031213467968000,6.840968017578125,-3.819050923156738,-4.237886576080322,7.487865692138671
1789031213477974000,6.85097412109375,-4.24506918106079,-3.875913212585449,7.645883001708984
1789031213487980800,6.860980712890625,-4.800374328613281,-3.676595924377441,8.004713975524902
1789031213497987000,6.870987060546875,-5.497685562133789,-3.490147470092773,8.259397177124024
1789031213507993900,6.880993896484375,-5.6678235176086424,-3.291578369903564,8.289324697875976
1789031213518000400,6.89100048828125,-5.079149184417724,-3.0193875686645506,7.989600577545166
1789031213528006700,6.901006591796875,-4.012083432006835,-2.5213936233520506,7.494599384307861
1789031213538013400,6.911013427734375,-2.3554455207824705,-2.21538472366333,7.311143682098388
1789031213548019500,6.92101953125,-0.9611223289489745,-2.213439434814453,7.670722843933105
1789031213558026500,6.931026611328125,-0.841412245941162,-2.3656208778381345,8.231414945220946
1789031213568033500,6.941033447265625,-1.7271172225952147,-2.412607085418701,8.35681125717163
1789031213578039300,6.951039306640625,-2.8917466926574704,-2.369212180328369,8.396764497375488
1789031213588046600,6.961046630859375,-4.4473792213439935,-2.526481301879883,8.743474825286865
1789031213598052600,6.971052490234375,-6.571933919525146,-2.9058126274108886,9.108889853668213
1789031213608059400,6.981059326171875,-7.473650119781493,-3.787627026367187,9.147945268249511
1789031213618065400,6.9910654296875,-7.085789450836181,-5.093514394378662,8.870367513275147
1789031213628072400,7.001072509765625,-6.538415096282959,-5.965751986694335,8.579771286773681
1789031213638079500,7.01107958984375,-6.2030772262573235,-6.304531521606445,8.825625869750976
1789031213648085200,7.021085205078125,-6.1002761924743645,-6.304082608795166,9.622595747375488
1789031213658092500,7.031092529296875,-6.139630882263183,-5.481225425720215,10.215160658264159
1789031213668098600,7.0410986328125,-5.895272675323486,-4.0732852119445795,10.295964964294432
1789031213678105300,7.051105224609375,-5.446808776855469,-2.6696844886779783,10.264391429901123
1789031213688111600,7.061111572265625,-4.769848257446289,-1.7609353210449217,10.182390023040771
1789031213698118400,7.071118408203125,-4.178330809783935,-1.2823942642211914,9.686790279388427
1789031213708125400,7.08112548828125,-3.4473511154174803,-0.7647977928161621,8.511835814666748
1789031213718131500,7.09113134765625,-2.945616230010986,-0.45819034271240233,7.727884408569335
1789031213728138500,7.101138427734375,-3.232920429229736,-0.7068880401611328,7.318924837493896
1789031213738144500,7.11114453125,-3.8310219314575193,-1.4199112220764158,7.431901228332519
1789031213748151600,7.121151611328125,-4.659714981079102,-2.0287866317749024,7.69930362625122
1789031213758158300,7.131158447265625,-5.187037896728516,-1.5726912155151367,7.7784619186401365
1789031213768164400,7.141164306640625,-6.048800856781005,-0.3091512893676758,7.710676084136963
1789031213778171600,7.151171630859375,-6.778583450317383,0.3869628433227539,7.456142520141601
1789031213788177400,7.161177490234375,-6.272957987213134,-0.5714660087585449,6.278793853759765
1789031213798184400,7.171184326171875,-3.234267167663574,-2.319532495880127,4.762964927673339
1789031213808190500,7.1811904296875,-0.8652046249389648,-2.680159120941162,4.34113652267456
1789031213818197500,7.191197509765625,-2.168847428894043,-2.628384510040283,6.7274073898315425
1789031213828204300,7.201204345703125,-5.320065726470947,-2.6741736167907715,8.942941751098632
1789031213838210300,7.211210205078125,-7.363217568206787,-1.7344494651794433,7.844003189086914
1789031213848217600,7.221217529296875,-8.500612994384765,-1.0561422073364257,6.921337724304199
1789031213858223400,7.231223388671875,-5.953930615997314,-0.7371148361206055,6.8110548103332516
1789031213868230400,7.24123046875,-2.824260133361816,0.014514847564697266,6.906074688720703
1789031213878237400,7.251237548828125,-4.782118540954589,0.7722796730041503,7.84624775314331
1789031213888243500,7.261243408203125,-8.19789612197876,0.3806780639648437,7.953388277435303
1789031213898250200,7.271250244140625,-6.460154629516601,-0.884208600616455,5.834819083404541
1789031213908256500,7.281256591796875,-1.7075146965026855,-1.763329522705078,4.5325230178833005
1789031213918263600,7.291263671875,-2.174982570648193,-1.8212392753601072,4.088697885131836
1789031213928269300,7.301269287109375,-3.4880525436401366,-1.2229881355285643,2.7946318878173826
1789031213938276600,7.311276611328125,-5.989544365692138,0.04578910675048828,0.5969044013977051
1789031213948283400,7.321283447265625,-6.734589994812011,1.7905635665893553,-1.1626841812133788
1789031213958289400,7.331289306640625,-6.2213330139160155,2.915539071655273,0.5231330627441406
1789031213968296400,7.34129638671875,-5.144690454864501,2.793584424591064,4.309114075469971
1789031213978302500,7.351302490234375,-3.522918105316162,1.993771432495117,6.983886242675781
1789031213988309500,7.3613095703125,-3.1126117958068846,1.3961188430786131,7.676109797668457
1789031213998316500,7.371316650390625,-3.765031748199463,1.1540052001953125,7.067683300781249
1789031214008322600,7.381322509765625,-3.2728736694335936,1.2376526206970213,5.863549503326416
1789031214018329300,7.391329345703125,-3.5324949119567868,1.52585464553833,4.610484209442139
1789031214028335400,7.40133544921875,-4.114734828186035,1.7621324218749999,3.953874404144287
1789031214038342400,7.41134228515625,-4.34757093963623,1.8742109870910644,3.8449382286071776
1789031214048349400,7.421349365234375,-4.588337844085693,1.716044039916992,3.8817490791320797
1789031214058355500,7.43135546875,-4.525190775299072,1.343296768951416,4.285920246887207
1789031214068362500,7.441362548828125,-4.648043247985839,1.1192892761230469,4.987870246124268
1789031214078368500,7.451368408203125,-4.5684360427856445,1.1323077476501464,5.776310780334472
1789031214088375300,7.461375244140625,-4.310011901092529,0.8710404914855957,6.589291881561279
1789031214098381600,7.471381591796875,-4.98622423248291,-0.3220201232910156,8.196549383544921
1789031214108388400,7.481388427734375,-6.835745014953613,-1.8333599212646483,10.43782141265869
1789031214118395600,7.491395751953125,-6.589591156768798,-3.6367923217773437,12.613701808929443
1789031214128401400,7.5014013671875,-5.90574730758667,-5.607220288085937,14.433295070648192
1789031214138408400,7.511408447265625,-5.06283868560791,-7.449857740783691,14.90136149520874
1789031214148414500,7.52141455078125,-4.770147532653809,-7.827692690277099,12.511349687957763
1789031214158421500,7.53142138671875,-2.8133365882873536,-5.706878932189941,8.174253380584716
1789031214168428500,7.541428466796875,-1.50670103225708,-3.168276984405517,4.540603448486328
1789031214178434300,7.551434326171875,-4.089446073150635,-0.7236474517822266,1.3721768264770506
1789031214188441600,7.561441650390625,-6.648997285461426,0.9695020347595215,-0.2694973243713379
1789031214198447400,7.571447265625,-7.3663599578857415,1.6814777534484862,0.3494038047790527
1789031214208454400,7.581454345703125,-6.546046614074706,1.0363900436401368,2.9792846908569333
1789031214218460700,7.591460693359375,-5.295974072265625,-0.6602011077880859,6.496965480041504
1789031214228467500,7.601467529296875,-4.677072943115234,-2.4384943908691405,9.217975666809082
1789031214238474500,7.611474609375,-3.7823897102355954,-4.39874700012207,10.583269163513183
1789031214248480500,7.62148046875,-3.342155879974365,-6.379051048278808,11.303474950408935
1789031214258487600,7.631487548828125,-4.042310227966309,-7.899668377685546,11.292102492523192
1789031214268493300,7.641493408203125,-4.66091208190918,-8.462904318237305,10.266336718749999
1789031214278500600,7.65150048828125,-4.89015689086914,-8.282291730499267,9.612121115112304
1789031214288507400,7.66150732421875,-5.204994409179688,-8.265981231689453,10.599878937530518
1789031214298513400,7.671513427734375,-6.262333717346191,-7.905354606628418,12.116306414031982
1789031214308520400,7.6815205078125,-6.255151112365723,-7.068730764007568,12.905195861053466
1789031214318526500,7.6915263671875,-6.156390293884277,-5.849932481384277,12.535590979766845
1789031214328533500,7.701533447265625,-6.576423047637939,-5.167884283447266,12.222998025512695
1789031214338540500,7.71154052734375,-7.057507943725586,-5.4518964553833005,12.21357085647583
1789031214348546600,7.721546630859375,-6.771101570129394,-6.79938307723999,12.674753951263426
1789031214358553300,7.73155322265625,-6.891859116363525,-8.81694688873291,13.934852212524413
1789031214368559400,7.741559326171875,-7.656656909179687,-10.957063897705078,14.60148773727417
1789031214378566400,7.75156640625,-8.166771500396727,-12.177957106781005,13.844321462249756
1789031214388573400,7.761573486328125,-8.714145854949951,-11.789797162628172,10.934019706726074
1789031214398579500,7.771579345703125,-7.940669081115722,-10.461164878845214,7.761552869415283
1789031214408586500,7.78158642578125,-5.894225212097168,-8.45332751159668,5.98834726486206
1789031214418592500,7.791592529296875,-2.8918963302612304,-6.711396166229248,6.415263348388671
1789031214428599300,7.801599365234375,-0.4439747703552246,-5.71391189956665,7.883058603668212
1789031214438606600,7.811606689453125,0.3318962051391601,-5.217563967895508,8.892962791442871
1789031214448612400,7.8216123046875,0.488417138671875,-5.191826300048827,8.96329246520996
1789031214458619400,7.831619384765625,0.10145429534912109,-5.070021290588379,7.621043159484863
1789031214468625700,7.841625732421875,1.1942577156066894,-5.5455695953369135,6.531681404113769
1789031214478632400,7.851632568359375,-1.4531307701110838,-3.891774798583984,6.625504181671142
1789031214488639200,7.86163916015625,-2.408866145324707,-3.1489737335205077,5.814019456481933
1789031214498645500,7.8716455078125,-3.6885669326782224,-2.0006547622680664,5.194370139312744
1789031214508652500,7.881652587890625,-3.6834792541503902,-1.4366706336975097,4.620210653686523
1789031214518658600,7.891658447265625,-3.1096190437316893,-1.4857517677307128,4.356100283050536
1789031214528665900,7.901665771484375,-2.396745499420166,-1.427542739868164,4.571428794860839
1789031214538671600,7.911671630859375,-2.357690084838867,-2.0904373245239256,5.3296425331115715
1789031214548678700,7.9216787109375,-1.9847931762695312,-3.1699229980468746,6.43546442489624
1789031214558685700,7.931685791015625,-1.462557939147949,-3.6924575103759762,6.676979517364502
1789031214568691700,7.941691650390625,-3.042282122039795,-3.8423943893432613,6.880785933685302
1789031214578698800,7.95169873046875,-5.358073677825927,-4.417152425384521,9.02658917160034
1789031214588704500,7.96170458984375,-7.311293319702148,-5.054907892608642,12.258312499999999
1789031214598711800,7.9717119140625,-8.93725552215576,-4.82057540512085,14.609717805480956
1789031214608718600,7.981718505859375,-9.222614432525635,-3.52411520614624,14.029273540496826
1789031214618724600,7.991724609375,-9.6013472076416,-4.438999515533447,14.570213478088379
1789031214628731600,8.001731689453125,-6.781127289581298,-5.3576247650146485,14.47369722366333
1789031214638737700,8.011737548828124,-3.041384296417236,-3.5708021385192867,13.056778753662108
1789031214648744700,8.02174462890625,-0.8447042732238769,-0.7133224571228027,11.789048974609374
1789031214658751700,8.031751708984375,-0.2524386375427246,1.2651859397888183,9.957335066986083
1789031214668757800,8.0417578125,-0.8818143989562988,0.8894459167480468,7.899518740081787
1789031214678764500,8.0517646484375,-1.6702549331665038,-1.6262614776611328,7.511658071136474
1789031214688770800,8.061770751953125,-2.6384102294921874,-3.4762311729431152,7.538443202209472
1789031214698777600,8.071777587890624,-2.8260557846069334,-3.912275150299072,7.775169891357422
1789031214708784600,8.08178466796875,-3.6731542594909667,-2.602347566986084,8.691101663970947
1789031214718790700,8.091790771484375,-5.626224263763428,0.0013467384338378906,8.26777688293457
1789031214728797700,8.101797607421876,-7.11841044845581,1.1634323692321777,7.900566203308105
1789031214738803700,8.1118037109375,-8.390778993225098,0.2524386375427246,7.845050652313232
1789031214748810800,8.121810791015625,-6.955604735565185,-1.3328221366882322,7.4579381713867186
1789031214758817800,8.13181787109375,-2.5662849044799803,-2.3159411933898926,7.509114231872558
1789031214768823600,8.141823486328125,-0.037110125732421874,-2.819920642852783,8.688108911895752
1789031214778830800,8.151830810546874,-1.7796400215148924,-2.7238533012390134,9.974842666625976
1789031214788836600,8.161836669921875,-4.385279615783691,-1.4968249504089355,9.511415007781983
1789031214798843600,8.17184375,-4.74994645614624,0.3802291511535644,6.982090591430664
1789031214808850700,8.1818505859375,-2.915688709259033,1.2132616912841796,5.380070405578613
1789031214818856700,8.191856689453125,-1.4731822090148925,0.502483073425293,4.227561581420898
1789031214828863700,8.20186376953125,-4.23264925994873,0.46417584686279295,4.202721739196777
1789031214838869800,8.211869873046876,-5.549460173034667,1.3046902671813965,5.57998624420166
1789031214848876800,8.221876708984375,-3.0056209091186523,0.16998831787109375,9.18041662826538
1789031214858883600,8.231883544921875,-0.4381389038085937,-1.457470260620117,10.517129342651367
1789031214868889900,8.241889892578126,-0.4369418029785156,-2.6910826660156246,8.301146068572997
1789031214878896600,8.251896728515625,-3.0582933456420895,-2.646341022491455,5.43304211730957
1789031214888902700,8.261902587890624,-4.354753544616699,-1.5551836158752441,2.673575066375732
1789031214898909700,8.27190966796875,-4.1015667190551754,0.19572598571777342,0.8445546356201171
1789031214908916700,8.281916748046875,-4.125209460449218,1.2093711135864258,0.12823942642211913
1789031214918922800,8.2919228515625,-4.166808714294433,1.6536451591491699,0.515202269744873
1789031214928929800,8.3019296875,-3.25596462020874,2.5885809074401855,1.5617676704406738
1789031214938935800,8.311935791015625,-1.9577087699890137,2.6599580444335937,1.9467852249145507
1789031214948942600,8.321942626953126,-1.7051204948425291,1.6045640251159667,2.2206220397949217
1789031214958950000,8.331949951171875,-3.087622315979004,-0.02858078231811523,2.1275474502563476
1789031214968955600,8.34195556640625,-5.76478868484497,0.15502455749511718,2.5014918220520017
1789031214978962700,8.351962646484376,-7.691372833251953,1.5753846923828123,4.052784860229492
1789031214988968700,8.36196875,-6.134842478942871,1.58960026473999,5.691316621398926
1789031214998975700,8.371975830078124,-3.4108395401000973,1.3356652511596678,7.133823121643066
1789031215008982800,8.381982666015626,-2.214786173248291,0.9102455436706542,7.715763762664794
1789031215018988500,8.391988525390625,-3.339462403106689,0.3072060005187988,7.639747859954833
1789031215028995800,8.401995849609374,-4.92232897567749,-0.7800608283996582,8.010849117279053
1789031215039001600,8.412001708984375,-6.230610545349121,-1.449838742828369,9.383624494171142
1789031215049008600,8.422008544921875,-6.579116524505615,-0.38142625198364255,10.582221700286865
1789031215059015700,8.432015625,-4.984578218841553,-0.04608838195800781,11.907262681579589
1789031215069021700,8.442021728515625,-4.216638036346435,-1.2759598472595215,13.052738538360595
1789031215079028500,8.452028564453125,-4.437802414703369,-1.9211971946716306,12.506561284637451
1789031215089034800,8.46203466796875,-3.210025875854492,-2.3127988037109373,11.400739392852783
1789031215099041800,8.472041748046875,-2.091335150146484,-2.7940333374023436,10.596736547851561
1789031215109048600,8.482048583984374,-2.5336639068603515,-2.971204260253906,10.578480760192871
1789031215119054800,8.492054931640626,-3.195959941101074,-1.9882348411560058,9.586383447265625
1789031215129061600,8.5020615234375,-3.002628157043457,-2.361431024932861,9.316137934875488
1789031215139067600,8.512067626953124,-1.9488801513671874,-3.5550901901245116,9.445424824523926
1789031215149074700,8.52207470703125,-0.1753752716064453,-3.554790914916992,7.569268548583984
1789031215159081700,8.532081787109375,0.8647557121276855,-3.3520319618225094,4.955847798919677
1789031215169087700,8.542087646484376,-0.8435071723937988,-3.1010897003173827,2.2397756530761717
1789031215179094800,8.5520947265625,-3.780893334197998,-2.620304079437256,0.48886605148315426
1789031215189100800,8.562100830078125,-5.570858350372314,-2.3228245231628417,1.2044330726623536
1789031215199107600,8.572107666015626,-5.839457849121094,-3.038241906738281,4.509179551696777
1789031215209115000,8.582114990234375,-4.118475768280029,-5.321113189697265,9.23174232635498
1789031215219120600,8.59212060546875,-4.653729476928711,-7.901763304138183,14.974833558654785
1789031215229127700,8.602127685546876,-6.396259372711182,-9.304316564178466,19.0762506401062
1789031215239133700,8.6121337890625,-7.2994719490051265,-7.757961566925048,18.5767603187561
1789031215249140700,8.622140625,-7.991096953582764,-6.7657146163940425,16.723797871398926
1789031215259147500,8.6321474609375,-9.206603208923338,-6.311115576171875,14.58831962814331
1789031215269153500,8.642153564453125,-8.629301333618164,-6.90158556060791,13.96238553161621
1789031215279160800,8.652160888671874,-7.443273686218261,-7.573608039093017,14.327351647186278
1789031215289166600,8.66216650390625,-4.856787705230713,-7.104793426513671,14.124742331695556
1789031215299173600,8.672173583984375,-3.615543782043457,-5.3095910942077635,11.547982794952391
1789031215309180700,8.6821806640625,-3.024325609588623,-4.808754034423828,9.347262556457519
1789031215319186700,8.692186767578125,-3.2495302032470703,-5.212476289367675,9.769988787078857
1789031215329193500,8.702193359375,-5.352686724090576,-5.173570512390136,10.206332039642334
1789031215339199700,8.71219970703125,-6.456264051818847,-5.634903244781494,11.566088945007323
1789031215349206800,8.722206787109375,-6.3621419990539545,-6.200234111785888,12.57748950881958
1789031215359213600,8.732213623046874,-5.294028783416747,-6.603507453918457,12.077250999450683
1789031215369219800,8.7422197265625,-3.914220439147949,-6.852654064178466,11.175983712005614
1789031215379226600,8.7522265625,-2.872293804168701,-6.229263806915283,10.147524461364746
1789031215389233700,8.762233642578124,-1.7696143020629882,-4.9628807662963865,9.369558559417724
1789031215399239700,8.77223974609375,-1.0556932945251465,-4.225466654968262,9.455001631164551
1789031215409246700,8.782246826171875,-2.195034009552002,-3.273921132659912,8.434622811126708
1789031215419252700,8.792252685546876,-2.139967371368408,-2.8477532371520993,7.3265563552856445
1789031215429259800,8.802259765625,-1.8824410552978514,-2.878728221130371,6.723217536926269
1789031215439266600,8.8122666015625,-2.620752992248535,-3.0641292121887207,6.52479807434082
1789031215449272600,8.8222724609375,-3.2146646415710447,-3.640233986663818,7.686434792327881
1789031215459280000,8.83227978515625,-3.6831799789428707,-3.7835868110656734,8.921842848968506
1789031215469285600,8.84228564453125,-3.2882863426208493,-3.780743696594238,9.519345800781249
1789031215479292700,8.852292724609375,-2.8808231475830075,-4.029142118835449,10.220846887207031
1789031215489299700,8.8622998046875,-4.994903213500976,-3.7843349990844724,10.692205339050293
1789031215499305700,8.8723056640625,-6.547692627716064,-3.5443162826538086,11.863718138885497
1789031215509312500,8.8823125,-5.664082577514648,-3.2981624244689938,12.453290297698974
1789031215519318300,8.892318359375,-2.993649900817871,-2.5553613594055173,10.814459261322021
1789031215529325600,8.90232568359375,-1.0672153900146484,-1.71739077835083,8.19131206741333
1789031215539332400,8.912332275390625,-1.668160006713867,-0.7631517791748046,6.423194141387939
1789031215549338400,8.92233837890625,-2.1452046874999997,-0.8243535591125488,5.760149919128418
1789031215559345400,8.932345458984376,-3.6929064231872557,-1.9684826774597166,5.875221236419677
1789031215569351400,8.942351318359375,-4.726303714752197,-2.4919150154113767,7.198017653656006
1789031215579358500,8.9523583984375,-5.837512560272216,-2.4238299057006834,10.031555318450927
1789031215589365500,8.962365478515625,-6.0507461456298826,-2.1724387313842772,12.767678903198242
1789031215599371500,8.97237158203125,-4.408623081970215,-1.39177935256958,13.407828572082519
1789031215609378300,8.98237841796875,-3.347093920898437,-0.4697124382019043,12.854468713378905
1789031215619384600,8.992384521484375,-4.189403992462158,0.546476528930664,12.124835757446288
1789031215629391400,9.002391357421875,-4.151096765899658,0.6616974838256836,11.336245585632323
1789031215639398400,9.0123984375,-3.419518521118164,-0.11387421646118163,9.361927041625975
1789031215649404400,9.022404296875,-2.5852888801574707,-0.9853636207580566,7.7250412940979
1789031215659411500,9.032411376953124,-2.548478029632568,-2.077568490600586,7.422324421691894
1789031215669418200,9.042418212890626,-2.643647545623779,-1.9207482818603514,7.077110469818114
1789031215679424500,9.052424560546875,-4.131793515014648,-1.0838251640319823,8.617330325317383
1789031215689431600,9.062431640625,-6.039972238159179,0.3136404174804687,9.360281027984618
1789031215699437300,9.072437255859375,-4.901978261566162,1.0212766456604003,7.799710458374023
1789031215709444600,9.082444580078125,-4.9932571998596185,0.6175543907165527,5.8554690727233885
1789031215719451400,9.092451416015624,-3.8220436752319333,0.35778351058959956,4.956745624542236
1789031215729457400,9.10245751953125,-1.513733999633789,0.04878185882568359,4.698321482849121
1789031215739464400,9.11246435546875,-1.4264952766418457,-0.548421817779541,4.608389282989502
1789031215749470500,9.122470458984376,-1.8671780197143553,-0.987009634399414,4.790947159576416
1789031215759477500,9.1324775390625,-2.6129718368530273,-1.3772645050048826,5.262305611419677
1789031215769484500,9.142484619140625,-3.287538154602051,-1.4691419937133787,4.666448673248291
1789031215779490600,9.152490478515626,-3.383006945800781,-0.40222587890625,3.491643846130371
1789031215789497300,9.162497314453125,-3.47323842086792,0.8411129707336426,2.7066449768066403
1789031215799503600,9.172503662109374,-3.5549405525207516,1.754351266479492,2.231395947265625
1789031215809510400,9.182510498046875,-3.2224457969665528,2.1721394561767577,2.58558815536499
1789031215819517400,9.192517333984375,-2.3286603897094724,1.029207438659668,3.8807016159057617
1789031215829523500,9.2025234375,-1.9823989746093749,-0.7366659233093261,4.393360046386719
1789031215839530500,9.212530517578125,-3.3099837951660156,-0.557998624420166,2.699761647033691
1789031215849536500,9.22253662109375,-4.1931449325561525,0.07930792999267577,1.1124059463500975
1789031215859543600,9.23254345703125,-4.025101903533935,0.17342998275756835,1.2107178520202635
1789031215869550600,9.242550537109375,-3.704129243469238,0.8978256225585937,2.0599112533569333
1789031215879556400,9.252556396484374,-2.8565818557739258,1.9045874206542968,2.644395733642578
1789031215889563600,9.262563720703126,-1.8626888916015625,2.3225252479553222,3.11560454788208
1789031215899570400,9.2725703125,-2.6747721672058105,2.362628125762939,3.7020343170166012
1789031215909576400,9.282576416015624,-4.872499653625488,2.5267805770874023,4.433313286590576
1789031215919583500,9.29258349609375,-5.389796849822997,2.601000828552246,5.915773027038574
1789031215929589500,9.302589599609375,-4.784063829803467,2.359635373687744,7.733570637512207
1789031215939596300,9.31259619140625,-3.3324294357299804,1.4784195251464842,9.76894132385254
1789031215949603600,9.322603515625,-3.100191874694824,-0.23388357467651366,11.591976250457764
1789031215959609600,9.332609619140625,-4.320336895751953,-1.5116390731811522,12.628815206909179
1789031215969616400,9.342616455078126,-5.623231511688232,-2.286911498260498,13.089848664093017
1789031215979622400,9.352622314453125,-6.637475189971924,-2.2095488571166992,12.867187909698485
1789031215989629400,9.36262939453125,-5.885246955871581,-1.739088230895996,12.485761657714843
1789031215999636500,9.372636474609376,-4.653729476928711,-2.0835539947509765,12.409895392608641
1789031216009642200,9.382642333984375,-4.343829999542236,-2.97524447555542,12.81301909713745
1789031216019649500,9.3926494140625,-4.320935446166992,-3.8672342315673824,13.293056529998779
1789031216029655600,9.402655517578125,-4.595969361877441,-4.609885659027099,13.306673551940918
1789031216039662300,9.412662353515625,-5.258863946533203,-4.69847112045288,12.126032858276366
1789031216049669600,9.422669677734374,-5.129277781677246,-4.64789361038208,11.069142462921143
1789031216059675400,9.43267529296875,-4.305822048187256,-4.934150346374511,10.932224055480956
1789031216069682400,9.442682373046875,-3.0467712501525877,-5.289090742492675,10.64312420501709
1789031216079689500,9.452689453125,-1.776647269439697,-5.672462283325195,10.53329020385742
1789031216089695500,9.462695556640625,-2.976591213989258,-4.831349312591552,9.47400560684204
1789031216099702300,9.472702392578125,-4.153042054748535,-3.63903688583374,8.188618590545653
1789031216109708500,9.48270849609375,-4.520552009582519,-3.1338603355407715,7.509712782287597
1789031216119715300,9.49271533203125,-4.50768317565918,-2.8661586624145508,7.420528770446777
1789031216129722400,9.502722412109375,-3.638438335418701,-2.890100679016113,8.658181391143799
1789031216139728600,9.512728759765626,-3.653102820587158,-2.926462616729736,10.178349807739258
1789031216149735400,9.5227353515625,-4.804264906311035,-2.895936545562744,11.03846675415039
1789031216159741400,9.532741455078124,-5.626972451782226,-2.653822902679443,11.768847898101805
1789031216169748500,9.54274853515625,-5.5081601943969725,-2.6110265480041503,12.591256168365478
1789031216179755500,9.552755615234375,-4.3722611442565915,-2.853140190887451,13.746757744598387
1789031216189761300,9.56276123046875,-3.975272581481933,-3.079242610168457,14.440328038024902
1789031216199768600,9.5727685546875,-4.355801007843017,-3.389591000366211,14.117110813903809
1789031216209775400,9.582775390625,-4.121468520355224,-3.9223008697509765,12.529156562805175
1789031216219781400,9.592781494140626,-4.1374797439575195,-4.8135424377441405,9.898527488708496
1789031216229788400,9.602788330078125,-5.035006091308594,-5.82239916229248,7.651718868255615
1789031216239794400,9.61279443359375,-5.527762720489502,-6.571784281921387,7.3192241127014155
1789031216249801500,9.622801513671876,-5.054458979797363,-6.67802698059082,9.226505010223388
1789031216259808500,9.63280859375,-4.066401882171631,-5.522974317169189,11.335647035217285
1789031216269814500,9.642814453125,-3.0454245117187497,-4.39904627532959,11.84291851196289
1789031216279821300,9.6528212890625,-2.715922508239746,-4.544793301391601,11.442937197113036
1789031216289827300,9.662827392578125,-3.4190696083068848,-4.993855750274658,9.911695597839355
1789031216299834400,9.67283447265625,-3.5140894866943357,-5.023483995819092,8.346336624908448
1789031216309841400,9.68284130859375,-3.323002266693115,-4.953154322052002,8.447042732238769
1789031216319847400,9.692847412109375,-3.833715408325195,-3.9558196929931637,8.859443968200683
1789031216329854500,9.7028544921875,-2.1059996353149413,-2.867206125640869,10.08722050704956
1789031216339860500,9.712860595703125,-0.7353191848754882,-2.299780332183838,10.908581314086913
1789031216349867300,9.7228671875,-0.9976339042663573,-1.7905635665893553,10.397868172454833
1789031216359874600,9.73287451171875,-1.8486229568481445,-1.3838485595703125,9.660304423522948
1789031216369880300,9.74288037109375,-3.698592652130127,-1.407790576171875,10.113407087707518
1789031216379887400,9.752887451171874,-5.075108969116211,-1.4761749610900878,11.560253078460693
1789031216389894400,9.762894287109376,-4.064905506134033,-1.1921627891540527,12.550255464935303
1789031216399900400,9.772900390625,-2.2477064460754392,-1.0844237144470215,12.396428008270263
1789031216409907500,9.782907470703124,-2.1676503280639645,-1.0090063621520995,11.591377700042724
1789031216419913500,9.79291357421875,-4.419247351837158,-0.2653074714660644,9.484480239105224
1789031216429920500,9.80292041015625,-6.0233624641418455,-0.040102877807617184,8.79105958328247
1789031216439927300,9.81292724609375,-6.646902359008789,-0.7835024932861328,9.497349073028564
1789031216449933600,9.82293359375,-5.823596263122559,-2.173635832214355,11.404779608154296
1789031216459940400,9.8329404296875,-3.305195391845703,-3.3788170928955075,12.987646180725097
1789031216469946400,9.8429462890625,-2.7424083641052244,-4.004302276611328,11.81658229370117
1789031216479953400,9.852953369140625,-3.590554302215576,-3.877409588623047,10.039635749053954
1789031216489960400,9.86296044921875,-3.9641993988037107,-3.6080619018554687,8.530690152740478
1789031216499966500,9.872966552734376,-3.3029508277893065,-3.021632132720947,6.729502316284179
1789031216509973500,9.882973388671875,-2.1977274864196774,-2.576011348724365,6.718429133605957
1789031216519980300,9.892980224609374,-2.5918729347229004,-1.8617910659790038,7.869142306518555
1789031216529986000,9.902986083984375,-2.740163800048828,-1.3395558288574219,9.40367593307495
1789031216539993300,9.912993408203125,-3.111713970184326,-1.0148422286987304,10.3805102104187
1789031216549999400,9.922999267578126,-3.129520845031738,-0.8393173194885254,10.114454550933837
1789031216560006100,9.933006103515625,-3.0747534820556637,-0.7700351089477538,8.717138607025145
1789031216570013200,9.94301318359375,-3.087622315979004,-0.1227028350830078,6.7803791015625
1789031216580019200,9.953019287109376,-3.471891682434082,1.2779051361083984,4.862623571777344
1789031216590026200,9.963026123046875,-3.277063522338867,2.6560674667358395,3.914818989562988
1789031216600032000,9.973031982421874,-3.435380107116699,2.9339444969177246,3.7407904563903807
1789031216610039300,9.983039306640626,-2.627785959625244,1.3440449569702149,4.006247565460205
1789031216620046000,9.993046142578125,-2.3976433250427243,-0.11716624374389648,4.235193099212646
1789031216630052000,10.003052001953124,-4.176385520935058,-0.06299743118286133,3.7645828353881834
1789031216640059100,10.01305908203125,-4.906018476867676,1.2603975364685058,3.210025875854492
1789031216650066200,10.023066162109375,-4.211550357818603,3.2146646415710447,3.145532068634033
1789031216660072200,10.033072265625,-2.362777763366699,4.417002787780762,3.3156700241088863
1789031216670079200,10.043079345703125,-1.961898622894287,2.658611305999756,4.721964224243163
1789031216680085200,10.053085205078125,-3.5122938354492184,0.40357261734008787,5.58597174835205
1789031216690092000,10.063092041015626,-5.4044613349914545,0.241964005279541,5.984456687164307
1789031216700099300,10.073099365234375,-6.744017163848876,1.5617676704406738,6.384886914825439
1789031216710105000,10.08310498046875,-5.6772506866455075,1.9240403091430662,7.317877374267578
1789031216720112000,10.093112060546876,-3.305793942260742,1.112854859161377,8.016535346221923
1789031216730118400,10.103118408203125,-2.4000375267028806,0.9106944564819336,7.025635134124755
1789031216740125200,10.113125244140624,-3.14747735748291,2.0055928031921386,4.434959300231934
1789031216750132000,10.123132080078125,-3.765480661010742,1.1719617126464843,4.453364725494384
1789031216760138200,10.13313818359375,-5.56038371810913,0.7454945419311523,5.6586956237792965
1789031216770145300,10.143145263671874,-5.12688358001709,1.0187328063964842,7.001992392730712
1789031216780152000,10.153152099609375,-4.415805686950684,1.8344073844909667,6.89500150604248
1789031216790158300,10.163158447265625,-2.4657284347534176,2.128594913482666,6.13544102935791
1789031216800165000,10.1731650390625,-1.8535609977722167,2.105550722503662,5.930138236999511
1789031216810171100,10.183171142578125,-1.8103157302856445,2.1914427070617672,5.785139398956298
1789031216820178200,10.19317822265625,-2.2629694816589354,2.039111626434326,5.380070405578613
1789031216830185200,10.203185302734376,-2.535309920501709,1.5770307060241697,4.966621706390381
1789031216840191200,10.213191162109375,-2.870947065734863,1.0327987411499022,4.554819020843506
1789031216850198300,10.2231982421875,-3.079841160583496,0.24271219329833982,5.071966579437255
1789031216860204300,10.233204345703125,-2.6623522460937497,-0.9132382957458496,5.979967559051513
1789031216870211000,10.243211181640625,-1.9955670837402342,-1.9726725303649901,6.524199523925781
1789031216880218400,10.25321826171875,-2.2864625854492187,-2.764854004669189,6.838288854217529
1789031216890224000,10.26322412109375,-2.693027954864502,-2.606537419891357,6.221931564331054
1789031216900231200,10.273231201171875,-2.3395839347839353,-2.658012755584717,6.030844344329834
1789031216910238200,10.28323828125,-2.859574607849121,-2.777872476196289,6.367229677581787
1789031216920244200,10.293244140625,-4.144512711334229,-2.773981898498535,7.58438194656372
1789031216930251000,10.3032509765625,-4.680215332794189,-2.7691934951782224,10.04322705154419
1789031216940257300,10.31325732421875,-4.2800843803405755,-3.238157745361328,13.066654835510253
1789031216950264300,10.323264404296875,-3.061286097717285,-4.537311421203613,16.183755759429932
1789031216960271000,10.33327099609375,-3.6528035453796384,-5.125087928771972,17.540519912719727
1789031216970277400,10.34327734375,-4.871601828002929,-5.63729744644165,17.956362813568113
1789031216980284200,10.3532841796875,-6.668899086761474,-6.357054320526123,17.323844662475587
1789031216990290200,10.363290283203124,-6.892008753967285,-7.189039397430419,16.534057389831542
1789031217000297200,10.373297119140625,-5.747430722808837,-6.936301484680175,15.466243449401855
1789031217010304300,10.38330419921875,-5.002534731292724,-5.764190134429931,13.544896617126463
1789031217020310300,10.393310302734376,-3.614047406005859,-4.517559257507324,12.06632745437622
1789031217030317300,10.4033173828125,-3.4454058265686034,-3.7644331977844234,10.823587155151367
1789031217040324000,10.413323974609375,-3.5284546966552734,-3.6454713027954098,10.171616115570068
1789031217050330000,10.423330078125,-4.674678741455078,-3.5978865447998043,9.650129066467285
1789031217060337400,10.43333740234375,-5.130923795318603,-3.200598706817627,8.807370082092284
1789031217070343200,10.44334326171875,-4.3543046318054195,-2.6740239791870115,7.74419490737915
1789031217080350200,10.45335009765625,-3.825335702514648,-2.1658546768188476,6.679224081420898
1789031217090357200,10.463357177734375,-3.1841385704040523,-2.120963395690918,6.466888321685791
1789031217100363300,10.47336328125,-2.6485855865478514,-2.6605565948486327,7.617302219390869
1789031217110370000,10.4833701171875,-3.364900795745849,-2.4534581512451172,8.870666788482666
1789031217120376000,10.4933759765625,-3.7002386657714843,-2.216132911682129,10.22204398803711
1789031217130383400,10.50338330078125,-4.086752596282959,-2.175880396270752,10.611700308227539
1789031217140390100,10.51339013671875,-3.650558981323242,-2.060809078979492,9.782109432983399
1789031217150396200,10.523396240234375,-3.170521548461914,-1.9895815795898437,9.153930772399901
1789031217160403200,10.5334033203125,-3.580229307556152,-1.9952678085327147,8.912415679931641
1789031217170410200,10.54341015625,-3.49852717590332,-2.3138462669372557,9.693673609161376
1789031217180416000,10.553416015625,-3.918559929656982,-2.6357167526245115,10.161590396118163
1789031217190423300,10.56342333984375,-3.3113305335998535,-3.01968684387207,10.8401969291687
1789031217200429300,10.57342919921875,-3.690811496734619,-3.7196915542602538,11.488576666259766
1789031217210436000,10.58343603515625,-3.7401919059753417,-4.725405889129639,12.490250785827635
1789031217220443100,10.593443115234376,-3.4748844345092773,-5.661987651062011,13.421744869232176
1789031217230449200,10.60344921875,-3.030610388946533,-6.338798532867432,13.783269319915771
1789031217240456200,10.613456298828124,-2.946514055633545,-6.477213316345215,12.696002490997314
1789031217250463200,10.623463134765625,-3.4243069244384765,-5.5181859138488765,9.879373875427245
1789031217260469200,10.63346923828125,-3.8660371307373045,-4.3807904876708985,8.032546569824218
1789031217270476000,10.64347607421875,-5.27322915649414,-3.2878374298095703,7.987056738281249
1789031217280482300,10.653482421875,-5.598391669464111,-2.4756045166015626,9.730783734893798
1789031217290489000,10.663489013671875,-3.8148610702514647,-2.431910336303711,12.165387548065185
1789031217300496100,10.67349609375,-2.1339818672180173,-2.267608247375488,13.744513180541992
1789031217310502400,10.68350244140625,-2.189347780609131,-1.7917606674194335,13.857788846588134
1789031217320509200,10.69350927734375,-3.9137715263366695,-0.9650129066467285,12.426654804229736
1789031217330515200,10.70351513671875,-4.582053064727783,-0.7544727981567383,11.807903312683104
1789031217340522200,10.713522216796875,-4.451269799041747,-0.5710170959472656,10.861445468902588
1789031217350529300,10.723529296875,-3.021033582305908,-0.5023334358215332,9.253739054107665
1789031217360535000,10.73353515625,-1.3907318893432616,-1.0492588775634766,8.435370999145507
1789031217370542300,10.743542236328125,-1.6564882736206055,-1.2271779884338379,8.016834621429442
1789031217380549000,10.753549072265624,-2.9767408515930174,-1.2262801628112792,8.290821073913573
1789031217390555100,10.76355517578125,-4.096030127716064,-0.9644143562316894,8.884433448028563
1789031217400562200,10.773562255859375,-4.6651019348144525,-0.8758288948059082,9.623194297790526
1789031217410568200,10.783568115234376,-4.66091208190918,-0.7812579292297362,9.64638812637329
1789031217420575200,10.7935751953125,-4.486135360717773,-0.9335890098571776,9.695618898010252
1789031217430582300,10.803582275390625,-4.951059395599365,-0.7130231819152831,8.796895449829101
1789031217440588300,10.81358837890625,-4.104110558319092,-0.16415245132446288,7.944260383605957
1789031217450595000,10.823594970703125,-3.928735286712646,-0.0073322425842285155,7.764844896697998
1789031217460602400,10.833602294921874,-3.6132992179870604,-0.45938744354248046,8.538172032928466
1789031217470608100,10.843608154296875,-3.3195606018066406,-1.3670891479492187,10.091260722351073
1789031217480615200,10.853615234375,-3.240252671813965,-2.1446061370849607,11.308113716125488
1789031217490621200,10.86362109375,-3.203741096496582,-2.3689129051208493,10.998513513946532
1789031217500628200,10.873628173828125,-2.932298483276367,-1.5402198554992674,8.921094660949706
1789031217510635300,10.88363525390625,-2.7754782745361326,0.903362213897705,5.255871194458008
1789031217520641300,10.893641357421876,-1.9107225624084472,3.3527801498413083,1.4094365898132324
1789031217530648300,10.9036484375,-0.7347206344604492,2.1116858642578125,1.5566799919128418
1789031217540654300,10.913654296875,-2.5106197158813477,1.5062521194458007,2.043600754547119
1789031217550661400,10.923661376953126,-2.6818051345825196,0.4221276802062988,3.0359973426818847
1789031217560668200,10.933668212890625,-4.058321451568603,0.626981559753418,3.0084640235900877
1789031217570674400,10.94367431640625,-4.151994591522216,1.648557480621338,2.667439924621582
1789031217580681200,10.95368115234375,-1.903091044616699,2.092831526184082,1.7479168495178221
1789031217590688300,10.963688232421875,-1.0395324333190918,1.7757494438171386,1.4469956283569334
1789031217600694500,10.973694580078124,-1.6620248649597167,1.406443837738037,1.2370540702819823
1789031217610701300,10.983701416015625,-2.4564509033203126,0.29284079055786133,2.133682592010498
1789031217620707300,10.993707275390625,-4.819527941894531,0.5783493385314941,3.3910873764038083
1789031217630714400,11.00371435546875,-4.699967496490478,1.924938134765625,4.020912050628662
1789031217640721400,11.013721435546875,-4.664204109191894,1.2867337547302244,4.9908629981994626
1789031217650727200,11.02372705078125,-4.377049547576904,1.1469722328186034,5.960813945770263
1789031217660734500,11.033734375,-4.2582372901916505,1.9387047943115234,6.8305076988220215
1789031217670741200,11.0437412109375,-3.851073370361328,1.9113211128234862,6.991966673278808
1789031217680747300,11.053747314453124,-3.928884924316406,1.8873790962219237,6.396109735107421
1789031217690754300,11.06375439453125,-4.416404237365723,2.4733599525451657,6.206518891143799
1789031217700760300,11.07376025390625,-5.007323134613037,2.973149549102783,7.2903440551757805
1789031217710767400,11.083767333984374,-4.6459483215332025,2.4226328048706054,10.20887587890625
1789031217720774400,11.0937744140625,-4.307019149017334,0.723348176574707,13.232752575683593
1789031217730780400,11.103780517578125,-3.1139585342407226,-1.4692916313171387,14.381670097351073
1789031217740787200,11.113787109375,-2.580650114440918,-2.9040169761657713,13.342436939239501
1789031217750794500,11.12379443359375,-3.4557308212280273,-1.6837223175048828,8.825027319335938
1789031217760800300,11.13380029296875,-3.4017116462707517,-0.9614216041564941,6.271162335968017
1789031217770807300,11.143807373046876,-3.8609494522094723,-0.4095581214904785,4.823418519592285
1789031217780813300,11.153813232421875,-1.8390461502075195,-0.12554594955444334,4.722862049865722
1789031217790820400,11.1638203125,-0.8249521095275878,-1.0040683212280272,5.491251145172119
1789031217800827400,11.173827392578126,-2.053027923583984,-1.09160631942749,4.686350474548339
1789031217810833200,11.183833251953125,-2.811391299438476,-1.1329062980651854,4.061314203643799
1789031217820840400,11.19384033203125,-3.8250364273071287,-1.269824705505371,4.47551109085083
1789031217830846200,11.20384619140625,-3.6930560607910152,-1.7082628845214842,6.439205364990234
1789031217840853200,11.213853271484375,-1.8059762397766113,-2.3995886138916016,8.75843858566284
1789031217850860300,11.2238603515625,-0.3981856636047363,-2.539499773406982,10.462511617279052
1789031217860866300,11.2338662109375,-0.6227917068481444,-3.1563059761047363,12.415431983947753
1789031217870873000,11.243873046875,-3.4184710578918454,-3.2677859909057614,12.933327730560302
1789031217880880400,11.25388037109375,-6.3973068359375,-3.23696064453125,13.195792087554931
1789031217890886400,11.263886474609375,-7.962665808868408,-3.9190088424682616,14.851532173156738
1789031217900893200,11.27389306640625,-7.8269445022583,-5.072565129852294,17.019032863616943
1789031217910899500,11.2838994140625,-6.151751528167725,-6.261585529327392,18.905065221405028
1789031217920906200,11.29390625,-3.9546225921630858,-6.477512591552734,19.008315167999267
1789031217930913300,11.303913330078124,-3.4988264511108396,-5.27352843170166,16.81702209854126
1789031217940919300,11.313919189453125,-4.447828134155273,-3.710114747619629,14.06458801498413
1789031217950926300,11.32392626953125,-6.715137106323242,-3.1411925781249996,12.963554526519774
1789031217960933000,11.33393310546875,-6.589441519165039,-4.142268147277832,14.25597451019287
1789031217970939400,11.343939453125,-4.876988781738281,-4.913799632263183,15.02765563278198
1789031217980946200,11.3539462890625,-3.1013889755249022,-4.878335520172119,13.416357915496825
1789031217990952200,11.3639521484375,-1.6487071182250976,-4.524292949676513,10.381707311248778
1789031218000959500,11.37395947265625,-1.8587983139038085,-3.969137439727783,7.164648468017577
1789031218010966300,11.38396630859375,-2.4218846168518064,-4.228309769439697,5.825541551971435
1789031218020972300,11.39397216796875,-4.063708405303955,-4.755632685089111,6.034435646820068
1789031218030979300,11.403979248046875,-4.133738803863525,-5.129427419281005,7.7886372756958
1789031218040986400,11.413986328125,-4.648941073608398,-4.358045571899414,9.719261639404296
1789031218050992000,11.4239921875,-3.962852660369873,-3.130717945861816,10.742034661102295
1789031218060999400,11.43399951171875,-1.820191812133789,-2.503137835693359,10.339359869384765
1789031218071005400,11.44400537109375,-1.0489596023559569,-1.5604209320068358,8.321496782684326
1789031218081012200,11.45401220703125,-0.7266402038574218,-0.9181763366699218,6.610091508483887
1789031218091019500,11.46401953125,-1.6129437309265136,-0.7719803977966309,5.645677152252197
1789031218101025300,11.474025390625,-2.6556185539245605,-0.6603507453918457,5.593603266143798
1789031218111032300,11.4840322265625,-3.669562957000732,-0.8463502868652343,6.533925968170165
1789031218121039400,11.494039306640625,-4.058920001983642,-1.7401356941223143,8.086565744781494
1789031218131045400,11.50404541015625,-3.5098996337890624,-2.8413188201904296,9.122057962799072
1789031218141052200,11.51405224609375,-3.1194951255798338,-3.8844425559997555,9.7162688873291
1789031218151058400,11.524058349609374,-2.9987375793457027,-4.7466544288635255,10.422708014678955
1789031218161065200,11.534065185546876,-3.527856146240234,-4.997746327972412,11.346420942687988
1789031218171072300,11.544072265625,-4.057124350738525,-4.108749324035644,12.083086865997315
1789031218181078500,11.55407861328125,-3.897012114715576,-2.64304899520874,12.281057415771484
1789031218191085300,11.564085205078126,-3.266289614868164,-1.858499038696289,12.673107937622069
1789031218201092400,11.57409228515625,-3.5817256835937497,-1.652298420715332,12.944700188446044
1789031218211098400,11.584098388671874,-4.244320993041992,-1.8333599212646483,13.500903161621093
1789031218221105400,11.59410546875,-5.3393689773559565,-2.755875748443603,14.777760834503173
1789031218231111200,11.604111083984375,-5.917568678283691,-3.2261867370605466,15.865925489044189
1789031218241118500,11.614118408203124,-4.762516014862061,-3.133561060333252,16.283264765930173
1789031218251125200,11.624125244140625,-3.4310406166076657,-2.3714567443847656,15.176395410919188
1789031218261131300,11.63413134765625,-2.93693724899292,-1.5815198341369627,12.909684989166259
1789031218271138300,11.64413818359375,-3.1009400627136228,-1.3352163383483886,10.897208856201171
1789031218281145300,11.654145263671875,-3.2333693420410152,-1.7972972587585447,10.101436079406737
1789031218291151400,11.6641513671875,-3.838803086853027,-1.9958663589477539,9.753977563476562
1789031218301158400,11.674158447265626,-3.847781343078613,-1.8347066596984862,9.99728830718994
1789031218311164400,11.684164306640625,-3.6017771224975585,-1.4645032279968262,9.470115029144287
1789031218321171200,11.694171142578124,-2.819920642852783,-1.00870708694458,8.020874836730956
1789031218331178500,11.704178466796876,-2.3267151008605955,-0.11686696853637694,5.644330413818359
1789031218341184300,11.714184326171875,-2.1820155380249022,-0.023792378997802732,4.652831651306152
1789031218351191300,11.72419140625,-3.4932898597717283,-0.4445733207702636,4.721365673828124
1789031218361197300,11.734197265625,-4.066401882171631,-0.32097266006469727,5.019892693328857
1789031218371204400,11.744204345703125,-3.686322368621826,0.5110124168395995,5.728576384735107
1789031218381211400,11.75421142578125,-4.088997160339355,1.4088380393981932,6.959944226074218
1789031218391217200,11.764217041015625,-4.044405154418945,1.9488801513671874,7.722647092437744
1789031218401224400,11.774224365234375,-2.1033061584472654,1.2505214546203614,7.167641220092773
1789031218411231200,11.784231201171876,-0.9051578651428223,-0.741903239440918,6.085611707305908
1789031218421237200,11.7942373046875,-1.8388965126037597,-1.3709797256469727,3.886687120056152
1789031218431244300,11.804244384765624,-4.4382513275146485,0.7465420051574707,0.9567828384399414
1789031218441250300,11.814250244140625,-4.676624030303955,3.892522986602783,0.4170400016784668
1789031218451257300,11.82425732421875,-4.2125978210449215,4.715080894470215,3.825934252929687
1789031218461264400,11.834264404296874,-3.6520553573608394,3.0437784980773923,6.6702458251953125
1789031218471270400,11.8442705078125,-1.4975731384277342,0.022296002960205077,6.978948201751709
1789031218481277200,11.854277099609375,-2.2717981002807615,-0.7745242370605468,6.419752476501465
1789031218491284500,11.864284423828124,-4.528183527374267,1.0179846183776855,6.574777033996582
1789031218501290200,11.874290283203125,-5.462820000457763,3.4810195762634275,6.455216588592529
1789031218511297300,11.88429736328125,-3.229329126739502,4.631882386779785,5.214870491027832
1789031218521303300,11.89430322265625,-4.214094197082519,2.638709504699707,6.169408765411377
1789031218531310600,11.904310546875,-3.903895444488525,2.4947581298828125,5.63744708404541
1789031218541317400,11.9143173828125,-2.4533085136413573,1.8004396484374998,6.125415309906005
1789031218551323400,11.924323486328126,-4.180725011444092,1.7332523643493651,5.185092607879638
1789031218561330400,11.934330322265625,-3.353827613067627,1.5945383056640625,4.501697671508789
1789031218571337500,11.94433740234375,-4.272752137756347,1.8614917907714843,4.060715653228759
1789031218581343500,11.954343505859375,-4.092738100433349,2.3523031311035156,3.90060341720581
1789031218591350500,11.9643505859375,-2.315492280578613,2.159869172668457,4.984129306030273
1789031218601356500,11.9743564453125,-2.2099977699279783,1.8701707717895506,5.832125606536865
1789031218611363300,11.98436328125,-2.536656658935547,1.1148001480102538,6.861333045196533
1789031218621370600,11.99437060546875,-4.172794218444824,0.7803601036071777,6.790404821014404
1789031218631376400,12.00437646484375,-3.4570775596618653,-0.021098902130126954,7.381772631072997
1789031218641383400,12.014383544921875,-3.3762732536315916,-1.3208511283874511,8.979453326416015
1789031218651390500,12.024390380859375,-3.2493805656433103,-1.712303099822998,9.588328736114502
1789031218661396500,12.034396484375,-2.1625626495361328,-2.2943933784484862,8.929175091552734
1789031218671403500,12.044403564453125,-1.8330606460571288,-2.645742472076416,7.658153285217285
1789031218681409300,12.0544091796875,-2.449118660736084,-2.627636322021484,6.34613077545166
1789031218691416600,12.06441650390625,-3.5711014137268062,-2.21523508605957,5.539584091186523
1789031218701423400,12.07442333984375,-4.159027558898925,-1.7227777320861815,5.638494547271728
1789031218711429400,12.084429443359374,-3.7295676361083983,-1.4586673614501953,6.572233194732665
1789031218721436400,12.0944365234375,-2.715922508239746,-1.4374188217163084,7.832930006408691
1789031218731443500,12.104443359375,-1.9589058708190916,-1.8567033874511718,9.44856721420288
1789031218741449500,12.114449462890626,-1.5614683952331543,-2.671031227111816,10.791863983154297
1789031218751456500,12.12445654296875,-1.4851532173156738,-3.864241479492187,12.157307117462157
1789031218761462500,12.134462646484375,-2.883217349243164,-4.730343930053711,12.54561669921875
1789031218771469300,12.14446923828125,-3.9728783798217773,-5.047276374816894,12.211326292419432
1789031218781476600,12.1544765625,-4.932504332733154,-5.018695592498779,11.40837091064453
1789031218791482400,12.164482421875,-5.335179124450684,-4.735431608581543,10.887781687164306
1789031218801489400,12.174489501953126,-5.686977130889892,-4.649988536834717,11.31918689880371
1789031218811496400,12.184496337890625,-6.166565650939941,-4.793341361236572,12.43578269805908
1789031218821502500,12.19450244140625,-6.0531403472900385,-4.725555526733398,13.503297363281249
1789031218831509200,12.20450927734375,-5.0854339637756345,-4.216638036346435,14.408155953216552
1789031218841515500,12.214515625,-4.2305543334960936,-3.592349953460693,15.286229412078857
1789031218851522600,12.2245224609375,-4.641159918212891,-3.0449755989074707,15.7948476272583
1789031218861529300,12.234529296875,-5.579238056182861,-2.5718214958190915,15.569493395996092
1789031218871535600,12.24453564453125,-6.341043096923828,-2.39405202255249,14.61944424972534
1789031218881542400,12.25454248046875,-5.085134688568115,-3.193416101837158,14.28889478302002
1789031218891549400,12.264549560546875,-4.6627077331542965,-4.084208757019042,13.527389017486572
1789031218901555500,12.274555419921874,-3.9369653549194332,-4.7095443031311035,12.084283966827392
1789031218911562500,12.2845625,-3.5289036094665525,-5.560084442901611,11.013926187133789
1789031218921568500,12.294568603515625,-4.440795166778564,-6.382043800354004,10.655993038940428
1789031218931575600,12.304575439453124,-4.791096797180176,-6.554875232696533,11.212046374511718
1789031218941582300,12.314582275390626,-4.833593876647949,-5.618443108367919,10.757746609497069
1789031218951588400,12.32458837890625,-2.4239795433044433,-4.452915812683105,10.06133320159912
1789031218961595600,12.334595703125,-1.3482348098754882,-3.3035493782043455,8.708908538818358
1789031218971602400,12.3446025390625,-0.8081926979064941,-2.574215697479248,7.23976654510498
1789031218981608400,12.3546083984375,-1.0688614036560058,-2.224961530303955,6.119280168151855
1789031218991615500,12.364615478515624,-1.919102268218994,-2.007987004852295,5.514145698547363
1789031219001621500,12.37462158203125,-2.587533444213867,-1.7130512878417967,5.710470234680176
1789031219011628300,12.384628173828125,-3.4392706848144527,-1.4419079498291014,6.500556782531738
1789031219021635600,12.394635498046876,-3.8051346260070797,-1.6223708999633788,7.9478516860961905
1789031219031641600,12.4046416015625,-3.341557329559326,-2.2177789253234863,9.621548284149169
1789031219041648400,12.4146484375,-1.9419968215942383,-2.733130832672119,10.539425345611571
1789031219051655400,12.424655517578126,-0.680551821899414,-3.0826842750549313,10.401758750152588
1789031219061661400,12.434661376953125,-0.33698388366699217,-3.0783447845458984,9.651026892089844
1789031219071668500,12.44466845703125,-1.6154875701904297,-2.4754548789978026,8.626158943939208
1789031219081674200,12.45467431640625,-3.499275363922119,-2.084002907562256,8.378807984924316
1789031219091681500,12.464681640625,-4.726602989959717,-2.0599112533569333,8.96927796936035
1789031219101688300,12.474688232421874,-4.126107286071777,-1.9173066169738768,9.936236164855956
1789031219111694300,12.4846943359375,-2.7199627235412596,-1.5876549758911132,10.836007076263428
1789031219121701400,12.494701416015625,-3.4421137992858886,-0.9958382530212402,11.410615474700927
1789031219131708400,12.50470849609375,-5.446958414459228,-0.3595791618347168,13.240384093475342
1789031219141714400,12.51471435546875,-7.3943421897888175,0.010773907470703125,16.735469604492188
1789031219151721500,12.524721435546875,-6.1650692749023435,-0.024390929412841794,19.620033692169187
1789031219161727500,12.5347275390625,-3.199251968383789,-0.5627870277404785,18.819921424865722
1789031219171734300,12.544734375,-2.408566870117187,-1.229572190093994,14.57604934463501
1789031219181741600,12.554741455078124,-3.4968811622619627,-1.7910124794006346,11.161169589233397
1789031219191747300,12.564747314453125,-3.6168905204772948,-1.587206063079834,9.306860403442382
1789031219201754400,12.57475439453125,-2.3919570960998535,-1.8641852676391601,9.052027564239502
1789031219211761400,12.584761474609374,-1.9693805030822753,-2.155978594970703,8.436717737579345
1789031219221767400,12.594767333984375,-1.1390414398193358,-1.8581997634887695,8.583811502075195
1789031219231774200,12.604774169921875,-2.3132477165222167,-1.6092027908325195,9.449465039825439
1789031219241780500,12.614780517578126,-3.469796755981445,-1.0959458099365234,9.457545470428466
1789031219251787500,12.62478759765625,-4.057573263549805,-1.092953057861328,9.712079034423828
1789031219261794600,12.634794677734375,-5.074660056304931,-0.9626187049865722,8.743474825286865
1789031219271800600,12.644800537109376,-4.502296221923828,-1.1950059036254883,6.7188780464172355
1789031219281807400,12.654807373046875,-3.1370027252197263,-1.4980220512390137,3.7491701622009277
1789031219291814700,12.664814697265625,-2.1986253120422363,-1.3769652297973631,1.8876783714294432
1789031219301820400,12.6748203125,-2.441936055755615,-1.3531728507995604,2.041056915283203
1789031219311827500,12.684827392578125,-1.818246523284912,-0.709880792236328,2.2972364929199216
1789031219321833500,12.69483349609375,-0.992097312927246,-0.9023147506713867,2.790741310119629
1789031219331840500,12.704840576171875,-2.440888592529297,-1.1390414398193358,3.4038065727233886
1789031219341847300,12.714847412109375,-3.8150107078552242,0.5138555313110351,2.614318575286865
1789031219351853300,12.724853271484376,-3.9405566574096675,2.7850550811767576,1.223137773132324
1789031219361860600,12.734860595703125,-3.965246862030029,4.059817827606201,0.7935282127380371
1789031219371867400,12.744867431640625,-3.7735610916137694,4.664802659606933,2.3573908096313474
1789031219381873400,12.754873291015626,-3.285293590545654,4.585494729614258,5.632209767913818
1789031219391880400,12.76488037109375,-2.1520880172729493,3.0383915443420406,8.340650395965575
1789031219401886500,12.774886474609374,-2.236633263397217,0.505026912689209,10.35537109298706
1789031219411893200,12.784893310546876,-3.011307138061523,0.08993219985961913,8.164975849151611
