time,seconds_elapsed,z,y,x
1788862018317857000,0.06185693359375,-0.322246917784214,0.2940045736402273,1.0099224540837108
1788862018327899000,0.07189892578125,-1.296108316797018,-0.190176534897089,0.8019835410680621
1788862018337940000,0.08193994140625,-1.7353092968791721,-0.32894670768380163,0.6551202973924577
1788862018347981000,0.09198095703125,-1.0371095900863407,-0.3149450703382492,0.3366919149830937
1788862018358023200,0.102023193359375,-1.667190284898877,-0.4722086389318108,0.33626433722078797
1788862018368064300,0.112064208984375,-1.8177298059344291,-0.5850339308619499,0.37229360891394314
1788862018378106000,0.122106201171875,-1.18067927210927,-0.8992772826716303,0.2343807105436921
1788862018388147200,0.132147216796875,-0.7079138760775328,-1.7935589490130543,0.3545971356384456
1788862018398189000,0.14218896484375,-0.6289736103534698,-2.5536121776506304,0.3836300456382334
1788862018408230100,0.152230224609375,-0.8190443467885256,-2.906777673050761,0.11649886587634682
1788862018418272000,0.16227197265625,-1.2018839727014303,-3.075154464071989,-0.13456979848742484
1788862018428313000,0.17231298828125,-1.8988140979498624,-3.2873443855956195,0.025372926187515257
1788862018438355000,0.18235498046875,-1.55862294267416,-3.141158968116343,0.5990908055260777
1788862018448396000,0.19239599609375,-1.0693675996124743,-2.5567186192333695,0.8184856899924576
1788862018458436900,0.202436767578125,-1.4605834242045879,-2.1660706576570865,1.0322387691795825
1788862018468479200,0.212479248046875,-2.2969588450223206,-1.959591514995694,1.4132520564481614
1788862018478520000,0.22252001953125,-3.118744599473476,-1.798373363557458,1.7933818388804792
1788862018488562200,0.232562255859375,-3.416922074884176,-1.4237187976658343,1.9392150819212197
1788862018498603000,0.24260302734375,-3.1753426850080486,-1.2344751597046852,1.9139447393253444
1788862018508645000,0.25264501953125,-2.515658294570446,-1.6468682123601435,1.5126011962115764
1788862018518686000,0.26268603515625,-0.9855968449920415,-1.7211024923503397,-2.92535553227067
1788862018528728000,0.27272802734375,1.8018097677469251,-2.575108846926689,-3.8868157148718834
1788862018538769000,0.282768798828125,2.6808850971281526,-5.044117618525028,-2.4503274520039557
1788862018548810000,0.29281005859375,1.1156780998885631,-6.890735080769658,-0.3018377514839172
1788862018558851800,0.302851806640625,-0.5848866313457489,-6.644591743978857,-0.09825696061253547
1788862018568893000,0.312892822265625,-0.7325988200008868,-5.604312291684747,-0.4232563919752836
1788862018578935000,0.32293505859375,-0.38184593870043754,-4.73728278940618,0.05536766695678234
1788862018588976000,0.33297607421875,-0.29026304902434347,-3.9644741240918635,0.5694996771216392
1788862018599018000,0.34301806640625,-0.4322796563863754,-3.5859213817179203,0.6207341897964477
1788862018609059000,0.35305908203125,-0.47301615592241286,-3.886182093143463,0.2942565025746822
1788862018619101000,0.363100830078125,0.3053659256100654,-4.511028978955745,-0.5101917481064796
1788862018629142000,0.37314208984375,0.9945043740689754,-5.309637855958938,-1.8159201261639595
1788862018639184000,0.383183837890625,2.122662016302347,-5.617532423263788,-2.157425871169567
1788862018649225000,0.393224853515625,3.364863094083965,-5.105385449436307,-1.2886480639189482
1788862018659266000,0.40326611328125,3.7607813972786066,-3.81388082704246,0.1355395203024149
1788862018669308000,0.413307861328125,3.429505077603459,-2.4566969870358704,0.7722685670882463
1788862018679349000,0.423348876953125,2.46613467746675,-1.7647621858566997,0.6443892061501741
1788862018689391000,0.43339111328125,1.5824702667295931,-1.4562249367341398,-0.025431378376483914
1788862018699432200,0.44343212890625,1.6938244631938635,-1.4508593180477618,-0.36893151206970215
1788862018709474000,0.45347412109375,2.6295938858300447,-1.2381436190843582,0.04453063112199306
1788862018719515100,0.46351513671875,3.3145471575587986,-0.36282822675853965,1.1027660113453865
1788862018729557000,0.473556884765625,3.5596927154839038,0.8797688646033406,1.9612123941957949
1788862018739598000,0.48359814453125,2.516760702854395,0.37864728878960013,1.4273171144187449
1788862018749640000,0.493639892578125,0.5491606534481048,1.374743608225137,0.773432934692502
1788862018759681000,0.503680908203125,-1.6184290304698048,2.5056433887735006,-0.03467734562754631
1788862018769722000,0.51372216796875,-3.7136829614952203,1.7067640242658555,-0.4153998332560062
1788862018779764000,0.523763916015625,-4.916778355813026,2.5715283580914137,-0.6461866109609603
1788862018789805000,0.53380517578125,-5.244316365742683,4.512718831738829,0.6884194865345955
1788862018799847200,0.54384716796875,-5.972213876184821,6.367165380173922,2.7899083664268254
1788862018809888000,0.553887939453125,-13.33906074080467,10.334214907711743,9.126216836044192
1788862018819930000,0.56393017578125,-30.49590282322168,16.631234153991937,18.451586125123498
1788862018829971200,0.57397119140625,-28.327696030318734,12.308866629195213,16.74256570023298
1788862018840013000,0.584012939453125,-8.642382348987459,3.6499534166455265,7.0862535612165924
1788862018850054100,0.59405419921875,8.632405144852399,6.910311887899041,-1.8686498458325862
1788862018860095000,0.604094970703125,-0.39242695394754407,8.837171930637956,-2.398755085676908
1788862018870137000,0.61413720703125,-3.2774370318263766,4.106001194371283,-2.131857130149007
1788862018880178000,0.624177978515625,0.07452829450070858,4.163426962901652,-3.143396810171008
1788862018890220300,0.63422021484375,-1.4342016132354736,4.294779552908241,-6.455192623195051
1788862018900261000,0.64426123046875,-1.629244877386093,3.019905162797868,-7.400609433490038
1788862018910303200,0.65430322265625,1.0472264949530363,1.2778098590403795,-3.267989989045262
1788862018920344000,0.664343994140625,5.072803030261397,2.1343694052308795,0.8763841906011104
1788862018930386200,0.67438623046875,7.472839387920499,0.9999687769547104,3.6390772178441284
1788862018940427000,0.684427001953125,7.752156095516681,-2.0596485107675195,-0.1894926442861557
1788862018950469000,0.69446923828125,0.9108347417354583,-2.715211729621887,-8.49116712064743
1788862018960510000,0.704510009765625,0.2840232778519392,5.876988830614089,-1.635748267930746
1788862018970551000,0.714551025390625,5.331982374235987,4.842397945350409,16.94245581989288
1788862018980593000,0.724593017578125,4.253714844331145,0.6095791740536689,10.660753385210036
1788862018990634000,0.734634033203125,-0.9059633363068104,0.8399111937284469,5.470350395962596
1788862019000676000,0.744676025390625,-6.188889126428961,0.21112813751101492,10.904177526170015
1788862019010717200,0.75471728515625,-7.454867677900195,1.9922388161003588,6.518792111924291
1788862019020759000,0.764759033203125,-6.865457431650161,-3.5982699911594387,-1.1298404807537794
1788862019030799400,0.77479931640625,-3.779371823719144,-8.367377074849605,-6.853736014196277
1788862019040841200,0.78484130859375,1.0606675758063793,-14.460316348564623,-6.201240073958039
1788862019050882300,0.79488232421875,0.8662947582632303,-10.977960555261372,0.7355202604055404
1788862019060923400,0.80492333984375,1.821554917180538,-8.910742778283357,4.441863672792911
1788862019070965200,0.81496533203125,2.2154881840378047,-10.38148051675558,4.298255412325263
1788862019081006300,0.82500634765625,1.7032897722840308,-8.654452141487598,3.4858319449812174
1788862019091048400,0.83504833984375,0.8190624669671058,-6.956916402685642,2.5736457886368034
1788862019101089500,0.845089599609375,0.2008767926096916,-4.910312959191203,1.1977736147731541
1788862019111131400,0.85513134765625,1.6608201653450727,-2.157573170685768,-5.119302915629744
1788862019121172500,0.86517236328125,-0.41265024228692054,-0.15325637877881526,-10.42536525118947
1788862019131214300,0.87521435546875,-0.5869178449124097,1.9107482813715935,-12.050318568861483
1788862019141255400,0.88525537109375,9.4507480653733,3.9163767403990026,-4.329849989506602
1788862019151297300,0.89529736328125,-1.8059791623860597,0.05208323845863342,2.33260006724596
1788862019161338400,0.90533837890625,-4.704781034252047,1.2855097658932209,-0.7604004346400499
1788862019171379200,0.915379150390625,-1.9117665185034274,4.599260220116377,-2.8458307446569204
1788862019181421300,0.92542138671875,-0.6320049408733844,5.157054261875152,-2.0347744740128517
1788862019191462400,0.93546240234375,0.36003333534300325,4.635010163411498,-0.9360007471740245
1788862019201504500,0.94550439453125,0.8245867833465337,3.178856246086955,-0.6604220570623874
1788862019211545300,0.95554541015625,1.0625748707324265,1.0897159756362438,-0.8836094656795263
1788862019221587500,0.96558740234375,1.0642629699498414,0.40066754354834555,-0.22788404200077056
1788862019231628500,0.975628662109375,1.7134025854974984,1.1758598891288041,1.5597089843451977
1788862019241670400,0.98567041015625,2.995883943480253,2.508501408553123,3.875459623599052
1788862019251711500,0.99571142578125,-0.6893079598069191,1.814999504187703,4.051400127872824
1788862019261753300,1.00575341796875,-1.9048077854067087,0.4375076201677322,3.3463866494119165
1788862019271794400,1.01579443359375,-0.13299217390716075,-0.3957879548132419,2.7946470853865146
1788862019281835300,1.025835205078125,-0.24204759190976619,-0.15633680913746356,2.414132687550783
1788862019291877400,1.03587744140625,-1.4308897122085094,0.18135609958171844,1.2876900325417517
1788862019301918200,1.045918212890625,-0.2880792752444744,0.5697983678072691,0.9490040211319923
1788862019311960600,1.055960693359375,1.282885262608528,1.2951771734267472,1.5442685463681816
1788862019322001400,1.06600146484375,2.196374902766943,1.0407505769371985,1.673813210169971
1788862019332043500,1.07604345703125,2.0051304463773967,2.133698958623409,1.502471431863308
1788862019342084400,1.08608447265625,0.5346235940515994,2.988172346189618,0.9989078697249293
1788862019352126500,1.09612646484375,-1.9059207150846718,2.1128461402088403,0.4765753097087145
1788862019362167300,1.106167236328125,-2.107962459820509,1.314452367261052,0.07701894227266311
1788862019372208400,1.11620849609375,0.3690092534810304,2.4123773683160543,-0.4345025931328535
1788862019382250200,1.126250244140625,1.290246731287241,3.351246364402771,-1.3338716457411646
1788862019392291300,1.136291259765625,0.054525955435633655,1.730274225321412,-3.3276673358947035
1788862019402333400,1.14633349609375,-0.8179454456359148,-1.7223451858878134,-4.385653125271201
1788862019412374500,1.15637451171875,0.5260632709771395,-1.6946324185758828,-1.6770672435298561
1788862019422416400,1.16641650390625,0.7256821724802255,-0.7260059976071119,0.15984598630219696
1788862019432457500,1.17645751953125,0.39894203492999075,-0.3885094882428646,0.20254531034380197
1788862019442499300,1.186499267578125,0.15701836166083813,-0.8350169919461011,-0.1252092649459839
1788862019452540400,1.19654052734375,-0.0627852497369051,-2.2999971898049116,0.040592707151174544
1788862019462581500,1.20658154296875,0.423140072119236,-2.560160868641734,0.908311945259571
1788862019472623400,1.216623291015625,-0.6787240219503641,-3.528451189523935,1.1428045917451382
1788862019482664400,1.22666455078125,1.1056699160933494,-1.3646581214100122,2.0470985335350034
1788862019492706300,1.236706298828125,2.1021084730952975,0.9627636664152145,0.9485618303224443
1788862019502747400,1.246747314453125,-1.0172574731469153,2.011005475890636,-2.187719010363519
1788862019512789500,1.25678955078125,-0.702823859462142,11.931027003526687,3.279348126144707
1788862019522830600,1.26683056640625,-1.988840405833721,5.514325146767496,1.3890259622082113
1788862019532872400,1.27687255859375,-0.23618133022487162,-2.6453105103999373,-2.164482511682808
1788862019542913500,1.28691357421875,0.5075549698621035,-8.020975374495983,-1.5640303546756504
1788862019552954400,1.296954345703125,0.3862555718362331,-6.520571396556496,0.8732493997067212
1788862019562996500,1.30699658203125,-0.7618442037075758,-3.8625586409717796,0.7465870133429765
1788862019573037300,1.317037353515625,-2.2124615296930075,-1.4253425994753837,-0.8680664441108703
1788862019583079400,1.327079345703125,-2.4775568197131155,-0.6805360398083925,-1.0441825972124934
1788862019593120300,1.337120361328125,-1.2903607130557297,0.12434709515869617,-0.5784095442861318
1788862019603162400,1.347162353515625,-0.5398194091290235,2.510767599919438,-0.5244505750834941
1788862019613203200,1.357203125,-0.5598819539487362,3.1754005526751277,-1.5796894038394094
1788862019623245600,1.36724560546875,0.23143384343683718,2.214685050961375,-1.3766735533744097
1788862019633286400,1.377286376953125,0.20979951925575732,-0.1408586694985628,-0.19225538699775932
1788862019643328500,1.38732861328125,0.672332859608531,-0.7761264115601778,1.1181076651230453
1788862019653369300,1.397369384765625,0.9116758687347173,-1.04248251529634,1.663743943837285
1788862019663410400,1.407410400390625,0.07977496298253536,-1.6150404109448193,1.7393524347901343
1788862019673452300,1.417452392578125,-0.7468231601864099,0.2045154413729906,1.701110966940224
1788862019683493400,1.427493408203125,-2.4646155050754546,0.012643208473920822,0.04546352805793285
1788862019693535200,1.43753515625,-0.3642886546999216,19.134370820641518,3.6550472326532004
1788862019703576300,1.447576416015625,2.2214941464543343,25.43603350881338,-5.429536739537119
1788862019713618200,1.4576181640625,-5.0656818000793455,-0.13387129482924937,-13.48708974032402
1788862019723659300,1.4676591796875,0.41564357888400555,5.748818962296843,-4.20421899201721
1788862019733700400,1.477700439453125,-2.354773320609331,-1.8707430187195537,-2.663266146068275
1788862019743742500,1.487742431640625,-5.24924505431652,-5.899063299778104,-3.9228839303359386
1788862019753783600,1.497783447265625,3.1492659944653507,-3.032037206879258,-2.7093115656673907
1788862019763825400,1.507825439453125,7.391147777661681,-1.703149487030506,3.286627177236974
1788862019773866500,1.517866455078125,0.7449947757154702,1.8091677292943,5.9163820988476274
1788862019783908400,1.527908447265625,-3.52674497012794,4.312684919694066,5.111033684456348
1788862019793949400,1.537949462890625,1.9314877025395631,1.1497720926702022,6.2989890850484365
1788862019803991300,1.5479912109375,1.7887194000273943,1.6420196032851933,10.593500634670256
1788862019814032400,1.558032470703125,-7.140429388040304,-5.865300730907917,10.002261419427395
1788862019824073200,1.5680732421875,-5.118413857835531,-0.23016776902377603,14.00710730139613
1788862019834115300,1.578115234375,2.8234891489893195,-6.004646073234081,11.874129642784595
1788862019844156400,1.588156494140625,8.527045074236392,-9.121467595690488,9.375842754253744
1788862019854198500,1.598198486328125,4.813889059224724,-7.24663058565557,5.620861859947443
1788862019864239400,1.6082392578125,0.9012427375257015,-8.906641188183427,1.5162264009714126
1788862019874281500,1.618281494140625,1.3715671701461076,-8.456492697629333,-3.225552238549292
1788862019884322300,1.628322265625,2.2886317461818457,-6.886326032155751,-6.540068124186992
1788862019894364400,1.638364501953125,1.5527859070837498,-5.989748948353529,-8.88856367970109
1788862019904405200,1.6484052734375,0.11187339803278445,-5.595740278172492,-9.363515772122144
1788862019914447400,1.658447265625,-1.1819266418218612,-6.376453433001041,-7.78453451655209
1788862019924488200,1.66848828125,-1.5275737244158982,-6.966335972937941,-7.571507267421484
1788862019934529300,1.678529296875,-1.4240525596648455,-6.1533525336235755,-7.582433150583505
1788862019944571400,1.6885712890625,-0.8861211562395095,-5.406684856259822,-5.092680281642079
1788862019954612500,1.698612548828125,-1.8909739058434962,-4.671429676531255,-1.918971627576649
1788862019964654300,1.708654296875,-2.7804069631099697,-3.84220178938061,-0.37915129278898235
1788862019974695400,1.7186953125,-2.375602173626423,-3.1983497588470575,0.570152880333364
1788862019984737300,1.7287373046875,-0.8791080626070499,-2.4415827122732994,-1.1079501359850168
1788862019994778400,1.7387783203125,0.568272765675187,-1.7407587944567202,-3.770280462507903
1788862020004820200,1.7488203125,2.0095950245708227,-1.0212933045342565,-4.83398433727026
1788862020014861300,1.758861328125,1.5966332321166992,1.0652364911571144,-4.14878878121823
1788862020024902400,1.76890234375,2.2509271616876125,4.181699117173254,-4.4252790332168335
1788862020034945500,1.778945556640625,0.6357809522807598,8.632002993792295,-2.649175369134545
1788862020044986400,1.788986328125,-1.8737895468086003,10.181486352199315,-2.1726820386208594
1788862020055028500,1.799028564453125,-2.299742922782898,7.341928696462512,-0.7970803522616624
1788862020065069300,1.8090693359375,-0.651586424177885,2.132235900333524,-0.7760875408545136
1788862020075111700,1.819111572265625,-0.6225830325335264,-0.12149287477135658,-1.2495847582921384
1788862020085152500,1.829152587890625,-2.4983622918546198,-0.3923480434924364,-1.0891769733887164
1788862020095194600,1.839194580078125,-3.9727719968378543,0.653826312059164,0.659074441845715
1788862020105235500,1.8492353515625,-1.4947271013468504,0.07409399473667144,2.3399014763005077
1788862020115276500,1.859276611328125,5.388911883682012,-2.5441414617329836,3.2618025325819846
1788862020125318400,1.869318359375,3.694776893234253,-2.8202783702492713,4.95381015561223
1788862020135359500,1.879359375,-0.9080547556281089,-1.1508213094621895,7.268918989831208
1788862020145401600,1.889401611328125,-1.039880808365345,0.4056874175369739,8.045240631702542
1788862020155442400,1.8994423828125,-1.0606950483351945,1.0241478171825409,6.858518572297692
1788862020165484500,1.909484619140625,-0.36815643604397774,0.1599251890182495,3.3628228204280135
1788862020175525400,1.919525390625,0.7234732642591,-0.3172200295329094,1.1624196850582957
1788862020185567700,1.929567626953125,1.3462269771844149,1.7637012786269186,-0.7247585548292845
1788862020195608600,1.939608642578125,1.779053161537647,4.705936634027958,-0.936709333834797
1788862020205649700,1.949649658203125,0.7791817074775695,4.48761361657679,-0.3056140551522374
1788862020215691500,1.95969140625,-0.4755705165803432,3.405545525345206,0.9243097248584031
1788862020225732600,1.969732666015625,-1.3940332689762114,3.1590842086464166,2.337398991960287
1788862020235774500,1.9797744140625,-1.8092787884533403,3.265899154245853,2.9982313833892342
1788862020245815600,1.989815673828125,-0.6278466521501541,2.7180302941739556,3.2448937756180762
1788862020255857400,1.999857421875,-0.944964974874258,0.8427958092540502,1.957036569815874
1788862020265898500,2.0098984375,-2.1800492063879964,1.8518284748911857,2.795396150188148
1788862020275940400,2.0199404296875,-2.42683960891068,1.5437205570966004,1.160663708236441
1788862020285981400,2.0299814453125,3.0493466535985467,-1.7731179262697696,-1.7240258324511348
1788862020296022500,2.0400224609375,4.031242890506983,-3.7663568593233823,-4.4497541337817905
1788862020306064600,2.050064697265625,1.5941384926915168,-2.834922981673479,-4.299936789540946
1788862020316105700,2.060105712890625,-1.0417676450252533,-3.029488106918335,-3.8026401788428426
1788862020326147600,2.070147705078125,-0.6437351261556148,-4.542718248683214,-2.7539687457785007
1788862020336188700,2.080188720703125,-1.7916659748733044,-1.7611317203998564,-1.7399959933906792
1788862020346230500,2.09023046875,-1.0848322952479124,0.6359311744064092,-3.3683632111594077
1788862020356271600,2.100271728515625,-0.974456442296505,0.8042629572421311,-3.261755478569865
1788862020366313500,2.1103134765625,0.549496169012785,-1.6211965954869985,-3.360565689150989
1788862020376354600,2.1203544921875,1.08312081515491,-2.994377046048641,-1.7705417921714484
1788862020386395400,2.1303955078125,0.8910404924631118,-2.387774841979146,1.0455707636352627
1788862020396437500,2.1404375,-0.09092530255019664,-2.737062326902151,1.7220814203850925
1788862020406478300,2.150478271484375,-0.010388123023509978,-3.5730133848279713,0.8998642157141119
1788862020416520700,2.160520751953125,0.1888128453284502,-2.97753813945055,-1.0549798124935477
1788862020426561500,2.1705615234375,0.03780453773736953,-2.5968521844401953,-1.7418831223115323
1788862020436603600,2.180603759765625,-0.03649930035769939,-2.137746188187599,-1.377866270290315
1788862020446644500,2.19064453125,0.03674479955136776,-1.561327233196795,-0.8563745450124144
1788862020456686600,2.2006865234375,0.19500643927156924,-1.2123220723465085,-0.7370857561565936
1788862020466727400,2.2107275390625,0.40156420012712474,-0.7214356209516525,-0.6279965820148586
1788862020476768500,2.2207685546875,0.606487053257227,0.0872477830812335,-0.34610980473496017
1788862020486810400,2.230810302734375,0.45914428243637084,0.6790723969966173,-0.1561535615250468
1788862020496851500,2.2408515625,0.42338790940046306,1.1869880168646574,-0.035279183978214855
1788862020506893300,2.250893310546875,0.5219605118334293,1.602994876103103,0.15967011827863753
1788862020516934400,2.260934326171875,0.4034440225243568,1.427102302624285,-0.007403919580951332
1788862020526976500,2.2709765625,0.23364976592063902,1.6231678955599664,0.17493220401406287
1788862020537017600,2.281017578125,0.14345219312310217,1.8327666315466165,0.3904620836153626
1788862020547059500,2.2910595703125,0.13376432732343674,1.919068950471282,0.20026552884355187
1788862020557100500,2.3011005859375,0.18515958351790904,2.3490394531324506,0.48204468103051185
1788862020567141600,2.3111416015625,0.021124621093273163,2.6226129409015178,0.3600802432246506
1788862020577183500,2.32118359375,-0.03536941954493522,2.3598884716659785,-0.404313644965738
1788862020587224600,2.331224609375,0.05923135664761066,2.193138989585638,-0.17903028698265552
1788862020597266400,2.341266357421875,-0.508171055933833,2.531918524497747,0.5317452621363103
1788862020607307500,2.3513076171875,-0.661747168186307,2.439060500319302,0.5955474338307977
1788862020617349600,2.361349609375,-0.02936170356273651,1.1327753651618957,0.7534474006317555
1788862020627390700,2.371390625,0.5417629444122314,-0.8790271063253283,1.8165338741481303
1788862020637432600,2.3814326171875,0.004433014011383057,1.0200807138741015,1.2398776032701133
1788862020647473700,2.3914736328125,0.29307050766050813,-0.17974223464429379,0.5949184882774948
1788862020657514500,2.401514404296875,-0.5379354950785636,-2.579864517021179,0.9015914048328996
1788862020667556600,2.411556640625,-0.38925183104276656,-2.0395915189057585,1.106120290209353
1788862020677597400,2.421597412109375,-0.1267255147278309,-1.5840397080034017,0.7987658211305737
1788862020687639600,2.4316396484375,-0.17129472429454326,-2.989006458926201,0.16697598431259392
1788862020697680400,2.441680419921875,0.07890460988879203,-3.319146760308742,0.10030454079210757
1788862020707722500,2.451722412109375,-0.21648528062999248,-2.410934476031363,0.11875059032589197
1788862020717763300,2.461763427734375,-0.6263374166309833,-2.032692114780843,0.25751521015465256
1788862020727805700,2.4718056640625,-0.46582186050415036,-1.7892846326947212,0.3117448129922151
1788862020737846500,2.481846435546875,-0.24176585235893724,-1.8975936162441969,-0.06998480585217476
1788862020747887600,2.4918876953125,-0.23456688076555726,-1.8944979883164166,-0.8615832195714116
1788862020757929500,2.501929443359375,-0.0038192660272121427,-1.7422247753560542,-1.4733562504075466
1788862020767970600,2.511970458984375,-0.007573650124669075,-1.4526856566920876,-1.113381659514457
1788862020778012400,2.522012451171875,0.8631623054563998,-0.9140455204755067,-0.7731396508343518
1788862020788053500,2.532053466796875,0.17458733609914778,-0.47703474391400813,-0.38420360774248835
1788862020798095400,2.542095458984375,0.2586310624420643,-0.376132529489696,-0.14913549945652485
1788862020808136400,2.552136474609375,0.7651414916872977,-0.46361675167530775,0.06866524768620728
1788862020818178300,2.56217822265625,0.8655775499045848,0.5729349122673273,0.47705125665739173
1788862020828219400,2.572219482421875,1.1096247911989687,2.862390542052686,0.037989392784982916
1788862020838260500,2.582260498046875,-0.2116518691241741,7.947061997023225,-0.005568666977807879
1788862020848302600,2.592302490234375,-1.6893769822657108,7.578184260967373,-0.809371020970866
1788862020858343700,2.60234375,-1.0018629201382399,3.8640813204944133,-1.1056291456915437
1788862020868385500,2.612385498046875,-1.3554641766071318,0.7483090148299932,-0.3582696866713464
1788862020878426600,2.622426513671875,-2.6742051809728142,2.0404989891394973,1.6207419835872947
1788862020888468500,2.632468505859375,-2.4940274775207043,1.6506033072352408,2.348705837263912
1788862020898509600,2.642509521484375,1.3559651118665932,-1.1310653463736176,1.9734937836199997
1788862020908551400,2.652551513671875,0.7995330061107874,-2.1231594444304704,1.5605265843383966
1788862020918592500,2.662592529296875,0.3127051824569702,-1.9207646484732628,1.2002335751459001
1788862020928633300,2.67263330078125,0.8275263439297675,-2.2600357662945982,0.4404698309741914
1788862020938675500,2.682675537109375,2.0922452507287264,-2.2158771833553907,0.02372910450324416
1788862020948716300,2.69271630859375,1.4265256717801094,-0.579095480723679,0.11532689948752521
1788862020958758700,2.702758544921875,0.2111333982080221,0.03643178807944059,-0.37754239628762004
1788862020968799500,2.712799560546875,-0.9728045834362506,-0.3424956328257918,-1.3802096185460686
1788862020978841600,2.722841552734375,-0.5370230564087629,0.6271332431837916,-1.3759405629247425
1788862020988882400,2.73288232421875,0.10560381624400615,0.785807263097167,-0.9099107587583363
1788862020998924500,2.742924560546875,0.27324527872800825,1.888760321447253,0.3534548337355256
1788862021008965400,2.75296533203125,0.5295195489108562,1.6890458506152033,0.6847216549299657
1788862021019006500,2.76300634765625,0.9711176532626151,-0.17958266016840935,-0.08235577325597405
1788862021029048300,2.77304833984375,-0.09583528642356395,-1.7634630859568714,-0.6649265288747847
1788862021039089700,2.783089599609375,-1.2010896074533461,-1.3847569065868854,-0.3229680716656148
1788862021049131500,2.793131591796875,-0.7366729375720024,-1.011871980716288,-0.3329498058453202
1788862021059172600,2.803172607421875,-0.09647650693655013,-0.9232564164131879,-0.5501167851291596
1788862021069214500,2.81321435546875,0.37573300877809523,-0.8870467466518283,-0.7692128327794373
1788862021079255600,2.823255615234375,0.00729717127084732,-0.5405091449588537,-0.7397184427477419
1788862021089297400,2.83329736328125,-0.379288070911169,-0.2423763854727149,-0.6504108045272529
1788862021099338500,2.84333837890625,-0.2023141319364309,0.07607932333499193,-0.3976176544584334
1788862021109379600,2.853379638671875,-0.06420622245073318,0.11074468626379966,-0.2333417228847742
1788862021119421700,2.863421630859375,-0.06634323447942733,0.0657043520539999,-0.09919175724461674
1788862021129462800,2.873462890625,-0.10467267287373543,0.012421674677729606,-0.03017667320743203
1788862021139504600,2.883504638671875,0.16166121903061867,-0.10463175634145735,-0.10068871780410409
1788862021149545700,2.893545654296875,0.15087094494700432,-0.08104279096126556,-0.04242357584014535
1788862021159587600,2.903587646484375,-0.005112228447198867,-0.005734159737825394,0.057823535676300525
1788862021169628700,2.913628662109375,0.025287585991621016,0.047186990849673746,0.10555296283960341
1788862021179670500,2.92367041015625,0.07617313909828663,0.051202363970875735,0.061425797951966524
1788862021189711600,2.933711669921875,0.274077637898922,0.033499826280772686,0.05334522121846676
1788862021199752400,2.94375244140625,0.38905426264405246,0.05118307474851608,0.06573182458281517
1788862021209794600,2.953794677734375,0.38048341817557807,0.16390607534795998,-0.00570011133775115
1788862021219835400,2.96383544921875,0.12837503550052642,0.316347922873497,-0.09231222686395049
1788862021229877800,2.973877685546875,-0.18225626329183578,0.42231355816721916,-0.12853504836782811
1788862021239918600,2.983918701171875,-0.020708441507816314,0.6090154026910662,-0.1962666684657335
1788862021249960700,2.993960693359375,0.0536567713856697,0.8565288587912917,-0.009762830732017756
1788862021260001500,3.00400146484375,0.00905132146179676,1.1202227575808763,0.19224895725697277
1788862021270042600,3.014042724609375,-0.25257541566491126,1.2548837414830922,0.20543182556554673
1788862021280084700,3.024084716796875,-0.4852566288143396,1.3838871380150317,0.3205364606045186
1788862021290125600,3.03412548828125,-0.6025216567575932,1.6197972500830888,0.6517556432649493
1788862021300167700,3.044167724609375,-0.3822387374103069,1.987951055778563,0.8648588802412152
1788862021310208500,3.05420849609375,-0.47988662621378897,2.357837676616013,0.7204436873048543
1788862021320250600,3.064250732421875,-0.7882651776432991,2.4137656078040597,0.3309641849860549
1788862021330291700,3.074291748046875,-0.6947410907715559,2.1639038350120186,-0.1713017385572195
1788862021340333800,3.084333740234375,-0.7533744815260172,1.817274755643308,-0.4742842761620879
1788862021350374700,3.094374755859375,-0.617993951177597,1.3268258188828825,-0.5151704133018851
1788862021360415700,3.104415771484375,-0.26101532723009585,0.8934086828991771,-0.37856706316024064
1788862021370457600,3.11445751953125,-0.0013297872990369797,0.5351902880236507,-0.40385055749863386
1788862021380498700,3.124498779296875,0.6336340033799409,0.41136487865149973,-0.563052692939341
1788862021390540500,3.13454052734375,0.4906161100208759,0.4331573160037398,-0.539943327769637
1788862021400581600,3.14458154296875,0.4825859483003616,0.36908378002196546,-0.9346505016088485
1788862021410623500,3.15462353515625,0.7204208909511566,0.4101882360875606,-1.4406333998486398
1788862021420664600,3.16466455078125,0.3880173208117485,0.5916115556865931,-0.7498588746204972
1788862021430706700,3.174706787109375,0.31819676561057564,0.6095557931780815,0.08207534887939691
1788862021440747800,3.184747802734375,0.14401567222476006,0.2816632707223296,0.0507680642068386
1788862021450788900,3.194788818359375,0.09003156858086585,0.46625119183212516,-0.4415285462468862
1788862021460830700,3.204830810546875,0.34175708941817284,1.3321864691331982,-0.17516951990127563
1788862021470871800,3.214871826171875,0.3827566238045692,1.6098738219618796,0.2793772056117654
1788862021480913700,3.22491357421875,0.6210685363173485,1.080638350689411,0.1465232711315155
1788862021490954800,3.234954833984375,0.560476997232437,0.9115966660186647,-0.573513588938117
1788862021500996600,3.24499658203125,0.019138415712118148,1.2294202144026756,-1.1935562893390654
1788862021511037700,3.25503759765625,-0.018960721057653427,1.6014394633546472,-1.484542976462841
1788862021521079600,3.26507958984375,0.20283610998392104,1.881632661524415,-1.1999421909838914
1788862021531120600,3.27512060546875,-0.34523850179314614,1.8389096643462777,-0.6962482804641127
1788862021541161500,3.285161376953125,-0.8182435517996549,1.3958397338762878,-0.26213380986601115
1788862021551203800,3.295203857421875,-1.073958434534073,1.0728104335427284,-0.08396598493158816
1788862021561244700,3.30524462890625,-1.2338491367608309,0.9083952396288514,-0.07808511019945144
1788862021571286800,3.315286865234375,-1.2461001310467719,1.051091061426699,-0.004158873245120048
1788862021581327600,3.32532763671875,-1.0285323158770798,1.3653285680174827,0.228586345051229
1788862021591369700,3.33536962890625,-0.4286041827440262,1.6822417235583067,0.4539192412644624
1788862021601410600,3.34541064453125,-0.10947568924129009,1.984817726188898,0.4429182470396161
1788862021611452700,3.35545263671875,-0.44311844578683374,2.108414879763126,0.23560586842447517
1788862021621493500,3.365493408203125,-0.9115753309696912,1.9730708820328116,0.12842705794870854
1788862021631534600,3.37553466796875,-0.8013572989284992,1.7427435385331511,0.30106179867535826
1788862021641576400,3.385576416015625,-0.1837801118582487,1.6817141925528645,0.5638368290543556
1788862021651617500,3.395617431640625,0.3220850052207708,1.7984461365327238,0.694378979460895
1788862021661659600,3.40565966796875,0.6354664795041084,1.9201070613473652,0.5127537075489759
1788862021671700700,3.41570068359375,0.40451019045114517,2.1022858754888176,0.07235255789682268
1788862021681742600,3.42574267578125,-0.5251525858730077,2.1775430687859654,-0.17530600576251745
1788862021691783700,3.43578369140625,-1.1426748278856276,2.0453858843982218,0.11556757637560366
1788862021701825500,3.445825439453125,-0.9236866245239973,1.8845014949589967,0.8169915059119462
1788862021711866600,3.45586669921875,-0.41252281651496886,1.7399141603261232,1.3096323997586965
1788862021721907700,3.46590771484375,-0.1812275047659874,1.6096388441622256,1.2551732259489594
1788862021731949600,3.475949462890625,-0.18729542650282383,1.498869607979059,0.7261350308142602
1788862021741990700,3.48599072265625,-0.3031517566919327,1.371708039921522,0.11322203616276383
1788862021752032500,3.496032470703125,-0.5088917714238167,1.177902208611369,-0.32357509764805437
1788862021762073600,3.506073486328125,-0.47382279613018036,0.8676520180910825,-0.5936052137218415
1788862021772115700,3.51611572265625,-0.1518681392908096,0.6307102248877287,-0.8002319481603801
1788862021782156800,3.52615673828125,0.07245382631421089,0.5185264457315206,-1.0636616430558263
1788862021792198700,3.53619873046875,-0.2019569890618324,0.4404617937982082,-1.368533793799579
1788862021802239700,3.54623974609375,-0.5944914950370789,0.3501169214844703,-1.274484660140425
1788862021812280600,3.556280517578125,-0.613221329948306,0.32016894246637817,-0.7149069498352706
1788862021822322700,3.56632275390625,-0.20146774424016475,0.381958751425147,0.06155366211533546
1788862021832363500,3.576363525390625,0.16966040109097957,0.5466483783662319,0.8473230774201452
1788862021842405600,3.586405517578125,0.4276923285961151,0.7458680514186621,1.4059661372236907
1788862021852446500,3.596446533203125,0.1504746391057968,0.8685024974405765,1.5388253324009478
1788862021862488800,3.60648876953125,-0.4972445882499218,0.9398796344339847,1.432656429620087
1788862021872529700,3.61652978515625,-0.5209878674089908,0.9791752875119447,1.3084180555328726
1788862021882571800,3.62657177734375,0.004847440031170845,1.0182049831300972,1.0590199547298251
1788862021892612600,3.636612548828125,0.288009132617712,1.0155588525354862,0.7003558619134128
1788862021902653700,3.64665380859375,0.2063625305444002,0.9055027330577373,0.29747751044780013
1788862021912695600,3.656695556640625,-0.31992168970704077,0.7885165220558643,-0.15824103532359002
1788862021922736600,3.666736572265625,-1.2622580696433783,0.7058101817965508,-0.5220053738884628
1788862021932778500,3.676778564453125,-2.249409742861986,0.5839975735515356,-0.48139673851579423
1788862021942819600,3.686819580078125,-2.947453382310271,0.31758243310451506,-0.044400282740592954
1788862021952861400,3.696861328125,-2.905252655440569,-0.01561959393620491,0.8014853822875767
1788862021962902500,3.706902587890625,-2.3338678952246905,-0.20414193188548088,1.6596771327897906
1788862021972943600,3.716943603515625,-2.0943004296928645,-0.07860475015938281,2.1511049975849685
1788862021982985700,3.72698583984375,-2.2730565759092567,0.28271219525337216,2.303346938624233
1788862021993026800,3.73702685546875,-2.568027364233136,0.6894260332286357,2.3771942651234568
1788862022003068700,3.747068603515625,-2.621644388130307,1.0264128395050764,2.3372876405403016
1788862022013109800,3.75710986328125,-2.300332120847702,1.1973901684135198,2.2044024341389536
1788862022023151600,3.767151611328125,-1.761557836857438,1.1570277628868817,2.1046872375421226
1788862022033192700,3.777192626953125,-1.2078192079693078,0.9193804517626761,1.8571333033010362
1788862022043233500,3.787233642578125,-0.7973930714726447,0.6585527560591697,1.5172376238405703
1788862022053274600,3.797274658203125,-0.7408750654369592,0.5317500844419002,1.1471996848989277
1788862022063316500,3.80731640625,-0.9686702601104974,0.5012649298071861,0.7173686637736857
1788862022073357600,3.817357666015625,-1.34369950453341,0.38667701211869715,0.2729463688466698
1788862022083398700,3.827398681640625,-1.4900976879805325,0.22297756525874138,0.011819763261824845
1788862022093440500,3.8374404296875,-1.079573936328292,0.14883505520522594,-0.29691834219507873
1788862022103481600,3.847481689453125,-0.8274883500069379,0.24742460877299308,-0.7265344784606248
1788862022113523700,3.857523681640625,-1.111187218210101,0.4731885898798704,-0.8773033512726426
1788862022123564800,3.867564697265625,-1.380020525714755,0.8174585389018059,-0.7385891464568675
1788862022133606700,3.877606689453125,-1.279324939778447,1.1122054553419352,-0.48978411617614326
1788862022143647700,3.887647705078125,-0.414357630726695,1.2254331905931233,-0.3438173829488456
1788862022153688600,3.8976884765625,0.5071189165323973,1.5132348179399966,-0.23286183041334152
1788862022163730700,3.907730712890625,0.611654811283946,1.7797212700575589,0.05085859203450382
1788862022173771500,3.917771484375,0.03129471745193004,1.9143699790000914,0.5747368471227586
1788862022183813600,3.927813720703125,-0.5373457124918699,1.8644097240447997,1.1477733931336551
1788862022193854500,3.9378544921875,-0.9880997677236795,1.5648603757590054,1.4066437442243098
1788862022203896600,3.947896484375,-1.4088088133037089,0.8550731070250273,1.3849236414559185
1788862022213937400,3.9579375,-1.4547949039310215,0.033190321940183634,1.0838902651574462
1788862022223979800,3.967979736328125,-1.2563368629008531,-0.5973866319566965,0.6486229712624102
1788862022234020600,3.9780205078125,-1.5574673428982495,-0.8296084109008312,0.30609730862453577
1788862022244061700,3.988061767578125,-2.0694863064318896,-0.6835697084158658,0.24689985424652694
1788862022254103600,3.998103515625,-2.069293414208293,0.05103285262286663,0.647734278794378
1788862022264144600,4.00814453125,-1.5849726049393416,0.7344815650075673,0.8170547073412686
1788862022274186500,4.0181865234375,-1.0423597656995058,1.0335089352458715,0.6692890349332243
1788862022284227600,4.0282275390625,-0.8099439254879951,1.233337680107355,0.47904330725744365
1788862022294269400,4.03826953125,-0.6443786847561598,1.2594079409092664,0.36692579827047883
1788862022304310500,4.048310546875,-0.1487888779759407,1.1434241849482059,0.5672691415905952
1788862022314352600,4.0583525390625,0.40126258683204646,0.8812479972451924,0.6095406686741859
1788862022324393700,4.068393798828125,0.448809935426712,0.6901765593349933,0.4481394157540053
1788862022334434800,4.078434814453125,-0.06790683053433895,0.6333990255802869,0.29496165516935285
1788862022344476700,4.0884765625,-0.30085926184058187,0.6955062299251557,0.1578640917699784
1788862022354517800,4.098517822265625,-0.10149345831573009,0.8508733172476292,-0.06113587509468198
1788862022364559600,4.1085595703125,-0.1912877110093832,0.7875631668537855,-0.4847432724647224
1788862022374600700,4.1186005859375,-0.47042906203866003,0.643553924369812,-0.8719848596636205
1788862022384642600,4.128642578125,-0.35561434985697266,0.4295347415924072,-0.8297338639114051
1788862022394683600,4.13868359375,-0.11899871986806392,0.21963176196217535,-0.6707312696307898
1788862022404724500,4.148724365234375,0.34405367592275143,0.25636662464141846,-0.48919188590403645
1788862022414766600,4.1587666015625,0.20354279694855212,-0.2563029117554426,-0.5769705244589597
1788862022424807400,4.168807373046875,-0.7541302683293819,-0.856463100078702,-0.5135767509022727
1788862022434849800,4.178849853515625,-1.5880343305975197,-1.4113848012715577,0.1262835065813735
1788862022444890600,4.188890625,-2.070606250372529,-1.6013345416754483,1.2195542155571282
1788862022454932700,4.1989326171875,-1.0321177731484175,-0.9266367065012454,2.1921774510771033
1788862022464973600,4.2089736328125,0.1130091240644455,-0.07055646826028823,1.8905059960708022
1788862022475015700,4.219015625,0.3833931681424379,0.6940279740661383,1.2622038552381099
1788862022485056500,4.229056396484375,0.3160299429655075,0.5918173073917627,0.6039260071301833
1788862022495097600,4.23909765625,-0.1817985826522112,-0.0968827496498823,0.11114771410673856
1788862022505139700,4.2491396484375,0.15728139651119707,-0.7664829694241285,-0.023300649958103894
1788862022515180500,4.2591806640625,0.5350836127787828,-1.5344921255022286,-0.3599392273187637
1788862022525222700,4.26922265625,0.2722854937851429,-1.8583377106547354,-0.6770944479871541
1788862022535263500,4.279263427734375,-0.16811960138976573,-1.7193004113644361,-0.9109503309391438
1788862022545305900,4.289305908203125,-1.208656243315339,-1.374904790136218,-1.0356892018944024
1788862022555346700,4.2993466796875,-2.440989130294323,-1.024561658680439,-0.7880585491552948
1788862022565388800,4.309388916015625,-2.618479786619544,-0.5041869547337293,-0.043821167678385974
1788862022575429600,4.3194296875,-1.7935691781461238,0.17561200297176838,0.8370356382921338
1788862022585470700,4.329470703125,-0.4153916499495506,0.7133078440755606,1.1513000328898428
1788862022595512600,4.3395126953125,0.709468704304099,1.133813476037979,1.0695229363046586
1788862022605553700,4.3495537109375,1.1384405513167382,1.2935522025734185,0.8719109176445752
1788862022615595500,4.359595458984375,1.0108867690712213,1.0468366188526153,0.8417837826672941
1788862022625636600,4.36963671875,0.7122171262294054,0.5380851326823234,0.7851905925035476
1788862022635678500,4.379678466796875,0.48752632731199264,0.09840659821629523,0.6348024626374245
1788862022645719600,4.389719482421875,0.3914063787281513,-0.08219196099638938,0.4462421307653188
1788862022655760600,4.3997607421875,0.5413607933521271,-0.09162555977404117,0.2908731072140857
1788862022665802800,4.409802734375,0.6578139203906059,-0.11325053160488605,0.1126916373468004
1788862022675843800,4.41984375,0.6697492728561163,-0.3874970963299274,-0.15619458765517918
1788862022685885700,4.4298857421875,0.5589028797835112,-0.7858715605050325,-0.5791693862101063
1788862022695926800,4.4399267578125,0.3375748352974653,-1.1429624126553535,-1.0073263001106678
1788862022705968600,4.44996875,0.11322539716362953,-1.2045149057269096,-1.3560155268795788
1788862022716009700,4.460009765625,0.09739654439091681,-0.9608709845364093,-1.5590345922149718
1788862022726051600,4.470051513671875,0.33845220265388487,-0.5858294651538133,-1.8055641518443821
1788862022736092700,4.4800927734375,0.5319458992749452,-0.15493629468977452,-1.7146487861663102
1788862022746133500,4.490133544921875,0.5643120453506708,0.1265285308510065,-1.1618566443480551
1788862022756175600,4.500175537109375,0.5433008215039968,0.29405542704463006,-0.4749041981587186
1788862022766216700,4.510216796875,0.40365971110165116,0.28537118532955646,0.04732561386907473
1788862022776258800,4.5202587890625,0.11889116784036159,0.1719686780333519,0.4526290918560698
1788862022786299600,4.530299560546875,-0.0564104540079832,-0.05600128868520259,0.7765283434245734
1788862022796341800,4.540341796875,-0.09418693469464778,-0.30795418853759765,0.8288951480649411
1788862022806382600,4.550382568359375,-0.2065320418924093,-0.4092348808854818,0.5484010672524571
1788862022816424700,4.5604248046875,-0.4186030132114887,-0.5016840320020913,0.03657712396741845
1788862022826465500,4.570465576171875,-0.6584609861224889,-0.3493523668527603,-0.523737275714986
1788862022836506600,4.580506591796875,-0.8572077809661627,-0.14408464580774305,-0.9159833566702902
1788862022846548500,4.590548583984375,-1.077654366442561,0.15203122089803217,-1.0115572156786918
1788862022856589600,4.600589599609375,-1.2158873636126517,0.38636721551716324,-0.881253404072672
1788862022866631700,4.610631591796875,-1.163344106426835,0.5392261194109916,-0.6501627480503172
1788862022876672800,4.6206728515625,-0.9313204804033041,0.7274655487656593,-0.24215147240934892
1788862022886714600,4.630714599609375,-0.581126402029395,0.9321563467055559,0.2190015377672389
1788862022896755700,4.640755615234375,-0.34162089581787586,0.8802391124635934,0.3642502954509109
1788862022906796800,4.650796875,-0.16114742428958415,0.7161755084663629,0.14768221364198253
1788862022916838700,4.660838623046875,-0.33436581012308597,0.5427274055302143,-0.08731244581528007
1788862022926879700,4.670879638671875,-0.5989321078330277,0.3622761458337307,-0.22335708436192944
1788862022936921600,4.680921630859375,-0.7669295441478491,0.17136428239941595,-0.14898244605297223
1788862022946962700,4.690962646484375,-0.6689420481264591,0.1182020165324211,0.0174989779420197
1788862022957004500,4.701004638671875,-0.5364163226872682,0.23841011219024658,0.32802667022943494
1788862022967045600,4.711045654296875,-0.38599896672666073,0.513383822146058,0.7306006319209933
1788862022977087700,4.721087646484375,-0.15411328786909578,0.8337690377116203,1.1810554119452834
1788862022987128800,4.73112890625,-0.01153963114619255,1.1921966914236546,1.6484208486296235
1788862022997169700,4.741169677734375,0.003326514074206352,1.3672662580817938,1.909734720414877
1788862023007211800,4.751211669921875,0.07320201433300971,1.41018711591959,1.9687747922740875
1788862023017252600,4.761252685546875,0.06655366235971451,1.1884551668077707,1.6428243437968193
1788862023027294700,4.771294677734375,-0.07416822901666165,0.8239303652644157,1.104719483500719
1788862023037335800,4.781335693359375,-0.08068623260855674,0.5562146636128426,0.5357251255527138
1788862023047378000,4.7913779296875,-0.16778759295642376,0.5433931759625673,0.030412527789920568
1788862023057418800,4.801418701171875,-0.6255570799082517,0.6482534803628921,-0.33187940013483164
1788862023067460900,4.8114609375,-1.289901278850436,0.49002165125906466,-0.6198860485345125
1788862023077501700,4.821501708984375,-1.7944418693274258,-0.030209260302782058,-0.8008316676191986
1788862023087542800,4.831542724609375,-1.7728852865576743,-0.56384735044837,-1.1417812400467693
1788862023097584600,4.841584716796875,-1.131471296826005,-0.7645172223091125,-1.2451403461039066
1788862023107625700,4.851625732421875,-0.24364216762483118,-0.6193471193522214,-0.9794133340515195
1788862023117667600,4.86166748046875,0.3736526953727007,-0.26542437584400175,-0.5147796604186297
1788862023127708700,4.871708740234375,0.46376142084300515,0.07149696398079394,-0.04103036791607737
1788862023137750800,4.881750732421875,0.11104045433998107,0.16107202096581458,0.19953842014539985
1788862023147792000,4.8917919921875,-0.27158932821452614,0.010520809492468834,0.1037881816567853
1788862023157833000,4.9018330078125,-0.5721212577968835,-0.1085644196152687,-0.03506382419448346
1788862023167874800,4.911874755859375,-0.8629168062627315,-0.14878127919137477,-0.11311499559171496
1788862023177916000,4.921916015625,-1.095318033427,-0.12201134568750857,-0.19254300830010324
1788862023187957800,4.931957763671875,-1.1979413725554942,0.059406713214516634,-0.3028948593214154
1788862023197998800,4.941998779296875,-0.7753004821300506,0.39711715759038924,-0.3654672700252384
1788862023208040700,4.952040771484375,-0.2111819135248661,0.7407447170555591,-0.33685137986112385
1788862023218081800,4.962081787109375,0.17885434589385985,0.9216314455598592,-0.19916549517977983
1788862023228123600,4.97212353515625,0.17513678667545318,0.9643220017731189,-0.018273323315382003
1788862023238164700,4.982164794921875,-0.34730537119507787,0.822667213460803,-0.029250534805841742
1788862023248205600,4.99220556640625,-1.0967927821546792,0.562853078714013,-0.20984244508203118
1788862023258248000,5.002248046875,-1.6329840639144182,0.301010068488121,-0.44709334076717494
1788862023268288800,5.012288818359375,-1.9173013562768697,0.20902502775192258,-0.5719181729728355
1788862023278331000,5.022330810546875,-1.9250772509753702,0.32426176473796364,-0.3864223067052662
1788862023288371700,5.032371826171875,-1.5279402196407317,0.6601081688076257,0.02271861228644848
1788862023298413800,5.042413818359375,-1.1821475910961627,0.9600573300659656,0.3790863743266091
1788862023308454700,5.05245458984375,-0.9480091648757457,1.0356418556213378,0.6709494424261152
1788862023318495700,5.062495849609375,-0.7177320902585983,0.9654822777241467,0.8712773689813912
1788862023328537600,5.07253759765625,-0.36025253105163574,0.9237906694203615,0.8490044546358286
1788862023338578700,5.08257861328125,-0.1409025086402893,0.8538023564368485,0.8067733326278627
1788862023348620500,5.09262060546875,-0.2195510979413986,0.6573468874007463,0.659692719874531
1788862023358661600,5.10266162109375,-0.35785131512880325,0.2608259421378374,0.2888017077675089
1788862023368703700,5.112703857421875,-0.413633992627263,-0.05873509756326675,-0.08270484242197125
1788862023378744800,5.122744873046875,-0.5511410136103629,-0.19240648590624332,-0.24479926523808387
1788862023388786700,5.13278662109375,-0.6663076079696416,-0.14768471612632272,-0.22363190098162739
1788862023398827800,5.142827880859375,-0.6483119325518608,-0.03129764006137848,-0.04262424951139837
1788862023408868900,5.152868896484375,-0.6326221959888935,0.18658464788496493,0.24514873626288025
1788862023418910700,5.16291064453125,-0.6003764614224434,0.3026397155165672,0.33373865466807034
1788862023428951800,5.172951904296875,-0.5782137294530868,0.3062479691416025,0.15730010121166704
1788862023438993700,5.18299365234375,-0.436875752004981,0.3873275849819183,0.003082110859081149
1788862023449034800,5.19303466796875,-0.24566870501637458,0.42564767102599144,-0.214447271996364
1788862023459076600,5.20307666015625,-0.19239888712167738,0.5991477964103221,-0.3286324541028589
1788862023469118000,5.213117919921875,-0.3054495122402906,0.9357011797055601,-0.3654224079702049
1788862023479159800,5.223159912109375,-0.6535849045187234,1.069113040329516,-0.45364663486815987
1788862023489201000,5.233200927734375,-0.8659984056651592,0.9906742943868041,-0.5962295343434437
1788862023499241700,5.24324169921875,-0.7052993096649647,0.8736465823307633,-0.6887075096957385
1788862023509283800,5.253283935546875,-0.3741933781206608,0.8204065750524401,-0.6931644891045987
1788862023519324700,5.26332470703125,-0.10891513274908066,0.8147162544563412,-0.6658967621464282
1788862023529366800,5.27336669921875,-0.13085107022523879,0.7691741082042455,-0.5006376282216981
1788862023539407600,5.28340771484375,-0.4083177660405636,0.582849864821136,-0.3588631225198507
1788862023549449700,5.29344970703125,-0.804054282927513,0.334043154039979,-0.3898835165424272
1788862023559490600,5.303490478515625,-0.7666998270452022,0.09833061037063598,-0.3047913405925035
1788862023569531600,5.31353173828125,-0.5750187328040599,-0.0015124503895640373,-0.0516586472378578
1788862023579573800,5.32357373046875,-0.8233470124185085,-0.05569792182445526,0.15494955603014676
1788862023589614800,5.33361474609375,-0.981101287138462,-0.22329671421051023,0.3176976935146376
1788862023599656700,5.34365673828125,-0.8303355561316013,-0.3273953865885734,0.4475235854106024
1788862023609697800,5.35369775390625,-0.492615174883604,-0.1275046824067831,0.49951388488877563
1788862023619739600,5.36373974609375,0.23741642497777937,0.3003139029175043,0.6766675278119743
1788862023629780700,5.37378076171875,1.0294003308832644,0.6086565062507987,0.6641760027684271
1788862023639822800,5.38382275390625,1.5065134007304906,0.7347513218596577,0.5499792763546109
1788862023649863700,5.39386376953125,1.5062550420552492,0.5315665445685386,0.32116774424538014
1788862023659904800,5.40390478515625,1.4078233093976973,0.03977203841805458,0.0025586715068668126
1788862023669946600,5.413946533203125,1.5469769285440444,-0.3578407937347889,-0.2814263932265341
1788862023679987700,5.42398779296875,1.715796202635765,-0.24159955588132143,-0.4771823722237721
1788862023690029800,5.43402978515625,1.4991630379676817,0.1309732353001833,-0.7107735032923519
1788862023700071000,5.44407080078125,1.2288836233079432,0.6014692250952124,-0.9477258909549564
1788862023710112800,5.45411279296875,0.8020821060717105,0.7294400637090206,-0.8200522086568176
1788862023720153900,5.46415380859375,0.5000520468860864,0.4084703262537718,-0.6149496150456368
1788862023730194700,5.474194580078125,0.50690848865211,0.22855185825973748,-0.4360995069354772
1788862023740236800,5.48423681640625,0.9132511552274226,0.4557873732239008,-0.36910438441857696
1788862023750277600,5.494277587890625,1.2877467311650515,0.801352038231492,-0.2611763630107045
1788862023760319700,5.50431982421875,1.2894301542073487,0.8804878265276551,-0.19681948004290462
1788862023770360800,5.51436083984375,0.6670446900725364,0.4985489488467574,-0.01593633173517883
1788862023780402700,5.524402587890625,0.24715689774751662,0.11006138017475604,0.23187552278973161
1788862023790443800,5.53444384765625,0.15309095908403395,0.04074000666737556,0.325329686230421
1788862023800486000,5.54448583984375,-0.5473264237582683,-0.10108721560239792,0.07386581200398504
1788862023810526700,5.554526611328125,-1.5053238986849784,-0.4195521306298673,-0.3335120428379625
1788862023820567800,5.56456787109375,-1.4774749377727507,-0.759692432501167,-0.47696796228811145
1788862023830610000,5.57460986328125,-1.1911907292515038,-1.038780153647065,-0.4719897354841232
1788862023840650800,5.584650634765625,-0.8724573725461959,-1.428754015354067,-0.24405147907808422
1788862023850692900,5.59469287109375,-0.34698037702441215,-1.77980763316676,0.296246799609065
1788862023860733700,5.604733642578125,0.4200456132352352,-1.8559464316040277,0.9830551976852119
1788862023870775800,5.61477587890625,0.46847032918632026,-1.5161965903550385,1.0032929529413581
1788862023880816600,5.624816650390625,0.5562532420575619,-0.8377329729065298,0.5500179278645664
1788862023890858800,5.634858642578125,0.7293336807250976,0.19493921925425528,0.06852678906358778
1788862023900899600,5.644899658203125,0.8714145854949951,0.10522358475476502,-0.2907292782966047
1788862023910940700,5.654940673828125,1.129906531727314,-0.39077816382721065,-0.5710868001826107
1788862023920982800,5.664982666015625,1.3098445812046526,-0.5829232223182916,-0.5389169073313475
1788862023931024000,5.67502392578125,1.4388590836524962,-0.869907688063383,-0.47074207351058717
1788862023941065700,5.685065673828125,0.5157610726714134,-1.0323763510193675,-0.2614632901933044
1788862023951106800,5.69510693359375,0.10832125850915908,-0.9076569884821772,0.0211599846675992
1788862023961148700,5.705148681640625,-0.1064858597755432,-0.3591580868784338,0.26502134800106286
1788862023971189800,5.715189697265625,-0.29668168389499183,0.5476908000912517,0.22105404985025523
1788862023981230800,5.72523095703125,-0.7642717231154441,0.8938471473816781,0.08637852596603333
1788862023991272700,5.735272705078125,-0.5209510425299406,0.29786439087353644,-0.21700784319937227
1788862024001313800,5.745313720703125,0.09181319130063056,-0.47563912483714516,-0.12265863061510025
1788862024011356000,5.75535595703125,0.9182955791354179,-1.0682801697019486,0.3169437698747963
1788862024021397000,5.76539697265625,1.4577660286962986,-0.9945299469016492,0.4398812904965132
1788862024031438800,5.77543896484375,2.171962346044183,-0.26109032869506626,0.1914532037694007
1788862024041480000,5.78547998046875,2.0307669919371603,0.5416298195518553,-0.2822202835505828
1788862024051521800,5.795521728515625,1.3874240799695252,0.9350028221778571,-0.5632529647517949
1788862024061563000,5.80556298828125,1.5113631788492201,0.843312818865478,-0.6431082994941622
1788862024071603700,5.815603759765625,2.1009172174841164,0.5876283678019419,-0.7981479084279388
1788862024081646000,5.82564599609375,1.4634464124202728,0.34137247401475906,-0.8690496099293231
1788862024091687000,5.83568701171875,1.2777023070126772,-0.02665602480061352,-0.3971788246497512
1788862024101729000,5.84572900390625,1.1617267343580722,-0.2345535098273307,-0.0540739373518154
1788862024111769900,5.855769775390625,0.26968437137603757,-0.03417677569426596,-0.26199688561335205
1788862024121812000,5.86581201171875,-0.18273907837271688,0.4940791830215603,-0.27000425098016856
1788862024131852800,5.875852783203125,-0.47778351645469663,1.0919576170831917,-0.04352149061206728
1788862024141894000,5.885893798828125,-0.6993933004915713,1.3026052776008843,0.41121114939451214
1788862024151935700,5.895935791015625,-0.5066723418086767,1.342684774532914,0.9438754260718822
1788862024161976800,5.905976806640625,0.007574819168448448,1.284918522001803,1.0286956897452473
1788862024172019000,5.91601904296875,0.8347089489102363,1.140469061469659,0.5143392597073689
1788862024182060000,5.92606005859375,1.2794178787589072,1.1182331181336194,-0.21491554709523916
1788862024192102000,5.936101806640625,0.9068599928855895,0.9919107043139636,-0.6435734327878803
1788862024202143000,5.94614306640625,0.6475742659270763,0.6842118057116866,-0.7301660398960113
1788862024212184800,5.956184814453125,0.43440848510861396,0.46671442542970176,-0.18735913938879967
1788862024222226000,5.966225830078125,0.019126725274324415,0.3856329098932445,0.37741533584184944
1788862024232267000,5.97626708984375,0.2669125685751438,0.40698257191404696,0.7213676702819765
1788862024242308900,5.986308837890625,0.8249848427534103,0.6402119204655289,0.6983391152635217
1788862024252350000,5.996349853515625,1.022002621847391,0.9164946671932935,0.3708757780052721
1788862024262391800,6.006391845703125,1.455258429789543,1.230504502508044,0.04378237003795803
1788862024272433000,6.016432861328125,1.2004431262433528,1.4715693669907748,-0.12536089357743038
1788862024282475000,6.02647509765625,0.6698410427927971,1.4602444015085696,-0.04074124877639115
1788862024292516000,6.03651611328125,0.6139806238830089,1.2524443855069578,0.3993056075453758
1788862024302557000,6.046556884765625,0.6051017363786697,0.9621190849013626,0.7751089050807058
1788862024312599000,6.05659912109375,0.4621183298110962,0.6641711804628372,0.8116581820599734
1788862024322640000,6.066639892578125,0.34059155277013775,0.5249783983498811,0.5932679445914923
1788862024332682000,6.076681884765625,-0.03417699488997459,0.4697624148234725,0.18881501901922745
1788862024342722800,6.086722900390625,-0.11650339592099189,0.4804527356639504,-0.13561645799614488
1788862024352765000,6.096764892578125,0.4627548741489649,0.5276408955574036,-0.2596608804138377
1788862024362805800,6.1068056640625,0.7388789231836795,0.5694853563353419,-0.5059182720383629
1788862024372847900,6.116847900390625,0.3373392729759216,0.6026859074085951,-0.6478862544856965
1788862024382888700,6.126888671875,-0.009938041168451308,0.6484346821486949,-0.6042793871451169
1788862024392929800,6.1369296875,-0.17911854978799818,0.7123816691413521,-0.4678175643660128
1788862024402972000,6.146971923828125,0.07366612471342086,0.7664271475836634,-0.21244181392546743
1788862024413013000,6.157012939453125,0.5923369473516941,0.6392077118590473,-0.11800996455904096
1788862024423054800,6.167054931640625,0.5960849017083645,0.4709744209617376,-0.26508290546257046
1788862024433096000,6.177095947265625,-0.2594704358756542,0.29541181008964773,-0.42363896155208347
1788862024443137800,6.1871376953125,-1.0419482622891665,0.18974954165667293,-0.22736166209448128
1788862024453179000,6.197178955078125,-0.9352122271448373,0.14409984337687493,0.3056762336682528
1788862024463220000,6.207219970703125,-0.5343605592012405,0.18939590591341257,0.8063429053213447
1788862024473261800,6.21726171875,-0.19800445204377173,0.3933972602844238,1.118868639558181
1788862024483303000,6.227302978515625,0.2465560092449188,0.6308285905703902,1.0571342871136962
1788862024493344800,6.2373447265625,0.07055646826028823,0.8652151463329791,0.42521640346925704
1788862024503385900,6.2473857421875,-0.4325882839441299,1.1286617923632263,-0.2757873278936371
1788862024513428000,6.257427978515625,-0.6669552582234144,1.4324123917311429,-0.5570776005851105
1788862024523469000,6.267468994140625,-0.22723113104999065,1.5787968389138578,-0.5091576558183878
1788862024533510000,6.277510009765625,0.12174538822770117,1.5023954440176486,-0.40264231422003355
1788862024543552000,6.287552001953125,-0.01601297716796398,1.2401742481291294,-0.2763926003104076
1788862024553592800,6.2975927734375,0.06645546268224715,0.7326011580884456,-0.2081319879023358
1788862024563635000,6.307635009765625,-0.16921265732347965,0.06067921736836433,-0.48378334139138457
1788862024573675800,6.31767578125,-0.9151625418066978,-0.5638643015831709,-0.7865748134035616
1788862024583718000,6.3277177734375,-1.4844506220042704,-0.8890835131764412,-0.9429632065977901
1788862024593758700,6.3377587890625,-1.7169605702400206,-0.9292471812605857,-1.0405253898791968
1788862024603800800,6.34780078125,-1.6193705491036177,-0.6776905872493982,-0.7276220545016229
1788862024613841700,6.357841552734375,-0.8067360693573952,-0.23508535168170927,-0.20345983137283474
1788862024623882800,6.3678828125,0.1599602603316307,0.3233031488388777,-0.03359528601188212
1788862024633924900,6.3779248046875,0.06668108813166618,0.9161176505744457,-0.01988832076396793
1788862024643966000,6.387966064453125,-0.8467278880059719,1.1974848609596491,0.11601919260062277
1788862024654007800,6.3980078125,-1.5612708268344402,1.0283119511246681,0.45443617781065404
1788862024664049000,6.408048828125,-1.4118717080056666,0.6593564736574888,0.8573634829845279
1788862024674090800,6.4180908203125,-0.3455266710847616,0.3899129253000021,1.113796889251843
1788862024684131800,6.4281318359375,0.5859060375213623,0.4062158253252506,0.8671108969517052
1788862024694173000,6.4381728515625,0.5380594137191772,0.5519388859897851,0.4271807988774031
1788862024704214800,6.44821484375,-0.04759411034584045,0.7151572713345289,0.15123327545337378
1788862024714256000,6.458255859375,-0.4311030138224363,0.6984855379968882,0.11062816547835246
1788862024724298000,6.468298095703125,-0.4725532145857811,0.5571931532561779,0.24661327412379905
1788862024734339000,6.478339111328125,-0.18927227953374384,0.2809633057594299,0.40224849259685724
1788862024744381000,6.488380859375,-0.11938158170580863,-0.14700842429995536,0.35394002343658354
1788862024754422000,6.498422119140625,-0.4300058662354946,-0.542476061117649,0.059609852837491775
1788862024764463900,6.5084638671875,-0.8258364911466837,-0.8445172262191772,-0.30033019646517933
1788862024774505000,6.5185048828125,-1.1055068344861267,-0.9853209506601095,-0.3891792772632092
1788862024784545800,6.5285458984375,-1.109186399781704,-1.1065297477930784,-0.26215909043774005
1788862024794588000,6.538587890625,-1.0490478651612996,-1.1093570801734924,-0.04299132925812155
1788862024804628700,6.548628662109375,-0.9659469726264476,-1.0064899954169988,0.0928652211042121
1788862024814670800,6.5586708984375,-0.8362076630353927,-0.8227180668652058,0.023208441630005835
1788862024824711700,6.568711669921875,-0.6801163530915976,-0.5857295119106769,-0.24444340100511908
1788862024834754000,6.578754150390625,-0.7953390615522861,-0.35182547896802424,-0.5196481067052111
1788862024844795000,6.588794921875,-1.0802315234541893,-0.28729601591229437,-0.7562021792326122
1788862024854836000,6.5988359375,-1.2249836932599545,-0.31496319051682947,-0.7345255502797663
1788862024864877800,6.6088779296875,-0.957936100128293,-0.3391086207360029,-0.5786822602802887
1788862024874919000,6.6189189453125,-0.6106248837143182,-0.3291109583348036,-0.4102023011455312
1788862024884960800,6.628960693359375,-0.49215106450319285,-0.2041366711884737,-0.2595385692084208
1788862024895001900,6.639001953125,-0.5852244849979877,0.022151041531562804,-0.30040689669689163
1788862024905044000,6.6490439453125,-0.7951409086316823,0.042539749565720555,-0.3090314989129081
1788862024915084800,6.659084716796875,-1.058693060863018,-0.28865093765258787,-0.3113409083664417
1788862024925126000,6.6691259765625,-1.099909452870488,-0.7336229023516178,-0.30015412751222026
1788862024935167700,6.679167724609375,-0.5723211642831564,-1.0027572386294603,-0.26015443608444183
1788862024945208800,6.689208740234375,-0.1385620829939842,-1.0134241785943507,-0.12441442477386444
1788862024955251000,6.6992509765625,-0.01839022769331932,-0.8790881888628006,-0.07628602488823234
1788862024965292000,6.7092919921875,0.11072539704144001,-0.6520850213497876,-0.20131372272223233
1788862024975334000,6.719333984375,0.36904023314118384,-0.2023188081115484,-0.5411026904052123
1788862024985375000,6.729375,0.551739564025402,0.23269757976233957,-0.8887328000426292
1788862024995416800,6.739416748046875,0.7104238130718469,0.6245142928570508,-0.9552130318399518
1788862025005458000,6.7494580078125,0.7389981656491756,0.6595137100458145,-0.7533947936616837
1788862025015498800,6.759498779296875,0.6193249075204134,0.33005320762097834,-0.6471172428745776
1788862025025540900,6.769540771484375,0.5299959342509508,-0.06302315014600754,-0.7223315468780696
1788862025035582000,6.77958203125,0.3337380336135626,-0.39089316850900646,-0.9624749856669456
1788862025045623800,6.789623779296875,0.021606851652264593,-0.5869897411048411,-1.1939942423649132
1788862025055665000,6.799664794921875,-0.42844577731192107,-0.6577385170668363,-1.1857470768928526
1788862025065707000,6.80970703125,-0.9483382506996393,-0.6478402233868837,-0.9244448224801569
1788862025075747800,6.819747802734375,-1.3558189813941717,-0.5058937586516141,-0.5041525775400921
1788862025085789000,6.829788818359375,-1.6193927609354257,-0.4059288250774145,0.031118447569571432
1788862025095831000,6.8398310546875,-1.4984493367403744,-0.316318112257123,0.4189107639864087
1788862025105872000,6.849871826171875,-1.0913245798766613,-0.14360767594575882,0.5781902024470269
1788862025115914000,6.8599140625,-0.7275199093014001,-0.004364040428400039,0.5479727588377893
1788862025125954800,6.869954833984375,-0.5527694915950297,0.016641922721266744,0.573255741719529
1788862025135997000,6.879996826171875,-0.3288958542793989,-0.053480830296874046,0.6878190364234149
1788862025146037800,6.890037841796875,0.0339630598783493,-0.016207038435339927,0.7192408873863518
1788862025156078800,6.900078857421875,0.15276596491336822,0.06286416019201278,0.7269445936314761
1788862025166120700,6.91012060546875,-0.10619652144014835,-0.14964870967566965,0.465944756231457
1788862025176162000,6.920162109375,-0.5284913749068975,-0.5496083972156047,-0.018669848352298138
1788862025186204000,6.930203857421875,-1.0234434683054685,-0.8497393447816372,-0.3123172060526907
1788862025196245000,6.940244873046875,-1.406122935220599,-0.7197662264347076,-0.12295377763677388
1788862025206286800,6.950286865234375,-1.7837398580491541,-0.624047844389081,0.17887871315013618
1788862025216328000,6.960327880859375,-1.8461328935980796,-0.5939595801174641,0.38479609374292195
1788862025226369800,6.970369873046875,-1.8910534008204936,-0.4782464577913284,0.6199729231003671
1788862025236411000,6.980410888671875,-1.7037907075434922,-0.3530897998154163,0.6837022487543523
1788862025246452000,6.990451904296875,-1.1859382155507803,-0.1342886434584856,0.43490335595346985
1788862025256493800,7.000493896484375,-0.5476151775717735,0.053472062468528744,-0.06637417760696261
1788862025266535000,7.010534912109375,0.23817922604382036,0.1569797832161188,-0.5156568816445768
1788862025276577000,7.020576904296875,1.216716800174117,0.2224795526087284,-0.6608301264066249
1788862025286618000,7.0306181640625,2.0981723026901484,0.4185848930329084,-0.5051149197662249
1788862025296660000,7.040659912109375,2.116281375354528,0.5946861408263444,-0.2100078647768125
1788862025306701000,7.050701171875,1.3581594070404768,0.4862134911477565,-0.17089355961512773
1788862025316742000,7.060741943359375,0.8395727555543184,0.268973008236289,-0.37125319648291916
1788862025326784000,7.070783935546875,0.5473474665462971,0.1630196479022503,-0.4620657228410244
1788862025336824800,7.080824951171875,0.1542383755534887,0.15369126306474207,-0.39914252593815325
1788862025346867000,7.090866943359375,-0.3411994555354118,0.2273112105488777,-0.15451795967984944
1788862025356907800,7.10090771484375,-0.932368528151512,0.23536942932009697,0.07670534627884626
1788862025366950000,7.110949951171875,-1.694527789157629,0.06078092417716979,0.2749841217519715
1788862025376990700,7.12099072265625,-2.293278110682964,-0.3724561790645122,0.24867347632292658
1788862025387031800,7.13103173828125,-2.2325819421797988,-0.9436503851443528,0.07483940627649426
1788862025397074000,7.141073974609375,-1.6381927384734152,-1.3857172760516405,-0.175258367228508
1788862025407115000,7.151114990234375,-0.9098825555771589,-1.360027538999915,-0.12133808606844394
1788862025417156900,7.161156982421875,-0.37600188884735103,-0.7124632099449634,0.18782277484517543
1788862025427198000,7.171197998046875,-0.2800578813523054,-0.07736614827513694,0.4287655107855797
1788862025437239800,7.18123974609375,-0.36902503557205196,0.253126035284996,0.5165408248722553
1788862025447281000,7.191281005859375,-0.45628538587391376,0.4328226772218942,0.5372783098114654
1788862025457322000,7.201322021484375,-0.5899690491765737,0.48053603003323075,0.49856264857854693
1788862025467363800,7.21136376953125,-0.7385667884945869,0.3672375676333904,0.4151403786022216
1788862025477405000,7.221405029296875,-0.8720125513881445,0.1564648194313049,0.2620472275611013
1788862025487446800,7.23144677734375,-0.9319757294416428,-0.06255144098103047,0.1567779039684683
1788862025497488000,7.24148779296875,-0.836352624464035,-0.25596622714698314,-0.107977084713988
1788862025507530000,7.251530029296875,-0.6309679990410805,-0.2201628000989556,-0.23965474195647984
1788862025517571000,7.261571044921875,-0.33328502914905545,-0.012246025849878788,-0.06507056592879816
1788862025527612000,7.27161181640625,0.026563012754917143,0.1689510837778449,0.12224864330841227
1788862025537654000,7.281654052734375,0.6787760443985462,0.27552111470550295,0.240503906131722
1788862025547694800,7.29169482421875,1.0490087021946906,0.30165918004661796,0.30409510195665057
1788862025557737000,7.301737060546875,1.0422831933319567,0.2489700846493244,0.34859877200648187
1788862025567777800,7.31177783203125,0.8350503096938132,0.28142010961622,0.45794619522560387
1788862025577820000,7.32181982421875,0.4958253691017627,0.09827712661772965,0.4043262121863663
1788862025587860700,7.33186083984375,-0.20697920113801954,-0.30688685156702994,0.21273772813212125
1788862025597902800,7.34190283203125,-0.7802975597649813,-0.6782078891217708,0.0771451259355992
1788862025607943700,7.351943603515625,-0.6682230862021445,-0.9548834345594048,-0.12144538236781954
1788862025617984800,7.36198486328125,-0.23877953002452848,-1.0920818279847502,-0.19866337261022998
1788862025628027000,7.37202685546875,0.1732674856722355,-0.8980103314757346,0.025491401468031107
1788862025638068000,7.38206787109375,0.6461544622570276,-0.3620408757731318,0.36679322139937426
1788862025648109800,7.39210986328125,0.9742366620659828,0.027574235624074933,0.6884278159715235
1788862025658151000,7.40215087890625,1.120671085870266,0.3436649688661098,0.9860795139424502
1788862025668192800,7.41219287109375,1.128211418247223,0.49061318741142745,0.9125926913186907
1788862025678233900,7.42223388671875,0.9997451973319053,0.3565098373919725,0.5836495638314634
1788862025688275000,7.43227490234375,0.9308125308811664,0.14399930561184882,0.08886281706243752
1788862025698316800,7.44231689453125,0.9623439796984196,-0.15101853672415017,-0.3003288812909275
1788862025708358000,7.45235791015625,0.8090554522156715,-0.4804436755746603,-0.5904832092437893
1788862025718400000,7.46239990234375,0.6554559590876102,-0.638738340781629,-0.6204531808979808
1788862025728441000,7.472441162109375,0.49717327657938,-0.7320366560734808,-0.23965404783673583
1788862025738483000,7.48248291015625,0.617210691845417,-0.6405971203908324,0.219491622839123
1788862025748524000,7.49252392578125,0.6328665261387825,-0.6442864764280617,0.40052945025190706
1788862025758564900,7.50256494140625,0.36071781047582624,-0.7471255041338503,0.15974237979725003
1788862025768607000,7.51260693359375,0.4835393035024404,-0.7935017631225287,0.07483977160267531
1788862025778647800,7.522647705078125,1.2018202598154544,-0.7337085348084569,0.14914799361191688
1788862025788690000,7.53268994140625,1.358306122034788,-0.7363568573601543,0.16782120296508074
1788862025798730800,7.542730712890625,0.7425999895334243,-0.742364865603298,0.2535267981056124
1788862025808772900,7.55277294921875,0.9314186800807714,-0.5997751345284282,0.3574482872858643
1788862025818813700,7.562813720703125,1.4369780922114848,-0.4984586402148008,0.3856326176322996
1788862025828854800,7.572854736328125,1.3819248980313539,-0.47907837857082486,0.2896881717458367
1788862025838897000,7.58289697265625,0.8757903163611889,-0.48887050846256314,-0.018238836523890495
1788862025848938000,7.59293798828125,1.024251862078905,-0.3313073724005371,-0.32569844647757706
1788862025858979800,7.602979736328125,1.291648999300599,-0.08951090570762753,-0.6002368337560444
1788862025869021000,7.61302099609375,1.2458937948197126,0.06299041692018509,-0.3151185272090137
1788862025879062800,7.623062744140625,1.7946762626051902,-0.1639027874123305,0.3773984577722847
1788862025889104000,7.633103759765625,1.4921043516278265,-0.44100883322171863,0.7200368600696325
1788862025899145000,7.64314501953125,0.5421978286981582,-0.7888113402839749,0.4887105686604976
1788862025909186800,7.653186767578125,0.11603577840924262,-0.6702136754974722,0.20830160884819923
1788862025919228000,7.663227783203125,0.24521686959564684,-0.1757606541948393,0.08473704236932099
1788862025929269800,7.673269775390625,0.6192261233210563,0.31974205882381646,0.4617944316189736
1788862025939310800,7.683310791015625,1.2930781553208828,0.764062025887519,0.9996368415866047
1788862025949353000,7.69335302734375,1.382133572345972,0.7450679870821535,1.3476255919359623
1788862025959394000,7.70339404296875,1.040294649863243,0.5479598993562161,1.3389832896664737
1788862025969435000,7.713434814453125,0.8517699738264083,0.34860768596529956,0.8062091959390789
1788862025979477000,7.72347705078125,0.7234820320874452,0.3644757382372394,0.5290894138652831
1788862025989517800,7.733517822265625,0.3998644104719162,0.19292904847562312,0.9279045344799757
1788862025999560000,7.743559814453125,0.3315221111297607,-0.33241087666302915,1.0058375228576362
1788862026009600800,7.753600830078125,0.7873176676601171,-0.7125577563606202,0.2738505511447787
1788862026019643000,7.763642822265625,0.9473743741035461,-0.5016355897504836,-0.6117693045090884
1788862026029683700,7.77368359375,0.9357429730206728,-0.10772351181171834,-0.9074131697889417
1788862026039725800,7.783725830078125,1.5165022953033447,0.1767375729355961,-0.7919739690333605
1788862026049766700,7.7937666015625,2.1767536719739438,0.29997203067727385,-0.5302672985382377
1788862026059807700,7.803807861328125,2.1292542541742323,0.42073001530282195,-0.332552915482223
1788862026069849900,7.813849853515625,1.5727993520647285,0.42025874452926215,-0.541869181265682
1788862026079891000,7.823890869140625,1.5907541109502314,0.2889960978284478,-0.9931572703089564
1788862026089932800,7.833932861328125,1.6501877121716737,0.1182748625729233,-1.3010716382928191
1788862026099974000,7.843973876953125,1.6943851658165454,0.06418167253136635,-1.3121962588973342
1788862026110015700,7.854015625,1.6613035649478434,0.16769304654076694,-1.079556692932546
1788862026120056800,7.864056884765625,1.0781272446513175,0.4044397555634379,-0.8455835402764379
1788862026130098000,7.874097900390625,0.5706465090692043,0.5396130729019641,-0.6771957164045422
1788862026140139800,7.884139892578125,0.5081926832437514,0.4197146277152002,-0.3807488276461139
1788862026150180900,7.894180908203125,0.9918167424201965,0.2582521461270749,0.10915498765325173
1788862026160222700,7.90422265625,1.1698644481062888,0.3966591846898198,0.47678639517612753
1788862026170263800,7.914263916015625,0.7743629090189933,0.531841123726219,0.5256618871020153
1788862026180306000,7.924305908203125,0.8931856877982616,0.5432999447211623,0.35922749885283406
1788862026190347000,7.934346923828125,0.7119196045875549,0.4907382750958204,0.30299214568343014
1788862026200387800,7.944387939453125,0.09936287602782248,0.37491146326214075,0.6158468561463057
1788862026210430000,7.954429931640625,-0.1034492685586214,0.22593115436732766,0.9332115548469125
1788862026220470800,7.964470703125,0.09435293891131877,0.0387426953703165,1.1567577868390828
1788862026230513000,7.974512939453125,0.43107904842495914,-0.04247282180935144,1.1295203819539397
1788862026240553700,7.9845537109375,0.12334171750843524,0.006636077013611793,0.8875549884349108
1788862026250595800,7.994595947265625,-0.47867432781457897,0.021665596102178095,0.6127071698810905
1788862026260637000,8.004636962890626,-0.556454317587614,-0.08171031495928764,0.3545332035567611
1788862026270677800,8.014677734375,-0.32919220687747,-0.22819237729758024,0.17886612766319884
1788862026280720000,8.024719970703124,-0.1759025103509426,-0.4148723022505641,0.18328741470417007
1788862026290761000,8.034760986328125,-0.12315934667885303,-0.42778731340318915,0.3971068188594654
1788862026300803000,8.044802978515625,-0.033303719186782835,-0.3811290226027369,0.5482399949392304
1788862026310844000,8.054843994140626,0.3496095564842224,-0.27818828808814283,0.39362697738707064
1788862026320886000,8.064885986328125,0.41667233740985393,-0.10559183354526758,0.019905637224949896
1788862026330926800,8.0749267578125,-0.1136181958734989,0.06978489936590195,-0.3022345322491601
1788862026340968000,8.084968017578126,-0.28641221881508827,0.24096944128423928,-0.4722833481358364
1788862026351009800,8.095009765625,0.05592179370820522,0.31653263179063795,-0.629436697820574
1788862026361051000,8.10505078125,0.3200198893845081,0.24544892478585242,-0.889991129540652
1788862026371092700,8.1150927734375,0.1917185036420822,0.05923603282272815,-1.0888557055450976
1788862026381133800,8.1251337890625,-0.10715396829545497,-0.19133271919488906,-1.0559511417437344
1788862026391176000,8.135176025390624,-0.23440321463644503,-0.4512894772827625,-0.6818344090558588
1788862026401217000,8.145217041015625,-0.2957037787735462,-0.8045546336650848,-0.18684826725721357
1788862026411257900,8.1552578125,-0.13486147491037845,-1.1325444790154695,0.19590989091731606
1788862026421300000,8.165300048828126,0.2269236725360155,-1.2305927653133868,0.4174317774750292
1788862026431341000,8.175341064453125,0.2657435247957706,-1.2328519424170254,0.42219029711373146
1788862026441383000,8.1853828125,-0.25031565403938294,-1.2309230201810597,0.26957055400433017
1788862026451424000,8.195424072265626,-0.562068065816164,-1.2015098786920309,0.07760054155290126
1788862026461465900,8.2054658203125,-0.35294366934299465,-1.1420201633691787,-0.15747633456140755
1788862026471507000,8.2155068359375,0.08709083895385265,-0.9475859710276127,-0.37691867489870634
1788862026481547800,8.2255478515625,0.2813391533344984,-0.7461299172252416,-0.4532310763372108
1788862026491590000,8.23558984375,0.008621113350987433,-0.4853782093673944,-0.38793698558453465
1788862026501630700,8.245630615234376,-0.36381051579415796,-0.3680740184575319,-0.30151341490037736
1788862026511673000,8.255673095703125,-0.3542500757664442,-0.4692582646936178,-0.2567131547904573
1788862026521714000,8.2657138671875,-0.28633915357887746,-0.6323726051419973,-0.2757866337738931
1788862026531756000,8.275756103515626,-0.4889513916790485,-0.8623258546322584,-0.2279190219826065
1788862026541796900,8.285796875,-0.7507318580627441,-1.0711492223322392,-0.019299483458767645
1788862026551838000,8.295837890625,-0.7558458400756121,-1.0612573583930731,0.40954628492221234
1788862026561879800,8.3058798828125,-0.5383914221525192,-0.8884136510908603,0.7476561769444495
1788862026571921000,8.3159208984375,-0.31170155837237834,-0.6060697046279907,0.8383152297738939
1788862026581962800,8.325962646484374,-0.4418038560569286,-0.4325982208162546,0.6742283179663121
1788862026592003800,8.33600390625,-0.8202449547499417,-0.3293050196021795,0.40216614807564766
1788862026602045700,8.346045654296875,-1.3654337819576263,-0.3148345957010984,0.009083584330161102
1788862026612086800,8.356086669921876,-1.4326251576989888,-0.2949427312731743,-0.32688805812094357
1788862026622127900,8.3661279296875,-0.8975012129098177,-0.31520459805727,-0.6129950469117611
1788862026632170000,8.376169921875,-0.5918021098226308,-0.29296178658902644,-0.8791223833933473
1788862026642211000,8.386211181640626,-0.6246919875115156,-0.14560089558959005,-0.8804327353395521
1788862026652253000,8.3962529296875,-0.5137555780678987,-0.028953707283735274,-0.497473063243553
1788862026662294000,8.4062939453125,-0.3784317463427782,-0.06088555359542369,0.28389855549372733
1788862026672336000,8.4163359375,-0.28251170424520966,-0.22235914109945296,1.0888165425784886
1788862026682377000,8.426376953125,-0.6327355932354927,-0.3970107746064663,1.4765695133656263
1788862026692417800,8.436417724609376,-1.4542968912810086,-0.86948449421525,1.3341826113864779
1788862026702460000,8.4464599609375,-1.8317565777212381,-1.2677701110631228,0.9881634806096553
1788862026712500700,8.456500732421874,-1.56880589851439,-1.348964293193817,0.5380188625130802
1788862026722543000,8.466543212890626,-1.2378180403918027,-1.2649883713901042,0.08791607426423578
1788862026732584000,8.476583984375,-1.0806699148714543,-0.9402502213120459,-0.3355955711137503
1788862026742626000,8.4866259765625,-1.0664221938103438,-0.6103285311162472,-0.8176667017597704
1788862026752667000,8.4966669921875,-1.1584481510788203,-0.4010667719990015,-1.0520464624553918
1788862026762708000,8.5067080078125,-1.0641045645177363,-0.30367022760808465,-0.8360559796050191
1788862026772749800,8.516749755859376,-0.7480933262526989,-0.18132453539967536,-0.47014907605350015
1788862026782791000,8.526791015625,-0.3350660673469305,-0.024780805513262748,-0.14056651815157384
1788862026792832800,8.536832763671875,0.042371991783380504,0.18392215067744255,0.07505761560443788
1788862026802873900,8.546873779296876,0.48409518381953237,0.42686581464409823,0.2020663311878219
1788862026812915700,8.556915771484375,0.6873550721734761,0.6184907947838306,0.25849183663446457
1788862026822956800,8.566956787109374,0.6082751057177782,0.5942670386314391,0.18398926109690217
1788862026832998000,8.576997802734375,0.3342559200078249,0.3397188615888357,0.0060992575900163494
1788862026843040000,8.5870400390625,0.07322597973048686,0.15743395672440527,-0.06980922095640563
1788862026853081000,8.5970810546875,-0.2820195368140936,0.14587971253097057,0.024524182137381285
1788862026863123000,8.607123046875,-0.853531138280034,-0.13480477628707885,-0.03952815579273738
1788862026873164000,8.6171640625,-1.1235726525306702,-0.5242530066847801,-0.08699117797166109
1788862026883206000,8.627205810546876,-1.1096546018153428,-0.4483054930359125,0.18689714790023862
1788862026893247000,8.6372470703125,-0.8881126223176717,-0.21091186441183088,0.2601217941901646
1788862026903287800,8.647287841796874,-0.8890835131764412,-0.12988544006347655,0.31468981693554665
1788862026913330000,8.657329833984376,-0.900454802018404,-0.17529869923889635,0.5625330164467915
1788862026923370800,8.667370849609375,-0.6433627857118844,-0.2672913387596607,0.7942479783799499
1788862026933412900,8.677412841796874,-0.49096974576413627,-0.23542612794339657,1.0237727733250708
1788862026943453700,8.68745361328125,-0.7302823597520589,-0.3370435048997402,1.2114894939798861
1788862026953496000,8.69749609375,-0.832704623350501,-0.34427287163138387,1.396489576087147
1788862026963537000,8.707536865234376,-0.8958622135311365,-0.2620511000186205,1.4323672374151646
1788862026973578000,8.717577880859375,-0.8989736235499382,-0.30673838300704953,1.1251489619366823
1788862026983619800,8.727619873046875,-0.9778250419467687,-0.39087329476475713,0.6515078059837222
1788862026993661000,8.737660888671876,-0.8721972603052854,-0.4835311201959848,0.13665041328691876
1788862027003702800,8.747702880859375,-0.5295914451032877,-0.5059031110018491,-0.08267733336053788
1788862027013743900,8.757743896484374,-0.08536883746683598,-0.39199090061783787,-0.121222350734286
1788862027023785700,8.76778564453125,0.26492344058454037,-0.2939963903337717,-0.20070885216426104
1788862027033826800,8.777826904296875,0.15247195040285585,-0.27259996656179425,-0.18715934250038116
1788862027043868200,8.7878681640625,-0.20925357581079004,-0.3462976554572582,0.013579603408044203
1788862027053910000,8.797909912109375,-0.10655249527096748,-0.39949557715952394,0.05593562130415812
1788862027063951000,8.807951171875,0.018926818788051605,-0.3521095566064119,-0.0324898181211669
1788862027073993000,8.817992919921876,-0.36422143468260765,-0.20977789194583893,-0.0483034550584387
1788862027084034000,8.828033935546875,-0.965263666537404,-0.022859482061862946,-0.1917438024801202
1788862027094076000,8.838075927734375,-1.0490502032488584,0.12952362101376055,-0.383256645748578
1788862027104117000,8.848116943359376,-0.3626642683684826,0.062011927276849746,-0.6110218836752698
1788862027114157800,8.85815771484375,0.5164566537201404,-0.04129822507202625,-0.4504454276740551
1788862027124200200,8.8682001953125,1.2067121235102414,0.08753566011190414,0.1005030681720469
1788862027134241000,8.878240966796875,0.93091774482131,0.26642390827536583,0.7117073500763624
1788862027144283100,8.888283203125,-0.22638415883183477,0.2279126835733652,1.0586645654208957
1788862027154324000,8.898323974609376,-1.2769757463037967,-0.057898646739125245,1.200682707152888
1788862027164366000,8.908365966796875,-1.753987693864107,-0.6308294673532248,1.2051771690279245
1788862027174407000,8.918406982421875,-1.1901549564629792,-1.0066273580610752,1.0606575658690183
1788862027184449000,8.928448974609376,-0.38495617967545986,-1.0655331360161304,0.8066873348448425
1788862027194489900,8.93848974609375,0.09592354922890663,-0.7949234664887189,0.6421664885994046
1788862027204531000,8.948531005859374,0.3756517602354288,-0.27707798875868317,0.5851661058742552
1788862027214572800,8.95857275390625,0.535831216275692,0.1263604808077216,0.4469274461483583
1788862027224614000,8.96861376953125,0.5363847585052252,0.2271045820608735,0.1427068637816701
1788862027234656000,8.978656005859374,0.3607493746578693,0.05024667068123817,-0.3504930978531018
1788862027244697000,8.988697021484375,0.05124035789370537,-0.33213936624526974,-0.7874341336466372
1788862027254739000,8.998739013671875,-0.2410831307917833,-0.7537152577877044,-1.082858803217858
1788862027264780000,9.008780029296876,-0.5222440049499273,-1.1112938934549688,-1.313528092022985
1788862027274821000,9.018821044921875,-1.0023428126096725,-1.2346578227952123,-1.4507472359754143
1788862027284863000,9.028863037109375,-1.4033388574600218,-1.291550507362187,-1.50522321478948
1788862027294904000,9.038904052734376,-1.3568506625294685,-1.1180834074646233,-1.2788558609619736
1788862027304946000,9.04894580078125,-0.4621674296498298,-0.9162333859086036,-0.5461582567617297
1788862027314987000,9.058987060546874,0.6853291193038225,-0.7061676169320941,0.19703326892405748
1788862027325028900,9.06902880859375,1.1520178257703781,-0.4411047678768635,0.5645312045266851
1788862027335070000,9.079070068359375,0.8757114059060811,-0.17657792539447545,0.5030274459676817
1788862027345110800,9.08911083984375,0.300148483222723,-0.12158756731748581,0.011934000758640467
1788862027355153200,9.099153076171875,0.11163491310179233,-0.3936962432309985,-0.46429874259009957
1788862027365194000,9.109194091796875,0.7174678863644599,-0.8106599648028612,-0.7293683867122978
1788862027375236000,9.119236083984376,1.443184545636177,-0.8985381547421216,-0.7509680779714137
1788862027385277000,9.12927685546875,1.9918986243605612,-0.9051135876096784,-0.6696493196129798
1788862027395319000,9.139319091796875,2.3895827681839465,-0.7795384119607508,-0.4530027109414339
1788862027405359900,9.14935986328125,1.7591840934634209,-0.30696430071741343,0.4041028517592698
1788862027415402000,9.159402099609375,0.8595932147979736,-0.22237185445055363,0.9337681658163666
1788862027425442800,9.16944287109375,0.7019581825435162,-0.9017125469945371,0.47721930670067664
1788862027435484000,9.17948388671875,0.5164028777062892,-1.0572332174435257,0.2640280261147767
1788862027445526000,9.189526123046875,0.6151309629619122,-0.9065867289021611,0.634986367836967
1788862027455567000,9.199567138671876,0.9178373139739036,-0.4502918445475399,1.2503835074543952
1788862027465609000,9.20960888671875,0.7600643345534801,-0.21394655593261122,1.5760808579534291
1788862027475650000,9.219650146484375,0.5299912580758332,-0.2753586176201701,1.6932560156561434
1788862027485692000,9.22969189453125,1.0828548576951027,-0.5213472753059119,1.2492542111635208
1788862027495733000,9.23973291015625,1.8039485333412884,-0.6520078644603491,0.6811163239143788
1788862027505774000,9.249774169921874,2.132439898473024,-0.6848485692452639,-0.06959332231655717
1788862027515816000,9.25981591796875,2.205908454787731,-0.6576286269515752,-0.8459563191115855
1788862027525857000,9.26985693359375,2.1017694503992796,-0.619106442464143,-1.0442955560676752
1788862027535899000,9.27989892578125,1.7545739693194626,-0.48524296561516816,-0.6398628147669136
1788862027545940000,9.28993994140625,1.88856099948287,-0.5400819690553471,-0.1604476054571569
1788862027555982000,9.299982177734375,1.8825474382817744,-0.4751948516683653,0.0362191682420671
1788862027566023200,9.310023193359376,2.0596476339846848,-0.2761174731634557,0.21793854817822575
1788862027576064000,9.32006396484375,1.7807634725868702,-0.20940485738236456,0.06257073020339012
1788862027586106000,9.330106201171875,2.1890964361965657,0.048429538256675,-0.4960816819503903
1788862027596147000,9.34014697265625,2.0593010125041005,0.24657738082651048,-0.8148512790128588
1788862027606189000,9.35018896484375,0.8562672852456569,0.1704166628183797,-0.4553352455422282
1788862027616230000,9.36022998046875,0.6890998700141906,0.2865992110208608,0.04512552827522159
1788862027626272000,9.37027197265625,0.3039958063006401,0.5756884122265502,0.17578458305969832
1788862027636313000,9.38031298828125,0.42626141901016235,0.641413843601197,0.315345979289338
1788862027646355000,9.39035498046875,0.8140519453287124,0.49279699772391466,0.2671552182245999
1788862027656396000,9.40039599609375,1.2497773582547902,0.46580315580368037,0.13123970421664416
1788862027666436900,9.410436767578124,1.420365980106592,0.35458124394956975,-0.18141827809773384
1788862027676479000,9.42047900390625,0.8941542405694722,0.11717088338639586,-0.5774739439364522
1788862027686520000,9.43052001953125,0.4066325894325971,-0.07337485014926642,-0.42387379322126506
1788862027696562200,9.440562255859374,0.6470423510074615,0.13148808948714286,-0.22220585023388265
1788862027706603000,9.45060302734375,0.9014753772377967,0.5753479647584259,-0.43426688468083735
1788862027716645000,9.46064501953125,0.877733267122507,0.6756141463015228,-0.4795235650550574
1788862027726686000,9.47068603515625,1.404980194926262,0.7039518405787646,-0.18781543178893625
1788862027736728000,9.48072802734375,2.6160113506793974,1.0034310462377964,0.031622195840626956
1788862027746769000,9.490768798828125,2.7785739024639127,1.1868086417097599,-0.24418197358995675
1788862027756810000,9.50081005859375,1.6017501367390155,1.1970919161193072,-0.6597624241098761
1788862027766851800,9.510851806640625,0.9927899713665247,1.0172064736120403,-0.7690840187679976
1788862027776893000,9.520892822265624,1.3032710480332375,0.568226296184957,-0.4253280106175691
1788862027786935000,9.53093505859375,2.019362969869375,0.17959888065084814,0.10707399839442222
1788862027796976000,9.54097607421875,1.9456033216536044,-0.008082330299168824,0.4931067212602123
1788862027807018000,9.55101806640625,1.2065443657279014,-0.06792027453780174,0.5418999051975086
1788862027817059000,9.56105908203125,0.8737234469592571,-0.09373129988163709,0.28647863511480387
1788862027827100200,9.57110009765625,0.4960521635949611,-0.228498666767776,-0.012570398966036737
1788862027837142000,9.58114208984375,0.10857494100928305,-0.4621837962627411,-0.1894575729727745
1788862027847183000,9.59118310546875,-0.10399988817870616,-0.738219874753058,-0.3182260282376781
1788862027857225000,9.601224853515625,-0.12826982156038283,-0.7648793336197733,-0.2512827820384875
1788862027867266000,9.61126611328125,0.12117138773202896,-0.6055144088327884,-0.13558779815724117
1788862027877308000,9.621307861328125,0.1759288138359785,-0.3658198097899556,-0.04376982108363881
1788862027887349200,9.631349365234374,0.16969956405758857,-0.1127998652279377,-0.030010833387542513
1788862027897391000,9.64139111328125,0.32101591468453405,0.03334346667528152,-0.15608856999743728
1788862027907432200,9.65143212890625,0.7751894229710101,0.09894611192047595,-0.4246607788804918
1788862027917473000,9.66147314453125,1.2953238884210585,0.15732698921859264,-0.614286328831315
1788862027927515100,9.67151513671875,1.1816390570521353,0.062336921447515486,-0.7833277943063527
1788862027937556000,9.681555908203125,0.7783645458757877,-0.12854922302365301,-0.8672923909984529
1788862027947598000,9.69159814453125,0.30996669740378857,-0.3046367345526814,-0.8567709239188581
1788862027957639000,9.701638916015625,0.06929039384722709,-0.574310000012815,-0.7595525856390595
1788862027967681000,9.711680908203125,0.02433189270198345,-0.8748533277720213,-0.6152900990463793
1788862027977721900,9.721721923828126,0.18182137900590895,-1.0652417518541217,-0.4719121402032673
1788862027987764200,9.73176416015625,0.25789047320783137,-1.086675292766094,-0.428256173023954
1788862027997805000,9.74180517578125,0.14195873969495296,-1.0929624102115632,-0.5392078165693208
1788862028007846100,9.75184619140625,-0.20270576160252093,-1.0872621527433395,-0.8785233945868909
1788862028017888000,9.761887939453125,-0.7719897501468658,-1.0655383967131375,-1.268029054260254
1788862028027929000,9.77192919921875,-1.3046633791744708,-1.207580138516426,-1.5593980186998844
1788862028037971200,9.78197119140625,-1.4545891522258518,-1.366963475742936,-1.626589102180302
1788862028048012300,9.79201220703125,-1.0743190845400095,-1.3369728266268968,-1.4463894791573286
1788862028058054100,9.80205419921875,-0.4417652776122093,-1.1074082841932773,-1.3253178985379634
1788862028068095200,9.81209521484375,-0.0045113399446010585,-0.8051105139821767,-1.3297373224154114
1788862028078136300,9.82213623046875,-0.13732815728485584,-0.47080607865750784,-1.2778116126060486
1788862028088178200,9.83217822265625,-0.5769838953971862,-0.27205168502926824,-1.2621458414405584
1788862028098219300,9.84221923828125,-1.197156359657645,-0.2069113965988159,-1.3004808327928186
1788862028108261400,9.852261474609374,-1.8536375701397656,-0.3798205703526735,-1.4231640863925217
1788862028118302500,9.862302490234375,-2.0992676967114208,-0.8004635649591684,-1.385647133424878
1788862028128344300,9.87234423828125,-1.8356717053383587,-1.1678513547182083,-1.086315227282047
1788862028138385400,9.882385498046874,-1.2746639622300862,-1.3311211779892445,-0.8684623115606606
1788862028148427300,9.89242724609375,-0.4101642706900835,-1.124699610733986,-0.7720769900389015
1788862028158468400,9.90246826171875,0.4327051883220672,-0.6262053146839142,-0.6509512680795043
1788862028168510200,9.91251025390625,0.7712707882225514,-0.12110299867093563,-0.45372419361639765
1788862028178551300,9.92255126953125,0.5694838950306177,0.1615939990133047,-0.04814595380863174
1788862028188592000,9.932592041015624,0.15978198115527628,0.19585574957728386,0.4532340354792773
1788862028198634200,9.94263427734375,-0.4695809207767248,-0.1474076527506113,0.8377778349615633
1788862028208675000,9.952675048828125,-1.2297633287519216,-0.8640981250017881,0.7497340061318128
1788862028218717400,9.962717529296874,-1.8595558542728423,-1.6282435913890598,0.42175537629518656
1788862028228758300,9.97275830078125,-2.0240882448256015,-1.944188778680563,0.16775168139282612
1788862028238800400,9.98280029296875,-1.8128712599873542,-1.7114380074262618,0.055678194210678336
1788862028248841200,9.99284130859375,-1.5393629464089869,-1.1437374886810778,0.11155171006405726
1788862028258882300,10.00288232421875,-1.3311141637265682,-0.4435135825842619,0.09334118631919845
1788862028268924200,10.012924072265625,-1.2547136456131935,0.1456827286541462,-0.18014078724151475
1788862028278965200,10.02296533203125,-1.3648638731151819,0.5738263081490993,-0.5691663535140454
1788862028289007000,10.033007080078125,-1.8438257856994866,0.6755716953992843,-0.888803088799864
1788862028299048200,10.043048095703124,-2.5385633693397045,0.10559855554699897,-1.0015232398550957
1788862028309090300,10.05309033203125,-2.268855617088079,-0.2040799725651741,-0.7608994702033698
1788862028319131400,10.06313134765625,-1.476181975352764,0.042027123868465424,-0.5069543005552143
1788862028329173200,10.07317333984375,-1.2111714410066603,0.16324293526411054,-0.49750923053547735
1788862028339214300,10.08321435546875,-1.2313397842884064,0.23684242448210716,-0.5442884808344766
1788862028349255400,10.09325537109375,-1.0018547368317843,0.6127274089515209,-0.2067375196029432
1788862028359297300,10.10329736328125,-0.41853403962850566,0.93770638204813,0.11551099648331291
1788862028369338400,10.11333837890625,-0.02884673977792263,1.0851683953344822,0.30680461664367464
1788862028379380200,10.123380126953125,-0.22104864302277563,0.9443003734856843,0.6197094498585909
1788862028389421300,10.13342138671875,-0.3973807769626379,0.5569657742410898,0.9691867582652717
1788862028399463200,10.143463134765625,-0.1389426067441702,0.2201478947907686,1.0433963422056287
1788862028409504300,10.153504150390624,-0.1919756932735443,-0.047396541947126385,0.8150365724518894
1788862028419546400,10.16354638671875,-0.41812195169627664,-0.21134031895697117,0.4854309259353205
1788862028429587500,10.17358740234375,-0.5509031132012605,-0.22059096238315104,0.3295838000109419
1788862028439628300,10.183628173828126,-0.47224867868125436,-0.16625439203977585,0.4555949193917215
1788862028449670400,10.19367041015625,-0.00767535693347454,-0.1938753894150257,0.4542990708949044
1788862028459711200,10.203711181640625,0.46397418681085106,-0.34449089829623697,0.2355425939299166
1788862028469753300,10.21375341796875,0.54042263571918,-0.5140934317201376,0.010286169619532302
1788862028479794200,10.223794189453125,0.29948388183414937,-0.6339315250217914,-0.21816448415489867
1788862028489836300,10.233836181640624,-0.12447568997442722,-0.5942091709643602,-0.3421527011396363
1788862028499877000,10.243877197265626,-0.5785556747585535,-0.745925919085741,-0.54170146001596
1788862028509919200,10.253919189453125,-0.9649889412492513,-1.094760399544239,-0.7084886802908033
1788862028519960000,10.2639599609375,-1.0782926643460988,-1.1345067189991473,-0.6197256703410298
1788862028530001200,10.274001220703125,-1.0086258384019136,-0.8669722191333771,-0.4807550796113908
1788862028540043300,10.284043212890625,-0.9153384828954935,-0.6293085413962602,-0.47131512415818866
1788862028550084400,10.29408447265625,-0.8788824371576308,-0.6248422096371651,-0.5261608130674809
1788862028560126200,10.304126220703125,-0.9277934753209351,-0.7906471043437718,-0.4112902790453285
1788862028570167300,10.314167236328124,-0.8215332409948111,-1.1710966202497481,-0.274661283005774
1788862028580209200,10.324209228515626,-0.7307593296140432,-1.6913614340811967,-0.23324019873905927
1788862028590250200,10.334250244140625,-0.7795330051332712,-1.6225275518298148,-0.14763711412493138
1788862028600292000,10.3442919921875,-0.7752835309952497,-1.3256132282227278,-0.08712437589727341
1788862028610333200,10.354333251953125,-0.7191004560023546,-0.9556447743207216,-0.07156615675948559
1788862028620374300,10.364374267578125,-0.6059504621624946,-0.4470411721885204,-0.16511753349695354
1788862028630416100,10.374416015625,-0.18495441633462906,0.022760113340616225,-0.38783827445041386
1788862028640457200,10.384457275390625,0.3138613667547703,0.3923252471387386,-0.6349940396867693
1788862028650499300,10.394499267578125,0.7097633033365011,0.46489071713387964,-0.7947984518695622
1788862028660540400,10.40454052734375,1.0417571236312388,0.2984925327092409,-0.8669513224758207
1788862028670582300,10.414582275390625,1.1941852348923683,0.15322072294354439,-0.8970951163269579
1788862028680623400,10.424623291015624,1.1111568230718374,0.051796238210797305,-0.8208177131365985
1788862028690665200,10.434665283203126,0.6931307329654693,0.1077232926160097,-0.466770977922529
1788862028700706300,10.444706298828125,0.1703998212814331,0.03866787656843662,-0.24405896826479584
1788862028710747100,10.4547470703125,-0.8124111923843622,-0.08451426646411418,0.027355770567804572
1788862028720789200,10.464789306640625,-1.339846336236596,-0.35797698733508587,0.1287482527270913
1788862028730830000,10.474830078125,-1.6343191119104623,-0.7576379841893911,0.14014292244464158
1788862028740872200,10.4848720703125,-1.442144096672535,-0.9306745837152004,0.2543235745064914
1788862028750913000,10.4949130859375,-0.76032561583817,-1.0086077182233333,0.29832999909128993
1788862028760955400,10.504955322265625,-0.0022001403927803037,-0.9391413832873106,0.2764285484066233
1788862028770996200,10.514996337890626,0.29215047020614143,-0.6821615951836109,0.326710071205534
1788862028781038300,10.525038330078125,0.31900282129645346,-0.4135325780794024,0.44694757562093435
1788862028791079200,10.5350791015625,0.16867781979441643,-0.20995909373164176,0.5183680037667975
1788862028801120300,10.545120361328125,0.06566869621872902,-0.15044102909713983,0.5245558255562558
1788862028811162000,10.555162109375,-0.05494505763053894,-0.23425766868591308,0.34437191155906766
1788862028821203200,10.565203125,-0.3611854279875755,-0.3923421982735395,-0.03966459598820656
1788862028831245000,10.5752451171875,-0.8267349012911319,-0.5306038370162248,-0.45211526058241724
1788862028841286100,10.5852861328125,-1.0267021778404712,-0.7790344079613685,-0.7863884239859878
1788862028851328300,10.595328369140624,-0.6689630909144878,-1.1026040987819432,-0.8961572509549558
1788862028861369300,10.605369384765625,-0.12075053197145462,-1.112882623951137,-0.6795636876448988
1788862028871411200,10.6154111328125,0.22893968853354452,-0.5242424852907658,-0.19084741989597678
1788862028881452300,10.625452392578126,0.28814649526178837,0.1016083168670535,0.13015811039186082
1788862028891493400,10.635493408203125,0.10897475398182868,0.4831456280097365,0.3659943261066451
1788862028901535200,10.64553515625,0.3687596626341343,0.6259662452310323,0.5479287005003541
1788862028911576300,10.655576416015625,0.8192144426584244,0.48416240383684633,0.7179289280049502
1788862028921618200,10.6656181640625,1.1370248392999172,0.12058218966722488,0.801312875264883
1788862028931659300,10.6756591796875,1.042336969345808,-0.24760113438367842,0.6474819114685059
1788862028941701000,10.685701171875,0.7156535304188728,-0.4108563446074724,0.3162919549025595
1788862028951742200,10.6957421875,0.19216098671257495,-0.6188330323502421,-0.00014028525352478027
1788862028961784300,10.705784423828124,0.48242403573691844,-0.9789350490152835,-0.27702636816930026
1788862028971825400,10.715825439453125,1.221489421403408,-0.971262468560785,-0.3572386631231755
1788862028981867300,10.7258671875,1.3864724783331155,-0.7821297436282039,-0.25377112825550135
1788862028991908400,10.735908447265626,1.34936936686337,-0.526522705182433,-0.3769623313773423
1788862029001949200,10.74594921875,1.5743869135171173,-0.3374666987478733,-0.6132702105913311
1788862029011991300,10.7559912109375,1.698619442385435,-0.2622026373185217,-0.3408616749484092
1788862029022032400,10.766032470703125,1.0512146878063677,-0.3624957799337804,0.01273804715052247
1788862029032074200,10.77607421875,0.9727315182000398,-0.5591190067522227,0.5377573620326817
1788862029042114800,10.78611474609375,0.6779051067829132,-0.7867380411412567,0.6964619962800294
1788862029052156700,10.79615673828125,0.8994418255835771,-0.88018248690553,0.7507867300551384
1788862029062197800,10.80619775390625,1.6844915483117102,-0.8220738506775349,1.035401397928968
1788862029072239600,10.816239501953126,1.7535422881841658,-0.6163580936040729,1.2744231392115353
1788862029082280700,10.82628076171875,1.0961936472177505,-0.39625528006404637,1.551716524286568
1788862029092321500,10.836321533203124,0.08985387392640114,-0.45618492117412385,1.6780954175338147
1788862029102363600,10.84636376953125,0.5742442413002252,-0.7135330311335623,1.4907228341415524
1788862029112404500,10.856404541015625,2.396269698601961,-0.731331795739755,1.2569330752283334
1788862029122446800,10.86644677734375,2.1422996137082575,-0.5536226012930273,0.8497318921275436
1788862029132487700,10.87648779296875,0.899926978752017,-0.5032743699334562,0.06931479763612151
1788862029142529800,10.88652978515625,0.5685720408827066,-0.3541554197529331,-0.41142720329798754
1788862029152570600,10.896570556640626,1.6383727712154388,-0.3461537169419229,-0.10285846305862069
1788862029162612700,10.90661279296875,2.3731483507335183,-0.17104599196417256,0.1138064849872142
1788862029172653600,10.916653564453124,1.4183376891493797,0.26098372651543467,-0.1668791728746146
1788862029182694700,10.926694580078125,0.3599824819386005,0.309667422196269,-0.477206593349576
1788862029192736500,10.936736572265625,0.3071229984104633,0.22967412202162668,-0.04918211018964648
1788862029202777600,10.946777587890624,0.9263011909365654,0.1540582880125381,0.5030442144393921
1788862029212819500,10.9568193359375,1.2421674677729606,0.20403514704275874,0.5307275364611298
1788862029222860500,10.966860595703125,1.555410994890332,0.2505323289973661,-0.22093802225515244
1788862029232902700,10.976902587890624,1.5825708044946192,0.3140654744921252,-0.5590718796748667
1788862029242943700,10.98694384765625,1.4243413134783505,0.31994981982298193,-0.15948628614433108
1788862029252985600,10.996985595703125,1.3921592917978762,0.3227991813721135,-0.02750460445396602
1788862029263026700,11.007026611328126,1.4536615159869193,0.35203199785817413,-0.2042914233587682
1788862029273067800,11.01706787109375,1.3218816404789686,0.44403190736994147,-0.17126571739576757
1788862029283109600,11.027109619140624,1.1285364124178885,0.7236755088329315,0.06103891752623021
1788862029293150700,11.037150634765625,1.4299135606527327,0.9892703458730131,0.060515551239252084
1788862029303192600,11.047192626953125,2.050871037811041,1.127314177146554,-0.09869381765983998
1788862029313233700,11.057233642578124,2.289602637040615,1.3089210366189479,-0.1420122965130955
1788862029323275500,11.067275634765625,1.8332254812300204,1.3316791041329503,0.04344371266812086
1788862029333316600,11.077316650390625,1.4516191965043543,1.0283208650834859,0.25828677904903885
1788862029343358700,11.087358642578126,1.3805413347184656,0.633457623899728,0.3469321905011311
1788862029353399800,11.09739990234375,0.611233371001482,0.3218530961610377,0.45394225681386885
1788862029363440600,11.107440673828124,-0.15799392869472503,0.1271070613913238,0.6022817470544949
1788862029373482800,11.117482666015626,-0.0756207659125328,0.01317132400125265,0.5814922761997208
1788862029383523600,11.127523681640625,0.4870306527495384,-0.0090245795853436,0.4493102496316656
1788862029393565700,11.137565673828124,0.6203367149114608,0.12984013961702584,0.409738154232502
1788862029403606500,11.1476064453125,0.45560500239431856,0.4010746630445122,0.31174963529780503
1788862029413648600,11.157648681640625,0.577193154233694,0.5962421380966901,0.14139887732248752
1788862029423689700,11.167689697265626,1.1147522172152995,0.6651715896770358,0.12694953274205326
1788862029433731800,11.17773193359375,1.2377882297754288,0.7634335187256336,0.3243001970522105
1788862029443772700,11.187772705078125,0.9842255566388368,0.7940683109641075,0.7014210069268941
1788862029453814800,11.197814697265626,1.0653893436312676,0.6734449125036597,0.8652025060471147
1788862029463855600,11.207855712890625,1.283940909141302,0.553242662064731,0.6469456126347184
1788862029473896700,11.217896728515624,0.9136953918635845,0.38761458522975445,0.6162750914957374
1788862029483938800,11.227938720703126,0.32151392733454703,0.05526742145270109,0.734950351563096
1788862029493979600,11.237979736328125,-0.010487491744756699,-0.3610349136009812,1.0102073354396968
1788862029504021800,11.248021728515624,0.30676059483885765,-0.6797045574203133,1.2761162068650125
1788862029514062600,11.2580625,0.7565186247706412,-0.854745190244913,1.2562825023651123
1788862029524104700,11.268104736328125,0.5682435395807027,-0.879134073831141,1.313240068861842
1788862029534145500,11.2781455078125,-0.05035071557760239,-0.8275096850559115,1.4753316421337426
1788862029544188000,11.28818798828125,-0.47897711015343664,-0.7143330954700708,1.5285789559356868
1788862029554228700,11.298228759765625,-0.6153776311993598,-0.5271633411735296,1.3618977167859672
1788862029564269800,11.308269775390626,-0.774382198241353,-0.39125732564628124,1.0354103849530218
1788862029574311700,11.318311767578125,-0.9094704676449298,-0.3896837927192449,0.6825692992016673
1788862029584352800,11.328352783203124,-0.8272562948167324,-0.5413742373555899,0.5958731951864435
1788862029594394600,11.33839453125,-0.5006055891156196,-0.6879846022486686,0.4848267129644751
1788862029604435700,11.348435791015625,-0.019253566524386406,-0.8499386667460203,0.15236165842879562
1788862029614477600,11.3584775390625,0.20385668520331382,-0.9626409168183803,-0.28284711021203546
1788862029624518700,11.3685185546875,-0.0017909750699996946,-1.0837409928798676,-0.5912236523475498
1788862029634560500,11.378560546875,-0.4321206664323807,-1.1218430522590874,-0.64335708662346
1788862029644601600,11.3886015625,-0.5120996275544166,-1.1354822860330342,-0.570499428748712
1788862029654643700,11.398643798828125,-0.16554712055325507,-1.2264812383413315,-0.4557398808203637
1788862029664684800,11.408684814453125,0.39226796399354935,-1.2501251487791538,-0.36997397032734003
1788862029674726000,11.418725830078126,0.7907762836813926,-1.0394307265102862,-0.4185485065452754
1788862029684767700,11.428767822265625,0.6595926205009222,-0.6874719765514135,-0.5399827829971909
1788862029694808800,11.438808837890624,0.07801905922591686,-0.29580139392912386,-0.6693197953976691
1788862029704850700,11.4488505859375,-0.2802092725217342,-0.1863631140887737,-0.8527154379829763
1788862029714891800,11.458891845703125,-0.27488720071613787,-0.2855816132098436,-1.0157855008982122
1788862029724933600,11.46893359375,-0.40783553548157214,-0.5072668005704879,-1.013590621202439
1788862029734974700,11.478974609375,-0.5108049115687608,-0.9073527448385953,-0.9274623436704278
1788862029745015600,11.489015625,-0.7104799271732568,-1.4490133979201316,-0.6976658921770751
1788862029755057700,11.4990576171875,-1.1254536439716816,-2.009853967767954,-0.32258279867507517
1788862029765098500,11.509098388671875,-1.5453554648220538,-2.3384341802269217,0.1326326290129218
1788862029775140900,11.519140869140625,-1.8363877446532249,-2.254915354540944,0.7827743982072919
1788862029785181700,11.529181640625,-1.8414274923861025,-1.928231331092119,1.3007507357753811
1788862029795223800,11.539223876953125,-1.522629838272929,-1.509746391302347,1.4761062797680495
1788862029805264600,11.5492646484375,-1.0524649801284074,-1.034542954468727,1.1519638305608182
1788862029815306800,11.559306640625,-0.832275584283471,-0.5530360335767269,0.39905137705598026
1788862029825347600,11.56934765625,-0.9600830490291118,-0.18329846582114695,-0.598091053899005
1788862029835389700,11.5793896484375,-1.1683657339811324,0.003097381493449211,-1.4999429362989962
1788862029845430500,11.589430419921875,-1.4038579128980635,0.03988309757709503,-2.032796013546735
1788862029855471600,11.5994716796875,-1.6070003123521803,-0.018332944548130035,-2.0571210381165144
1788862029865513500,11.609513427734376,-1.623549296092987,-0.23285364710688589,-1.7187739032723008
1788862029875554600,11.619554443359375,-1.3842045334011315,-0.624704262471199,-1.1756405472896994
1788862029885596700,11.6295966796875,-1.0489508345276117,-0.8460504271358251,-0.7095240146879106
1788862029895637800,11.6396376953125,-0.6609042876213789,-0.6410749670356511,-0.4451760359037667
1788862029905679600,11.6496796875,-0.3458417283833027,-0.324341259714961,-0.48290422046929593
1788862029915720700,11.659720703125,-0.037131753042340274,-0.15984510951936243,-0.6432715272318571
1788862029925762600,11.669762451171875,0.2771329338163137,-0.0800824214965105,-0.8928921116791665
1788862029935803600,11.6798037109375,0.6583014116466045,-0.06113046826720237,-1.144535726386681
1788862029945844700,11.6898447265625,0.7443027017980813,-0.1233306115925312,-1.191119417580962
1788862029955886600,11.699886474609375,0.498913398244977,-0.3491045295715332,-0.9754143275432288
1788862029965927700,11.709927734375,0.09895312618315219,-0.639946839788556,-0.452871047385782
1788862029975969800,11.7199697265625,-0.17798399280011654,-0.6820546276777982,0.16397397121870888
1788862029986011000,11.730010986328125,-0.4621995783537626,-0.5722527752220631,0.580492853366211
1788862029996052700,11.740052734375,-0.9606745851814746,-0.5521504829138517,0.726584820408374
1788862030006093800,11.75009375,-1.3653385048896074,-0.5760661960303783,0.6843728414922953
1788862030016135700,11.7601357421875,-1.4464824181377887,-0.3273094618707895,0.4809521000208333
1788862030026176800,11.7701767578125,-1.7173375868588685,-0.06747954503297805,0.21903485551495103
1788862030036217600,11.780217529296875,-1.9532482834488152,0.011028759014606475,-0.02995024404041469
1788862030046260500,11.790260498046875,-1.9851152478307483,-0.08743453782498836,-0.19264628601148723
1788862030056301600,11.800301513671876,-1.9207067808061837,-0.37246377784907814,-0.2183596231345087
1788862030066343400,11.810343505859375,-1.6447206789374351,-0.7010217784762383,-0.24141941354144364
1788862030076384500,11.820384521484375,-0.9840607214659451,-0.8493594055533409,-0.10869546211641282
1788862030086426600,11.830426513671876,-0.20484160458743572,-0.5682645823687315,0.355459195827879
1788862030096467500,11.840467529296875,0.1692360381990671,-0.17665420550107955,0.8084494491465389
1788862030106509600,11.850509521484375,0.0397755455493927,0.034732875207066534,1.0710692889638245
1788862030116550400,11.86055029296875,-0.2116343334674835,0.10301555331647395,1.069041363332793
1788862030126591500,11.870591552734375,-0.35521570592820645,0.1192699380248785,0.7591770303249359
1788862030136633300,11.88063330078125,-0.44627661755681036,0.19693886863887308,0.2269590543766506
1788862030146674400,11.89067431640625,-0.4465764772862196,0.36192309461236,-0.3737441730484366
1788862030156716500,11.900716552734375,-0.6285007321447134,0.4402922824501991,-0.805907728774473
1788862030166757600,11.910757568359376,-0.799110396784544,0.29199790999293324,-1.0210123687010257
1788862030176799500,11.920799560546875,-0.6433592785805463,-0.037845454269647597,-1.121000025563687
1788862030186840600,11.930840576171875,-0.08745967226624489,-0.3060328650861978,-1.070423538406193
1788862030196881400,11.94088134765625,0.33297698611319065,-0.4808884967327118,-0.7677530624251813
1788862030206923500,11.950923583984375,0.36822073345184325,-0.6389420466601848,-0.17986637248061596
1788862030216964600,11.960964599609374,0.020204583638906478,-0.7182675123095512,0.5994619403934106
1788862030227006500,11.97100634765625,-0.4624988535612821,-0.8594646199822426,0.9520163546904921
1788862030237047600,11.981047607421875,-1.3343623518675565,-0.9836007027387619,1.011096027907729
1788862030247089700,11.991089599609374,-1.6197697775542734,-1.0383721573680638,0.6839731015849858
1788862030257130500,12.001130615234375,-1.508275149706006,-0.9370359354406594,0.31813721744306384
1788862030267172600,12.011172607421875,-0.9184627523958683,-0.854549375411868,0.27575068567767735
1788862030277213700,12.021213623046876,0.09044190294742584,-0.6411082847833633,0.4293113811653107
1788862030287254500,12.031254638671875,0.5287725299358368,-0.2763105115175247,0.8412374738961458
1788862030297296600,12.041296630859375,0.40485330480039117,0.10399550426453351,1.0457144098896534
1788862030307337500,12.05133740234375,-0.223220726364851,0.24945523781776427,1.0782651187520473
1788862030317379600,12.061379638671875,-0.4468482799649238,0.268312790761888,0.9982160880684852
1788862030327420400,12.07142041015625,0.004984802675247192,0.25731676497310396,0.7397706113263964
1788862030337462500,12.081462646484376,0.4607271677136421,0.30395488976836205,0.3595861395647749
1788862030347503400,12.09150341796875,0.4931266315370798,0.3335156230345368,-0.041715537168644366
1788862030357545700,12.101545654296874,0.46262569481134413,0.17837094629108904,-0.3577837663179263
1788862030367586600,12.111586669921875,0.2498456984400749,-0.23036767551004886,-0.5238422339268028
1788862030377627600,12.121627685546875,0.6489087294012308,-0.7426616565927863,-0.6234788853947073
1788862030387669500,12.13166943359375,1.3174106325447559,-0.9801870949029922,-0.6227545897081493
1788862030397710600,12.141710693359375,1.1489923404693603,-0.7984767750561237,-0.45781449513733385
1788862030407752400,12.15175244140625,0.42003859897255896,-0.7755027267038822,-0.1055582966018468
1788862030417793500,12.16179345703125,0.421909069019556,-0.9076485129147768,0.10230002545826136
1788862030427835400,12.17183544921875,0.7549643810659646,-0.9588979308977723,0.19117270632758734
1788862030437876500,12.18187646484375,0.8864216004908084,-1.1924714167118071,0.36820597427412866
1788862030447917600,12.19191748046875,0.9532879820615052,-1.4723647551521657,0.5519990917444229
1788862030457959400,12.20195947265625,0.8081640563338994,-1.4679269188351929,0.859909075814113
1788862030468000500,12.21200048828125,0.33376609066426755,-1.3681659834004938,1.1551814774330704
1788862030478042600,12.222042724609375,-0.009596680384874344,-1.3642548013061284,1.21268031119965
1788862030488083700,12.232083740234375,0.03164601510763168,-1.1853935872800647,0.9274187967896461
1788862030498125600,12.24212548828125,0.4124503358006477,-0.7647713432006538,0.8207376336377114
1788862030508166700,12.252166748046875,0.7306044313132762,-0.21950667427778242,0.7665892793428153
1788862030518208500,12.26220849609375,1.1072516323268413,0.010288608171790838,0.8479267424017191
1788862030528249600,12.27224951171875,1.379336050581932,-0.032946795507892965,0.6362975235007703
1788862030538290400,12.28229052734375,1.731870554602146,-0.10899681968316435,0.16654394957087934
1788862030548332500,12.29233251953125,1.9490689519375561,-0.1837321079980582,-0.00039155660085380073
1788862030558373400,12.302373291015625,2.1439023727297783,-0.1517755656365305,-0.18111337686702608
1788862030568415500,12.31241552734375,2.333204462879896,-0.041638234148733314,-0.28662089312970634
1788862030578456300,12.322456298828126,2.221660150671005,0.16197507075276224,-0.13047975269481538
1788862030588498700,12.332498779296875,1.9842367114305495,0.16151954553760586,-0.006509966415911912
1788862030598539500,12.34253955078125,1.3002233509004115,-0.15550072363950312,0.011907441545277833
1788862030608580600,12.35258056640625,1.092404776328802,-0.7328935651637614,-0.18122049050331115
1788862030618622500,12.36262255859375,1.7527905930340288,-0.7602574459727853,-0.2787733944997191
1788862030628663600,12.37266357421875,1.7707658101856707,-0.37957857829034325,-0.030731895937398074
1788862030638705400,12.382705322265625,1.541151583391428,-0.2538810914359987,0.5302580923184752
1788862030648746500,12.39274658203125,2.4432144051283595,-0.15068347781719638,0.874451249777153
1788862030658788400,12.402788330078126,2.4817396583557128,0.3288876344403252,0.6119214263308793
1788862030668829400,12.412829345703125,1.3200117549538612,0.6053546151611954,0.18561214959099887
1788862030678871300,12.422871337890625,0.996399978557229,0.5305495495457202,0.197062568083778
1788862030688912600,12.43291259765625,2.1441046173036096,0.4508112653117627,0.7159558013010769
1788862030698953700,12.44295361328125,2.6848043163985014,0.120973855865933,0.8630190245281905
1788862030708995600,12.45299560546875,2.023249455913901,-0.42616245214771475,0.5324504877962172
1788862030719036700,12.46303662109375,0.8010124310135841,-0.7459014422316104,0.18604586483314633
1788862030729078500,12.47307861328125,0.6827203981101513,-0.7364397133380174,0.04892718558050692
1788862030739119600,12.48311962890625,1.389955644273758,-0.37593152702488003,0.09582892974801362
1788862030749161500,12.493161376953125,1.6203367637872694,0.16240860333181917,0.17170293976925313
1788862030759202600,12.50320263671875,0.9444728074431419,0.5404080226719379,0.47775319438166913
1788862030769243400,12.513243408203126,1.0714771391123532,0.7482889949552715,0.7539476052388548
1788862030779285500,12.523285400390625,2.029586842241883,1.0615771649319679,0.7060229477643967
1788862030789326300,12.533326416015624,1.9953245071560144,1.3984528389841318,0.4086170777807012
1788862030799368700,12.54336865234375,1.3158897065877915,1.5289736543416976,0.07603135600741952
1788862030809409500,12.553409423828125,1.24453711951375,1.323105190924555,-0.461351656287536
1788862030819451600,12.56345166015625,0.8358651332080363,0.8372660860471427,-0.837071074931696
1788862030829492500,12.573492431640625,0.06929273193478584,0.2731304201766848,-0.9465790590073913
