time,seconds_elapsed,z,y,x
1788862018317857000,0.06185693359375,0.24731962382793427,0.22499080002307892,0.49629709124565125
1788862018327899000,0.07189892578125,0.159721240401268,-0.046412453055381775,0.47300365567207336
1788862018337940000,0.08193994140625,0.178548201918602,-0.21815837919712067,0.4726872742176056
1788862018347981000,0.09198095703125,0.16229712963104248,-0.23311124742031097,0.41889792680740356
1788862018358023200,0.102023193359375,0.10340692102909088,-0.36199307441711426,0.3230941593647003
1788862018368064300,0.112064208984375,0.0633486807346344,-0.48934701085090637,0.22385741770267487
1788862018378106000,0.122106201171875,0.06481954455375671,-0.5113732218742371,0.15006893873214722
1788862018388147200,0.132147216796875,0.1501203179359436,-0.5324167013168335,0.13042297959327698
1788862018398189000,0.14218896484375,0.3156677186489105,-0.6380411386489868,0.1802339404821396
1788862018408230100,0.152230224609375,0.5534793734550476,-0.8837498426437378,0.30340778827667236
1788862018418272000,0.16227197265625,0.8126076459884644,-1.3483692407608032,0.4516366720199585
1788862018428313000,0.17231298828125,1.0030107498168945,-1.919951319694519,0.5735988020896912
1788862018438355000,0.18235498046875,1.0499191284179688,-2.2727549076080322,0.7338268160820007
1788862018448396000,0.19239599609375,1.0067213773727417,-2.44913649559021,0.9218416810035706
1788862018458436900,0.202436767578125,0.9114001393318176,-2.6529085636138916,1.08470618724823
1788862018468479200,0.212479248046875,0.7749579548835754,-2.9730544090270996,1.196597933769226
1788862018478520000,0.22252001953125,0.5933107137680054,-3.436519145965576,1.2330166101455688
1788862018488562200,0.232562255859375,0.34783461689949036,-3.9345178604125977,1.1975834369659424
1788862018498603000,0.24260302734375,0.09317436069250107,-4.3763909339904785,1.0966284275054932
1788862018508645000,0.25264501953125,-0.05148574337363243,-4.672730922698975,0.9562723636627197
1788862018518686000,0.26268603515625,0.3701017200946808,-4.612520217895508,0.8659605979919434
1788862018528728000,0.27272802734375,1.1136634349822998,-3.8007988929748535,0.8637477159500122
1788862018538769000,0.282768798828125,1.7226815223693848,-3.093658447265625,0.8247169852256775
1788862018548810000,0.29281005859375,2.155360460281372,-2.92714524269104,0.7251974940299988
1788862018558851800,0.302851806640625,2.554996967315674,-3.1770823001861572,0.6874210834503174
1788862018568893000,0.312892822265625,2.9178473949432373,-3.468578577041626,0.7790106534957886
1788862018578935000,0.32293505859375,3.080066204071045,-3.686795711517334,0.9912110567092896
1788862018588976000,0.33297607421875,2.9496378898620605,-3.9243056774139404,1.2508070468902588
1788862018599018000,0.34301806640625,2.6313421726226807,-4.270869731903076,1.4881525039672852
1788862018609059000,0.35305908203125,2.401341199874878,-4.615739822387695,1.652763843536377
1788862018619101000,0.363100830078125,2.433112382888794,-4.791011810302734,1.7464103698730469
1788862018629142000,0.37314208984375,2.7275116443634033,-4.851112365722656,1.8661434650421143
1788862018639184000,0.383183837890625,3.097498893737793,-4.661778450012207,2.017354726791382
1788862018649225000,0.393224853515625,3.35860538482666,-4.203824996948242,2.159550189971924
1788862018659266000,0.40326611328125,3.4256033897399902,-3.67618727684021,2.2268381118774414
1788862018669308000,0.413307861328125,3.367746353149414,-3.2427303791046143,2.194887399673462
1788862018679349000,0.423348876953125,3.3080568313598633,-3.107391357421875,2.1292757987976074
1788862018689391000,0.43339111328125,3.339311361312866,-3.1993918418884277,2.1243767738342285
1788862018699432200,0.44343212890625,3.4682936668395996,-3.2802820205688477,2.2108871936798096
1788862018709474000,0.45347412109375,3.567113161087036,-3.2238216400146484,2.398109197616577
1788862018719515100,0.46351513671875,3.499051094055176,-3.078174114227295,2.6764962673187256
1788862018729557000,0.473556884765625,3.300534725189209,-2.8445987701416016,2.9787917137145996
1788862018739598000,0.48359814453125,3.3869473934173584,-2.764956474304199,3.2131845951080322
1788862018749640000,0.493639892578125,3.429659366607666,-2.9120891094207764,3.3630151748657227
1788862018759681000,0.503680908203125,3.5301411151885986,-3.17152738571167,3.4424078464508057
1788862018769722000,0.51372216796875,3.7595980167388916,-3.565720558166504,3.3692569732666016
1788862018779764000,0.523763916015625,3.876871109008789,-3.8513684272766113,3.2087924480438232
1788862018789805000,0.53380517578125,3.7788913249969482,-4.024882793426514,2.95711088180542
1788862018799847200,0.54384716796875,3.450495481491089,-4.364004135131836,2.657278060913086
1788862018809888000,0.553887939453125,2.3557775020599365,-6.2515363693237305,1.6434930562973022
1788862018819930000,0.56393017578125,1.0797061920166016,-9.490829467773438,-0.05421062186360359
1788862018829971200,0.57397119140625,1.2545650005340576,-9.45980453491211,-1.6470283269882202
1788862018840013000,0.584012939453125,1.9040628671646118,-1.2949631214141846,-2.386631488800049
1788862018850054100,0.59405419921875,2.3937482833862305,1.5990828275680542,-2.0633864402770996
1788862018860095000,0.604094970703125,2.6555612087249756,-0.19349759817123413,-1.6086559295654297
1788862018870137000,0.61413720703125,2.5311954021453857,-2.013622760772705,-0.1672198623418808
1788862018880178000,0.624177978515625,2.748016595840454,-3.8708863258361816,1.5342319011688232
1788862018890220300,0.63422021484375,3.5602595806121826,-4.685563087463379,2.0597612857818604
1788862018900261000,0.64426123046875,4.222700119018555,-3.5801100730895996,1.319456934928894
1788862018910303200,0.65430322265625,4.311182498931885,-1.8610296249389648,0.744867742061615
1788862018920344000,0.664343994140625,3.7475991249084473,-0.425298810005188,0.6706819534301758
1788862018930386200,0.67438623046875,2.8646435737609863,0.7360147833824158,0.9789626002311707
1788862018940427000,0.684427001953125,2.9740419387817383,1.5783345699310303,1.0631728172302246
1788862018950469000,0.69446923828125,4.546915054321289,1.159951090812683,0.8447745442390442
1788862018960510000,0.704510009765625,3.7449212074279785,-1.5526931285858154,2.0631203651428223
1788862018970551000,0.714551025390625,1.7818281650543213,-1.9249264001846313,3.220287322998047
1788862018980593000,0.724593017578125,1.6557135581970215,-1.4388478994369507,3.2623636722564697
1788862018990634000,0.734634033203125,1.7953193187713623,-0.25555771589279175,1.954749584197998
1788862019000676000,0.744676025390625,1.171550989151001,1.22080397605896,0.3948080241680145
1788862019010717200,0.75471728515625,0.25317174196243286,1.800567388534546,-0.7773849964141846
1788862019020759000,0.764759033203125,-0.1887766569852829,1.3756182193756104,-1.228181004524231
1788862019030799400,0.77479931640625,0.18504954874515533,0.48718133568763733,-0.7913715839385986
1788862019040841200,0.78484130859375,0.2907562851905823,-0.055373016744852066,-0.1746082752943039
1788862019050882300,0.79488232421875,-0.13250307738780975,-0.5662530660629272,0.27694496512413025
1788862019060923400,0.80492333984375,-0.463538259267807,-0.4100054204463959,0.49876314401626587
1788862019070965200,0.81496533203125,-0.6414169669151306,-0.21309953927993774,0.5385591983795166
1788862019081006300,0.82500634765625,-0.9564606547355652,-0.28429409861564636,0.422274112701416
1788862019091048400,0.83504833984375,-1.1944547891616821,-0.6683043837547302,-0.021267976611852646
1788862019101089500,0.845089599609375,-0.8681568503379822,-1.0335092544555664,-0.6361239552497864
1788862019111131400,0.85513134765625,0.3472355604171753,-1.0136035680770874,-1.2614814043045044
1788862019121172500,0.86517236328125,1.9748810529708862,-0.9615418910980225,-2.2550361156463623
1788862019131214300,0.87521435546875,3.2348368167877197,0.6041630506515503,-1.7665213346481323
1788862019141255400,0.88525537109375,2.952428102493286,2.8292908668518066,-0.22711434960365295
1788862019151297300,0.89529736328125,2.7719130516052246,1.822256326675415,-0.1098717600107193
1788862019161338400,0.90533837890625,2.2418720722198486,0.7292463183403015,-0.025821862742304802
1788862019171379200,0.915379150390625,1.6407520771026611,0.12287714332342148,0.1255294531583786
1788862019181421300,0.92542138671875,0.9919210076332092,-0.34259864687919617,0.18253014981746674
1788862019191462400,0.93546240234375,0.3667110800743103,-0.08094295859336853,-0.07667882740497589
1788862019201504500,0.94550439453125,0.22377415001392365,0.3987320363521576,-0.26672759652137756
1788862019211545300,0.95554541015625,0.6827265024185181,0.8051824569702148,-0.31248781085014343
1788862019221587500,0.96558740234375,1.3063786029815674,0.8679211735725403,-0.3306782841682434
1788862019231628500,0.975628662109375,1.6055688858032227,0.9559659361839294,-0.18026289343833923
1788862019241670400,0.98567041015625,1.4149523973464966,0.8796958923339844,0.048044584691524506
1788862019251711500,0.99571142578125,1.0264379978179932,0.2286858856678009,0.12290524691343307
1788862019261753300,1.00575341796875,0.6222409009933472,-0.20154406130313873,0.11963248997926712
1788862019271794400,1.01579443359375,0.34381017088890076,0.0003214031457901001,0.0573197677731514
1788862019281835300,1.025835205078125,0.24110908806324005,0.08559608459472656,-0.04357036203145981
1788862019291877400,1.03587744140625,0.38370779156684875,-0.18295921385288239,-0.0771951675415039
1788862019301918200,1.045918212890625,0.5867939591407776,-0.3077521324157715,-0.049354877322912216
1788862019311960600,1.055960693359375,0.7951874136924744,-0.31805166602134705,0.024937111884355545
1788862019322001400,1.06600146484375,1.0198191404342651,-0.09874888509511948,0.22350452840328217
1788862019332043500,1.07604345703125,1.197604775428772,0.11822780221700668,0.3325694501399994
1788862019342084400,1.08608447265625,1.4483243227005005,-0.048209644854068756,0.3926370441913605
1788862019352126500,1.09612646484375,1.7283719778060913,-0.7190645933151245,0.3357468247413635
1788862019362167300,1.106167236328125,1.7763516902923584,-0.9389934539794922,0.2060929536819458
1788862019372208400,1.11620849609375,1.5550209283828735,-0.5586457848548889,0.1379919797182083
1788862019382250200,1.126250244140625,1.217711329460144,0.09650490432977676,0.10822875797748566
1788862019392291300,1.136291259765625,0.4965035915374756,0.41330286860466003,0.012218866497278214
1788862019402333400,1.14633349609375,0.17504137754440308,0.002327563241124153,-0.04555867984890938
1788862019412374500,1.15637451171875,0.09355632215738297,-0.49995383620262146,0.1023581400513649
1788862019422416400,1.16641650390625,-0.018906576558947563,-0.608001172542572,0.16028986871242523
1788862019432457500,1.17645751953125,-0.11213913559913635,-0.37183019518852234,0.0996868908405304
1788862019442499300,1.186499267578125,-0.18401679396629333,-0.13948002457618713,0.042186837643384933
1788862019452540400,1.19654052734375,-0.22850923240184784,0.012168459594249725,0.005510280840098858
1788862019462581500,1.20658154296875,-0.184693843126297,0.1223924309015274,0.0011682631447911263
1788862019472623400,1.216623291015625,-0.25355225801467896,0.17182549834251404,-0.07453235238790512
1788862019482664400,1.22666455078125,-0.6037172079086304,0.6033532023429871,0.055638961493968964
1788862019492706300,1.236706298828125,-0.29074597358703613,0.4874853491783142,0.1401352435350418
1788862019502747400,1.246747314453125,-0.2662011981010437,0.35060712695121765,0.07912993431091309
1788862019512789500,1.25678955078125,-0.5022399425506592,0.4712972044944763,-0.10270959138870239
1788862019522830600,1.26683056640625,-0.44610559940338135,0.5393452048301697,-0.2588858902454376
1788862019532872400,1.27687255859375,-0.05334223434329033,0.5984016060829163,-0.269905149936676
1788862019542913500,1.28691357421875,0.06389224529266357,0.7538681626319885,-0.22889059782028198
1788862019552954400,1.296954345703125,-0.10917156934738159,0.7211620211601257,-0.12579338252544403
1788862019562996500,1.30699658203125,-0.25285229086875916,0.48982223868370056,-0.08792535215616226
1788862019573037300,1.317037353515625,-0.22969426214694977,0.23579132556915283,-0.16516101360321045
1788862019583079400,1.327079345703125,-0.2022021859884262,0.25061872601509094,-0.34524106979370117
1788862019593120300,1.337120361328125,-0.27185168862342834,0.35795196890830994,-0.5121827125549316
1788862019603162400,1.347162353515625,-0.3007110357284546,0.4230417311191559,-0.6494324803352356
1788862019613203200,1.357203125,-0.14018197357654572,0.3539014756679535,-0.6781160235404968
1788862019623245600,1.36724560546875,0.06938748806715012,0.04437396302819252,-0.5836318731307983
1788862019633286400,1.377286376953125,0.13300707936286926,-0.16087013483047485,-0.5221677422523499
1788862019643328500,1.38732861328125,0.03659771382808685,-0.0942855104804039,-0.4902835786342621
1788862019653369300,1.397369384765625,-0.13094070553779602,-0.03210354223847389,-0.4928288161754608
1788862019663410400,1.407410400390625,-0.35136309266090393,-0.08080636709928513,-0.5198873281478882
1788862019673452300,1.417452392578125,-0.6057180762290955,0.0016833366826176643,-0.6785887479782104
1788862019683493400,1.427493408203125,-0.8103151321411133,-0.17672927677631378,-1.039800763130188
1788862019693535200,1.43753515625,-1.7319966554641724,0.26876115798950195,-0.7237659692764282
1788862019703576300,1.447576416015625,-0.24888890981674194,-0.22054597735404968,-1.7581517696380615
1788862019713618200,1.4576181640625,0.6302090287208557,1.2027102708816528,-2.400290012359619
1788862019723659300,1.4676591796875,0.9841362237930298,1.5000241994857788,-2.6436479091644287
1788862019733700400,1.477700439453125,1.574769139289856,0.7801808714866638,-2.6917004585266113
1788862019743742500,1.487742431640625,2.445176601409912,-1.2249181270599365,-2.4396064281463623
1788862019753783600,1.497783447265625,2.102095127105713,-1.8960846662521362,-1.5491905212402344
1788862019763825400,1.507825439453125,1.8915936946868896,-1.8211400508880615,-0.4457235336303711
1788862019773866500,1.517866455078125,1.867479681968689,-2.163896322250366,-0.7163131833076477
1788862019783908400,1.527908447265625,1.212653398513794,-2.655865430831909,-0.8560588359832764
1788862019793949400,1.537949462890625,0.21707966923713684,-1.36245596408844,-0.9240906834602356
1788862019803991300,1.5479912109375,-1.677804946899414,0.6473829746246338,-1.8327761888504028
1788862019814032400,1.558032470703125,-2.442574977874756,-0.06328793615102768,-2.138685941696167
1788862019824073200,1.5680732421875,-2.6740102767944336,-1.7681370973587036,-1.6737980842590332
1788862019834115300,1.578115234375,-2.6819846630096436,-1.2828396558761597,-0.8957585692405701
1788862019844156400,1.588156494140625,-2.9606971740722656,-0.633751392364502,-0.14488933980464935
1788862019854198500,1.598198486328125,-3.4619410037994385,-0.6397771835327148,0.16224877536296844
1788862019864239400,1.6082392578125,-3.581427574157715,-1.0747133493423462,0.13648109138011932
1788862019874281500,1.618281494140625,-3.471761465072632,-1.244119644165039,0.18312722444534302
1788862019884322300,1.628322265625,-3.0450515747070312,-1.5082309246063232,0.42934203147888184
1788862019894364400,1.638364501953125,-2.4470338821411133,-1.9973740577697754,0.7541701197624207
1788862019904405200,1.6484052734375,-1.8508179187774658,-2.5445265769958496,1.0051703453063965
1788862019914447400,1.658447265625,-1.3927240371704102,-2.755695343017578,1.1470595598220825
1788862019924488200,1.66848828125,-0.9638690948486328,-2.8470988273620605,1.1132832765579224
1788862019934529300,1.678529296875,-0.5493992567062378,-2.94521164894104,1.118207573890686
1788862019944571400,1.6885712890625,-0.39885473251342773,-3.0486161708831787,1.0807420015335083
1788862019954612500,1.698612548828125,-0.431711345911026,-3.164608955383301,0.9028668403625488
1788862019964654300,1.708654296875,-0.5127031207084656,-3.150019884109497,0.4939853549003601
1788862019974695400,1.7186953125,-0.5688554048538208,-2.6403486728668213,0.05793388932943344
1788862019984737300,1.7287373046875,-0.4029811918735504,-2.191227912902832,-0.2556985914707184
1788862019994778400,1.7387783203125,-0.0015911387745290995,-1.823506236076355,-0.3500598669052124
1788862020004820200,1.7488203125,0.4104321300983429,-1.5549557209014893,-0.1731082648038864
1788862020014861300,1.758861328125,0.875276505947113,-1.1964055299758911,0.006988897453993559
1788862020024902400,1.76890234375,1.4207712411880493,-0.896633505821228,0.3298204839229584
1788862020034945500,1.778945556640625,1.6472485065460205,-0.720966637134552,0.42348405718803406
1788862020044986400,1.788986328125,1.7150418758392334,-0.7421954870223999,0.30329078435897827
1788862020055028500,1.799028564453125,1.7004854679107666,-0.7510213255882263,0.2743862271308899
1788862020065069300,1.8090693359375,1.7060726881027222,-0.7548075318336487,0.37460628151893616
1788862020075111700,1.819111572265625,1.531424641609192,-1.1516858339309692,0.3700338900089264
1788862020085152500,1.829152587890625,1.1983697414398193,-2.140625238418579,0.2602647840976715
1788862020095194600,1.839194580078125,0.7036789059638977,-3.3901495933532715,0.15504731237888336
1788862020105235500,1.8492353515625,0.5408247113227844,-3.19431734085083,-0.07668685168027878
1788862020115276500,1.859276611328125,0.7347484230995178,-1.3036473989486694,-0.08708388358354568
1788862020125318400,1.869318359375,0.8511093854904175,-0.47255972027778625,-0.12015794962644577
1788862020135359500,1.879359375,0.7377983331680298,-0.1636386215686798,-0.07631628960371017
1788862020145401600,1.889401611328125,0.16271048784255981,-0.0801226869225502,-0.00322636472992599
1788862020155442400,1.8994423828125,-0.291949599981308,-0.19250980019569397,-0.03869634494185448
1788862020165484500,1.909484619140625,-0.4519544541835785,-0.10278764367103577,-0.09081973135471344
1788862020175525400,1.919525390625,-0.44601693749427795,0.1122794821858406,-0.14446140825748444
1788862020185567700,1.929567626953125,-0.26665571331977844,0.27731266617774963,-0.04204476997256279
1788862020195608600,1.939608642578125,-0.09920258820056915,0.5382931232452393,0.10391882061958313
1788862020205649700,1.949649658203125,0.09394742548465729,0.6393728852272034,0.14663565158843994
1788862020215691500,1.95969140625,0.2058219015598297,0.6076022386550903,0.052582114934921265
1788862020225732600,1.969732666015625,0.11510585248470306,0.29335641860961914,-0.03638264536857605
1788862020235774500,1.9797744140625,0.02096843346953392,0.0298728309571743,-0.01586245559155941
1788862020245815600,1.989815673828125,-0.12575151026248932,-0.10554970800876617,0.08036421239376068
1788862020255857400,1.999857421875,-0.025860052555799484,-0.4547417163848877,0.10266478359699249
1788862020265898500,2.0098984375,0.08150102198123932,-1.1134414672851562,-0.10759551078081131
1788862020275940400,2.0199404296875,0.313368022441864,-1.6233844757080078,-0.2661952078342438
1788862020285981400,2.0299814453125,0.5935632586479187,-0.3108297884464264,0.03436410799622536
1788862020296022500,2.0400224609375,1.235140323638916,0.4895002245903015,0.42094776034355164
1788862020306064600,2.050064697265625,1.3850022554397583,0.6270506381988525,0.5904688239097595
1788862020316105700,2.060105712890625,1.116491675376892,0.5983578562736511,0.6076379418373108
1788862020326147600,2.070147705078125,0.7004926204681396,0.1800767034292221,0.30852794647216797
1788862020336188700,2.080188720703125,0.42633843421936035,-0.010828839614987373,-0.17696291208267212
1788862020346230500,2.09023046875,0.44053441286087036,-0.47221776843070984,-0.2918572723865509
1788862020356271600,2.100271728515625,0.5877891778945923,-0.6697490215301514,-0.2958676218986511
1788862020366313500,2.1103134765625,0.7726181745529175,-0.7548364400863647,-0.2867119312286377
1788862020376354600,2.1203544921875,0.8393760919570923,-0.7553955316543579,-0.24861833453178406
1788862020386395400,2.1303955078125,0.6982783675193787,-0.5496125221252441,-0.35841166973114014
1788862020396437500,2.1404375,0.39269375801086426,-0.32942673563957214,-0.4736163318157196
1788862020406478300,2.150478271484375,0.1459563970565796,-0.27595818042755127,-0.4991086423397064
1788862020416520700,2.160520751953125,0.04511368274688721,-0.29818829894065857,-0.5159704089164734
1788862020426561500,2.1705615234375,0.018392056226730347,-0.2828649878501892,-0.5683369636535645
1788862020436603600,2.180603759765625,-0.007918504998087883,-0.28812310099601746,-0.623371422290802
1788862020446644500,2.19064453125,-0.04637535288929939,-0.2803301513195038,-0.6698907017707825
1788862020456686600,2.2006865234375,-0.07494275271892548,-0.3780471384525299,-0.706365704536438
1788862020466727400,2.2107275390625,-0.08800235390663147,-0.479841411113739,-0.7057291865348816
1788862020476768500,2.2207685546875,-0.06257715076208115,-0.5071283578872681,-0.6862414479255676
1788862020486810400,2.230810302734375,-0.015607516281306744,-0.49110013246536255,-0.6876273155212402
1788862020496851500,2.2408515625,0.03595564141869545,-0.4536794424057007,-0.694841742515564
1788862020506893300,2.250893310546875,0.04804213345050812,-0.4648580551147461,-0.6680692434310913
1788862020516934400,2.260934326171875,0.11073591560125351,-0.5395429730415344,-0.6091245412826538
1788862020526976500,2.2709765625,0.1742890626192093,-0.5359567403793335,-0.5446166396141052
1788862020537017600,2.281017578125,0.22163139283657074,-0.5758678317070007,-0.49033454060554504
1788862020547059500,2.2910595703125,0.2713076174259186,-0.7489099502563477,-0.40283799171447754
1788862020557100500,2.3011005859375,0.28610560297966003,-0.9547989368438721,-0.3179108500480652
1788862020567141600,2.3111416015625,0.3271457254886627,-1.1599392890930176,-0.29504308104515076
1788862020577183500,2.32118359375,0.4544517397880554,-1.3819351196289062,-0.23769980669021606
1788862020587224600,2.331224609375,0.5708244442939758,-1.3949185609817505,-0.19070753455162048
1788862020597266400,2.341266357421875,0.6167085766792297,-1.3806281089782715,-0.20728708803653717
1788862020607307500,2.3513076171875,0.61213219165802,-1.3372547626495361,-0.22439870238304138
1788862020617349600,2.361349609375,0.4960428774356842,-0.9936593770980835,-0.18868286907672882
1788862020627390700,2.371390625,0.3802401125431061,-0.8399736881256104,-0.12244206666946411
1788862020637432600,2.3814326171875,0.44783225655555725,-0.803928017616272,-0.04083232954144478
1788862020647473700,2.3914736328125,0.42781487107276917,-0.7532131671905518,0.021293891593813896
1788862020657514500,2.401514404296875,0.35431572794914246,-0.6710076928138733,0.022552454844117165
1788862020667556600,2.411556640625,0.28034085035324097,-0.5479829907417297,0.014163498766720295
1788862020677597400,2.421597412109375,0.22117018699645996,-0.44252124428749084,-0.022980500012636185
1788862020687639600,2.4316396484375,0.13737009465694427,-0.349191814661026,-0.052400968968868256
1788862020697680400,2.441680419921875,0.0186581052839756,-0.17623096704483032,-0.05215027928352356
1788862020707722500,2.451722412109375,-0.08177715539932251,0.07031622529029846,-0.09468974173069
1788862020717763300,2.461763427734375,-0.1807040423154831,0.310570627450943,-0.15786756575107574
1788862020727805700,2.4718056640625,-0.25458836555480957,0.5774319171905518,-0.1819598525762558
1788862020737846500,2.481846435546875,-0.29510825872421265,0.7897824645042419,-0.2108125239610672
1788862020747887600,2.4918876953125,-0.30799317359924316,0.8585754036903381,-0.22981178760528564
1788862020757929500,2.501929443359375,-0.2535351812839508,0.9038461446762085,-0.2213890552520752
1788862020767970600,2.511970458984375,-0.18034859001636505,1.146144151687622,-0.24774077534675598
1788862020778012400,2.522012451171875,-0.11801061779260635,1.4217746257781982,-0.17828302085399628
1788862020788053500,2.532053466796875,-0.07486607134342194,1.4879188537597656,-0.09943613409996033
1788862020798095400,2.542095458984375,-0.05132037028670311,1.6204931735992432,0.015186397358775139
1788862020808136400,2.552136474609375,-0.06442525237798691,1.8434841632843018,0.13857489824295044
1788862020818178300,2.56217822265625,-0.22574245929718018,2.0635454654693604,0.24679243564605713
1788862020828219400,2.572219482421875,-0.5923507809638977,2.2935824394226074,0.29164326190948486
1788862020838260500,2.582260498046875,-0.5725249648094177,1.4364179372787476,0.14420808851718903
1788862020848302600,2.592302490234375,-0.42144355177879333,0.5097310543060303,-0.003996558487415314
1788862020858343700,2.60234375,-0.22571074962615967,-0.24429963529109955,-0.06477707624435425
1788862020868385500,2.612385498046875,-0.13565568625926971,-0.8228047490119934,-0.06530944257974625
1788862020878426600,2.622426513671875,-0.1891545206308365,-1.782619595527649,0.0445377342402935
1788862020888468500,2.632468505859375,-0.22963882982730865,-2.463665008544922,0.34473615884780884
1788862020898509600,2.642509521484375,-0.3042072653770447,-1.6788363456726074,0.41516509652137756
1788862020908551400,2.652551513671875,-0.22434520721435547,-1.0241320133209229,0.27350887656211853
1788862020918592500,2.662592529296875,-0.23624804615974426,-0.7704337239265442,0.19572916626930237
1788862020928633300,2.67263330078125,-0.17157718539237976,-0.628629207611084,0.023384565487504005
1788862020938675500,2.682675537109375,-0.01249627210199833,-0.22939389944076538,-0.09173919260501862
1788862020948716300,2.69271630859375,-0.0732102170586586,0.01354923751205206,-0.10898422449827194
1788862020958758700,2.702758544921875,-0.21452319622039795,-0.04026709869503975,-0.06104839965701103
1788862020968799500,2.712799560546875,-0.1941196620464325,-0.25237375497817993,-0.05045647546648979
1788862020978841600,2.722841552734375,-0.146301731467247,-0.2672017514705658,-0.0011262035695835948
1788862020988882400,2.73288232421875,-0.08159651607275009,-0.10257018357515335,0.017611797899007797
1788862020998924500,2.742924560546875,-0.039177969098091125,-0.0034853187389671803,-0.002789910417050123
1788862021008965400,2.75296533203125,0.038274478167295456,0.07367684692144394,0.07409075647592545
1788862021019006500,2.76300634765625,0.07690258324146271,0.23737256228923798,0.07666319608688354
1788862021029048300,2.77304833984375,0.08166511356830597,0.1382017731666565,-0.022739291191101074
1788862021039089700,2.783089599609375,0.08537246286869049,-0.12006979435682297,-0.10646239668130875
1788862021049131500,2.793131591796875,0.09697479009628296,-0.23812106251716614,-0.10289136320352554
1788862021059172600,2.803172607421875,0.12451110035181046,-0.16285714507102966,-0.041863810271024704
1788862021069214500,2.81321435546875,0.12980146706104279,-0.03193533420562744,-0.028331222012639046
1788862021079255600,2.823255615234375,0.09052474796772003,-0.07512855529785156,-0.08631740510463715
1788862021089297400,2.83329736328125,0.0475115068256855,-0.19409942626953125,-0.1515512615442276
1788862021099338500,2.84333837890625,0.023253878578543663,-0.23747673630714417,-0.19901606440544128
1788862021109379600,2.853379638671875,0.03883470222353935,-0.2250450998544693,-0.2188456952571869
1788862021119421700,2.863421630859375,0.054639868438243866,-0.2286551296710968,-0.227481409907341
1788862021129462800,2.873462890625,0.06553938239812851,-0.2613065540790558,-0.22931818664073944
1788862021139504600,2.883504638671875,0.08245742321014404,-0.28044751286506653,-0.23131324350833893
1788862021149545700,2.893545654296875,0.0917649045586586,-0.30470144748687744,-0.2495228797197342
1788862021159587600,2.903587646484375,0.08401373773813248,-0.3021605312824249,-0.2821366786956787
1788862021169628700,2.913628662109375,0.08573120832443237,-0.3097396194934845,-0.2894401252269745
1788862021179670500,2.92367041015625,0.09239183366298676,-0.3284566104412079,-0.27953073382377625
1788862021189711600,2.933711669921875,0.08993932604789734,-0.3090493381023407,-0.2675635516643524
1788862021199752400,2.94375244140625,0.07919353246688843,-0.25992849469184875,-0.25264644622802734
1788862021209794600,2.953794677734375,0.056145742535591125,-0.18920879065990448,-0.2512376308441162
1788862021219835400,2.96383544921875,0.027169300243258476,-0.18910148739814758,-0.26526230573654175
1788862021229877800,2.973877685546875,0.01413792185485363,-0.2475791871547699,-0.27197426557540894
1788862021239918600,2.983918701171875,0.02790246345102787,-0.2799212336540222,-0.25701451301574707
1788862021249960700,2.993960693359375,0.025578590109944344,-0.26883769035339355,-0.21649347245693207
1788862021260001500,3.00400146484375,0.021637506783008575,-0.20267575979232788,-0.16788063943386078
1788862021270042600,3.014042724609375,0.031326618045568466,-0.13249321281909943,-0.12553052604198456
1788862021280084700,3.024084716796875,0.038728028535842896,-0.15541775524616241,-0.09634625166654587
1788862021290125600,3.03412548828125,0.0026413965970277786,-0.20055407285690308,-0.08801215887069702
1788862021300167700,3.044167724609375,-0.0755835697054863,-0.2473931759595871,-0.06826954334974289
1788862021310208500,3.05420849609375,-0.1635725498199463,-0.3063400983810425,-0.05481232702732086
1788862021320250600,3.064250732421875,-0.20548471808433533,-0.34285643696784973,-0.039902132004499435
1788862021330291700,3.074291748046875,-0.2168702632188797,-0.35107094049453735,-0.019217360764741898
1788862021340333800,3.084333740234375,-0.21192219853401184,-0.38121259212493896,-0.025329148396849632
1788862021350374700,3.094374755859375,-0.22051940858364105,-0.4186696708202362,-0.033825963735580444
1788862021360415700,3.104415771484375,-0.24501818418502808,-0.44502127170562744,-0.06943095475435257
1788862021370457600,3.11445751953125,-0.27001887559890747,-0.39081820845603943,-0.09935583174228668
1788862021380498700,3.124498779296875,-0.28592365980148315,-0.312167763710022,-0.09768359363079071
1788862021390540500,3.13454052734375,-0.2969733774662018,-0.2709343135356903,-0.08811964839696884
1788862021400581600,3.14458154296875,-0.25840359926223755,-0.16203713417053223,-0.03794284537434578
1788862021410623500,3.15462353515625,-0.18587453663349152,-0.08464299887418747,0.049823492765426636
1788862021420664600,3.16466455078125,-0.16522325575351715,-0.10229817777872086,0.1082250252366066
1788862021430706700,3.174706787109375,-0.19319869577884674,-0.019756700843572617,0.16229571402072906
1788862021440747800,3.184747802734375,-0.18980282545089722,0.06213867664337158,0.21075700223445892
1788862021450788900,3.194788818359375,-0.15426534414291382,0.17111921310424805,0.2740856409072876
1788862021460830700,3.204830810546875,-0.14740461111068726,0.13592283427715302,0.3631979525089264
1788862021470871800,3.214871826171875,-0.19254466891288757,0.012363888323307037,0.4536897838115692
1788862021480913700,3.22491357421875,-0.22399599850177765,0.012869863770902157,0.5192480087280273
1788862021490954800,3.234954833984375,-0.19887679815292358,0.059587035328149796,0.5408515930175781
1788862021500996600,3.24499658203125,-0.12187649309635162,0.05896196886897087,0.5145512223243713
1788862021511037700,3.25503759765625,-0.03363318368792534,0.09678178280591965,0.5046586394309998
1788862021521079600,3.26507958984375,0.03574252873659134,0.13725239038467407,0.5265678763389587
1788862021531120600,3.27512060546875,0.07905005663633347,0.13039208948612213,0.535365104675293
1788862021541161500,3.285161376953125,0.08847977966070175,0.10135377198457718,0.5470324158668518
1788862021551203800,3.295203857421875,0.07275940477848053,0.07640714943408966,0.5496841073036194
1788862021561244700,3.30524462890625,0.06194903701543808,0.02718982845544815,0.5240751504898071
1788862021571286800,3.315286865234375,0.04201527684926987,-0.036209385842084885,0.4962136745452881
1788862021581327600,3.32532763671875,0.024520868435502052,-0.057201631367206573,0.4805240333080292
1788862021591369700,3.33536962890625,-0.005812004208564758,0.0018233386799693108,0.513355016708374
1788862021601410600,3.34541064453125,-0.031511321663856506,0.09164654463529587,0.5472255349159241
1788862021611452700,3.35545263671875,-0.04740746319293976,0.14633828401565552,0.5547620058059692
1788862021621493500,3.365493408203125,-0.06723999977111816,0.11992079019546509,0.5661396980285645
1788862021631534600,3.37553466796875,-0.09767114371061325,0.10829609632492065,0.589188814163208
1788862021641576400,3.385576416015625,-0.15331268310546875,0.12752655148506165,0.6331257224082947
1788862021651617500,3.395617431640625,-0.21226760745048523,0.17896203696727753,0.67374187707901
1788862021661659600,3.40565966796875,-0.25787392258644104,0.2445956915616989,0.707518458366394
1788862021671700700,3.41570068359375,-0.2789573669433594,0.27064916491508484,0.7145595550537109
1788862021681742600,3.42574267578125,-0.26770490407943726,0.211778461933136,0.6877548694610596
1788862021691783700,3.43578369140625,-0.2519640326499939,0.17975421249866486,0.6895782947540283
1788862021701825500,3.445825439453125,-0.27757227420806885,0.20731937885284424,0.7439396381378174
1788862021711866600,3.45586669921875,-0.3129318654537201,0.22795063257217407,0.8357963562011719
1788862021721907700,3.46590771484375,-0.3506455421447754,0.2509101331233978,0.9158297181129456
1788862021731949600,3.475949462890625,-0.35607707500457764,0.2828669846057892,0.9547851085662842
1788862021741990700,3.48599072265625,-0.33520233631134033,0.2913421094417572,0.9522567391395569
1788862021752032500,3.496032470703125,-0.2966424524784088,0.2738896310329437,0.9021826386451721
1788862021762073600,3.506073486328125,-0.2505105435848236,0.25862860679626465,0.8599076271057129
1788862021772115700,3.51611572265625,-0.19150689244270325,0.29918456077575684,0.8271204233169556
1788862021782156800,3.52615673828125,-0.11678408086299896,0.3774832487106323,0.7755617499351501
1788862021792198700,3.53619873046875,-0.026900531724095345,0.4563503563404083,0.6896697282791138
1788862021802239700,3.54623974609375,0.039826568216085434,0.487608402967453,0.6016061902046204
1788862021812280600,3.556280517578125,0.04910608381032944,0.5348454117774963,0.5488476157188416
1788862021822322700,3.56632275390625,0.015274782665073872,0.6150823831558228,0.5539554357528687
1788862021832363500,3.576363525390625,-0.03663262352347374,0.7153400182723999,0.616393506526947
1788862021842405600,3.586405517578125,-0.07363683730363846,0.8002576231956482,0.703450083732605
1788862021852446500,3.596446533203125,-0.08444394916296005,0.8088183403015137,0.7621381878852844
1788862021862488800,3.60648876953125,-0.06611314415931702,0.7487539052963257,0.7728102207183838
1788862021872529700,3.61652978515625,-0.05387638509273529,0.7379816770553589,0.7645797729492188
1788862021882571800,3.62657177734375,-0.037070389837026596,0.7891901731491089,0.7761168479919434
1788862021892612600,3.636612548828125,-0.0026759293396025896,0.824967086315155,0.7919825911521912
1788862021902653700,3.64665380859375,0.06068165972828865,0.8044610619544983,0.7883006930351257
1788862021912695600,3.656695556640625,0.12970148026943207,0.7329040169715881,0.7514734864234924
1788862021922736600,3.666736572265625,0.18857441842556,0.6308802366256714,0.6753221750259399
1788862021932778500,3.676778564453125,0.21580711007118225,0.5171283483505249,0.5814854502677917
1788862021942819600,3.686819580078125,0.20146481692790985,0.4212666451931,0.5149557590484619
1788862021952861400,3.696861328125,0.15481795370578766,0.3850082457065582,0.5372093915939331
1788862021962902500,3.706902587890625,0.07863695174455643,0.3962023854255676,0.6219428777694702
1788862021972943600,3.716943603515625,-0.012111593969166279,0.4042816162109375,0.7122346758842468
1788862021982985700,3.72698583984375,-0.10060222446918488,0.34283554553985596,0.7664945721626282
1788862021993026800,3.73702685546875,-0.20301274955272675,0.2246585637331009,0.7835893630981445
1788862022003068700,3.747068603515625,-0.2850095331668854,0.087372325360775,0.7765000462532043
1788862022013109800,3.75710986328125,-0.3562110364437103,-0.010745449922978878,0.762629508972168
1788862022023151600,3.767151611328125,-0.4076181650161743,-0.058893490582704544,0.7508958578109741
1788862022033192700,3.777192626953125,-0.4244261682033539,-0.059978459030389786,0.7431154251098633
1788862022043233500,3.787233642578125,-0.40843117237091064,-0.02474459819495678,0.7347810864448547
1788862022053274600,3.797274658203125,-0.3837314248085022,-0.004551445133984089,0.6928610801696777
1788862022063316500,3.80731640625,-0.3584238588809967,-0.01883639022707939,0.613226592540741
1788862022073357600,3.817357666015625,-0.33500829339027405,-0.074273020029068,0.5253020524978638
1788862022083398700,3.827398681640625,-0.30062398314476013,-0.1619083136320114,0.4994605481624603
1788862022093440500,3.8374404296875,-0.22793327271938324,-0.19067232310771942,0.5517985820770264
1788862022103481600,3.847481689453125,-0.11443226784467697,-0.16140976548194885,0.5959205031394958
1788862022113523700,3.857523681640625,-0.008072271011769772,-0.14577168226242065,0.5676041841506958
1788862022123564800,3.867564697265625,0.033125437796115875,-0.13752324879169464,0.4877735674381256
1788862022133606700,3.877606689453125,-0.005199311766773462,-0.18965382874011993,0.4619976282119751
1788862022143647700,3.887647705078125,-0.07587085664272308,-0.16450583934783936,0.5486053228378296
1788862022153688600,3.8976884765625,-0.14501823484897614,-0.03213316202163696,0.7160294651985168
1788862022163730700,3.907730712890625,-0.17183946073055267,0.10102508217096329,0.8612627983093262
1788862022173771500,3.917771484375,-0.16686148941516876,0.14843520522117615,0.9113456606864929
1788862022183813600,3.927813720703125,-0.17964228987693787,0.12609323859214783,0.8443018794059753
1788862022193854500,3.9378544921875,-0.20836900174617767,0.03537745028734207,0.686678946018219
1788862022203896600,3.947896484375,-0.24694925546646118,-0.09796664118766785,0.5093519687652588
1788862022213937400,3.9579375,-0.28383880853652954,-0.1911141574382782,0.3981516659259796
1788862022223979800,3.967979736328125,-0.32165032625198364,-0.19820937514305115,0.3545845150947571
1788862022234020600,3.9780205078125,-0.3352241814136505,-0.2188616544008255,0.33732348680496216
1788862022244061700,3.988061767578125,-0.30395761132240295,-0.2790323793888092,0.292406290769577
1788862022254103600,3.998103515625,-0.26771625876426697,-0.26913022994995117,0.2269497811794281
1788862022264144600,4.00814453125,-0.2326556295156479,-0.1842377632856369,0.19385327398777008
1788862022274186500,4.0181865234375,-0.20261970162391663,-0.040484048426151276,0.17883624136447906
1788862022284227600,4.0282275390625,-0.17117902636528015,0.04685141146183014,0.18060670793056488
1788862022294269400,4.03826953125,-0.1554567962884903,0.05840953066945076,0.2050158977508545
1788862022304310500,4.048310546875,-0.17728878557682037,0.05372687056660652,0.23414476215839386
1788862022314352600,4.0583525390625,-0.22362379729747772,0.047794412821531296,0.24208764731884003
1788862022324393700,4.068393798828125,-0.2686140239238739,-0.0431303046643734,0.22536438703536987
1788862022334434800,4.078434814453125,-0.2969343662261963,-0.21412788331508636,0.19710159301757812
1788862022344476700,4.0884765625,-0.3126941919326782,-0.31862497329711914,0.17157569527626038
1788862022354517800,4.098517822265625,-0.30895698070526123,-0.3100986182689667,0.1612442284822464
1788862022364559600,4.1085595703125,-0.2613206207752228,-0.24630030989646912,0.13324888050556183
1788862022374600700,4.1186005859375,-0.2049122005701065,-0.19560196995735168,0.07905939966440201
1788862022384642600,4.128642578125,-0.1782192587852478,-0.12045568227767944,0.04343966022133827
1788862022394683600,4.13868359375,-0.16659003496170044,-0.015826202929019928,0.03131215646862984
1788862022404724500,4.148724365234375,-0.16153675317764282,0.20448550581932068,0.028004296123981476
1788862022414766600,4.1587666015625,-0.14201125502586365,0.35636264085769653,-0.026079710572957993
1788862022424807400,4.168807373046875,-0.13696327805519104,0.29111531376838684,-0.1461362987756729
1788862022434849800,4.178849853515625,-0.16290725767612457,0.00736640952527523,-0.22735817730426788
1788862022444890600,4.188890625,-0.2622687816619873,-0.25631263852119446,-0.19560015201568604
1788862022454932700,4.1989326171875,-0.39213889837265015,-0.19221778213977814,-0.03967368230223656
1788862022464973600,4.2089736328125,-0.4644434154033661,0.019963622093200684,0.14553827047348022
1788862022475015700,4.219015625,-0.4922473430633545,0.13926124572753906,0.2604281008243561
1788862022485056500,4.229056396484375,-0.4641033411026001,0.033397406339645386,0.33147406578063965
1788862022495097600,4.23909765625,-0.4083806872367859,-0.23057138919830322,0.3302077353000641
1788862022505139700,4.2491396484375,-0.34915146231651306,-0.34137943387031555,0.2603384554386139
1788862022515180500,4.2591806640625,-0.2502552270889282,-0.33268314599990845,0.13737232983112335
1788862022525222700,4.26922265625,-0.1928422898054123,-0.27565038204193115,0.019293591380119324
1788862022535263500,4.279263427734375,-0.15826033055782318,-0.22559812664985657,-0.0749325081706047
1788862022545305900,4.289305908203125,-0.12125395238399506,-0.24963070452213287,-0.20314686000347137
1788862022555346700,4.2993466796875,-0.05068497732281685,-0.2998286187648773,-0.4034850299358368
1788862022565388800,4.309388916015625,-0.04381600767374039,-0.2759642004966736,-0.5686131715774536
1788862022575429600,4.3194296875,-0.09049750119447708,-0.17535662651062012,-0.6116679906845093
1788862022585470700,4.329470703125,-0.14178518950939178,-0.0012615220621228218,-0.4944015443325043
1788862022595512600,4.3395126953125,-0.18813404440879822,0.12573610246181488,-0.30952489376068115
1788862022605553700,4.3495537109375,-0.22740814089775085,0.13592606782913208,-0.15100936591625214
1788862022615595500,4.359595458984375,-0.27625957131385803,0.006980856880545616,-0.06576397269964218
1788862022625636600,4.36963671875,-0.32689911127090454,-0.15470772981643677,-0.05526452139019966
1788862022635678500,4.379678466796875,-0.34714657068252563,-0.26398441195487976,-0.09370379149913788
1788862022645719600,4.389719482421875,-0.3400704860687256,-0.2870633006095886,-0.16183200478553772
1788862022655760600,4.3997607421875,-0.315272718667984,-0.22253064811229706,-0.2514771819114685
1788862022665802800,4.409802734375,-0.2796858251094818,-0.10731790959835052,-0.3481408655643463
1788862022675843800,4.41984375,-0.26559290289878845,0.018628038465976715,-0.43807554244995117
1788862022685885700,4.4298857421875,-0.24829041957855225,0.14886435866355896,-0.5102349519729614
1788862022695926800,4.4399267578125,-0.20958667993545532,0.27190080285072327,-0.5661157965660095
1788862022705968600,4.44996875,-0.17698881030082703,0.3678010404109955,-0.60477215051651
1788862022716009700,4.460009765625,-0.15314072370529175,0.44278502464294434,-0.6198964715003967
1788862022726051600,4.470051513671875,-0.13056756556034088,0.5291966199874878,-0.6200929284095764
1788862022736092700,4.4800927734375,-0.08197072893381119,0.5781780481338501,-0.582621157169342
1788862022746133500,4.490133544921875,-0.00923101231455803,0.5443337559700012,-0.4922548234462738
1788862022756175600,4.500175537109375,0.06857297569513321,0.43809574842453003,-0.37836208939552307
1788862022766216700,4.510216796875,0.15075358748435974,0.3203960061073303,-0.2914527654647827
1788862022776258800,4.5202587890625,0.20613960921764374,0.20145045220851898,-0.25499168038368225
1788862022786299600,4.530299560546875,0.22191011905670166,0.15987901389598846,-0.2501029968261719
1788862022796341800,4.540341796875,0.20703528821468353,0.23082855343818665,-0.2747766673564911
1788862022806382600,4.550382568359375,0.17516914010047913,0.37580814957618713,-0.3280056118965149
1788862022816424700,4.5604248046875,0.14818252623081207,0.5025714039802551,-0.3811021149158478
1788862022826465500,4.570465576171875,0.11638453602790833,0.585076630115509,-0.40800952911376953
1788862022836506600,4.580506591796875,0.11201988160610199,0.5905177593231201,-0.4022824168205261
1788862022846548500,4.590548583984375,0.1102062538266182,0.5010421872138977,-0.3646214008331299
1788862022856589600,4.600589599609375,0.13085214793682098,0.328424334526062,-0.32317301630973816
1788862022866631700,4.610631591796875,0.16899234056472778,0.15099957585334778,-0.2846308946609497
1788862022876672800,4.6206728515625,0.1969185173511505,0.039352137595415115,-0.2569121718406677
1788862022886714600,4.630714599609375,0.19488462805747986,0.02920568734407425,-0.2318730503320694
1788862022896755700,4.640755615234375,0.17960181832313538,0.08655472844839096,-0.21243596076965332
1788862022906796800,4.650796875,0.16812171041965485,0.1863686740398407,-0.2051246017217636
1788862022916838700,4.660838623046875,0.16431578993797302,0.22300206124782562,-0.21064214408397675
1788862022926879700,4.670879638671875,0.16314032673835754,0.21145662665367126,-0.24588274955749512
1788862022936921600,4.680921630859375,0.13697050511837006,0.17059707641601562,-0.32645881175994873
1788862022946962700,4.690962646484375,0.09274861961603165,0.12554876506328583,-0.406387060880661
1788862022957004500,4.701004638671875,0.057901155203580856,0.04425843060016632,-0.469819575548172
1788862022967045600,4.711045654296875,0.0289809238165617,-0.02494206838309765,-0.5024585723876953
1788862022977087700,4.721087646484375,-0.005281709600239992,-0.04516824334859848,-0.4875217378139496
1788862022987128800,4.73112890625,-0.04369104653596878,0.00524855125695467,-0.42597058415412903
1788862022997169700,4.741169677734375,-0.09862034022808075,0.11461152136325836,-0.3675996661186218
1788862023007211800,4.751211669921875,-0.17694203555583954,0.2590208947658539,-0.3227272629737854
1788862023017252600,4.761252685546875,-0.2351912260055542,0.33090919256210327,-0.30199456214904785
1788862023027294700,4.771294677734375,-0.26856502890586853,0.3119131922721863,-0.300555944442749
1788862023037335800,4.781335693359375,-0.2755233347415924,0.2838685214519501,-0.2966999411582947
1788862023047378000,4.7913779296875,-0.26656848192214966,0.3283205032348633,-0.2671278119087219
1788862023057418800,4.801418701171875,-0.2533024847507477,0.39114099740982056,-0.24288129806518555
1788862023067460900,4.8114609375,-0.2400389015674591,0.3678031861782074,-0.26298028230667114
1788862023077501700,4.821501708984375,-0.2180827409029007,0.2409943789243698,-0.35551100969314575
1788862023087542800,4.831542724609375,-0.16728025674819946,0.067842036485672,-0.4838518500328064
1788862023097584600,4.841584716796875,-0.1000484898686409,-0.06239745765924454,-0.581470251083374
1788862023107625700,4.851625732421875,-0.04026567190885544,-0.08941226452589035,-0.5847349166870117
1788862023117667600,4.86166748046875,-0.010110963135957718,-0.0020185052417218685,-0.5180615782737732
1788862023127708700,4.871708740234375,-0.002986145205795765,0.11529318243265152,-0.43587589263916016
1788862023137750800,4.881750732421875,0.007724289782345295,0.20456953346729279,-0.3868614733219147
1788862023147792000,4.8917919921875,0.028491821140050888,0.25869137048721313,-0.37321728467941284
1788862023157833000,4.9018330078125,0.054704517126083374,0.28480154275894165,-0.4052436649799347
1788862023167874800,4.911874755859375,0.08935756981372833,0.29076462984085083,-0.4520961344242096
1788862023177916000,4.921916015625,0.13484887778759003,0.2517213523387909,-0.4964955449104309
1788862023187957800,4.931957763671875,0.18846993148326874,0.18049435317516327,-0.5620777010917664
1788862023197998800,4.941998779296875,0.23912271857261658,0.1326541304588318,-0.6137462258338928
1788862023208040700,4.952040771484375,0.28571686148643494,0.12196028977632523,-0.6000413298606873
1788862023218081800,4.962081787109375,0.3282392919063568,0.14147859811782837,-0.5178124904632568
1788862023228123600,4.97212353515625,0.3435448110103607,0.1914556324481964,-0.42286360263824463
1788862023238164700,4.982164794921875,0.3366565406322479,0.20718373358249664,-0.3583695888519287
1788862023248205600,4.99220556640625,0.3144215941429138,0.17558209598064423,-0.37641993165016174
1788862023258248000,5.002248046875,0.29650330543518066,0.09699967503547668,-0.4658672511577606
1788862023268288800,5.012288818359375,0.3081236481666565,-0.027750475332140923,-0.5670967698097229
1788862023278331000,5.022330810546875,0.3290092349052429,-0.12721022963523865,-0.6134546399116516
1788862023288371700,5.032371826171875,0.3293576240539551,-0.10259642452001572,-0.6087139844894409
1788862023298413800,5.042413818359375,0.27957087755203247,-0.0036911480128765106,-0.5989516377449036
1788862023308454700,5.05245458984375,0.20997489988803864,0.06543338298797607,-0.6023371815681458
1788862023318495700,5.062495849609375,0.12610262632369995,0.04509029537439346,-0.6250254511833191
1788862023328537600,5.07253759765625,0.05457778647542,-0.00793854333460331,-0.6101378202438354
1788862023338578700,5.08257861328125,-0.009400129318237305,-0.03647404909133911,-0.5694290399551392
1788862023348620500,5.09262060546875,-0.06879392266273499,-0.04923371225595474,-0.567621111869812
1788862023358661600,5.10266162109375,-0.11081007868051529,-0.057182446122169495,-0.6212894320487976
1788862023368703700,5.112703857421875,-0.10451940447092056,-0.08682504296302795,-0.7078667879104614
1788862023378744800,5.122744873046875,-0.0763772502541542,-0.11745432019233704,-0.7801785469055176
1788862023388786700,5.13278662109375,-0.04682466760277748,-0.11625625193119049,-0.8213936686515808
1788862023398827800,5.142827880859375,-0.01513731386512518,-0.10317160934209824,-0.830045759677887
1788862023408868900,5.152868896484375,0.0011407695710659027,-0.09624341130256653,-0.8175403475761414
1788862023418910700,5.16291064453125,0.014268290251493454,-0.09819204360246658,-0.8310388922691345
1788862023428951800,5.172951904296875,0.04520973563194275,-0.12891189754009247,-0.8674209117889404
1788862023438993700,5.18299365234375,0.04835759475827217,-0.18190720677375793,-0.9152119159698486
1788862023449034800,5.19303466796875,0.05464988201856613,-0.24521836638450623,-0.9365831017494202
1788862023459076600,5.20307666015625,0.07562573254108429,-0.26455292105674744,-0.9120543599128723
1788862023469118000,5.213117919921875,0.09062448143959045,-0.27072960138320923,-0.8804651498794556
1788862023479159800,5.223159912109375,0.11449439078569412,-0.32568737864494324,-0.8756117820739746
1788862023489201000,5.233200927734375,0.13645213842391968,-0.36432746052742004,-0.9127020239830017
1788862023499241700,5.24324169921875,0.15722186863422394,-0.3910432457923889,-0.9691831469535828
1788862023509283800,5.253283935546875,0.1697441190481186,-0.4023711085319519,-0.9934535622596741
1788862023519324700,5.26332470703125,0.16425348818302155,-0.3794548809528351,-0.9972379207611084
1788862023529366800,5.27336669921875,0.1613050401210785,-0.32193660736083984,-1.0273633003234863
1788862023539407600,5.28340771484375,0.16059529781341553,-0.264655739068985,-1.0926847457885742
1788862023549449700,5.29344970703125,0.1696578711271286,-0.2914339303970337,-1.1593656539916992
1788862023559490600,5.303490478515625,0.16515393555164337,-0.35023361444473267,-1.1716138124465942
1788862023569531600,5.31353173828125,0.149101123213768,-0.36574694514274597,-1.141524314880371
1788862023579573800,5.32357373046875,0.1324225515127182,-0.347400963306427,-1.1327720880508423
1788862023589614800,5.33361474609375,0.11418980360031128,-0.3720414340496063,-1.1597023010253906
1788862023599656700,5.34365673828125,0.10605224967002869,-0.47323304414749146,-1.171035647392273
1788862023609697800,5.35369775390625,0.08050188422203064,-0.5637617707252502,-1.1605255603790283
1788862023619739600,5.36373974609375,0.025042090564966202,-0.6141676902770996,-1.0926101207733154
1788862023629780700,5.37378076171875,-0.012874014675617218,-0.5831295847892761,-0.9672107100486755
1788862023639822800,5.38382275390625,-0.03382084146142006,-0.45317450165748596,-0.8337144255638123
1788862023649863700,5.39386376953125,-0.0456041619181633,-0.3735836446285248,-0.7433066368103027
1788862023659904800,5.40390478515625,-0.03741654008626938,-0.39259275794029236,-0.6990243792533875
1788862023669946600,5.413946533203125,-0.016119522973895073,-0.3758813440799713,-0.6481274366378784
1788862023679987700,5.42398779296875,0.012158719822764397,-0.31807050108909607,-0.6148656010627747
1788862023690029800,5.43402978515625,0.060200851410627365,-0.27470263838768005,-0.5590821504592896
1788862023700071000,5.44407080078125,0.12300831079483032,-0.19781503081321716,-0.45629316568374634
1788862023710112800,5.45411279296875,0.18823696672916412,-0.15902826189994812,-0.41211530566215515
1788862023720153900,5.46415380859375,0.23989883065223694,-0.16606220602989197,-0.4094529449939728
1788862023730194700,5.474194580078125,0.244990736246109,-0.1663748323917389,-0.42660531401634216
1788862023740236800,5.48423681640625,0.22663463652133942,-0.14346764981746674,-0.38040053844451904
1788862023750277600,5.494277587890625,0.21230372786521912,-0.03717702627182007,-0.28608372807502747
1788862023760319700,5.50431982421875,0.19354255497455597,0.03789269179105759,-0.263256698846817
1788862023770360800,5.51436083984375,0.20067164301872253,-0.026024185121059418,-0.33580487966537476
1788862023780402700,5.524402587890625,0.17918260395526886,-0.07638589292764664,-0.4198835492134094
1788862023790443800,5.53444384765625,0.13529956340789795,-0.0745660588145256,-0.4850604236125946
1788862023800486000,5.54448583984375,0.12008839845657349,-0.05478809028863907,-0.6184898614883423
1788862023810526700,5.554526611328125,0.11007940024137497,-0.10913378745317459,-0.7958700656890869
1788862023820567800,5.56456787109375,0.1199892908334732,-0.11974728852510452,-0.9311363101005554
1788862023830610000,5.57460986328125,0.1369430422782898,-0.10880420356988907,-1.0113823413848877
1788862023840650800,5.584650634765625,0.14886069297790527,-0.09129925072193146,-1.1013638973236084
1788862023850692900,5.59469287109375,0.10417211800813675,-0.07630468904972076,-1.1891889572143555
1788862023860733700,5.604733642578125,0.01853950321674347,-0.04731378331780434,-1.256975769996643
1788862023870775800,5.61477587890625,-0.040393151342868805,-0.1306052803993225,-1.2478853464126587
1788862023880816600,5.624816650390625,-0.06458503752946854,-0.14136284589767456,-1.0765516757965088
1788862023890858800,5.634858642578125,-0.04421728849411011,-0.06173136085271835,-0.8126916885375977
1788862023900899600,5.644899658203125,0.009578829631209373,0.011863762512803078,-0.6593258380889893
1788862023910940700,5.654940673828125,0.05018046125769615,0.07082947343587875,-0.6334814429283142
1788862023920982800,5.664982666015625,0.04619450867176056,0.1820734441280365,-0.647250771522522
1788862023931024000,5.67502392578125,0.030103012919425964,0.33257681131362915,-0.6929317116737366
1788862023941065700,5.685065673828125,0.009129022248089314,0.3422158360481262,-0.763656497001648
1788862023951106800,5.69510693359375,-0.029072267934679985,0.3195449113845825,-0.8692787289619446
1788862023961148700,5.705148681640625,-0.029773475602269173,0.23147526383399963,-0.9212950468063354
1788862023971189800,5.715189697265625,-0.03304698318243027,0.18847379088401794,-0.9436451196670532
1788862023981230800,5.72523095703125,-0.05489316210150719,0.13978880643844604,-0.9336841106414795
1788862023991272700,5.735272705078125,-0.0621689036488533,0.056289300322532654,-0.8681455254554749
1788862024001313800,5.745313720703125,-0.0718042179942131,-0.03301075100898743,-0.765102744102478
1788862024011356000,5.75535595703125,-0.09307117760181427,0.06178641691803932,-0.6808257699012756
1788862024021397000,5.76539697265625,-0.11431761085987091,0.09633560478687286,-0.5467638373374939
1788862024031438800,5.77543896484375,-0.12001415342092514,0.07473871856927872,-0.34403303265571594
1788862024041480000,5.78547998046875,-0.09644730389118195,0.11107515543699265,-0.15411289036273956
1788862024051521800,5.795521728515625,-0.07221809774637222,0.16728560626506805,0.04089268669486046
1788862024061563000,5.80556298828125,-0.03863563388586044,0.31705859303474426,0.21534918248653412
1788862024071603700,5.815603759765625,-0.00007193302735686302,0.41888427734375,0.35285642743110657
1788862024081646000,5.82564599609375,0.014555213041603565,0.42740824818611145,0.38880592584609985
1788862024091687000,5.83568701171875,-0.027144988998770714,0.3833131790161133,0.4365762770175934
1788862024101729000,5.84572900390625,-0.0814519003033638,0.3173818290233612,0.4722836911678314
1788862024111769900,5.855769775390625,-0.08559773117303848,0.20139160752296448,0.4820832312107086
1788862024121812000,5.86581201171875,-0.06910929828882217,0.05312197655439377,0.5058063864707947
1788862024131852800,5.875852783203125,-0.05172691494226456,-0.041656434535980225,0.542158842086792
1788862024141894000,5.885893798828125,-0.05511924996972084,-0.10132668912410736,0.5987680554389954
1788862024151935700,5.895935791015625,-0.09371289610862732,-0.11861942708492279,0.6733249425888062
1788862024161976800,5.905976806640625,-0.13617034256458282,-0.10104522109031677,0.7347824573516846
1788862024172019000,5.91601904296875,-0.15535475313663483,-0.04742344096302986,0.8044376969337463
1788862024182060000,5.92606005859375,-0.17858843505382538,0.0020397156476974487,0.8419898748397827
1788862024192102000,5.936101806640625,-0.19680583477020264,0.060583651065826416,0.8421425223350525
1788862024202143000,5.94614306640625,-0.22116203606128693,0.12021423131227493,0.8490209579467773
1788862024212184800,5.956184814453125,-0.26968351006507874,0.13950110971927643,0.8587394952774048
1788862024222226000,5.966225830078125,-0.3340856730937958,0.13605178892612457,0.8737863302230835
1788862024232267000,5.97626708984375,-0.38884028792381287,0.1280972808599472,0.9444853663444519
1788862024242308900,5.986308837890625,-0.41317012906074524,0.14251269400119781,1.0293186902999878
1788862024252350000,5.996349853515625,-0.40108001232147217,0.18414753675460815,1.115168571472168
1788862024262391800,6.006391845703125,-0.37728092074394226,0.2957289218902588,1.210955262184143
1788862024272433000,6.016432861328125,-0.34566381573677063,0.38490697741508484,1.2703996896743774
1788862024282475000,6.02647509765625,-0.33046701550483704,0.43776193261146545,1.2945127487182617
1788862024292516000,6.03651611328125,-0.3338300287723541,0.4435535967350006,1.322643756866455
1788862024302557000,6.046556884765625,-0.35070833563804626,0.4320964217185974,1.3388227224349976
1788862024312599000,6.05659912109375,-0.349288672208786,0.391541451215744,1.3394355773925781
1788862024322640000,6.066639892578125,-0.32938605546951294,0.3469657301902771,1.3175281286239624
1788862024332682000,6.076681884765625,-0.2890883982181549,0.3133939206600189,1.2627673149108887
1788862024342722800,6.086722900390625,-0.2555514872074127,0.3327154219150543,1.213192105293274
1788862024352765000,6.096764892578125,-0.23563769459724426,0.39295318722724915,1.2227258682250977
1788862024362805800,6.1068056640625,-0.19598457217216492,0.429203599691391,1.2355767488479614
1788862024372847900,6.116847900390625,-0.12480273842811584,0.3779991865158081,1.2311195135116577
1788862024382888700,6.126888671875,-0.05438850075006485,0.2885899245738983,1.229077696800232
1788862024392929800,6.1369296875,-0.00784115120768547,0.22944773733615875,1.2264008522033691
1788862024402972000,6.146971923828125,-0.0019470432307571173,0.2583952248096466,1.2279577255249023
1788862024413013000,6.157012939453125,-0.0075633469969034195,0.32222309708595276,1.2593703269958496
1788862024423054800,6.167054931640625,-0.006375843659043312,0.36541610956192017,1.2695424556732178
1788862024433096000,6.177095947265625,0.02155725471675396,0.33295270800590515,1.2135404348373413
1788862024443137800,6.1871376953125,0.05635475367307663,0.26863735914230347,1.132943034172058
1788862024453179000,6.197178955078125,0.06713570654392242,0.21874819695949554,1.0976152420043945
1788862024463220000,6.207219970703125,0.03967531770467758,0.20489601790905,1.1141201257705688
1788862024473261800,6.21726171875,-0.0035775108262896538,0.22404935956001282,1.1747580766677856
1788862024483303000,6.227302978515625,-0.012488181702792645,0.2405737340450287,1.258219599723816
1788862024493344800,6.2373447265625,0.03437931463122368,0.20190797746181488,1.284590721130371
1788862024503385900,6.2473857421875,0.10512059926986694,0.1336120218038559,1.2624990940093994
1788862024513428000,6.257427978515625,0.1724308729171753,0.08125855028629303,1.2237812280654907
1788862024523469000,6.267468994140625,0.23423723876476288,0.0677533894777298,1.237672209739685
1788862024533510000,6.277510009765625,0.2699962258338928,0.04553396254777908,1.2612144947052002
1788862024543552000,6.287552001953125,0.27951356768608093,0.028712905943393707,1.2769708633422852
1788862024553592800,6.2975927734375,0.28152528405189514,0.04530254378914833,1.305847406387329
1788862024563635000,6.307635009765625,0.30787193775177,0.04275656118988991,1.2846503257751465
1788862024573675800,6.31767578125,0.35186299681663513,0.059419989585876465,1.1850733757019043
1788862024583718000,6.3277177734375,0.40683144330978394,0.0704827606678009,1.0857681035995483
1788862024593758700,6.3377587890625,0.4713262617588043,0.06104879081249237,1.021685242652893
1788862024603800800,6.34780078125,0.4980420172214508,0.018844343721866608,1.0182527303695679
1788862024613841700,6.357841552734375,0.4784969985485077,0.07028714567422867,1.0906016826629639
1788862024623882800,6.3678828125,0.46372362971305847,0.16573908925056458,1.1941989660263062
1788862024633924900,6.3779248046875,0.4369305968284607,0.13282492756843567,1.242485523223877
1788862024643966000,6.387966064453125,0.386100709438324,-0.047423940151929855,1.1882611513137817
1788862024654007800,6.3980078125,0.30816805362701416,-0.2081981599330902,1.0840249061584473
1788862024664049000,6.408048828125,0.21158158779144287,-0.25028836727142334,1.035581111907959
1788862024674090800,6.4180908203125,0.1331564337015152,-0.11953447759151459,1.0666477680206299
1788862024684131800,6.4281318359375,0.09627537429332733,0.07480810582637787,1.148080587387085
1788862024694173000,6.4381728515625,0.08768442273139954,0.15657971799373627,1.2341619729995728
1788862024704214800,6.44821484375,0.08200470358133316,0.12049148231744766,1.2844970226287842
1788862024714256000,6.458255859375,0.04340021684765816,0.06772914528846741,1.2883409261703491
1788862024724298000,6.468298095703125,-0.021182768046855927,0.03808389976620674,1.2726227045059204
1788862024734339000,6.478339111328125,-0.08837735652923584,0.05288320779800415,1.256335735321045
1788862024744381000,6.488380859375,-0.12639690935611725,0.04974067583680153,1.2315171957015991
1788862024754422000,6.498422119140625,-0.1478697955608368,0.03621779754757881,1.1711243391036987
1788862024764463900,6.5084638671875,-0.14037300646305084,-0.004749609157443047,1.1058475971221924
1788862024774505000,6.5185048828125,-0.13415302336215973,-0.055111363530159,1.0366917848587036
1788862024784545800,6.5285458984375,-0.13155777752399445,-0.07491835206747055,0.9898079037666321
1788862024794588000,6.538587890625,-0.12939679622650146,-0.07465820014476776,0.9570332765579224
1788862024804628700,6.548628662109375,-0.11478802561759949,-0.05985502153635025,0.9327228665351868
1788862024814670800,6.5586708984375,-0.09061582386493683,-0.02870216779410839,0.9388713836669922
1788862024824711700,6.568711669921875,-0.05538433417677879,-0.0011011669412255287,0.9575918316841125
1788862024834754000,6.578754150390625,-0.004387649707496166,0.001559218391776085,0.9340833425521851
1788862024844795000,6.588794921875,0.06833768635988235,-0.016662929207086563,0.8432690501213074
1788862024854836000,6.5988359375,0.12812013924121857,-0.07833244651556015,0.7297854423522949
1788862024864877800,6.6088779296875,0.1590072214603424,-0.08914434909820557,0.6417754292488098
1788862024874919000,6.6189189453125,0.1793922632932663,-0.03049510531127453,0.5776973962783813
1788862024884960800,6.628960693359375,0.1980533003807068,0.06984242051839828,0.4991048574447632
1788862024895001900,6.639001953125,0.20401759445667267,0.14486733078956604,0.37772896885871887
1788862024905044000,6.6490439453125,0.20337018370628357,0.1622745543718338,0.22803135216236115
1788862024915084800,6.659084716796875,0.217384472489357,0.0875108614563942,0.0783877819776535
1788862024925126000,6.6691259765625,0.23164115846157074,0.03307425230741501,-0.047371745109558105
1788862024935167700,6.679167724609375,0.21357937157154083,0.08674884587526321,-0.13791145384311676
1788862024945208800,6.689208740234375,0.16246424615383148,0.19999124109745026,-0.19800275564193726
1788862024955251000,6.6992509765625,0.10485553741455078,0.2725418508052826,-0.2210998237133026
1788862024965292000,6.7092919921875,0.05152653902769089,0.3317583203315735,-0.22646689414978027
1788862024975334000,6.719333984375,0.01925605908036232,0.4011855721473694,-0.21679064631462097
1788862024985375000,6.729375,0.02588040567934513,0.4507507383823395,-0.19661055505275726
1788862024995416800,6.739416748046875,0.04284445196390152,0.4325996935367584,-0.17037184536457062
1788862025005458000,6.7494580078125,0.04517525061964989,0.39134520292282104,-0.17294098436832428
1788862025015498800,6.759498779296875,0.05725596845149994,0.35855045914649963,-0.221086323261261
1788862025025540900,6.769540771484375,0.08097674697637558,0.34081462025642395,-0.2778513431549072
1788862025035582000,6.77958203125,0.11303560435771942,0.29092100262641907,-0.3313271105289459
1788862025045623800,6.789623779296875,0.14101716876029968,0.22045455873012543,-0.3816683292388916
1788862025055665000,6.799664794921875,0.16258056461811066,0.10806941241025925,-0.4208967685699463
1788862025065707000,6.80970703125,0.19757743179798126,-0.021899769082665443,-0.44680505990982056
1788862025075747800,6.819747802734375,0.23602613806724548,-0.10292097926139832,-0.49222615361213684
1788862025085789000,6.829788818359375,0.2506202757358551,-0.12754429876804352,-0.5407422184944153
1788862025095831000,6.8398310546875,0.22387324273586273,-0.04570870101451874,-0.5828754305839539
1788862025105872000,6.849871826171875,0.17921869456768036,0.1277744024991989,-0.6162925362586975
1788862025115914000,6.8599140625,0.1521369069814682,0.2961539328098297,-0.6261138916015625
1788862025125954800,6.869954833984375,0.14470134675502777,0.36052918434143066,-0.6057828068733215
1788862025135997000,6.879996826171875,0.13545957207679749,0.38147181272506714,-0.5839215517044067
1788862025146037800,6.890037841796875,0.10287818312644958,0.3923044800758362,-0.5559591054916382
1788862025156078800,6.900078857421875,0.06655889749526978,0.34211790561676025,-0.4947257339954376
1788862025166120700,6.91012060546875,0.016604119911789894,0.2386903017759323,-0.4530355632305145
1788862025176162000,6.920162109375,-0.000708205159753561,0.1204264760017395,-0.45685121417045593
1788862025186204000,6.930203857421875,0.008857070468366146,0.0013469560071825981,-0.4987267851829529
1788862025196245000,6.940244873046875,0.02590537630021572,-0.06821945309638977,-0.5553306341171265
1788862025206286800,6.950286865234375,0.05176147446036339,-0.053748100996017456,-0.6198848485946655
1788862025216328000,6.960327880859375,0.0497526153922081,0.09450510889291763,-0.699916660785675
1788862025226369800,6.970369873046875,0.021853072568774223,0.28049230575561523,-0.7857910990715027
1788862025236411000,6.980410888671875,-0.02379547990858555,0.4714353680610657,-0.8526970744132996
1788862025246452000,6.990451904296875,-0.06774775683879852,0.564124584197998,-0.8883064985275269
1788862025256493800,7.000493896484375,-0.06776217371225357,0.5069745779037476,-0.9191676378250122
1788862025266535000,7.010534912109375,-0.03534697741270065,0.33553197979927063,-0.941447913646698
1788862025276577000,7.020576904296875,0.01638736017048359,0.16913917660713196,-0.8972634673118591
1788862025286618000,7.0306181640625,0.06054496765136719,0.12486092746257782,-0.7845039367675781
1788862025296660000,7.040659912109375,0.07131532579660416,0.1411972939968109,-0.7054328322410583
1788862025306701000,7.050701171875,0.06869397312402725,0.10656102001667023,-0.7281548976898193
1788862025316742000,7.060741943359375,0.08585860580205917,0.052988141775131226,-0.7993080615997314
1788862025326784000,7.070783935546875,0.11305613815784454,0.004089576192200184,-0.8593642115592957
1788862025336824800,7.080824951171875,0.15339818596839905,-0.018283890560269356,-0.8654336929321289
1788862025346867000,7.090866943359375,0.17208480834960938,0.032338809221982956,-0.8429363965988159
1788862025356907800,7.10090771484375,0.16150438785552979,0.1338728666305542,-0.8346973657608032
1788862025366950000,7.110949951171875,0.126595139503479,0.20880728960037231,-0.8867714405059814
1788862025376990700,7.12099072265625,0.09422864764928818,0.21654503047466278,-1.0142680406570435
1788862025387031800,7.13103173828125,0.07883371412754059,0.19126790761947632,-1.1584694385528564
1788862025397074000,7.141073974609375,0.09722974896430969,0.1552491933107376,-1.2465871572494507
1788862025407115000,7.151114990234375,0.12658657133579254,0.11278162896633148,-1.2142292261123657
1788862025417156900,7.161156982421875,0.12145086377859116,0.0916404128074646,-1.0976314544677734
1788862025427198000,7.171197998046875,0.1013312116265297,0.050331853330135345,-0.9769178628921509
1788862025437239800,7.18123974609375,0.0923544242978096,-0.011384043842554092,-0.9543470144271851
1788862025447281000,7.191281005859375,0.09750844538211823,-0.12065540254116058,-1.0124549865722656
1788862025457322000,7.201322021484375,0.10228068381547928,-0.293239027261734,-1.0767210721969604
1788862025467363800,7.21136376953125,0.10583573579788208,-0.4799356758594513,-1.1144394874572754
1788862025477405000,7.221405029296875,0.10492347180843353,-0.6167829632759094,-1.1227834224700928
1788862025487446800,7.23144677734375,0.08341684937477112,-0.6421061754226685,-1.125081181526184
1788862025497488000,7.24148779296875,0.09155350923538208,-0.597680389881134,-1.1180647611618042
1788862025507530000,7.251530029296875,0.08418401330709457,-0.5529773831367493,-1.1081063747406006
1788862025517571000,7.261571044921875,0.06206227093935013,-0.5036126971244812,-1.1234033107757568
1788862025527612000,7.27161181640625,0.03700405731797218,-0.4770495593547821,-1.1287400722503662
1788862025537654000,7.281654052734375,0.01591172069311142,-0.49749985337257385,-1.1284549236297607
1788862025547694800,7.29169482421875,0.0118549270555377,-0.5840786695480347,-1.124033808708191
1788862025557737000,7.301737060546875,0.014805198647081852,-0.6412798762321472,-1.1107182502746582
1788862025567777800,7.31177783203125,-0.0011037273798137903,-0.5750321745872498,-1.1057108640670776
1788862025577820000,7.32181982421875,-0.011190556921064854,-0.5089106559753418,-1.1360348463058472
1788862025587860700,7.33186083984375,-0.0026348859537392855,-0.529297947883606,-1.2171616554260254
1788862025597902800,7.34190283203125,0.015462876297533512,-0.6128255128860474,-1.31995689868927
1788862025607943700,7.351943603515625,0.029598668217658997,-0.6425338387489319,-1.394017219543457
1788862025617984800,7.36198486328125,0.05014387145638466,-0.6322295665740967,-1.4171814918518066
1788862025628027000,7.37202685546875,0.06752178817987442,-0.5434142351150513,-1.4467641115188599
1788862025638068000,7.38206787109375,0.07057767361402512,-0.4836719036102295,-1.4626133441925049
1788862025648109800,7.39210986328125,0.057151876389980316,-0.4732981026172638,-1.4543602466583252
1788862025658151000,7.40215087890625,0.009543836116790771,-0.49175354838371277,-1.4080092906951904
1788862025668192800,7.41219287109375,-0.02150622569024563,-0.5015918016433716,-1.3524435758590698
1788862025678233900,7.42223388671875,-0.028680551797151566,-0.48667746782302856,-1.340979814529419
1788862025688275000,7.43227490234375,-0.015635322779417038,-0.44096431136131287,-1.3301620483398438
1788862025698316800,7.44231689453125,0.012761891819536686,-0.40230804681777954,-1.321124792098999
1788862025708358000,7.45235791015625,0.05355672538280487,-0.33430102467536926,-1.3241679668426514
1788862025718400000,7.46239990234375,0.08795100450515747,-0.3021620213985443,-1.3114320039749146
1788862025728441000,7.472441162109375,0.09191432595252991,-0.2888536751270294,-1.2648661136627197
1788862025738483000,7.48248291015625,0.04553176462650299,-0.1880962997674942,-1.1887840032577515
1788862025748524000,7.49252392578125,0.01336290966719389,-0.11979367583990097,-1.18681800365448
1788862025758564900,7.50256494140625,-0.0016520353965461254,-0.2197841852903366,-1.2248272895812988
1788862025768607000,7.51260693359375,-0.013842388056218624,-0.3324585258960724,-1.2580571174621582
1788862025778647800,7.522647705078125,-0.03213990107178688,-0.3499901294708252,-1.2249873876571655
1788862025788690000,7.53268994140625,-0.022530686110258102,-0.24959826469421387,-1.209365725517273
1788862025798730800,7.542730712890625,-0.017963731661438942,-0.17175555229187012,-1.2183974981307983
1788862025808772900,7.55277294921875,-0.0182644035667181,-0.12738701701164246,-1.1819961071014404
1788862025818813700,7.562813720703125,-0.023152735084295273,-0.14895904064178467,-1.1140581369400024
1788862025828854800,7.572854736328125,-0.030324095860123634,-0.23448406159877777,-1.0571554899215698
1788862025838897000,7.58289697265625,-0.036957331001758575,-0.30378177762031555,-1.019010066986084
1788862025848938000,7.59293798828125,-0.0410013422369957,-0.2576068341732025,-0.9445734024047852
1788862025858979800,7.602979736328125,-0.029932821169495583,-0.12616246938705444,-0.8914393186569214
1788862025869021000,7.61302099609375,-0.019035696983337402,-0.03360564634203911,-0.8091593384742737
1788862025879062800,7.623062744140625,-0.04213281720876694,0.09648215770721436,-0.7214664816856384
1788862025889104000,7.633103759765625,-0.10573123395442963,0.15000423789024353,-0.6712536215782166
1788862025899145000,7.64314501953125,-0.1582857221364975,0.15907201170921326,-0.686393678188324
1788862025909186800,7.653186767578125,-0.18783429265022278,0.1860564798116684,-0.6785042881965637
1788862025919228000,7.663227783203125,-0.1954142153263092,0.1940728724002838,-0.6187832355499268
1788862025929269800,7.673269775390625,-0.20346280932426453,0.19208243489265442,-0.4839916527271271
1788862025939310800,7.683310791015625,-0.22781024873256683,0.21698306500911713,-0.2839618921279907
1788862025949353000,7.69335302734375,-0.2810108959674835,0.21439741551876068,-0.10175375640392303
1788862025959394000,7.70339404296875,-0.3471437692642212,0.27137553691864014,0.020128989592194557
1788862025969435000,7.713434814453125,-0.37621989846229553,0.2965022027492523,0.13341613113880157
1788862025979477000,7.72347705078125,-0.3949443995952606,0.29924920201301575,0.22876113653182983
1788862025989517800,7.733517822265625,-0.43486759066581726,0.26250264048576355,0.3180382549762726
1788862025999560000,7.743559814453125,-0.48107999563217163,0.20851349830627441,0.39747974276542664
1788862026009600800,7.753600830078125,-0.4856579601764679,0.1892114281654358,0.4932166337966919
1788862026019643000,7.763642822265625,-0.4348413944244385,0.21379853785037994,0.5579903721809387
1788862026029683700,7.77368359375,-0.3653984069824219,0.2239537090063095,0.6496981382369995
1788862026039725800,7.783725830078125,-0.3093022406101227,0.24893616139888763,0.7814649939537048
1788862026049766700,7.7937666015625,-0.27739036083221436,0.2888958156108856,0.9258842468261719
1788862026059807700,7.803807861328125,-0.24368207156658173,0.3479211926460266,1.003976821899414
1788862026069849900,7.813849853515625,-0.18056835234165192,0.37365904450416565,1.0550860166549683
1788862026079891000,7.823890869140625,-0.10333780944347382,0.3871957063674927,1.0903096199035645
1788862026089932800,7.833932861328125,-0.03482799232006073,0.34655773639678955,1.1270668506622314
1788862026099974000,7.843973876953125,0.01277957670390606,0.3657693862915039,1.1586244106292725
1788862026110015700,7.854015625,0.04487652704119682,0.44646692276000977,1.1721162796020508
1788862026120056800,7.864056884765625,0.07274068892002106,0.4107035994529724,1.2004867792129517
1788862026130098000,7.874097900390625,0.09340016543865204,0.33153900504112244,1.229748010635376
1788862026140139800,7.884139892578125,0.10910971462726593,0.3277081847190857,1.2612932920455933
1788862026150180900,7.894180908203125,0.09829621762037277,0.4014074504375458,1.3395614624023438
1788862026160222700,7.90422265625,0.05967974662780762,0.45095768570899963,1.4201184511184692
1788862026170263800,7.914263916015625,0.02574148401618004,0.4505704641342163,1.4797695875167847
1788862026180306000,7.924305908203125,0.012148465029895306,0.46288466453552246,1.5516786575317383
1788862026190347000,7.934346923828125,0.007604846265166998,0.4695982336997986,1.600771427154541
1788862026200387800,7.944387939453125,-0.014025096781551838,0.5031986236572266,1.6138418912887573
1788862026210430000,7.954429931640625,-0.03996162489056587,0.5332854390144348,1.6367546319961548
1788862026220470800,7.964470703125,-0.061228469014167786,0.5060725212097168,1.6994320154190063
1788862026230513000,7.974512939453125,-0.0815981850028038,0.4447889029979706,1.7665185928344727
1788862026240553700,7.9845537109375,-0.08895882219076157,0.3754170835018158,1.7690718173980713
1788862026250595800,7.994595947265625,-0.09065712243318558,0.3035847246646881,1.7255382537841797
1788862026260637000,8.004636962890626,-0.10022410750389099,0.2927296757698059,1.7044994831085205
1788862026270677800,8.014677734375,-0.11865637451410294,0.3173876404762268,1.703198790550232
1788862026280720000,8.024719970703124,-0.13802827894687653,0.3501967489719391,1.706897258758545
1788862026290761000,8.034760986328125,-0.1674564629793167,0.35647115111351013,1.7229260206222534
1788862026300803000,8.044802978515625,-0.18638144433498383,0.3356705605983734,1.7526744604110718
1788862026310844000,8.054843994140626,-0.1907503604888916,0.3227073550224304,1.7915880680084229
1788862026320886000,8.064885986328125,-0.16966575384140015,0.25360581278800964,1.805452823638916
1788862026330926800,8.0749267578125,-0.12241009622812271,0.11636193841695786,1.779537320137024
1788862026340968000,8.084968017578126,-0.08152390271425247,0.0016131680458784103,1.737877607345581
1788862026351009800,8.095009765625,-0.045549917966127396,-0.049754947423934937,1.7036874294281006
1788862026361051000,8.10505078125,-0.009725582785904408,-0.08805699646472931,1.6896300315856934
1788862026371092700,8.1150927734375,0.03655429556965828,-0.15833862125873566,1.6715517044067383
1788862026381133800,8.1251337890625,0.07318302243947983,-0.23142635822296143,1.637446403503418
1788862026391176000,8.135176025390624,0.085732102394104,-0.281441330909729,1.6069090366363525
1788862026401217000,8.145217041015625,0.1077134758234024,-0.31049638986587524,1.5793566703796387
1788862026411257900,8.1552578125,0.1210780218243599,-0.25788217782974243,1.572754144668579
1788862026421300000,8.165300048828126,0.11645680665969849,-0.14827485382556915,1.5716924667358398
1788862026431341000,8.175341064453125,0.09605325758457184,-0.06060998514294624,1.5580041408538818
1788862026441383000,8.1853828125,0.08758317679166794,-0.09096508473157883,1.5200201272964478
1788862026451424000,8.195424072265626,0.09651115536689758,-0.15852655470371246,1.4760411977767944
1788862026461465900,8.2054658203125,0.11945036053657532,-0.17465387284755707,1.4427884817123413
1788862026471507000,8.2155068359375,0.16099435091018677,-0.12416087836027145,1.4421788454055786
1788862026481547800,8.2255478515625,0.22014379501342773,-0.07521502673625946,1.4419472217559814
1788862026491590000,8.23558984375,0.25378188490867615,-0.08740537613630295,1.397210717201233
1788862026501630700,8.245630615234376,0.2617320120334625,-0.15120966732501984,1.3350423574447632
1788862026511673000,8.255673095703125,0.2508154511451721,-0.16270200908184052,1.288042664527893
1788862026521714000,8.2657138671875,0.225180521607399,-0.1328611671924591,1.2566486597061157
1788862026531756000,8.275756103515626,0.20869556069374084,-0.11654210090637207,1.2255022525787354
1788862026541796900,8.285796875,0.2093307226896286,-0.12541575729846954,1.1982280015945435
1788862026551838000,8.295837890625,0.20641908049583435,-0.11879220604896545,1.1634583473205566
1788862026561879800,8.3058798828125,0.1836809515953064,-0.0438082218170166,1.1204549074172974
1788862026571921000,8.3159208984375,0.13485588133335114,0.039028599858284,1.0714820623397827
1788862026581962800,8.325962646484374,0.08253825455904007,0.053237490355968475,1.0282238721847534
1788862026592003800,8.33600390625,0.05787045508623123,-0.04538256302475929,0.9692620635032654
1788862026602045700,8.346045654296875,0.058299750089645386,-0.17226336896419525,0.8704009056091309
1788862026612086800,8.356086669921876,0.06433048099279404,-0.194924995303154,0.7843435406684875
1788862026622127900,8.3661279296875,0.08777349442243576,-0.07686857879161835,0.7456817030906677
1788862026632170000,8.376169921875,0.13479827344417572,0.06169409304857254,0.7303323149681091
1788862026642211000,8.386211181640626,0.17853887379169464,0.1538047343492508,0.7271649837493896
1788862026652253000,8.3962529296875,0.2120203971862793,0.18944448232650757,0.7147911190986633
1788862026662294000,8.4062939453125,0.20864878594875336,0.17858342826366425,0.6782917380332947
1788862026672336000,8.4163359375,0.157940074801445,0.14410027861595154,0.5943720936775208
1788862026682377000,8.426376953125,0.10657516121864319,0.04243827983736992,0.428178071975708
1788862026692417800,8.436417724609376,0.0913674458861351,-0.12378611415624619,0.19846844673156738
1788862026702460000,8.4464599609375,0.07099137455224991,-0.20207348465919495,-0.036045607179403305
1788862026712500700,8.456500732421874,0.04179833456873894,-0.1082734763622284,-0.20862030982971191
1788862026722543000,8.466543212890626,0.008411949500441551,0.08842277526855469,-0.3109847605228424
1788862026732584000,8.476583984375,-0.019369348883628845,0.3146255612373352,-0.37635526061058044
1788862026742626000,8.4866259765625,0.0007835754659026861,0.46202415227890015,-0.4194793105125427
1788862026752667000,8.4966669921875,0.06314628571271896,0.4491903781890869,-0.4431806206703186
1788862026762708000,8.5067080078125,0.1118926852941513,0.3138558566570282,-0.46014198660850525
1788862026772749800,8.516749755859376,0.1068478599190712,0.1528525948524475,-0.4988885819911957
1788862026782791000,8.526791015625,0.07664872705936432,0.006259487010538578,-0.5436155796051025
1788862026792832800,8.536832763671875,0.06415184587240219,-0.10189014673233032,-0.5702831745147705
1788862026802873900,8.546873779296876,0.0684293583035469,-0.11342179775238037,-0.5802848935127258
1788862026812915700,8.556915771484375,0.05943452939391136,-0.05006519705057144,-0.5840724110603333
1788862026822956800,8.566956787109374,0.047118376940488815,0.010197196155786514,-0.5841580629348755
1788862026832998000,8.576997802734375,0.059142813086509705,0.07258600741624832,-0.560594916343689
1788862026843040000,8.5870400390625,0.05567682534456253,0.18281030654907227,-0.5161979794502258
1788862026853081000,8.5970810546875,0.007740991655737162,0.3128436803817749,-0.519838809967041
1788862026863123000,8.607123046875,-0.02699262462556362,0.3987175226211548,-0.6002053022384644
1788862026873164000,8.6171640625,-0.020159220322966576,0.41748642921447754,-0.7023090124130249
1788862026883206000,8.627205810546876,-0.017330806702375412,0.39771515130996704,-0.7626751661300659
1788862026893247000,8.6372470703125,-0.014914252795279026,0.38715144991874695,-0.7957830429077148
1788862026903287800,8.647287841796874,0.008957386016845703,0.33253955841064453,-0.8298169374465942
1788862026913330000,8.657329833984376,0.018725860863924026,0.23679094016551971,-0.8610289096832275
1788862026923370800,8.667370849609375,-0.0026758192107081413,0.15643581748008728,-0.8675147294998169
1788862026933412900,8.677412841796874,-0.01473274827003479,0.054237011820077896,-0.8514031171798706
1788862026943453700,8.68745361328125,-0.0036860571708530188,-0.040959425270557404,-0.8248898983001709
1788862026953496000,8.69749609375,-0.025666723027825356,-0.03673645108938217,-0.8170410394668579
1788862026963537000,8.707536865234376,-0.08164577186107635,0.08640490472316742,-0.8377827405929565
1788862026973578000,8.717577880859375,-0.1323254555463791,0.20299436151981354,-0.8740390539169312
1788862026983619800,8.727619873046875,-0.15457452833652496,0.19042228162288666,-0.9246248602867126
1788862026993661000,8.737660888671876,-0.1449165791273117,0.06999386847019196,-0.9761970043182373
1788862027003702800,8.747702880859375,-0.13449163734912872,-0.044388365000486374,-1.031800627708435
1788862027013743900,8.757743896484374,-0.13841693103313446,-0.07856345921754837,-1.0713180303573608
1788862027023785700,8.76778564453125,-0.1403881311416626,-0.07058891654014587,-1.0920361280441284
1788862027033826800,8.777826904296875,-0.12479585409164429,-0.11189614236354828,-1.086670160293579
1788862027043868200,8.7878681640625,-0.1090017706155777,-0.2067173272371292,-1.0674818754196167
1788862027053910000,8.797909912109375,-0.10370767116546631,-0.2497100681066513,-1.050053596496582
1788862027063951000,8.807951171875,-0.10219722241163254,-0.20629769563674927,-1.054977297782898
1788862027073993000,8.817992919921876,-0.1049376130104065,-0.11348625272512436,-1.0940327644348145
1788862027084034000,8.828033935546875,-0.10792689025402069,-0.06590395420789719,-1.149187684059143
1788862027094076000,8.838075927734375,-0.11268223077058792,-0.13175593316555023,-1.2049366235733032
1788862027104117000,8.848116943359376,-0.0984489843249321,-0.2485765516757965,-1.2568261623382568
1788862027114157800,8.85815771484375,-0.06355465203523636,-0.25842490792274475,-1.258251428604126
1788862027124200200,8.8682001953125,-0.035199787467718124,-0.1271677166223526,-1.196521282196045
1788862027134241000,8.878240966796875,-0.0348312072455883,0.023869462311267853,-1.129250407218933
1788862027144283100,8.888283203125,-0.06942247599363327,0.08897522836923599,-1.096687912940979
1788862027154324000,8.898323974609376,-0.12291447073221207,-0.01215964462608099,-1.1315499544143677
1788862027164366000,8.908365966796875,-0.16138285398483276,-0.19837263226509094,-1.2176284790039062
1788862027174407000,8.918406982421875,-0.19900479912757874,-0.3073824644088745,-1.277050256729126
1788862027184449000,8.928448974609376,-0.20962423086166382,-0.3251786530017853,-1.2885679006576538
1788862027194489900,8.93848974609375,-0.18810614943504333,-0.29710280895233154,-1.266875147819519
1788862027204531000,8.948531005859374,-0.15256386995315552,-0.2684405446052551,-1.2462241649627686
1788862027214572800,8.95857275390625,-0.11982589215040207,-0.261318176984787,-1.2436169385910034
1788862027224614000,8.96861376953125,-0.09002618491649628,-0.31244608759880066,-1.296013593673706
1788862027234656000,8.978656005859374,-0.04453673213720322,-0.42213502526283264,-1.3756940364837646
1788862027244697000,8.988697021484375,0.010490121319890022,-0.549156665802002,-1.4776976108551025
1788862027254739000,8.998739013671875,0.08246205002069473,-0.5957385897636414,-1.5184319019317627
1788862027264780000,9.008780029296876,0.1503218561410904,-0.5123528838157654,-1.4807084798812866
1788862027274821000,9.018821044921875,0.2180234044790268,-0.34291937947273254,-1.4197226762771606
1788862027284863000,9.028863037109375,0.28439271450042725,-0.2652508020401001,-1.4050781726837158
1788862027294904000,9.038904052734376,0.31625211238861084,-0.3868565857410431,-1.4196691513061523
1788862027304946000,9.04894580078125,0.2982039451599121,-0.5776205062866211,-1.4251610040664673
1788862027314987000,9.058987060546874,0.2322872430086136,-0.6661346554756165,-1.4265751838684082
1788862027325028900,9.06902880859375,0.1416173130273819,-0.6355462074279785,-1.4121347665786743
1788862027335070000,9.079070068359375,0.06134111434221268,-0.5514262318611145,-1.413271427154541
1788862027345110800,9.08911083984375,0.014456835575401783,-0.5582265853881836,-1.4254570007324219
1788862027355153200,9.099153076171875,0.019135208800435066,-0.6959202885627747,-1.465029239654541
1788862027365194000,9.109194091796875,0.04635035991668701,-0.7865918278694153,-1.509824514389038
1788862027375236000,9.119236083984376,0.08607114106416702,-0.7565023899078369,-1.5478712320327759
1788862027385277000,9.12927685546875,0.1431765854358673,-0.5456389784812927,-1.5391961336135864
1788862027395319000,9.139319091796875,0.21641644835472107,-0.2519892752170563,-1.4654921293258667
1788862027405359900,9.14935986328125,0.24027809500694275,-0.1939302235841751,-1.4226154088974
1788862027415402000,9.159402099609375,0.2653205692768097,-0.15570001304149628,-1.4052046537399292
1788862027425442800,9.16944287109375,0.28675663471221924,-0.11189812421798706,-1.413474202156067
1788862027435484000,9.17948388671875,0.32525795698165894,-0.17380571365356445,-1.3966641426086426
1788862027445526000,9.189526123046875,0.3255465030670166,-0.2242325246334076,-1.3196269273757935
1788862027455567000,9.199567138671876,0.27172401547431946,-0.2032095193862915,-1.2315958738327026
1788862027465609000,9.20960888671875,0.1779356151819229,-0.26168176531791687,-1.1777291297912598
1788862027475650000,9.219650146484375,0.058331456035375595,-0.4745735228061676,-1.1303077936172485
1788862027485692000,9.22969189453125,-0.07648900896310806,-0.6082080006599426,-1.100304365158081
1788862027495733000,9.23973291015625,-0.16144810616970062,-0.5442026257514954,-1.0892724990844727
1788862027505774000,9.249774169921874,-0.187765434384346,-0.4027121067047119,-1.0562597513198853
1788862027515816000,9.25981591796875,-0.16212745010852814,-0.2864917814731598,-0.99881911277771
1788862027525857000,9.26985693359375,-0.09333013743162155,-0.24223840236663818,-0.9457505345344543
1788862027535899000,9.27989892578125,-0.037504423409700394,-0.14288118481636047,-0.8978937864303589
1788862027545940000,9.28993994140625,-0.015943754464387894,-0.04216541349887848,-0.8399999141693115
1788862027555982000,9.299982177734375,-0.025821419432759285,0.020022058859467506,-0.7510173320770264
1788862027566023200,9.310023193359376,-0.06010124832391739,0.08786854147911072,-0.6276051998138428
1788862027576064000,9.32006396484375,-0.06373992562294006,0.18825480341911316,-0.5549182295799255
1788862027586106000,9.330106201171875,-0.04386618360877037,0.29058369994163513,-0.45532649755477905
1788862027596147000,9.34014697265625,0.01336141861975193,0.267322838306427,-0.38054442405700684
1788862027606189000,9.35018896484375,0.0288220327347517,0.23884552717208862,-0.2894703149795532
1788862027616230000,9.36022998046875,0.018916139379143715,0.3125109374523163,-0.17048585414886475
1788862027626272000,9.37027197265625,-0.02581220120191574,0.2733180820941925,-0.016280876472592354
1788862027636313000,9.38031298828125,-0.07915531098842621,0.26549503207206726,0.15976844727993011
1788862027646355000,9.39035498046875,-0.1291092187166214,0.3082634508609772,0.3203062415122986
1788862027656396000,9.40039599609375,-0.17754599452018738,0.35964301228523254,0.49361997842788696
1788862027666436900,9.410436767578124,-0.20394116640090942,0.39998993277549744,0.61384516954422
1788862027676479000,9.42047900390625,-0.21075433492660522,0.3781765103340149,0.6885923743247986
1788862027686520000,9.43052001953125,-0.2369098961353302,0.3191351592540741,0.7404851913452148
1788862027696562200,9.440562255859374,-0.28502070903778076,0.355012983083725,0.8324606418609619
1788862027706603000,9.45060302734375,-0.28966838121414185,0.36467331647872925,0.924805760383606
1788862027716645000,9.46064501953125,-0.24912390112876892,0.3297709822654724,0.9954721927642822
1788862027726686000,9.47068603515625,-0.22657158970832825,0.30014854669570923,1.099053144454956
1788862027736728000,9.48072802734375,-0.2491472065448761,0.3849760591983795,1.247145414352417
1788862027746769000,9.490768798828125,-0.2514398396015167,0.5200469493865967,1.3453469276428223
1788862027756810000,9.50081005859375,-0.21509674191474915,0.5090675354003906,1.3864951133728027
1788862027766851800,9.510851806640625,-0.17536358535289764,0.4505580961704254,1.432576298713684
1788862027776893000,9.520892822265624,-0.14668214321136475,0.4638403654098511,1.5018455982208252
1788862027786935000,9.53093505859375,-0.14891929924488068,0.5420001745223999,1.587885856628418
1788862027796976000,9.54097607421875,-0.16825757920742035,0.5505989789962769,1.6216284036636353
1788862027807018000,9.55101806640625,-0.2175171673297882,0.4923420548439026,1.6170015335083008
1788862027817059000,9.56105908203125,-0.2649211883544922,0.4068641662597656,1.6401406526565552
1788862027827100200,9.57110009765625,-0.3060488998889923,0.3671998381614685,1.6390204429626465
1788862027837142000,9.58114208984375,-0.31590738892555237,0.37587615847587585,1.6180942058563232
1788862027847183000,9.59118310546875,-0.2980841398239136,0.35987550020217896,1.6070566177368164
1788862027857225000,9.601224853515625,-0.27804839611053467,0.3158915340900421,1.6241098642349243
1788862027867266000,9.61126611328125,-0.25822749733924866,0.29839134216308594,1.6675835847854614
1788862027877308000,9.621307861328125,-0.24031800031661987,0.3160102963447571,1.721728801727295
1788862027887349200,9.631349365234374,-0.22693103551864624,0.3631580173969269,1.7778056859970093
1788862027897391000,9.64139111328125,-0.20894190669059753,0.41345152258872986,1.8483200073242188
1788862027907432200,9.65143212890625,-0.1933799833059311,0.48951467871665955,1.9350849390029907
1788862027917473000,9.66147314453125,-0.16675317287445068,0.5802451372146606,2.0039784908294678
1788862027927515100,9.67151513671875,-0.11975765228271484,0.6373636722564697,2.0225183963775635
1788862027937556000,9.681555908203125,-0.07500908523797989,0.6153332591056824,2.0161335468292236
1788862027947598000,9.69159814453125,-0.029141027480363846,0.5583539605140686,1.9879754781723022
1788862027957639000,9.701638916015625,0.0036962798330932856,0.4753890335559845,1.990984320640564
1788862027967681000,9.711680908203125,0.041912950575351715,0.3838351368904114,2.0129616260528564
1788862027977721900,9.721721923828126,0.08101587742567062,0.32046493887901306,2.0284574031829834
1788862027987764200,9.73176416015625,0.11612097173929214,0.2667134404182434,2.0260250568389893
1788862027997805000,9.74180517578125,0.1533074826002121,0.20971062779426575,1.9923322200775146
1788862028007846100,9.75184619140625,0.20024436712265015,0.15186667442321777,1.9016978740692139
1788862028017888000,9.761887939453125,0.23030932247638702,0.0802777111530304,1.781782865524292
1788862028027929000,9.77192919921875,0.25180599093437195,0.01282955426722765,1.6650886535644531
1788862028037971200,9.78197119140625,0.27039194107055664,-0.005495924036949873,1.5991528034210205
1788862028048012300,9.79201220703125,0.28567346930503845,0.06892634928226471,1.6129359006881714
1788862028058054100,9.80205419921875,0.324408620595932,0.26884931325912476,1.6554932594299316
1788862028068095200,9.81209521484375,0.4046754837036133,0.48310354351997375,1.6683297157287598
1788862028078136300,9.82213623046875,0.4837284982204437,0.5752649307250977,1.6450201272964478
1788862028088178200,9.83217822265625,0.5272567868232727,0.5442290306091309,1.5540359020233154
1788862028098219300,9.84221923828125,0.5237496495246887,0.4631515145301819,1.4077346324920654
1788862028108261400,9.852261474609374,0.49598249793052673,0.39596572518348694,1.234511375427246
1788862028118302500,9.862302490234375,0.4824880063533783,0.34461572766304016,1.1611257791519165
1788862028128344300,9.87234423828125,0.4976780414581299,0.3669384717941284,1.1326630115509033
1788862028138385400,9.882385498046874,0.5517604351043701,0.45062723755836487,1.0925371646881104
1788862028148427300,9.89242724609375,0.5987971425056458,0.5042652487754822,1.120294213294983
1788862028158468400,9.90246826171875,0.6306501030921936,0.4530569612979889,1.239000678062439
1788862028168510200,9.91251025390625,0.6487091779708862,0.31565678119659424,1.363703966140747
1788862028178551300,9.92255126953125,0.6537724137306213,0.17335768043994904,1.4257071018218994
1788862028188592000,9.932592041015624,0.6223817467689514,0.09192194789648056,1.3943647146224976
1788862028198634200,9.94263427734375,0.5509362816810608,0.053039003163576126,1.2945650815963745
1788862028208675000,9.952675048828125,0.4698808491230011,0.02309788018465042,1.1596813201904297
1788862028218717400,9.962717529296874,0.38862594962120056,-0.029707543551921844,1.047651767730713
1788862028228758300,9.97275830078125,0.29426488280296326,-0.06775667518377304,0.9709286689758301
1788862028238800400,9.98280029296875,0.19983451068401337,-0.08435482531785965,0.9209046959877014
1788862028248841200,9.99284130859375,0.12592965364456177,-0.06412918120622635,0.8678656816482544
1788862028258882300,10.00288232421875,0.09349635243415833,-0.0029611680656671524,0.7780388593673706
1788862028268924200,10.012924072265625,0.08952387422323227,0.05135031417012215,0.6403396725654602
1788862028278965200,10.02296533203125,0.07362000644207001,0.08683933317661285,0.465330570936203
1788862028289007000,10.033007080078125,0.09374306350946426,0.011172108352184296,0.2732144296169281
1788862028299048200,10.043048095703124,0.1668068915605545,-0.17885002493858337,0.07936375588178635
1788862028309090300,10.05309033203125,0.16645318269729614,-0.23111286759376526,-0.08400106430053711
1788862028319131400,10.06313134765625,0.09109397977590561,-0.102366603910923,-0.19305165112018585
1788862028329173200,10.07317333984375,0.0448065921664238,0.0057661887258291245,-0.27910688519477844
1788862028339214300,10.08321435546875,0.01476533617824316,0.0022532129660248756,-0.3645312488079071
1788862028349255400,10.09325537109375,-0.017008263617753983,-0.06789979338645935,-0.4450168311595917
1788862028359297300,10.10329736328125,-0.056745823472738266,-0.08218897879123688,-0.49585896730422974
1788862028369338400,10.11333837890625,-0.08439113944768906,-0.0828314870595932,-0.542194128036499
1788862028379380200,10.123380126953125,-0.08949961513280869,-0.1298687607049942,-0.5981079936027527
1788862028389421300,10.13342138671875,-0.1202702596783638,-0.1330816149711609,-0.6928558945655823
1788862028399463200,10.143463134765625,-0.17259551584720612,-0.038367629051208496,-0.7771483659744263
1788862028409504300,10.153504150390624,-0.18125759065151215,0.01581532135605812,-0.80509352684021
1788862028419546400,10.16354638671875,-0.1491292119026184,0.004720059223473072,-0.7924695611000061
1788862028429587500,10.17358740234375,-0.10251735895872116,-0.056462209671735764,-0.7859573364257812
1788862028439628300,10.183628173828126,-0.07904532551765442,-0.0856507197022438,-0.7901906967163086
1788862028449670400,10.19367041015625,-0.08737397938966751,-0.018735280260443687,-0.7832468748092651
1788862028459711200,10.203711181640625,-0.11013814806938171,0.12758012115955353,-0.7461322546005249
1788862028469753300,10.21375341796875,-0.1289111226797104,0.2813991904258728,-0.6806784272193909
1788862028479794200,10.223794189453125,-0.1574186533689499,0.4069075584411621,-0.6037330031394958
1788862028489836300,10.233836181640624,-0.19795870780944824,0.49942082166671753,-0.568300187587738
1788862028499877000,10.243877197265626,-0.2031811624765396,0.49793291091918945,-0.5948255658149719
1788862028509919200,10.253919189453125,-0.16140425205230713,0.3926558196544647,-0.6645891070365906
1788862028519960000,10.2639599609375,-0.11429747194051743,0.2695525288581848,-0.7207024693489075
1788862028530001200,10.274001220703125,-0.07702759653329849,0.20466698706150055,-0.7741025686264038
1788862028540043300,10.284043212890625,-0.05492522194981575,0.22910335659980774,-0.8204226493835449
1788862028550084400,10.29408447265625,-0.036496926099061966,0.31526196002960205,-0.845307469367981
1788862028560126200,10.304126220703125,-0.039499904960393906,0.3732309639453888,-0.8640145659446716
1788862028570167300,10.314167236328124,-0.020151237025856972,0.39055758714675903,-0.8648920059204102
1788862028580209200,10.324209228515626,-0.02988535724580288,0.40412211418151855,-0.8772229552268982
1788862028590250200,10.334250244140625,-0.09496351331472397,0.4426007568836212,-0.9310171008110046
1788862028600292000,10.3442919921875,-0.14336566627025604,0.4881650507450104,-1.0013741254806519
1788862028610333200,10.354333251953125,-0.1573130190372467,0.47173717617988586,-1.0792286396026611
1788862028620374300,10.364374267578125,-0.14859941601753235,0.40555229783058167,-1.1293522119522095
1788862028630416100,10.374416015625,-0.1319410353899002,0.34965118765830994,-1.1232587099075317
1788862028640457200,10.384457275390625,-0.11302459985017776,0.3068094551563263,-1.074544906616211
1788862028650499300,10.394499267578125,-0.09570835530757904,0.2593410015106201,-1.0427676439285278
1788862028660540400,10.40454052734375,-0.047467056661844254,0.1899336725473404,-1.0491642951965332
1788862028670582300,10.414582275390625,0.03165228292346001,0.09174203872680664,-1.067134976387024
1788862028680623400,10.424623291015624,0.1235840693116188,-0.01970352604985237,-1.0726157426834106
1788862028690665200,10.434665283203126,0.1835189163684845,-0.059696536511182785,-1.0764631032943726
1788862028700706300,10.444706298828125,0.22382612526416779,-0.04309971630573273,-1.0795193910598755
1788862028710747100,10.4547470703125,0.21967504918575287,-0.006004895083606243,-1.107490062713623
1788862028720789200,10.464789306640625,0.19846190512180328,0.01799285039305687,-1.1797022819519043
1788862028730830000,10.474830078125,0.16659966111183167,-0.06536438316106796,-1.300858736038208
1788862028740872200,10.4848720703125,0.12676328420639038,-0.17688877880573273,-1.4064877033233643
1788862028750913000,10.4949130859375,0.08559525012969971,-0.2085895985364914,-1.4604666233062744
1788862028760955400,10.504955322265625,0.05396381765604019,-0.16552947461605072,-1.453162431716919
1788862028770996200,10.514996337890626,0.02741605043411255,-0.15581005811691284,-1.4159822463989258
1788862028781038300,10.525038330078125,-0.010987000539898872,-0.20508626103401184,-1.3934428691864014
1788862028791079200,10.5350791015625,-0.05517060309648514,-0.3386393189430237,-1.385224461555481
1788862028801120300,10.545120361328125,-0.08555753529071808,-0.4358002245426178,-1.4049522876739502
1788862028811162000,10.555162109375,-0.09281070530414581,-0.42200520634651184,-1.49164617061615
1788862028821203200,10.565203125,-0.07551907002925873,-0.3744901716709137,-1.6187626123428345
1788862028831245000,10.5752451171875,-0.03700992837548256,-0.46603670716285706,-1.7311009168624878
1788862028841286100,10.5852861328125,0.025847062468528748,-0.649816632270813,-1.8020483255386353
1788862028851328300,10.595328369140624,0.12678778171539307,-0.797687292098999,-1.7918604612350464
1788862028861369300,10.605369384765625,0.2159823775291443,-0.7010675668716431,-1.7103242874145508
1788862028871411200,10.6154111328125,0.27975940704345703,-0.36987337470054626,-1.607178807258606
1788862028881452300,10.625452392578126,0.3329960107803345,-0.19114252924919128,-1.5091896057128906
1788862028891493400,10.635493408203125,0.3761933743953705,-0.3229357600212097,-1.4550395011901855
1788862028901535200,10.64553515625,0.38389310240745544,-0.5762025713920593,-1.420696496963501
1788862028911576300,10.655576416015625,0.3528732657432556,-0.7799577116966248,-1.410459280014038
1788862028921618200,10.6656181640625,0.29859352111816406,-0.795028805732727,-1.4390400648117065
1788862028931659300,10.6756591796875,0.24346044659614563,-0.7060952186584473,-1.4837672710418701
1788862028941701000,10.685701171875,0.22221136093139648,-0.6852408051490784,-1.5365082025527954
1788862028951742200,10.6957421875,0.22248901426792145,-0.796416699886322,-1.619399905204773
1788862028961784300,10.705784423828124,0.219999760389328,-0.8554304838180542,-1.6587209701538086
1788862028971825400,10.715825439453125,0.19785305857658386,-0.8265473246574402,-1.6498193740844727
1788862028981867300,10.7258671875,0.1552206426858902,-0.6828737854957581,-1.6387680768966675
1788862028991908400,10.735908447265626,0.12244115024805069,-0.5414336323738098,-1.6016815900802612
1788862029001949200,10.74594921875,0.12044404447078705,-0.4543285369873047,-1.5624194145202637
1788862029011991300,10.7559912109375,0.10920733958482742,-0.3149879276752472,-1.5649206638336182
1788862029022032400,10.766032470703125,0.0962233617901802,-0.1470378041267395,-1.5976765155792236
1788862029032074200,10.77607421875,0.04096778854727745,-0.0642138347029686,-1.5608478784561157
1788862029042114800,10.78611474609375,0.0022784501779824495,-0.09476854652166367,-1.5111018419265747
1788862029052156700,10.79615673828125,-0.02552316151559353,-0.17696522176265717,-1.375664472579956
1788862029062197800,10.80619775390625,-0.03311849758028984,-0.15937398374080658,-1.2131439447402954
1788862029072239600,10.816239501953126,-0.05442126467823982,-0.10152358561754227,-1.0963764190673828
1788862029082280700,10.82628076171875,-0.11427608132362366,-0.09124991297721863,-1.0355031490325928
1788862029092321500,10.836321533203124,-0.1820615530014038,-0.15254972875118256,-1.004393219947815
1788862029102363600,10.84636376953125,-0.21043673157691956,-0.14615735411643982,-0.8791390657424927
1788862029112404500,10.856404541015625,-0.25418150424957275,0.03091878443956375,-0.7335169315338135
1788862029122446800,10.86644677734375,-0.2857740521430969,0.12232299149036407,-0.6324238777160645
1788862029132487700,10.87648779296875,-0.28327301144599915,0.03020423650741577,-0.518814742565155
1788862029142529800,10.88652978515625,-0.2701987624168396,-0.01662692055106163,-0.39710724353790283
1788862029152570600,10.896570556640626,-0.24815493822097778,0.07323823869228363,-0.21895967423915863
1788862029162612700,10.90661279296875,-0.2221536785364151,0.20040524005889893,-0.06524388492107391
1788862029172653600,10.916653564453124,-0.19727912545204163,0.21626532077789307,0.028871025890111923
1788862029182694700,10.926694580078125,-0.16761577129364014,0.18107137084007263,0.105119988322258
1788862029192736500,10.936736572265625,-0.18075084686279297,0.18977151811122894,0.2079082876443863
1788862029202777600,10.946777587890624,-0.22310151159763336,0.20962777733802795,0.33828920125961304
1788862029212819500,10.9568193359375,-0.2515883147716522,0.19214358925819397,0.4713185131549835
1788862029222860500,10.966860595703125,-0.22918498516082764,0.19350847601890564,0.5883564352989197
1788862029232902700,10.976902587890624,-0.20712941884994507,0.18130822479724884,0.6679913997650146
1788862029242943700,10.98694384765625,-0.22437205910682678,0.16126367449760437,0.7420467138290405
1788862029252985600,10.996985595703125,-0.24688845872879028,0.15945127606391907,0.8095664978027344
1788862029263026700,11.007026611328126,-0.24697020649909973,0.13589084148406982,0.8979669213294983
1788862029273067800,11.01706787109375,-0.23982684314250946,0.09340038150548935,0.97566819190979
1788862029283109600,11.027109619140624,-0.24135497212409973,0.07221733033657074,1.0462815761566162
1788862029293150700,11.037150634765625,-0.24248825013637543,0.06767942756414413,1.1256657838821411
1788862029303192600,11.047192626953125,-0.22620755434036255,0.09830044955015182,1.2443746328353882
1788862029313233700,11.057233642578124,-0.201044961810112,0.19594019651412964,1.349063754081726
1788862029323275500,11.067275634765625,-0.17821714282035828,0.28088653087615967,1.414980173110962
1788862029333316600,11.077316650390625,-0.16928677260875702,0.3028259873390198,1.472731351852417
1788862029343358700,11.087358642578126,-0.18439754843711853,0.31492578983306885,1.4982590675354004
1788862029353399800,11.09739990234375,-0.21688668429851532,0.3176097869873047,1.4639122486114502
1788862029363440600,11.107440673828124,-0.25384628772735596,0.2743496596813202,1.4382798671722412
1788862029373482800,11.117482666015626,-0.27078238129615784,0.21907876431941986,1.4632002115249634
1788862029383523600,11.127523681640625,-0.25207021832466125,0.19297446310520172,1.5281352996826172
1788862029393565700,11.137565673828124,-0.21853749454021454,0.1790393590927124,1.5861845016479492
1788862029403606500,11.1476064453125,-0.18548953533172607,0.1760193407535553,1.6499475240707397
1788862029413648600,11.157648681640625,-0.14727076888084412,0.2016213834285736,1.7539513111114502
1788862029423689700,11.167689697265626,-0.10934071242809296,0.29023778438568115,1.868407130241394
1788862029433731800,11.17773193359375,-0.08618751913309097,0.3466843068599701,1.9375571012496948
1788862029443772700,11.187772705078125,-0.08887837082147598,0.31366246938705444,1.9604400396347046
1788862029453814800,11.197814697265626,-0.10686949640512466,0.29462745785713196,1.9596883058547974
1788862029463855600,11.207855712890625,-0.13876964151859283,0.3087387681007385,1.9579026699066162
1788862029473896700,11.217896728515624,-0.16661396622657776,0.2678164839744568,1.9351015090942383
1788862029483938800,11.227938720703126,-0.17873747646808624,0.13210420310497284,1.8928853273391724
1788862029493979600,11.237979736328125,-0.25051379203796387,0.00916083063930273,1.8453723192214966
1788862029504021800,11.248021728515624,-0.3781071603298187,0.01888030394911766,1.8417613506317139
1788862029514062600,11.2580625,-0.5175710916519165,0.10088731348514557,1.9042385816574097
1788862029524104700,11.268104736328125,-0.6107542514801025,0.12493805587291718,1.9739761352539062
1788862029534145500,11.2781455078125,-0.6513823866844177,0.05983439087867737,2.006551504135132
1788862029544188000,11.28818798828125,-0.6566264033317566,-0.031637731939554214,2.0113143920898438
1788862029554228700,11.298228759765625,-0.6422034502029419,-0.07675205171108246,1.9987282752990723
1788862029564269800,11.308269775390626,-0.618515133857727,-0.11410288512706757,1.9957953691482544
1788862029574311700,11.318311767578125,-0.5548251271247864,-0.15227928757667542,1.9860374927520752
1788862029584352800,11.328352783203124,-0.485275536775589,-0.17670637369155884,1.9638421535491943
1788862029594394600,11.33839453125,-0.41695907711982727,-0.1788046807050705,1.9428070783615112
1788862029604435700,11.348435791015625,-0.3528410792350769,-0.15778808295726776,1.9352266788482666
1788862029614477600,11.3584775390625,-0.2945195436477661,-0.13370905816555023,1.9013655185699463
1788862029624518700,11.3685185546875,-0.2666516900062561,-0.15896913409233093,1.8236619234085083
1788862029634560500,11.378560546875,-0.27530500292778015,-0.24119721353054047,1.7093160152435303
1788862029644601600,11.3886015625,-0.293440580368042,-0.3031601905822754,1.5988842248916626
1788862029654643700,11.398643798828125,-0.29089564085006714,-0.2789509892463684,1.520977258682251
1788862029664684800,11.408684814453125,-0.26396816968917847,-0.13989724218845367,1.4867111444473267
1788862029674726000,11.418725830078126,-0.21555529534816742,0.04230228811502457,1.465917706489563
1788862029684767700,11.428767822265625,-0.17714612185955048,0.13799473643302917,1.417425274848938
1788862029694808800,11.438808837890624,-0.12494470924139023,0.07898786664009094,1.3429824113845825
1788862029704850700,11.4488505859375,-0.05453045666217804,-0.03170669078826904,1.2769371271133423
1788862029714891800,11.458891845703125,0.007414670195430517,-0.10247460007667542,1.2208187580108643
1788862029724933600,11.46893359375,0.04528775066137314,-0.12375619262456894,1.161647081375122
1788862029734974700,11.478974609375,0.07592616975307465,-0.10148687660694122,1.127432942390442
1788862029745015600,11.489015625,0.10706092417240143,-0.06752757728099823,1.0883207321166992
1788862029755057700,11.4990576171875,0.13953998684883118,-0.08802492171525955,1.0203981399536133
1788862029765098500,11.509098388671875,0.14062096178531647,-0.12912921607494354,0.921492874622345
1788862029775140900,11.519140869140625,0.0952790230512619,-0.15447132289409637,0.8040897250175476
1788862029785181700,11.529181640625,0.05742752179503441,-0.08512899279594421,0.6854197978973389
1788862029795223800,11.539223876953125,0.04014051705598831,0.0943421944975853,0.5691951513290405
1788862029805264600,11.5492646484375,0.03506000339984894,0.3589826226234436,0.45146504044532776
1788862029815306800,11.559306640625,0.02341792918741703,0.5882545113563538,0.3313354253768921
1788862029825347600,11.56934765625,0.048183996230363846,0.6833053827285767,0.23205196857452393
1788862029835389700,11.5793896484375,0.11756899207830429,0.6688944697380066,0.14635731279850006
1788862029845430500,11.589430419921875,0.20122075080871582,0.5550416707992554,0.06659483909606934
1788862029855471600,11.5994716796875,0.2546672523021698,0.4064626395702362,-0.026787951588630676
1788862029865513500,11.609513427734376,0.2583080530166626,0.26386553049087524,-0.1341506391763687
1788862029875554600,11.619554443359375,0.22724995017051697,0.18213693797588348,-0.25846347212791443
1788862029885596700,11.6295966796875,0.1953554004430771,0.20224539935588837,-0.39429667592048645
1788862029895637800,11.6396376953125,0.18339700996875763,0.31059718132019043,-0.5314220190048218
1788862029905679600,11.6496796875,0.19716182351112366,0.4381471574306488,-0.6509303450584412
1788862029915720700,11.659720703125,0.21387562155723572,0.5307042598724365,-0.723503053188324
1788862029925762600,11.669762451171875,0.22015349566936493,0.5870673656463623,-0.731959879398346
1788862029935803600,11.6798037109375,0.21533161401748657,0.6047828793525696,-0.6956502795219421
1788862029945844700,11.6898447265625,0.22736138105392456,0.5441038012504578,-0.6458179950714111
1788862029955886600,11.699886474609375,0.26339197158813477,0.39431729912757874,-0.5846863985061646
1788862029965927700,11.709927734375,0.2955128848552704,0.2277003675699234,-0.539148211479187
1788862029975969800,11.7199697265625,0.28570300340652466,0.1734841912984848,-0.5102818012237549
1788862029986011000,11.730010986328125,0.2674182653427124,0.22046209871768951,-0.5176444053649902
1788862029996052700,11.740052734375,0.2715034782886505,0.25176313519477844,-0.5557474493980408
1788862030006093800,11.75009375,0.26413530111312866,0.2779683768749237,-0.6011950969696045
1788862030016135700,11.7601357421875,0.25116923451423645,0.3338293135166168,-0.6344984769821167
1788862030026176800,11.7701767578125,0.2515340745449066,0.3861979842185974,-0.6507182121276855
1788862030036217600,11.780217529296875,0.2601710855960846,0.4417724311351776,-0.6840061545372009
1788862030046260500,11.790260498046875,0.26932570338249207,0.47987082600593567,-0.7556787133216858
1788862030056301600,11.800301513671876,0.29902946949005127,0.41050660610198975,-0.878238320350647
1788862030066343400,11.810343505859375,0.3381422460079193,0.23902860283851624,-1.0050545930862427
1788862030076384500,11.820384521484375,0.35724496841430664,0.055471934378147125,-1.058184266090393
1788862030086426600,11.830426513671876,0.3231021761894226,-0.03974725678563118,-1.0295822620391846
1788862030096467500,11.840467529296875,0.2615104615688324,-0.012711291201412678,-0.9923046231269836
1788862030106509600,11.850509521484375,0.18804369866847992,0.11022341996431351,-0.9965217113494873
1788862030116550400,11.86055029296875,0.11905123293399811,0.2783390283584595,-1.0198230743408203
1788862030126591500,11.870591552734375,0.054153721779584885,0.3912735879421234,-1.0376667976379395
1788862030136633300,11.88063330078125,0.006173674948513508,0.4142794907093048,-1.0588048696517944
1788862030146674400,11.89067431640625,-0.021603360772132874,0.35767239332199097,-1.0782182216644287
1788862030156716500,11.900716552734375,-0.015840856358408928,0.18793050944805145,-1.122422695159912
1788862030166757600,11.910757568359376,0.03162599727511406,-0.044784486293792725,-1.2203506231307983
1788862030176799500,11.920799560546875,0.1047026664018631,-0.22948138415813446,-1.3285518884658813
1788862030186840600,11.930840576171875,0.1738300621509552,-0.28751593828201294,-1.3809669017791748
1788862030196881400,11.94088134765625,0.22869868576526642,-0.2688851058483124,-1.3647518157958984
1788862030206923500,11.950923583984375,0.24452024698257446,-0.2711551785469055,-1.3114914894104004
1788862030216964600,11.960964599609374,0.2122119963169098,-0.23416772484779358,-1.28507661819458
1788862030227006500,11.97100634765625,0.1661401093006134,-0.12830814719200134,-1.3137370347976685
1788862030237047600,11.981047607421875,0.14541569352149963,0.016737453639507294,-1.3570636510849
1788862030247089700,11.991089599609374,0.15777675807476044,0.01071870792657137,-1.3712495565414429
1788862030257130500,12.001130615234375,0.1558264195919037,-0.1569003313779831,-1.4460018873214722
1788862030267172600,12.011172607421875,0.15080715715885162,-0.346223920583725,-1.5283678770065308
1788862030277213700,12.021213623046876,0.1401333212852478,-0.44650185108184814,-1.5400882959365845
1788862030287254500,12.031254638671875,0.11533795297145844,-0.521453320980072,-1.4988524913787842
1788862030297296600,12.041296630859375,0.1101628988981247,-0.624269962310791,-1.4598160982131958
1788862030307337500,12.05133740234375,0.09656799584627151,-0.7600739002227783,-1.4767274856567383
1788862030317379600,12.061379638671875,0.05617816746234894,-0.8568307757377625,-1.544119954109192
1788862030327420400,12.07142041015625,0.006076117977499962,-0.9014453887939453,-1.586616039276123
1788862030337462500,12.081462646484376,-0.03009391389787197,-0.8613831400871277,-1.5814058780670166
1788862030347503400,12.09150341796875,-0.044192418456077576,-0.7497376203536987,-1.5782015323638916
1788862030357545700,12.101545654296874,-0.05346161499619484,-0.6682055592536926,-1.6395055055618286
1788862030367586600,12.111586669921875,-0.051865581423044205,-0.689924955368042,-1.7531157732009888
1788862030377627600,12.121627685546875,-0.021285975351929665,-0.6794112324714661,-1.8246264457702637
1788862030387669500,12.13166943359375,0.025034118443727493,-0.5270446538925171,-1.7949124574661255
1788862030397710600,12.141710693359375,0.08187845349311829,-0.3238603174686432,-1.7312700748443604
1788862030407752400,12.15175244140625,0.12922225892543793,-0.2279082089662552,-1.7012163400650024
1788862030417793500,12.16179345703125,0.1707000732421875,-0.21437948942184448,-1.6588722467422485
1788862030427835400,12.17183544921875,0.1995309293270111,-0.20218300819396973,-1.6309608221054077
1788862030437876500,12.18187646484375,0.2090182900428772,-0.215629443526268,-1.6496844291687012
1788862030447917600,12.19191748046875,0.20821215212345123,-0.22933140397071838,-1.6733242273330688
1788862030457959400,12.20195947265625,0.17266154289245605,-0.1924801617860794,-1.6943339109420776
1788862030468000500,12.21200048828125,0.11742173135280609,-0.1764173060655594,-1.7345263957977295
1788862030478042600,12.222042724609375,0.09035675972700119,-0.27038320899009705,-1.777616024017334
1788862030488083700,12.232083740234375,0.08449913561344147,-0.44055572152137756,-1.7684286832809448
1788862030498125600,12.24212548828125,0.0776611864566803,-0.5524001121520996,-1.7263845205307007
1788862030508166700,12.252166748046875,0.045032940804958344,-0.5681135654449463,-1.6777379512786865
1788862030518208500,12.26220849609375,-0.01009275857359171,-0.4913780093193054,-1.6203010082244873
1788862030528249600,12.27224951171875,-0.052233289927244186,-0.31913942098617554,-1.5864096879959106
1788862030538290400,12.28229052734375,-0.0736389309167862,-0.24218551814556122,-1.4815677404403687
1788862030548332500,12.29233251953125,-0.12280994653701782,-0.24694564938545227,-1.3598082065582275
1788862030558373400,12.302373291015625,-0.15930575132369995,-0.2691325843334198,-1.2007945775985718
1788862030568415500,12.31241552734375,-0.18696534633636475,-0.25492194294929504,-1.0432939529418945
1788862030578456300,12.322456298828126,-0.20903947949409485,-0.17762060463428497,-0.9032605886459351
1788862030588498700,12.332498779296875,-0.22765125334262848,-0.05860419571399689,-0.8152673244476318
1788862030598539500,12.34253955078125,-0.23420289158821106,0.04568341374397278,-0.7562919855117798
1788862030608580600,12.35258056640625,-0.20844666659832,0.12468049675226212,-0.6526675820350647
1788862030618622500,12.36262255859375,-0.19444236159324646,0.1741454005241394,-0.4811285436153412
1788862030628663600,12.37266357421875,-0.2105102688074112,0.22744058072566986,-0.3718872666358948
1788862030638705400,12.382705322265625,-0.2385740429162979,0.2939334511756897,-0.23791174590587616
1788862030648746500,12.39274658203125,-0.2560094892978668,0.342733234167099,-0.058749984949827194
1788862030658788400,12.402788330078126,-0.2493303269147873,0.3776431977748871,0.08957328647375107
1788862030668829400,12.412829345703125,-0.20050153136253357,0.2905658185482025,0.21130557358264923
1788862030678871300,12.422871337890625,-0.15698100626468658,0.20296567678451538,0.36607712507247925
1788862030688912600,12.43291259765625,-0.16942009329795837,0.27296072244644165,0.5535923838615417
1788862030698953700,12.44295361328125,-0.20145216584205627,0.40968987345695496,0.7079485058784485
