time,seconds_elapsed,z,y,x
1788861658390381000,0.045381103515625,-0.058552853763103485,0.17020316421985626,0.8789262175559998
1788861658400388000,0.05538818359375,-0.0629291906952858,0.39362967014312744,0.8876085877418518
1788861658410393900,0.065393798828125,-0.09247935563325882,0.5338975787162781,0.8753785490989685
1788861658420400000,0.075400146484375,-0.12203899770975113,0.5800114870071411,0.8918231129646301
1788861658430407200,0.0854072265625,-0.17583884298801422,0.5623201131820679,0.9901741743087769
1788861658440413000,0.095412841796875,-0.23525448143482208,0.5205529928207397,1.1768648624420166
1788861658450419000,0.1054189453125,-0.2837434709072113,0.3701448440551758,1.4329276084899902
1788861658460425200,0.11542529296875,-0.36873099207878113,0.04252542182803154,1.702542781829834
1788861658470432000,0.125431884765625,-0.4368908703327179,-0.23659862577915192,1.9106427431106567
1788861658480438000,0.13543798828125,-0.4523354470729828,-0.29721134901046753,1.9498566389083862
1788861658490444000,0.145444091796875,-0.4467441439628601,-0.34082460403442383,1.774368166923523
1788861658500451000,0.155451171875,-0.36108624935150146,-0.2761136293411255,1.4480797052383423
1788861658510457000,0.16545703125,-0.16916075348854065,-0.044994644820690155,1.0064541101455688
1788861658520463000,0.175463134765625,0.005701652728021145,-0.08029372990131378,0.521684467792511
1788861658530468900,0.18546875,0.11285793036222458,-0.11871515214443207,0.1069042831659317
1788861658540476200,0.19547607421875,0.14539586007595062,-0.23736320436000824,-0.19004178047180176
1788861658550482000,0.20548193359375,0.07300474494695663,-0.4457382559776306,-0.382338285446167
1788861658560488000,0.215488037109375,0.011002522893249989,-0.6526514291763306,-0.4680137038230896
1788861658570495200,0.2254951171875,0.026597995311021805,-0.7645034193992615,-0.45687583088874817
1788861658580501000,0.2355009765625,0.13181860744953156,-0.7452344298362732,-0.3679604232311249
1788861658590507000,0.245507080078125,0.25633254647254944,-0.5621677041053772,-0.22571326792240143
1788861658600514000,0.25551416015625,0.30549824237823486,-0.20841649174690247,-0.010640791617333889
1788861658610520000,0.26552001953125,0.26046499609947205,0.4382728040218353,0.3053358197212219
1788861658620526000,0.275526123046875,0.2359413504600525,1.0692020654678345,0.6393565535545349
1788861658630532000,0.285531982421875,0.2778054475784302,1.3096774816513062,0.87994784116745
1788861658640539100,0.2955390625,0.3978733420372009,1.0165443420410156,0.8835159540176392
1788861658650545200,0.305545166015625,0.5792282223701477,0.36297690868377686,0.656970202922821
1788861658660551200,0.31555126953125,0.8603246808052063,-0.44147422909736633,0.41697391867637634
1788861658670558000,0.325557861328125,1.1663333177566528,-1.016703486442566,0.27698034048080444
1788861658680564200,0.335564208984375,1.4519857168197632,-1.265371322631836,0.2893286347389221
1788861658690570200,0.3455703125,1.5425801277160645,-1.2438749074935913,0.48569256067276
1788861658700577000,0.355576904296875,1.4041485786437988,-1.292855143547058,0.7856991291046143
1788861658710583000,0.3655830078125,1.1673924922943115,-1.4852778911590576,1.0373579263687134
1788861658720589000,0.375589111328125,0.9959025979042053,-1.564137578010559,1.119916319847107
1788861658730595000,0.385594970703125,0.9899893403053284,-1.4303160905838013,0.9762867093086243
1788861658740602000,0.39560205078125,1.1894925832748413,-1.090155839920044,0.6110860705375671
1788861658750608000,0.40560791015625,1.385041356086731,-0.6022264361381531,0.17101627588272095
1788861658760614100,0.4156142578125,1.38539457321167,-0.18769392371177673,-0.22149311006069183
1788861658770621200,0.42562109375,1.233501672744751,-0.04933791235089302,-0.45368799567222595
1788861658780627000,0.435626953125,1.1580111980438232,-0.036007191985845566,-0.5179532766342163
1788861658790633000,0.445633056640625,1.2010563611984253,-0.13727521896362305,-0.45215508341789246
1788861658800640000,0.455639892578125,1.2415592670440674,-0.4065837264060974,-0.3141407072544098
1788861658810646000,0.46564599609375,1.243816614151001,-0.6992288827896118,-0.12761345505714417
1788861658820652000,0.475652099609375,1.2459839582443237,-1.0376849174499512,0.0290239118039608
1788861658830658000,0.485657958984375,1.2507014274597168,-1.6085692644119263,0.0758896917104721
1788861658840665000,0.4956650390625,1.178673267364502,-1.9953433275222778,-0.01854289509356022
1788861658850671000,0.505671142578125,1.1338239908218384,-2.267979383468628,-0.20037047564983368
1788861658860677000,0.515677001953125,1.1397101879119873,-2.5698256492614746,-0.39353540539741516
1788861658870684200,0.52568408203125,1.165239691734314,-2.93239688873291,-0.5730388760566711
1788861658880690200,0.535690185546875,1.2963860034942627,-3.2152938842773438,-0.7175136804580688
1788861658890696400,0.545696533203125,1.659756064414978,-3.4527106285095215,-0.7320817112922668
1788861658900702500,0.555702392578125,2.098393678665161,-3.632056713104248,-0.6140488982200623
1788861658910709500,0.56570947265625,2.4388153553009033,-4.32879114151001,-0.40131378173828125
1788861658920715500,0.575715576171875,2.5366222858428955,-5.472827434539795,-0.1294497549533844
1788861658930721500,0.585721435546875,2.5203919410705566,-6.149505615234375,0.05683651193976402
1788861658940728300,0.595728271484375,2.5482678413391113,-6.025261878967285,0.020566731691360474
1788861658950734300,0.605734375,2.701031446456909,-5.151388168334961,-0.30247366428375244
1788861658960740600,0.61574072265625,2.960995674133301,-4.124693870544434,-0.8542040586471558
1788861658970747400,0.625747314453125,3.103592872619629,-3.401153326034546,-1.4941120147705078
1788861658980753400,0.63575341796875,3.036404848098755,-3.256232976913452,-2.086270570755005
1788861658990759400,0.645759521484375,2.8617701530456543,-3.847752809524536,-2.395519733428955
1788861659000765400,0.655765380859375,2.7508492469787598,-5.088891506195068,-2.220036268234253
1788861659010772500,0.6657724609375,2.816563844680786,-6.4959588050842285,-1.510464072227478
1788861659020778500,0.675778564453125,2.969075918197632,-7.579655170440674,-0.4501211941242218
1788861659030784300,0.6857841796875,3.145799160003662,-7.967911720275879,0.6853508353233337
1788861659040791600,0.69579150390625,3.282510757446289,-7.5355544090271,1.5979782342910767
1788861659050797600,0.705797607421875,3.303403615951538,-6.5600128173828125,2.1641359329223633
1788861659060803300,0.71580322265625,3.2455496788024902,-5.566154479980469,2.3079097270965576
1788861659070810600,0.725810546875,3.101017713546753,-4.802313327789307,2.119795322418213
1788861659080816400,0.73581640625,2.8007595539093018,-4.49045467376709,1.87873113155365
1788861659090822400,0.745822509765625,2.404001474380493,-4.273077011108398,1.6273784637451172
1788861659100828400,0.755828369140625,2.064572811126709,-3.876068115234375,1.4816796779632568
1788861659110835500,0.76583544921875,1.8509975671768188,-3.4472854137420654,1.4825774431228638
1788861659120841500,0.775841552734375,1.7821106910705566,-2.9541921615600586,1.5946052074432373
1788861659130847500,0.785847412109375,1.8282160758972168,-2.356907844543457,1.781368613243103
1788861659140854300,0.795854248046875,1.9425255060195923,-1.8704761266708374,1.9789525270462036
1788861659150860500,0.805860595703125,2.0300939083099365,-1.6690839529037476,1.993627667427063
1788861659160866600,0.815866455078125,2.0089378356933594,-1.946781039237976,1.8771660327911377
1788861659170872600,0.82587255859375,1.836289644241333,-2.433128833770752,1.7126744985580444
1788861659180879400,0.83587939453125,1.464061975479126,-3.503086566925049,1.0509185791015625
1788861659190885600,0.8458857421875,1.0906628370285034,-4.140200138092041,0.050298869609832764
1788861659200891400,0.855891357421875,0.6023202538490295,-4.152902126312256,-0.8313656449317932
1788861659210898400,0.8658984375,0.07758115231990814,-3.45747971534729,-1.4958847761154175
1788861659220904400,0.875904541015625,0.03131391108036041,-2.0946264266967773,-1.5744757652282715
1788861659230910500,0.885910400390625,0.27610155940055847,-0.8329115509986877,-1.2881332635879517
1788861659240917500,0.89591748046875,0.4670955538749695,-0.31016477942466736,-0.9654173851013184
1788861659250923500,0.905923583984375,0.4784509837627411,-0.5028553605079651,-0.6827300786972046
1788861659260929500,0.915929443359375,0.33204132318496704,-0.8943586945533752,-0.3526754379272461
1788861659270935600,0.925935546875,0.06478192657232285,-1.3916198015213013,0.10641010850667953
1788861659280942300,0.9359423828125,-0.19991391897201538,-1.8443667888641357,0.5888076424598694
1788861659290948400,0.9459482421875,-0.20542506873607635,-1.9004263877868652,0.8342666625976562
1788861659300954600,0.95595458984375,0.022851424291729927,-1.592032790184021,0.6540021896362305
1788861659310961400,0.96596142578125,0.3588150441646576,-1.194358468055725,0.3277045488357544
1788861659320967400,0.975967529296875,0.7423893809318542,-0.7936280965805054,0.17546066641807556
1788861659330973400,0.985973388671875,0.9753293991088867,-0.4757089614868164,0.09128107875585556
1788861659340980500,0.99598046875,0.5645400285720825,-0.2631988227367401,-0.16360235214233398
1788861659350986500,1.005986572265625,0.564281165599823,-0.2747260630130768,-0.058526527136564255
1788861659360992500,1.015992431640625,0.7422801852226257,-0.3165653645992279,-0.02647671476006508
1788861659370998300,1.025998291015625,0.8981717824935913,-0.24729867279529572,0.026925791054964066
1788861659381005600,1.036005615234375,1.0226266384124756,-0.02284081280231476,-0.02887394092977047
1788861659391011600,1.046011474609375,1.047753095626831,0.18499121069908142,-0.05167672410607338
1788861659401017300,1.056017333984375,1.0718762874603271,0.32009658217430115,-0.0208093523979187
1788861659411024600,1.066024658203125,1.1583629846572876,0.3060002028942108,0.027667369693517685
1788861659421030400,1.076030517578125,1.2178425788879395,0.3958222270011902,0.07856106013059616
1788861659431036400,1.086036376953125,1.270908236503601,0.1976899653673172,0.11658380925655365
1788861659441042400,1.09604248046875,1.3781354427337646,0.035428062081336975,0.1362396478652954
1788861659451049500,1.106049560546875,1.687208890914917,0.15504394471645355,0.28283441066741943
1788861659461055500,1.116055419921875,2.021573781967163,0.3963673412799835,0.38845521211624146
1788861659471061500,1.1260615234375,2.1501405239105225,0.1465788036584854,0.5704761147499084
1788861659481068300,1.136068359375,2.227043628692627,-0.1137818843126297,0.8776499032974243
1788861659491074600,1.146074462890625,2.544712543487549,0.17517802119255066,1.1317479610443115
1788861659501080600,1.15608056640625,2.808145523071289,1.0886225700378418,1.0626338720321655
1788861659511087400,1.16608740234375,2.800508737564087,1.8234286308288574,0.9439897537231445
1788861659521093400,1.17609326171875,2.3348782062530518,1.541103720664978,0.7687524557113647
1788861659531099600,1.186099609375,1.8470981121063232,1.2820910215377808,0.6118051409721375
1788861659541105400,1.19610546875,1.7670633792877197,1.299407720565796,0.4959980547428131
1788861659551112400,1.206112548828125,1.995074987411499,1.6147211790084839,0.4203786551952362
1788861659561118500,1.216118408203125,2.1823651790618896,1.7615519762039185,0.1710868924856186
1788861659571124500,1.22612451171875,2.5314652919769287,1.4440940618515015,-0.11144841462373734
1788861659581131500,1.236131591796875,2.461789608001709,1.0802173614501953,-0.28305527567863464
1788861659591137500,1.246137451171875,1.7403273582458496,0.6628310084342957,-0.37325653433799744
1788861659601143300,1.256143310546875,0.9607572555541992,0.6868175864219666,-0.6290348172187805
1788861659611150600,1.266150634765625,0.5214949250221252,1.241176962852478,-1.1131391525268555
1788861659621156400,1.27615625,0.2556225061416626,1.7031890153884888,-1.5708394050598145
1788861659631162400,1.286162353515625,-0.22999586164951324,1.7488614320755005,-1.7768162488937378
1788861659641168400,1.29616845703125,-0.632387638092041,1.419772744178772,-1.7307125329971313
1788861659651175400,1.306175537109375,-1.193167805671692,1.0436739921569824,-1.3803850412368774
1788861659661181400,1.316181396484375,-1.6119773387908936,0.33337268233299255,-0.8605186939239502
1788861659671187500,1.3261875,-0.8485488891601562,-0.7096929550170898,-0.005529735237360001
1788861659681194500,1.336194580078125,0.8889142274856567,-1.2352105379104614,0.8190480470657349
1788861659691200500,1.346200439453125,2.6613831520080566,-0.4738042950630188,1.404464840888977
1788861659701206500,1.35620654296875,3.8671183586120605,-0.42306625843048096,2.1663613319396973
1788861659711213300,1.36621337890625,4.333628177642822,-1.0903042554855347,2.78656268119812
1788861659721219600,1.376219482421875,4.483397960662842,-2.84233021736145,3.158543109893799
1788861659731225600,1.3862255859375,4.012143611907959,-3.9882006645202637,2.5083682537078857
1788861659741231400,1.3962314453125,3.310887336730957,-3.9931116104125977,1.535597562789917
1788861659751238700,1.40623876953125,2.6798408031463623,-2.8735921382904053,0.8694288730621338
1788861659761244400,1.416244384765625,2.064275026321411,-1.0594125986099243,0.2446206510066986
1788861659771250400,1.42625048828125,1.5980567932128906,0.1628098040819168,-0.17424052953720093
1788861659781257500,1.436257568359375,1.1787208318710327,0.19048689305782318,-0.17900028824806213
1788861659791263500,1.446263427734375,0.8192852139472961,-0.07250611484050751,0.2348000854253769
1788861659801269500,1.45626953125,0.6462350487709045,-0.808907687664032,1.2149412631988525
1788861659811276500,1.466276611328125,0.7893887758255005,-0.8200128078460693,1.5433346033096313
1788861659821282300,1.4762822265625,1.0579415559768677,-0.39471763372421265,1.0308327674865723
1788861659831288600,1.48628857421875,1.3260129690170288,0.2635020613670349,0.22569656372070312
1788861659841294600,1.496294677734375,1.4850974082946777,0.7675941586494446,-0.3999082148075104
1788861659851301400,1.50630126953125,1.4599992036819458,0.4971430003643036,-0.5608595609664917
1788861659861307400,1.516307373046875,1.1095399856567383,-0.3117094039916992,-0.20957063138484955
1788861659871313700,1.526313720703125,0.43642786145210266,-1.222247838973999,0.42012447118759155
1788861659881320400,1.536320556640625,-0.18786530196666718,-1.5626544952392578,0.8528861999511719
1788861659891326500,1.546326416015625,-0.8459219932556152,-1.951988935470581,1.2775224447250366
1788861659901332500,1.55633251953125,-0.46595391631126404,-0.09049864858388901,-0.29983028769493103
1788861659911339300,1.56633935546875,-0.7226027250289917,-0.29849666357040405,-0.13213568925857544
1788861659921345300,1.57634521484375,-1.982251763343811,-1.3374426364898682,-0.5457379817962646
1788861659931351300,1.586351318359375,-1.8859212398529053,-0.5196367502212524,-2.2454779148101807
1788861659941357300,1.596357421875,-1.874815583229065,0.3911092281341553,-2.2456607818603516
1788861659951364400,1.6063642578125,-1.9079782962799072,1.2701665163040161,-2.08341121673584
1788861659961370000,1.6163701171875,-1.848298192024231,2.151776075363159,-1.5437453985214233
1788861659971376400,1.62637646484375,-2.165489435195923,2.9357922077178955,-0.5115806460380554
1788861659981383400,1.636383544921875,-2.951481580734253,3.007768154144287,0.043087489902973175
1788861659991389200,1.64638916015625,-2.019690990447998,1.675009846687317,-0.7495853304862976
1788861660001395200,1.656395263671875,1.6615561246871948,-0.33720648288726807,-1.4439005851745605
1788861660011402500,1.666402587890625,0.2638227641582489,-1.829696536064148,1.1127415895462036
1788861660021408300,1.676408203125,-0.6754468083381653,-0.7129750847816467,0.6889842748641968
1788861660031414300,1.686414306640625,-0.25110214948654175,0.38736292719841003,-0.07857762277126312
1788861660041420500,1.696420654296875,0.2850770950317383,1.0891839265823364,-0.8056655526161194
1788861660051427300,1.70642724609375,0.3743739426136017,1.4393672943115234,-1.6049174070358276
1788861660061433300,1.716433349609375,-0.14198416471481323,1.3683521747589111,-1.805234670639038
1788861660071439400,1.726439453125,-0.6411734819412231,0.9316310882568359,-1.515708327293396
1788861660081446400,1.7364462890625,-0.8921512365341187,0.4455639719963074,-1.3975111246109009
1788861660091452400,1.746452392578125,-1.2320894002914429,0.09452658891677856,-1.4518063068389893
1788861660101458400,1.75645849609375,-1.6460354328155518,0.13074766099452972,-1.5231391191482544
1788861660111465500,1.766465576171875,-2.1401093006134033,0.3083418607711792,-1.5808391571044922
1788861660121471500,1.776471435546875,-2.432553768157959,0.31507888436317444,-1.6902538537979126
1788861660131477200,1.786477294921875,-2.770873785018921,-0.013000454753637314,-1.7432866096496582
1788861660141483300,1.796483154296875,-3.1271491050720215,-0.2461884319782257,-1.7034697532653809
1788861660151490600,1.806490478515625,-3.428163766860962,-0.19507624208927155,-1.5461280345916748
1788861660161496300,1.816496337890625,-3.846539258956909,-0.03351635858416557,-1.3829851150512695
1788861660171502300,1.82650244140625,-4.153342247009277,0.22381210327148438,-1.1982536315917969
1788861660181509400,1.83650927734375,-4.407342910766602,0.39750054478645325,-1.0565520524978638
1788861660191515400,1.846515380859375,-4.784912109375,0.4460619390010834,-1.2566404342651367
1788861660201521400,1.856521484375,-4.729743957519531,0.023681674152612686,-2.0707218647003174
1788861660211528200,1.866528076171875,-5.181826591491699,0.30162301659584045,-1.7748054265975952
1788861660221534200,1.8765341796875,-5.114260196685791,0.16280198097229004,-1.5330716371536255
1788861660231540500,1.88654052734375,-3.7031075954437256,-0.016232740134000778,-1.5505867004394531
1788861660241547300,1.89654736328125,-1.5277169942855835,-0.4648626744747162,-1.1037111282348633
1788861660251553300,1.90655322265625,-1.3188908100128174,-0.4293084144592285,-0.8368288278579712
1788861660261559300,1.916559326171875,-0.6363628506660461,-0.2841414511203766,-0.5536199808120728
1788861660271565300,1.9265654296875,-0.0867421105504036,-0.41780924797058105,-0.582888126373291
1788861660281572400,1.936572265625,0.30496928095817566,-0.46991047263145447,-0.7510262131690979
1788861660291578400,1.946578369140625,0.5295107960700989,-0.3366999328136444,-0.7967178225517273
1788861660301584100,1.956584228515625,0.5897524952888489,-0.2619010806083679,-0.7413203716278076
1788861660311591400,1.96659130859375,0.5726845264434814,-0.3676794171333313,-0.5486196279525757
1788861660321597400,1.976597412109375,0.5003294944763184,-0.4592123329639435,-0.44875702261924744
1788861660331603200,1.986603271484375,0.4812564551830292,-0.1679554581642151,-0.43860265612602234
1788861660341610500,1.996610595703125,0.541517972946167,0.10929081588983536,-0.38263145089149475
1788861660351616300,2.0066162109375,0.5797919034957886,0.18021772801876068,-0.2985900640487671
1788861660361622300,2.016622314453125,0.682025134563446,0.29200664162635803,-0.29115238785743713
1788861660371628300,2.026628173828125,0.8905525207519531,0.3975221514701843,-0.32253772020339966
1788861660381635300,2.03663525390625,1.006003737449646,0.4500969350337982,-0.23154741525650024
1788861660391641300,2.046641357421875,1.2646523714065552,0.3620235323905945,-0.10927050560712814
1788861660401647400,2.0566474609375,1.4947012662887573,0.30439266562461853,-0.0991593673825264
1788861660411654100,2.066654052734375,1.570350170135498,0.3832384943962097,-0.07763116806745529
1788861660421660400,2.076660400390625,1.693859577178955,0.3642730414867401,-0.007045155856758356
1788861660431666400,2.08666650390625,1.8625961542129517,0.2992202937602997,-0.008457165211439133
1788861660441672400,2.09667236328125,2.0265398025512695,0.3523609936237335,0.03041969984769821
1788861660451679200,2.10667919921875,2.1709742546081543,0.4418301582336426,0.13386140763759613
1788861660461685500,2.116685546875,2.275897741317749,0.4892381727695465,0.2765844464302063
1788861660471691300,2.126691162109375,2.351933717727661,0.4616859257221222,0.40775683522224426
1788861660481698300,2.1366982421875,2.379037857055664,0.40259817242622375,0.47891169786453247
1788861660491704300,2.146704345703125,2.3547184467315674,0.36268350481987,0.5194881558418274
1788861660501710300,2.15671044921875,2.3258790969848633,0.33034366369247437,0.5445681810379028
1788861660511717400,2.16671728515625,2.3077025413513184,0.22763408720493317,0.6653484106063843
1788861660521723400,2.176723388671875,2.2804479598999023,0.1963740885257721,0.8005253076553345
1788861660531729400,2.1867294921875,2.309934616088867,0.23328816890716553,0.8547261953353882
1788861660541735400,2.1967353515625,2.356524705886841,0.2541716396808624,0.9452335238456726
1788861660551742200,2.2067421875,2.3819499015808105,0.2631390392780304,1.1395553350448608
1788861660561748200,2.216748291015625,2.422816514968872,0.25683432817459106,1.280665397644043
1788861660571754500,2.22675439453125,2.4630165100097656,0.250597208738327,1.3430004119873047
1788861660581761300,2.23676123046875,2.514551877975464,0.3351202607154846,1.3854387998580933
1788861660591767300,2.246767333984375,2.569523334503174,0.5471971035003662,1.39193856716156
1788861660601773300,2.256773193359375,2.5106661319732666,0.5932860970497131,1.3084295988082886
1788861660611780400,2.2667802734375,2.2795910835266113,0.37187376618385315,1.1758766174316406
1788861660621786400,2.276786376953125,1.9333209991455078,0.06433723121881485,1.0759328603744507
1788861660631792400,2.28679248046875,1.6348730325698853,-0.14122098684310913,0.9641889929771423
1788861660641798100,2.296798095703125,1.4259458780288696,-0.19110733270645142,0.864098310470581
1788861660651805400,2.306805419921875,1.2075361013412476,-0.08479554951190948,0.811128556728363
1788861660661811500,2.3168115234375,0.9567248821258545,0.007558371406048536,0.7560019493103027
1788861660671817200,2.326817138671875,0.7107835412025452,0.02384466677904129,0.6930059790611267
1788861660681824500,2.336824462890625,0.4715415835380554,-0.07030583918094635,0.5891048908233643
1788861660691830300,2.346830322265625,0.25443509221076965,-0.3553812503814697,0.42088526487350464
1788861660701836300,2.356836181640625,0.04399670287966728,-0.7493727207183838,0.24237817525863647
1788861660711843300,2.36684326171875,-0.13328593969345093,-0.9213554263114929,0.09764363616704941
1788861660721849300,2.376849365234375,-0.34685325622558594,-0.8611525297164917,-0.0127396360039711
1788861660731855400,2.38685546875,-0.5910946726799011,-0.6441783905029297,-0.09626888483762741
1788861660741861400,2.396861328125,-0.8242018818855286,-0.368279367685318,-0.1714908480644226
1788861660751868200,2.4068681640625,-0.993323802947998,-0.12604065239429474,-0.27395305037498474
1788861660761874400,2.41687451171875,-1.0817615985870361,0.10217118263244629,-0.3665866553783417
1788861660771880400,2.42688037109375,-1.135559320449829,0.25055161118507385,-0.4200754463672638
1788861660781887200,2.43688720703125,-1.2236144542694092,0.28433677554130554,-0.4188511073589325
1788861660791893200,2.446893310546875,-1.3368169069290161,0.27684342861175537,-0.39464271068573
1788861660801899500,2.4568994140625,-1.4486955404281616,0.2918716371059418,-0.39628365635871887
1788861660811906300,2.46690625,-1.5650633573532104,0.28738394379615784,-0.48999497294425964
1788861660821912300,2.476912353515625,-1.5905470848083496,0.2801734209060669,-0.5743415355682373
1788861660831918300,2.48691845703125,-1.4874894618988037,0.3247677683830261,-0.47331345081329346
1788861660841924400,2.49692431640625,-1.3815844058990479,0.26118186116218567,-0.30232885479927063
1788861660851931400,2.506931396484375,-1.362381935119629,0.06342378258705139,-0.23083952069282532
1788861660861937400,2.5169375,-1.3772375583648682,-0.15752381086349487,-0.25471654534339905
1788861660871943200,2.526943115234375,-1.453924536705017,-0.3762657642364502,-0.30572885274887085
1788861660881950500,2.536950439453125,-1.5784492492675781,-0.5102485418319702,-0.31525591015815735
1788861660891956000,2.5469560546875,-1.7212063074111938,-0.5294014811515808,-0.29528141021728516
1788861660901962200,2.556962158203125,-1.8168177604675293,-0.4745722711086273,-0.2833482325077057
1788861660911969300,2.56696923828125,-1.8339940309524536,-0.46486157178878784,-0.32398539781570435
1788861660921975000,2.57697509765625,-1.8039844036102295,-0.504145622253418,-0.4399176239967346
1788861660931981000,2.58698095703125,-1.7648996114730835,-0.5296754837036133,-0.5675680041313171
1788861660941987300,2.5969873046875,-1.7421395778656006,-0.541509747505188,-0.6572487354278564
1788861660951994000,2.606994140625,-1.7479170560836792,-0.5584495663642883,-0.692774772644043
1788861660962000100,2.617000244140625,-1.765143871307373,-0.5392143726348877,-0.6952534317970276
1788861660972006100,2.627006103515625,-1.7509348392486572,-0.40519291162490845,-0.6706061363220215
1788861660982013200,2.63701318359375,-1.720154047012329,-0.2701835334300995,-0.6773115992546082
1788861660992019200,2.647019287109375,-1.6477930545806885,-0.18354903161525726,-0.7250905632972717
1788861661002025200,2.657025146484375,-1.5768351554870605,-0.15956749022006989,-0.7611590623855591
1788861661012031000,2.667031005859375,-1.5389466285705566,-0.18994830548763275,-0.726199209690094
1788861661022038300,2.677038330078125,-1.5320037603378296,-0.2714604139328003,-0.6507266759872437
1788861661032044300,2.687044189453125,-1.5306148529052734,-0.39859601855278015,-0.5831937193870544
1788861661042050000,2.697050048828125,-1.5129493474960327,-0.5424237251281738,-0.5498907566070557
1788861661052057300,2.707057373046875,-1.4960840940475464,-0.6684938073158264,-0.5663139224052429
1788861661062063000,2.71706298828125,-1.4554003477096558,-0.7151987552642822,-0.5979672074317932
1788861661072069000,2.727069091796875,-1.3503823280334473,-0.69705730676651,-0.6473376750946045
1788861661082076200,2.737076171875,-1.2624635696411133,-0.6108382344245911,-0.7994205355644226
1788861661092082200,2.747082275390625,-1.2697747945785522,-0.7461763620376587,-0.9862423539161682
1788861661102088200,2.757088134765625,-1.3040026426315308,-0.982618510723114,-0.8881098031997681
1788861661112094200,2.76709423828125,-1.2762415409088135,-0.759218692779541,-0.6325358152389526
1788861661122101000,2.77710107421875,-1.0929862260818481,-0.3985736072063446,-0.46311724185943604
1788861661132107300,2.787107177734375,-0.7470413446426392,-0.3956814110279083,-0.3974902927875519
1788861661142113300,2.79711328125,-0.5631762742996216,-0.5097523331642151,-0.18322522938251495
1788861661152120000,2.8071201171875,-0.6522507071495056,0.07306763529777527,-0.20708395540714264
1788861661162126000,2.8171259765625,-0.6365703344345093,0.2877436578273773,-0.15410855412483215
1788861661172132400,2.82713232421875,-0.44751787185668945,0.20572656393051147,0.12062020599842072
1788861661182139100,2.83713916015625,-0.07230605185031891,0.3345716893672943,0.21371161937713623
1788861661192145200,2.847145263671875,0.20230793952941895,0.46712416410446167,0.3312518298625946
1788861661202151200,2.857151123046875,0.24668093025684357,0.7503361105918884,0.35928604006767273
1788861661212157200,2.8671572265625,0.2994040548801422,0.8489431142807007,0.3042837679386139
1788861661222164200,2.877164306640625,0.4489651322364807,0.8537658452987671,0.35785654187202454
1788861661232170000,2.887169921875,0.6435478925704956,0.8701395392417908,0.43044471740722656
1788861661242176300,2.89717626953125,0.8123186826705933,0.8770470023155212,0.46942776441574097
1788861661252183300,2.907183349609375,0.9239490628242493,0.8478310704231262,0.4422779083251953
1788861661262189000,2.91718896484375,1.1095716953277588,0.7536976337432861,0.42107874155044556
1788861661272195000,2.927195068359375,1.382434606552124,0.7044757604598999,0.43396204710006714
1788861661282202400,2.937202392578125,1.6461759805679321,0.748132050037384,0.4207175672054291
1788861661292208000,2.9472080078125,1.8929109573364258,0.7966151833534241,0.3810276687145233
1788861661302214100,2.957214111328125,2.1112568378448486,0.8044704794883728,0.3201848268508911
1788861661312221200,2.96722119140625,2.2559962272644043,0.8187990784645081,0.28332453966140747
1788861661322227200,2.977227294921875,2.3262133598327637,0.7666985392570496,0.2907802164554596
1788861661332233200,2.987233154296875,2.3778235912323,0.6839208602905273,0.30516475439071655
1788861661342239200,2.9972392578125,2.4229490756988525,0.7635632753372192,0.3322339653968811
1788861661352246300,3.007246337890625,2.451749563217163,0.873032808303833,0.3074607253074646
1788861661362252300,3.017252197265625,2.4780490398406982,0.8454639911651611,0.35601773858070374
1788861661372258300,3.02725830078125,2.50417160987854,0.7071149349212646,0.38396549224853516
1788861661382265000,3.03726513671875,2.5342843532562256,0.5247717499732971,0.38257765769958496
1788861661392271400,3.047271240234375,2.5785019397735596,0.45402011275291443,0.42170587182044983
1788861661402277000,3.057277099609375,2.6000967025756836,0.5246405005455017,0.4633157551288605
1788861661412284200,3.0672841796875,2.548168182373047,0.5639455914497375,0.5282419919967651
1788861661422290200,3.077290283203125,2.4615914821624756,0.4639294743537903,0.6222586035728455
1788861661432296200,3.087296142578125,2.3683021068573,0.3452470302581787,0.7256534099578857
1788861661442302200,3.09730224609375,2.2898614406585693,0.3188210427761078,0.7904329299926758
1788861661452309200,3.107309326171875,2.2058327198028564,0.33106863498687744,0.830907940864563
1788861661462315000,3.11731494140625,2.088914632797241,0.31201446056365967,0.8683677911758423
1788861661472321300,3.1273212890625,1.9516555070877075,0.3198566734790802,0.8974226117134094
1788861661482328000,3.137328125,1.775766372680664,0.287764310836792,0.8732231855392456
1788861661492334000,3.147333984375,1.5515007972717285,0.2179841548204422,0.8059024810791016
1788861661502340000,3.157340087890625,1.3104565143585205,0.12622198462486267,0.7298411726951599
1788861661512347100,3.16734716796875,1.0762124061584473,0.07245517522096634,0.6993953585624695
1788861661522353200,3.177353271484375,0.8777698874473572,0.050562094897031784,0.711425244808197
1788861661532359200,3.187359130859375,0.6844819188117981,-0.08736008405685425,0.6006596088409424
1788861661542365200,3.197365234375,0.4644903540611267,-0.32541579008102417,0.38065966963768005
1788861661552372200,3.207372314453125,0.18447013199329376,-0.5385400652885437,0.1690688580274582
1788861661562378200,3.217378173828125,-0.12310122698545456,-0.6216764450073242,0.005265825428068638
1788861661572384000,3.227384033203125,-0.38515254855155945,-0.6041488647460938,-0.16006560623645782
1788861661582391300,3.237391357421875,-0.6377456188201904,-0.5783132910728455,-0.33365553617477417
1788861661592397300,3.247397216796875,-0.8618106245994568,-0.5135124921798706,-0.4516439735889435
1788861661602403000,3.257403076171875,-1.0297050476074219,-0.3926059901714325,-0.5201582908630371
1788861661612410000,3.26741015625,-1.1370669603347778,-0.2383570373058319,-0.5507479310035706
1788861661622416400,3.27741650390625,-1.1828832626342773,-0.049771931022405624,-0.5512019395828247
1788861661632422100,3.287422119140625,-1.189793348312378,0.20004668831825256,-0.48456406593322754
1788861661642429200,3.29742919921875,-1.2347837686538696,0.487274169921875,-0.32854163646698
1788861661652435000,3.30743505859375,-1.3609294891357422,0.7943786978721619,-0.11604083329439163
1788861661662441200,3.317441162109375,-1.5248517990112305,0.8865756988525391,-0.005790570750832558
1788861661672447200,3.327447265625,-1.7105077505111694,0.6171817779541016,-0.19482973217964172
1788861661682454000,3.3374541015625,-1.7677114009857178,0.39041876792907715,-0.529943585395813
1788861661692460000,3.3474599609375,-1.6812660694122314,0.2766117751598358,-0.6872045397758484
1788861661702466300,3.35746630859375,-1.5610604286193848,0.08403273671865463,-0.5200618505477905
1788861661712473000,3.36747314453125,-1.4092966318130493,-0.1488756239414215,-0.21573199331760406
1788861661722479000,3.37747900390625,-1.298003077507019,-0.3564722537994385,-0.07406050711870193
1788861661732485400,3.3874853515625,-1.32802414894104,-0.4606258273124695,-0.18511992692947388
1788861661742492200,3.3974921875,-1.5369892120361328,-0.3259095549583435,-0.30703750252723694
1788861661752498200,3.407498291015625,-1.8680669069290161,-0.2767721116542816,-0.3946496248245239
1788861661762504200,3.417504150390625,-2.1229374408721924,-0.3795892894268036,-0.4935482442378998
1788861661772511200,3.42751123046875,-2.171032190322876,-0.46290281414985657,-0.6226702928543091
1788861661782517200,3.437517333984375,-2.0865981578826904,-0.5111729502677917,-0.7479639649391174
1788861661792523300,3.447523193359375,-1.9569952487945557,-0.6105738282203674,-0.8192176222801208
1788861661802529000,3.457529052734375,-1.8412234783172607,-0.6820763945579529,-0.8305610418319702
1788861661812536300,3.467536376953125,-1.7652781009674072,-0.6705342531204224,-0.8570346832275391
1788861661822542000,3.4775419921875,-1.718888759613037,-0.6151698231697083,-0.8885437250137329
1788861661832548000,3.487548095703125,-1.6921807527542114,-0.5931683778762817,-0.9125564098358154
1788861661842555400,3.497555419921875,-1.6602482795715332,-0.5803878903388977,-0.8771008253097534
1788861661852561200,3.50756103515625,-1.6381487846374512,-0.6069308519363403,-0.8407627940177917
1788861661862567200,3.517567138671875,-1.6230103969573975,-0.6467911601066589,-0.8864703178405762
1788861661872574200,3.52757421875,-1.587618112564087,-0.694298505783081,-0.9303259253501892
1788861661882580200,3.537580322265625,-1.535438060760498,-0.9048985838890076,-0.9440757036209106
1788861661892585500,3.54758544921875,-1.4826596975326538,-1.2358063459396362,-0.9357410669326782
1788861661902591500,3.557591552734375,-1.4397485256195068,-1.4262384176254272,-0.9106956720352173
1788861661912598500,3.5675986328125,-1.4365038871765137,-1.4313684701919556,-0.8341217637062073
1788861661922604500,3.5776044921875,-1.4410289525985718,-1.1695356369018555,-0.7907447218894958
1788861661932610600,3.587610595703125,-1.3663829565048218,-0.7766280174255371,-0.8383498191833496
1788861661942617600,3.59761767578125,-1.1952110528945923,-0.6676817536354065,-0.8057343363761902
1788861661952623600,3.60762353515625,-1.0383617877960205,-0.7404073476791382,-0.7257170081138611
1788861661962629600,3.617629638671875,-0.911069929599762,-0.7028048634529114,-0.6402252912521362
1788861661972636400,3.627636474609375,-0.7509177923202515,-0.5289015173912048,-0.5576058030128479
1788861661982642700,3.637642578125,-0.6000821590423584,-0.31486964225769043,-0.46344831585884094
1788861661992648700,3.647648681640625,-0.4254099428653717,-0.2719687819480896,-0.3161613941192627
1788861662002655500,3.657655517578125,-0.18243330717086792,-0.26358169317245483,-0.19104143977165222
1788861662012661500,3.66766162109375,0.06560684740543365,-0.14795681834220886,-0.1486324667930603
1788861662022667500,3.67766748046875,0.29451555013656616,0.09904318302869797,-0.0923905298113823
1788861662032673500,3.687673583984375,0.5340972542762756,0.4378769099712372,0.000243531190790236
1788861662042680600,3.6976806640625,0.7583655118942261,0.6916215419769287,0.06741990149021149
1788861662052686300,3.707686279296875,0.9717655181884766,0.8214231133460999,0.11806818842887878
1788861662062692600,3.717692626953125,1.170350432395935,0.8661910891532898,0.18596307933330536
1788861662072699600,3.72769970703125,1.3466122150421143,0.839255154132843,0.29273244738578796
1788861662082705400,3.737705322265625,1.5525273084640503,0.7198278307914734,0.38366952538490295
1788861662092711400,3.74771142578125,1.7291315793991089,0.5849603414535522,0.43034735321998596
1788861662102718500,3.757718505859375,1.8614922761917114,0.525346577167511,0.4848100543022156
1788861662112724500,3.767724365234375,1.9873769283294678,0.5462589859962463,0.569598376750946
1788861662122730500,3.77773046875,2.132535219192505,0.652309238910675,0.6426305174827576
1788861662132737500,3.787737548828125,2.301844835281372,0.6522505879402161,0.6720520853996277
1788861662142743600,3.79774365234375,2.429286479949951,0.5448297262191772,0.7411837577819824
1788861662152749600,3.80774951171875,2.5203969478607178,0.43965667486190796,0.8931655883789062
1788861662162755600,3.817755615234375,2.583380699157715,0.3740776479244232,0.9684610962867737
1788861662172762600,3.8277626953125,2.6135807037353516,0.26569125056266785,0.9532469511032104
1788861662182768600,3.8377685546875,2.5760412216186523,0.19785308837890625,1.0099461078643799
1788861662192774700,3.847774658203125,2.5225937366485596,0.2819482386112213,1.1718266010284424
1788861662202781400,3.857781494140625,2.4694807529449463,0.3604283928871155,1.2617080211639404
1788861662212787700,3.86778759765625,2.4062600135803223,0.3400171995162964,1.334082007408142
1788861662222793500,3.87779345703125,2.3743484020233154,0.22362293303012848,1.427847981452942
1788861662232800500,3.887800537109375,2.3516955375671387,0.06764151901006699,1.44858717918396
1788861662242806500,3.897806640625,2.296147108078003,-0.04942464828491211,1.4069502353668213
1788861662252812500,3.9078125,2.214630126953125,-0.08396077901124954,1.3714920282363892
1788861662262819600,3.917819580078125,2.10675311088562,-0.043881744146347046,1.3530861139297485
1788861662272825600,3.92782568359375,1.9805415868759155,0.03701630234718323,1.3298898935317993
1788861662282831600,3.93783154296875,1.8295656442642212,0.12133118510246277,1.268776297569275
1788861662292838700,3.947838623046875,1.6280522346496582,0.10525603592395782,1.1851274967193604
1788861662302844400,3.957844482421875,1.3627198934555054,-0.031158795580267906,1.0712318420410156
1788861662312850400,3.967850341796875,1.0710015296936035,-0.23634600639343262,0.9257411956787109
1788861662322857700,3.977857666015625,0.796758234500885,-0.4276120960712433,0.7421348690986633
1788861662332863500,3.987863525390625,0.5172845721244812,-0.5620200037956238,0.5453206896781921
1788861662342869500,3.997869384765625,0.22947965562343597,-0.6096687912940979,0.3689570724964142
1788861662352875500,4.00787548828125,-0.020947780460119247,-0.5454111099243164,0.23479780554771423
1788861662362882600,4.017882568359375,-0.2127559632062912,-0.35920456051826477,0.13263584673404694
1788861662372888600,4.027888671875,-0.37621384859085083,-0.18970315158367157,0.04276853799819946
1788861662382894600,4.03789453125,-0.5360716581344604,-0.09072011709213257,-0.04220627248287201
1788861662392901600,4.047901611328125,-0.7068325281143188,-0.03623180836439133,-0.11690587550401688
1788861662402907600,4.05790771484375,-0.8524363040924072,0.043259020894765854,-0.19196096062660217
1788861662412913700,4.06791357421875,-0.9932028651237488,0.13387492299079895,-0.2541653513908386
1788861662422920400,4.07792041015625,-1.1373310089111328,0.194071426987648,-0.2641996145248413
1788861662432926700,4.0879267578125,-1.3041948080062866,0.2579081952571869,-0.1983901709318161
1788861662442932500,4.097932373046875,-1.484593391418457,0.3120526671409607,-0.14126881957054138
1788861662452939500,4.107939453125,-1.6133766174316406,0.4055517315864563,-0.13276055455207825
1788861662462945500,4.117945556640625,-1.675830364227295,0.5234213471412659,-0.15573032200336456
1788861662472951600,4.12795166015625,-1.7477240562438965,0.4357905983924866,-0.2122643142938614
1788861662482958600,4.13795849609375,-1.8303507566452026,0.1770770251750946,-0.29427847266197205
1788861662492964600,4.147964599609375,-1.8325027227401733,0.010022254660725594,-0.3312973082065582
1788861662502970400,4.157970458984375,-1.771726131439209,-0.10301801562309265,-0.27715179324150085
1788861662512977700,4.167977783203125,-1.7670340538024902,-0.29328304529190063,-0.22379691898822784
1788861662522983400,4.1779833984375,-1.8151781558990479,-0.4714575707912445,-0.2460702657699585
1788861662532989400,4.187989501953125,-1.8804060220718384,-0.4716072082519531,-0.3286629021167755
1788861662542995500,4.197995361328125,-1.9562437534332275,-0.2603338360786438,-0.42953360080718994
1788861662553002500,4.20800244140625,-1.985520362854004,-0.09065060317516327,-0.5024166703224182
1788861662563008500,4.218008544921875,-1.9421828985214233,-0.10252032428979874,-0.5441640615463257
1788861662573014500,4.2280146484375,-1.8886557817459106,-0.20890243351459503,-0.5701325535774231
1788861662583021600,4.238021484375,-1.886176347732544,-0.36629337072372437,-0.6123963594436646
1788861662593027600,4.248027587890625,-1.887511968612671,-0.5121461153030396,-0.6768532395362854
1788861662603033600,4.25803369140625,-1.8675315380096436,-0.6126018762588501,-0.7660548090934753
1788861662613040400,4.268040283203125,-1.8313055038452148,-0.6345260143280029,-0.8482182025909424
1788861662623046700,4.278046630859375,-1.7971805334091187,-0.6714920401573181,-0.9131441712379456
1788861662633052700,4.288052734375,-1.7794013023376465,-0.7373786568641663,-0.926559329032898
1788861662643059500,4.2980595703125,-1.7684251070022583,-0.7380737662315369,-0.8993855118751526
1788861662653065500,4.3080654296875,-1.7466727495193481,-0.6987282633781433,-0.8817395567893982
1788861662663071700,4.31807177734375,-1.7368961572647095,-0.738666832447052,-0.9186679124832153
1788861662673078500,4.32807861328125,-1.6989871263504028,-0.9682492017745972,-0.9609269499778748
1788861662683084500,4.33808447265625,-1.64556086063385,-1.3032000064849854,-0.9853367209434509
1788861662693090600,4.348090576171875,-1.5885406732559204,-1.4239591360092163,-0.9289223551750183
1788861662703097600,4.35809765625,-1.5243637561798096,-1.226182460784912,-0.8113642930984497
1788861662713103600,4.368103515625,-1.4083267450332642,-0.9596868753433228,-0.7135578393936157
1788861662723109400,4.378109375,-1.2518337965011597,-0.8410621881484985,-0.6892881989479065
1788861662733116700,4.38811669921875,-1.07637357711792,-0.8721330165863037,-0.6634297966957092
1788861662743122700,4.398122802734375,-0.9141108989715576,-0.8124265670776367,-0.57865309715271
1788861662753128400,4.40812841796875,-0.7488800883293152,-0.5886443257331848,-0.45956847071647644
1788861662763135500,4.418135498046875,-0.5729317665100098,-0.3686980903148651,-0.3562925159931183
1788861662773141500,4.4281416015625,-0.41373226046562195,-0.1761384904384613,-0.29512953758239746
1788861662783147500,4.4381474609375,-0.27984634041786194,-0.028049953281879425,-0.2712306082248688
1788861662793153500,4.448153564453125,-0.13647864758968353,0.1265113204717636,-0.23111611604690552
1788861662803160600,4.45816064453125,0.06546885520219803,0.2430267482995987,-0.14850112795829773
1788861662813166600,4.46816650390625,0.3483528196811676,0.4361458718776703,-0.043667037039995193
1788861662823172600,4.478172607421875,0.6490311622619629,0.5967060327529907,0.0396299809217453
1788861662833179400,4.488179443359375,0.9383063316345215,0.7700069546699524,0.09979072213172913
1788861662843185700,4.498185546875,1.2151368856430054,0.8838688135147095,0.176518514752388
1788861662853191700,4.508191650390625,1.492811918258667,0.9086951017379761,0.2950814664363861
1788861662863198500,4.518198486328125,1.7678419351577759,0.8145036697387695,0.43482500314712524
1788861662873204500,4.52820458984375,2.0376884937286377,0.6871259808540344,0.5607962012290955
1788861662883210800,4.538210693359375,2.289989948272705,0.5679436922073364,0.6563440561294556
1788861662893217500,4.548217529296875,2.493603467941284,0.5069583058357239,0.71871018409729
1788861662903224300,4.558224365234375,2.633117914199829,0.4996063709259033,0.752859890460968
1788861662913230300,4.568230224609375,2.712790012359619,0.47446879744529724,0.7744812369346619
1788861662923237400,4.5782373046875,2.7006735801696777,0.39827683568000793,0.7760719656944275
1788861662933243400,4.588243408203125,2.5959720611572266,0.3211331069469452,0.7425989508628845
1788861662943249200,4.598249267578125,2.4631879329681396,0.345286101102829,0.6992762684822083
1788861662953256400,4.60825634765625,2.363555908203125,0.4619887173175812,0.7100271582603455
1788861662963262200,4.61826220703125,2.3385376930236816,0.4874139428138733,0.7682462334632874
1788861662973268200,4.628268310546875,2.3682029247283936,0.3762062191963196,0.8170955181121826
1788861662983275500,4.638275634765625,2.378617525100708,0.2133728265762329,0.8486617207527161
1788861662993281300,4.64828125,2.3488569259643555,0.024920549243688583,0.921341061592102
1788861663003287300,4.658287353515625,2.2849788665771484,-0.17427723109722137,1.027390480041504
1788861663013294300,4.66829443359375,2.213240146636963,-0.10591732710599899,1.1490243673324585
1788861663023300400,4.67830029296875,2.1989643573760986,0.19895070791244507,1.245078682899475
1788861663033306400,4.688306396484375,2.2510342597961426,0.409023255109787,1.273447871208191
1788861663043313200,4.698313232421875,2.3346314430236816,0.3706668019294739,1.2176711559295654
1788861663053319200,4.708319091796875,2.364915609359741,0.20125305652618408,1.0944644212722778
1788861663063325400,4.718325439453125,2.2588484287261963,0.10443486273288727,0.9541189670562744
1788861663073332200,4.728332275390625,2.0698916912078857,0.17573407292366028,0.8536040782928467
1788861663083338200,4.738338134765625,1.9004409313201904,0.3259826898574829,0.8664045333862305
1788861663093344300,4.74834423828125,1.68413245677948,0.5355775356292725,0.9099170565605164
1788861663103351300,4.758351318359375,1.277087688446045,0.670626699924469,0.8320233225822449
1788861663113357300,4.768357421875,0.8299238681793213,0.835921585559845,0.6070882678031921
1788861663123363300,4.77836328125,0.5083093047142029,1.0566928386688232,0.21581237018108368
1788861663133370400,4.788370361328125,0.21795329451560974,1.1412749290466309,-0.19638864696025848
1788861663143376400,4.79837646484375,-0.05036736652255058,0.7699015736579895,-0.4552899897098541
1788861663153382400,4.80838232421875,-0.2269262671470642,0.23108012974262238,-0.5025566816329956
1788861663163389200,4.81838916015625,-0.3892585337162018,-0.10995065420866013,-0.4271671175956726
1788861663173395500,4.8283955078125,-0.5992228984832764,-0.20954275131225586,-0.3798275589942932
1788861663183401500,4.8384013671875,-0.8030484914779663,-0.21811920404434204,-0.4507201313972473
1788861663193408300,4.848408203125,-0.9838106632232666,-0.2453223019838333,-0.5211203694343567
1788861663203414300,4.858414306640625,-1.1393905878067017,-0.32515987753868103,-0.45241084694862366
1788861663213420300,4.868420166015625,-1.266636610031128,-0.35867416858673096,-0.2673150599002838
1788861663223427300,4.87842724609375,-1.351667046546936,-0.343095988035202,-0.13959358632564545
1788861663233433300,4.888433349609375,-1.3676612377166748,-0.2522260546684265,-0.16721756756305695
1788861663243439000,4.898439208984375,-1.3306447267532349,-0.05209081619977951,-0.1628507822751999
1788861663253446400,4.9084462890625,-1.3308405876159668,0.13097302615642548,-0.015765156596899033
1788861663263452400,4.918452392578125,-1.4202383756637573,0.0722968652844429,0.07349447906017303
1788861663273458200,4.928458251953125,-1.5342451333999634,-0.04992598295211792,0.0615488663315773
1788861663283465500,4.938465576171875,-1.6114522218704224,-0.03444449603557587,0.02321825549006462
1788861663293471200,4.94847119140625,-1.6056574583053589,0.014959568157792091,0.006471240893006325
1788861663303477200,4.958477294921875,-1.5791230201721191,0.033577729016542435,-0.0022109304554760456
1788861663313484300,4.968484375,-1.556996464729309,-0.003929429687559605,-0.09685283154249191
1788861663323490300,4.978490234375,-1.5105756521224976,-0.10392633080482483,-0.21202123165130615
1788861663333496300,4.988496337890625,-1.470832109451294,-0.27016475796699524,-0.2463601529598236
1788861663343503400,4.99850341796875,-1.486213207244873,-0.5186880230903625,-0.2748969793319702
1788861663353509000,5.008509033203125,-1.5711244344711304,-0.6552898287773132,-0.3544062674045563
1788861663363515400,5.018515380859375,-1.6306143999099731,-0.535240113735199,-0.412131130695343
1788861663373522200,5.028522216796875,-1.6221474409103394,-0.3544090986251831,-0.3832848370075226
1788861663383528200,5.038528076171875,-1.5221529006958008,-0.2513633966445923,-0.32672223448753357
1788861663393534200,5.0485341796875,-1.4116300344467163,-0.28604650497436523,-0.2921864986419678
1788861663403541200,5.058541259765625,-1.384158730506897,-0.4595074951648712,-0.3036689758300781
1788861663413547300,5.06854736328125,-1.481688141822815,-0.6212866306304932,-0.3403134346008301
1788861663423553300,5.07855322265625,-1.6103352308273315,-0.5950289368629456,-0.3890191912651062
1788861663433560300,5.088560302734375,-1.682558298110962,-0.4742979109287262,-0.43199071288108826
1788861663443566300,5.09856640625,-1.6650387048721313,-0.351325124502182,-0.5103997588157654
1788861663453572400,5.108572265625,-1.6122639179229736,-0.3385368585586548,-0.5417037606239319
1788861663463579400,5.118579345703125,-1.5728963613510132,-0.452102929353714,-0.5424869656562805
1788861663473585400,5.12858544921875,-1.5410449504852295,-0.5689107775688171,-0.5353773832321167
1788861663483591400,5.13859130859375,-1.508510947227478,-0.6458151340484619,-0.5120113492012024
1788861663493598200,5.14859814453125,-1.4832922220230103,-0.7007641196250916,-0.5200766324996948
1788861663503604500,5.1586044921875,-1.4360722303390503,-0.7453656792640686,-0.6277368068695068
1788861663513610200,5.1686103515625,-1.3584957122802734,-0.6219097971916199,-0.7352113127708435
1788861663523617300,5.1786171875,-1.2714554071426392,-0.5777322053909302,-0.7758452892303467
1788861663533623300,5.188623291015625,-1.2005432844161987,-0.8010622262954712,-0.8042134642601013
1788861663543629300,5.19862939453125,-1.150852084159851,-1.006765604019165,-0.7628492116928101
1788861663553636400,5.20863623046875,-1.1571027040481567,-0.9387087225914001,-0.6701748371124268
1788861663563642400,5.218642333984375,-1.2178794145584106,-0.5814118981361389,-0.6175108551979065
1788861663573648100,5.228648193359375,-1.1725014448165894,-0.21511489152908325,-0.6418508291244507
1788861663583655400,5.238655517578125,-0.9758137464523315,-0.16355688869953156,-0.6788386702537537
1788861663593661200,5.2486611328125,-0.7475395202636719,-0.23104128241539001,-0.5606116652488708
1788861663603667200,5.258667236328125,-0.6308669447898865,-0.2226715087890625,-0.36545202136039734
1788861663613674500,5.268674560546875,-0.5611627697944641,-0.19831588864326477,-0.1869598776102066
1788861663623680300,5.27868017578125,-0.4899405241012573,-0.11750013381242752,-0.11604256182909012
1788861663633686300,5.288686279296875,-0.39735913276672363,-0.099080391228199,-0.1575528234243393
1788861663643693300,5.298693359375,-0.26767730712890625,-0.001985268434509635,-0.11429458111524582
1788861663653699300,5.30869921875,-0.12243901938199997,0.20804575085639954,-0.012932837940752506
1788861663663705300,5.318705322265625,0.058661580085754395,0.3794657588005066,0.07252196222543716
1788861663673712000,5.328712158203125,0.23165066540241241,0.5226245522499084,0.16330645978450775
1788861663683718100,5.33871826171875,0.3769303858280182,0.628552258014679,0.24472036957740784
1788861663693724400,5.348724365234375,0.48589423298835754,0.8494939208030701,0.258527010679245
1788861663703731200,5.358731201171875,0.6318709254264832,0.9470503330230713,0.2589355409145355
1788861663713737200,5.3687373046875,0.7867348790168762,0.927952766418457,0.28047916293144226
1788861663723743200,5.3787431640625,0.9506961107254028,0.9121266603469849,0.30703112483024597
1788861663733750300,5.388750244140625,1.1398627758026123,0.7861157655715942,0.31930774450302124
1788861663743756300,5.39875634765625,1.3017696142196655,0.6638180613517761,0.34256938099861145
1788861663753762300,5.40876220703125,1.4428547620773315,0.6523815989494324,0.363714337348938
1788861663763769300,5.418769287109375,1.593992829322815,0.7123305201530457,0.3811666965484619
1788861663773775400,5.428775390625,1.7549629211425781,0.7622379064559937,0.39851585030555725
1788861663783781400,5.438781494140625,1.9185065031051636,0.7221493721008301,0.450353741645813
1788861663793788200,5.4487880859375,2.071518659591675,0.6302449107170105,0.47613242268562317
1788861663803794400,5.45879443359375,2.165360450744629,0.5543531179428101,0.45038869976997375
1788861663813801200,5.46880126953125,2.2214488983154297,0.5106477737426758,0.4770752787590027
1788861663823807200,5.47880712890625,2.2368319034576416,0.49427545070648193,0.47612959146499634
1788861663833813200,5.488813232421875,2.2132976055145264,0.5524238348007202,0.43327420949935913
1788861663843820300,5.4988203125,2.201889991760254,0.6127556562423706,0.41336387395858765
1788861663853826300,5.508826416015625,2.2077741622924805,0.5555204153060913,0.414297878742218
1788861663863832300,5.518832275390625,2.2401726245880127,0.44519203901290894,0.4856906831264496
1788861663873839400,5.52883935546875,2.317795515060425,0.35701239109039307,0.5831748843193054
1788861663883845400,5.538845458984375,2.3770151138305664,0.32087916135787964,0.6669837236404419
1788861663893851400,5.548851318359375,2.4015369415283203,0.285765141248703,0.7249786257743835
1788861663903858000,5.55885791015625,2.3803937435150146,0.2332308292388916,0.7552430629730225
1788861663913864200,5.5688642578125,2.3040032386779785,0.19258615374565125,0.7804436683654785
1788861663923870200,5.5788701171875,2.177095651626587,0.22581280767917633,0.8462280035018921
1788861663933877000,5.588876953125,2.050652027130127,0.2144237607717514,0.9350108504295349
1788861663943883000,5.598883056640625,1.9194109439849854,0.10785231739282608,0.992761492729187
1788861663953889000,5.608888916015625,1.8313333988189697,0.0429852157831192,0.9961984753608704
1788861663963896000,5.61889599609375,1.771706223487854,0.04279857128858566,0.9475241899490356
1788861663973902000,5.628902099609375,1.6840919256210327,0.013997016474604607,0.8560981154441833
1788861663983907800,5.638907958984375,1.5515687465667725,-0.009743998758494854,0.7605641484260559
1788861663993915100,5.6489150390625,1.364931344985962,-0.017826993018388748,0.692759096622467
1788861664003921200,5.658921142578125,1.1390845775604248,0.0074908798560500145,0.6291257739067078
1788861664013927000,5.668927001953125,0.9273959398269653,0.08735060691833496,0.5478450059890747
1788861664023934200,5.678934326171875,0.7340759634971619,0.12193814665079117,0.4310225546360016
1788861664033940000,5.68893994140625,0.5307486057281494,0.08309902250766754,0.2762554883956909
1788861664043946000,5.698946044921875,0.3066989779472351,-0.027195530012249947,0.12094712257385254
1788861664053953300,5.708953369140625,0.07870348542928696,-0.15495234727859497,-0.0024982087779790163
1788861664063959000,5.718958984375,-0.08557827025651932,-0.15837162733078003,-0.07417184114456177
1788861664073966000,5.728966064453125,-0.227944478392601,-0.13470330834388733,-0.10308311879634857
1788861664083972000,5.73897216796875,-0.3649712800979614,-0.09375055134296417,-0.13157148659229279
1788861664093978000,5.74897802734375,-0.4837912321090698,-0.020122867077589035,-0.1998886913061142
1788861664103985200,5.758985107421875,-0.575606107711792,0.018464740365743637,-0.2876241207122803
1788861664113991000,5.768990966796875,-0.6706922054290771,-0.01275739073753357,-0.34320005774497986
1788861664123997000,5.778996826171875,-0.7632303833961487,-0.050394780933856964,-0.3665807545185089
1788861664134004200,5.789004150390625,-0.8301713466644287,-0.03274470567703247,-0.3525664806365967
1788861664144010000,5.799010009765625,-0.9419838786125183,0.04836639016866684,-0.34731554985046387
1788861664154016000,5.80901611328125,-1.108751893043518,0.1718345284461975,-0.3580494821071625
1788861664164023000,5.81902294921875,-1.2780649662017822,0.3087979853153229,-0.346400648355484
1788861664174029000,5.829029052734375,-1.3677573204040527,0.40829262137413025,-0.3751007318496704
1788861664184035000,5.83903515625,-1.3124442100524902,0.45663484930992126,-0.40722113847732544
1788861664194041900,5.849041748046875,-1.1661745309829712,0.36369588971138,-0.3659791946411133
1788861664204048100,5.859048095703125,-1.0474579334259033,0.19668346643447876,-0.2720737159252167
1788861664214054100,5.86905419921875,-1.0727248191833496,0.005285630002617836,-0.2963147759437561
1788861664224061000,5.87906103515625,-1.24812912940979,-0.17756541073322296,-0.4139748215675354
1788861664234067000,5.88906689453125,-1.4438731670379639,-0.2756265103816986,-0.4369974136352539
1788861664244074000,5.899073974609375,-1.5346107482910156,-0.2610984444618225,-0.3721560835838318
1788861664254080000,5.909080078125,-1.5596975088119507,-0.2090730369091034,-0.35120493173599243
1788861664264086000,5.9190859375,-1.56082022190094,-0.10692615807056427,-0.4502473473548889
1788861664274093000,5.929093017578125,-1.5302008390426636,-0.00017052353359758854,-0.5687700510025024
1788861664284099000,5.93909912109375,-1.477564811706543,-0.020828930661082268,-0.6253600716590881
1788861664294105000,5.94910498046875,-1.418389916419983,-0.23085851967334747,-0.6041266918182373
1788861664304111900,5.95911181640625,-1.3421087265014648,-0.48259061574935913,-0.576214611530304
1788861664314118100,5.9691181640625,-1.2874574661254883,-0.6529423594474792,-0.5618647933006287
1788861664324124200,5.979124267578125,-1.3126474618911743,-0.7094029784202576,-0.6267196536064148
1788861664334131000,5.989130859375,-1.3740652799606323,-0.5967166423797607,-0.7362545132637024
1788861664344137000,5.999136962890625,-1.4459898471832275,-0.401726633310318,-0.7978949546813965
1788861664354143200,6.009143310546875,-1.5026744604110718,-0.28745362162590027,-0.8168745636940002
1788861664364150000,6.01914990234375,-1.507529377937317,-0.2692708969116211,-0.7890632152557373
1788861664374156000,6.029156005859375,-1.5090272426605225,-0.2591887414455414,-0.7589065432548523
1788861664384162000,6.039162109375,-1.4987401962280273,-0.28013771772384644,-0.7338432669639587
1788861664394169000,6.049169189453125,-1.4825410842895508,-0.3638964593410492,-0.7191352844238281
1788861664404175000,6.059175048828125,-1.5008209943771362,-0.5138036608695984,-0.758304238319397
1788861664414181000,6.06918115234375,-1.5514988899230957,-0.6589161157608032,-0.7968370318412781
1788861664424188200,6.079188232421875,-1.5858409404754639,-0.8080888390541077,-0.7668673992156982
1788861664434194200,6.089194091796875,-1.5862239599227905,-0.973322868347168,-0.7185601592063904
1788861664444201000,6.099200927734375,-1.5405430793762207,-1.06898033618927,-0.7046678066253662
1788861664454207000,6.10920703125,-1.472669243812561,-0.9890146255493164,-0.7366851568222046
1788861664464213200,6.119213134765625,-1.4205738306045532,-0.804946780204773,-0.7609356641769409
1788861664474220000,6.129219970703125,-1.3936314582824707,-0.6990973949432373,-0.7284723520278931
1788861664484226000,6.13922607421875,-1.3063921928405762,-0.6603907942771912,-0.6409925818443298
1788861664494232000,6.149232177734375,-1.1792033910751343,-0.6294020414352417,-0.5795283913612366
1788861664504239000,6.159239013671875,-1.0345189571380615,-0.6156915426254272,-0.5444308519363403
1788861664514245000,6.1692451171875,-0.840156078338623,-0.6290642023086548,-0.441119909286499
1788861664524251000,6.1792509765625,-0.6215047240257263,-0.6515008211135864,-0.3545767366886139
1788861664534258200,6.189258056640625,-0.4740718603134155,-0.5891048312187195,-0.3352035880088806
1788861664544264200,6.19926416015625,-0.3937254846096039,-0.4770645797252655,-0.3433128893375397
1788861664554270000,6.20927001953125,-0.34671032428741455,-0.4053885340690613,-0.2992303967475891
1788861664564277000,6.219277099609375,-0.2751445174217224,-0.23381437361240387,-0.20839661359786987
1788861664574283000,6.229282958984375,-0.15564513206481934,-0.10362520813941956,-0.16262269020080566
1788861664584290000,6.2392900390625,-0.012098084203898907,0.008738351985812187,-0.13138914108276367
1788861664594296000,6.249296142578125,0.1724647581577301,0.19069804251194,-0.054533131420612335
1788861664604302000,6.259302001953125,0.35515841841697693,0.4212217926979065,0.0551329143345356
1788861664614309000,6.26930908203125,0.5447373986244202,0.6058757901191711,0.14951542019844055
1788861664624315100,6.279315185546875,0.7499473094940186,0.6674318313598633,0.23464363813400269
1788861664634321000,6.28932080078125,0.9645061492919922,0.6816060543060303,0.2630031704902649
1788861664644328200,6.299328125,1.1772018671035767,0.6862074732780457,0.3012477457523346
1788861664654334000,6.309333984375,1.3395906686782837,0.6700384616851807,0.33299341797828674
1788861664664340000,6.319340087890625,1.4420044422149658,0.6408504843711853,0.34212008118629456
1788861664674347300,6.32934716796875,1.526550531387329,0.5766401886940002,0.4048875868320465
1788861664684353000,6.33935302734375,1.618675708770752,0.5308434367179871,0.49733176827430725
1788861664694359000,6.349359130859375,1.7265949249267578,0.5443919897079468,0.5344265699386597
1788861664704366000,6.359365966796875,1.8391427993774414,0.5896691679954529,0.5535456538200378
1788861664714372000,6.3693720703125,1.9327142238616943,0.6154011487960815,0.6143997311592102
1788861664724379100,6.379379150390625,1.9805622100830078,0.6388803720474243,0.6906659603118896
1788861664734385000,6.389385009765625,2.0175673961639404,0.6469867825508118,0.7452242970466614
1788861664744391000,6.399390869140625,2.0373454093933105,0.6636379361152649,0.7650771141052246
1788861664754398200,6.409398193359375,2.054166078567505,0.6597999334335327,0.7973579168319702
1788861664764404000,6.419404052734375,2.1103005409240723,0.5842908024787903,0.8616463541984558
1788861664774410000,6.429409912109375,2.1796414852142334,0.44102832674980164,0.9151796698570251
1788861664784417300,6.439417236328125,2.232116222381592,0.2701551020145416,0.9524106979370117
1788861664794423000,6.449423095703125,2.2467586994171143,0.06836551427841187,1.0044550895690918
1788861664804429000,6.459428955078125,2.21220326423645,-0.05406719073653221,1.0761393308639526
1788861664814435800,6.469435791015625,2.1443819999694824,-0.09374800324440002,1.1163029670715332
1788861664824442000,6.479442138671875,2.0899240970611572,-0.05600142106413841,1.1432688236236572
1788861664834449200,6.48944921875,2.065581798553467,-0.02576848305761814,1.154731035232544
1788861664844455000,6.499454833984375,2.029249668121338,-0.03673051297664642,1.1578595638275146
1788861664854461000,6.5094609375,1.958486795425415,-0.03381968289613724,1.1354753971099854
1788861664864468200,6.51946826171875,1.8851704597473145,0.0561797171831131,1.0835763216018677
1788861664874474000,6.529473876953125,1.8267874717712402,0.17097310721874237,0.9902125000953674
1788861664884480000,6.53947998046875,1.7258418798446655,0.22225280106067657,0.8648042678833008
1788861664894487000,6.549487060546875,1.5626107454299927,0.1551499217748642,0.7671921849250793
1788861664904493600,6.55949365234375,1.3437647819519043,-0.04516027867794037,0.6874001622200012
1788861664914499600,6.56949951171875,1.097656488418579,-0.26303237676620483,0.6160838007926941
1788861664924506400,6.57950634765625,0.8683287501335144,-0.3811025619506836,0.55527263879776
1788861664934512400,6.589512451171875,0.6811423301696777,-0.32853201031684875,0.5174421072006226
1788861664944518700,6.5995185546875,0.530190646648407,-0.17729268968105316,0.4932691156864166
1788861664954525400,6.609525390625,0.3627600073814392,-0.003293188288807869,0.4467155933380127
1788861664964531500,6.619531494140625,0.16405171155929565,0.18119169771671295,0.33099856972694397
1788861664974538500,6.62953857421875,-0.0038068692665547132,0.3586415946483612,0.16561797261238098
1788861664984544500,6.63954443359375,-0.09669420123100281,0.40404370427131653,0.024259518831968307
1788861664994550500,6.649550537109375,-0.15530918538570404,0.24871288239955902,-0.031031152233481407
1788861665004557300,6.659557373046875,-0.21498024463653564,-0.03531031310558319,-0.00959270354360342
1788861665014563600,6.6695634765625,-0.31746986508369446,-0.25592198967933655,0.00883950013667345
1788861665024569600,6.679569580078125,-0.5012637376785278,-0.30192676186561584,-0.035385750234127045
1788861665034576400,6.689576416015625,-0.693057656288147,-0.25447750091552734,-0.1111803874373436
1788861665044582400,6.69958251953125,-0.8592705726623535,-0.15280388295650482,-0.17436228692531586
1788861665054588700,6.709588623046875,-0.9951561689376831,-0.07470748573541641,-0.254826158285141
1788861665064595500,6.719595458984375,-1.0794912576675415,0.034956157207489014,-0.36872315406799316
1788861665074601500,6.7296015625,-1.0966038703918457,0.2186480462551117,-0.4697314202785492
1788861665084608500,6.7396083984375,-1.0633341073989868,0.38392648100852966,-0.48877063393592834
1788861665094614500,6.749614501953125,-1.0298142433166504,0.47461214661598206,-0.3804984390735626
1788861665104620500,6.75962060546875,-1.0649064779281616,0.4408573806285858,-0.2454865425825119
1788861665114627300,6.76962744140625,-1.1586440801620483,0.2848019003868103,-0.2537130117416382
1788861665124633600,6.779633544921875,-1.2299566268920898,0.18529900908470154,-0.36875811219215393
1788861665134639600,6.7896396484375,-1.2505892515182495,0.19760525226593018,-0.5233644843101501
1788861665144646400,6.799646484375,-1.2570456266403198,0.26231715083122253,-0.6361267566680908
1788861665154652400,6.80965234375,-1.2839850187301636,0.26124629378318787,-0.6620462536811829
1788861665164658400,6.819658447265625,-1.3292728662490845,0.14705981314182281,-0.6811631917953491
1788861665174665500,6.82966552734375,-1.376682162284851,0.034324705600738525,-0.709726870059967
1788861665184671500,6.83967138671875,-1.4093157052993774,-0.05986917018890381,-0.7109982967376709
1788861665194678500,6.849678466796875,-1.4157841205596924,-0.14651906490325928,-0.6692275404930115
1788861665204684500,6.8596845703125,-1.4522472620010376,-0.20660902559757233,-0.6121237277984619
1788861665214690600,6.869690673828125,-1.5456886291503906,-0.23614591360092163,-0.6244796514511108
1788861665224697300,6.879697265625,-1.6500357389450073,-0.17286920547485352,-0.686701238155365
1788861665234703600,6.88970361328125,-1.7081834077835083,-0.14906322956085205,-0.7354085445404053
1788861665244709400,6.89970947265625,-1.6732640266418457,-0.27477163076400757,-0.7535973787307739
1788861665254716400,6.90971630859375,-1.5895110368728638,-0.4851468801498413,-0.7484638690948486
1788861665264722700,6.91972265625,-1.5432151556015015,-0.6790726780891418,-0.7356396317481995
1788861665274729500,6.9297294921875,-1.5305062532424927,-0.7979341745376587,-0.7343666553497314
1788861665284735500,6.939735595703125,-1.529378056526184,-0.8901224732398987,-0.7262182235717773
1788861665294741500,6.949741455078125,-1.534210443496704,-0.9682405591011047,-0.6854150891304016
1788861665304748500,6.95974853515625,-1.5257402658462524,-1.0066899061203003,-0.6468996405601501
1788861665314754600,6.969754638671875,-1.5103787183761597,-1.0179804563522339,-0.6327827572822571
1788861665324760300,6.97976025390625,-1.5017772912979126,-1.0360175371170044,-0.6390017867088318
1788861665334767600,6.989767578125,-1.4703500270843506,-1.025390625,-0.6422737836837769
1788861665344773600,6.999773681640625,-1.410805106163025,-0.9553713798522949,-0.6245480179786682
1788861665354779400,7.009779296875,-1.327927827835083,-0.9116710424423218,-0.6241260170936584
1788861665364786400,7.019786376953125,-1.2799652814865112,-0.9508586525917053,-0.6508340239524841
1788861665374792400,7.02979248046875,-1.2849172353744507,-0.9602329730987549,-0.6892454028129578
1788861665384799500,7.039799560546875,-1.2830301523208618,-0.8393052220344543,-0.6514599323272705
1788861665394805500,7.049805419921875,-1.216784119606018,-0.6300463080406189,-0.5472058057785034
1788861665404811300,7.059811279296875,-1.1060736179351807,-0.5067489147186279,-0.4587997794151306
1788861665414818600,7.069818603515625,-0.9850993156433105,-0.5031688213348389,-0.42612361907958984
1788861665424824600,7.079824462890625,-0.8682933449745178,-0.47538647055625916,-0.43072769045829773
1788861665434830300,7.089830322265625,-0.7564427256584167,-0.41484448313713074,-0.40292707085609436
1788861665444837600,7.099837646484375,-0.6429867744445801,-0.31340840458869934,-0.31666460633277893
1788861665454843600,7.10984375,-0.5245823860168457,-0.20451392233371735,-0.23927342891693115
1788861665464849400,7.119849365234375,-0.40192726254463196,-0.12253276258707047,-0.22081319987773895
1788861665474856400,7.1298564453125,-0.2848658561706543,-0.021449560299515724,-0.20948536694049835
1788861665484862500,7.139862548828125,-0.19474342465400696,0.020919468253850937,-0.16717520356178284
1788861665494869500,7.149869384765625,-0.12033378332853317,0.031137501820921898,-0.10529641807079315
1788861665504875500,7.15987548828125,-0.006134775001555681,0.05732063949108124,-0.04239761084318161
1788861665514881300,7.16988134765625,0.1540294885635376,0.07735960930585861,0.0032287705689668655
1788861665524888600,7.179888671875,0.3392116129398346,0.1459173560142517,0.05391724780201912
1788861665534894600,7.18989453125,0.5248804688453674,0.25861215591430664,0.1121322512626648
1788861665544900400,7.199900390625,0.6977300047874451,0.325225293636322,0.16258051991462708
1788861665554907600,7.20990771484375,0.8610344529151917,0.36741432547569275,0.21924231946468353
1788861665564913400,7.219913330078125,1.0154008865356445,0.3783356845378876,0.27637115120887756
1788861665574919400,7.22991943359375,1.1544256210327148,0.3882647454738617,0.3253142535686493
1788861665584926500,7.239926513671875,1.2792128324508667,0.4382493495941162,0.37167641520500183
1788861665594932500,7.249932373046875,1.4200485944747925,0.548993706703186,0.42706039547920227
1788861665604939500,7.259939453125,1.5870814323425293,0.6177522540092468,0.4960583746433258
1788861665614945500,7.269945556640625,1.7369089126586914,0.6152267456054688,0.5386747121810913
1788861665624951300,7.279951416015625,1.8228211402893066,0.6163175702095032,0.5671944618225098
1788861665634958600,7.28995849609375,1.8705123662948608,0.6811083555221558,0.6083874106407166
1788861665644964400,7.29996435546875,1.9316692352294922,0.7319640517234802,0.6705724596977234
1788861665654970400,7.309970458984375,2.0157296657562256,0.6342290043830872,0.7316616177558899
1788861665664977700,7.319977783203125,2.074700355529785,0.4753490388393402,0.7728722095489502
1788861665674983400,7.3299833984375,2.0956199169158936,0.39160752296447754,0.8074966073036194
1788861665684990500,7.339990478515625,2.119656562805176,0.3558969497680664,0.859749436378479
1788861665694996500,7.34999658203125,2.165879964828491,0.28982529044151306,0.9025681018829346
1788861665705002500,7.36000244140625,2.20184063911438,0.19929486513137817,0.9213657975196838
1788861665715009500,7.370009521484375,2.205693244934082,0.11923569440841675,0.9811251163482666
1788861665725015300,7.380015380859375,2.1774826049804688,0.02223457768559456,1.0768511295318604
1788861665735021300,7.390021240234375,2.125190258026123,-0.09154178947210312,1.1494131088256836
1788861665745028600,7.400028564453125,2.0540523529052734,-0.16467219591140747,1.1887445449829102
1788861665755034400,7.410034423828125,1.9889053106307983,-0.14090736210346222,1.2017487287521362
1788861665765040400,7.420040283203125,1.944918155670166,-0.030432792380452156,1.1910524368286133
1788861665775047400,7.43004736328125,1.899631142616272,0.12537291646003723,1.145082712173462
1788861665785053400,7.440053466796875,1.8536193370819092,0.3073946535587311,1.0978214740753174
1788861665795060500,7.450060546875,1.870705485343933,0.5658053755760193,1.0804847478866577
1788861665805066500,7.46006640625,1.9533231258392334,0.7634657621383667,1.0673772096633911
1788861665815072500,7.470072509765625,2.0210936069488525,0.7902489304542542,1.0100849866867065
1788861665825079600,7.48007958984375,1.9632080793380737,0.5470232367515564,0.9237490892410278
1788861665835085300,7.490085205078125,1.7363039255142212,0.08625879883766174,0.8452045917510986
1788861665845091600,7.500091552734375,1.3905564546585083,-0.39706653356552124,0.803707480430603
1788861665855098400,7.510098388671875,0.9869953989982605,-0.5765950083732605,0.7609317898750305
1788861665865104400,7.5201044921875,0.6022914052009583,-0.5018718242645264,0.6714046001434326
1788861665875111700,7.530111572265625,0.30777212977409363,-0.3002129793167114,0.5401360392570496
1788861665885117400,7.540117431640625,0.1042320653796196,-0.07150203734636307,0.3988564610481262
1788861665895123500,7.55012353515625,-0.04377589374780655,0.10545434802770615,0.26040008664131165
1788861665905130800,7.560130859375,-0.1739828884601593,0.19050292670726776,0.14724475145339966
1788861665915136800,7.57013671875,-0.28458717465400696,0.11503133922815323,0.09407820552587509
1788861665925142800,7.580142822265625,-0.39310139417648315,-0.039570488035678864,0.0774339810013771
1788861665935149800,7.59014990234375,-0.5036873817443848,-0.12984660267829895,0.0429462268948555
1788861665945155800,7.60015576171875,-0.6325010061264038,-0.08327747136354446,-0.03615645319223404
1788861665955163000,7.610162841796875,-0.7339075207710266,-0.013501590117812157,-0.12576250731945038
1788861665965168600,7.620168701171875,-0.8460966944694519,0.004657439887523651,-0.20833007991313934
1788861665975175000,7.6301748046875,-1.0048803091049194,0.006456947419792414,-0.2892535924911499
1788861665985181700,7.640181640625,-1.164747714996338,0.036301128566265106,-0.3122422695159912
1788861665995187700,7.650187744140625,-1.2905120849609375,0.07694306969642639,-0.33618754148483276
1788861666005193700,7.66019384765625,-1.345568299293518,0.16268327832221985,-0.37792301177978516
1788861666015200800,7.67020068359375,-1.3404130935668945,0.27934175729751587,-0.36359766125679016
1788861666025206800,7.680206787109375,-1.3559534549713135,0.38033202290534973,-0.31480321288108826
1788861666035213800,7.6902138671875,-1.4203983545303345,0.38730332255363464,-0.2667432129383087
1788861666045219800,7.7002197265625,-1.4848393201828003,0.38678908348083496,-0.2783985137939453
1788861666055225900,7.710225830078125,-1.4895954132080078,0.4516841769218445,-0.34684038162231445
1788861666065232600,7.720232666015625,-1.4589000940322876,0.49128884077072144,-0.42178577184677124
1788861666075238700,7.73023876953125,-1.4293875694274902,0.3782387971878052,-0.4739452302455902
1788861666085245000,7.740244873046875,-1.4080610275268555,0.21935485303401947,-0.46133196353912354
1788861666095251700,7.750251708984375,-1.4026862382888794,0.11459307372570038,-0.4275217652320862
1788861666105257700,7.7602578125,-1.438582181930542,0.14686793088912964,-0.4220031499862671
1788861666115264800,7.7702646484375,-1.5020626783370972,0.18482662737369537,-0.45119065046310425
1788861666125270800,7.780270751953125,-1.5793089866638184,0.10781680047512054,-0.4886258840560913
1788861666135276800,7.79027685546875,-1.6589715480804443,0.032090939581394196,-0.5106008648872375
1788861666145283600,7.80028369140625,-1.703413963317871,-0.08002150803804398,-0.520837128162384
1788861666155289900,7.810289794921875,-1.6997971534729004,-0.2340550273656845,-0.5317630171775818
1788861666165295900,7.8202958984375,-1.6656180620193481,-0.35106685757637024,-0.5321187973022461
1788861666175302700,7.830302734375,-1.621364712715149,-0.4034586548805237,-0.594994306564331
1788861666185308700,7.84030859375,-1.5962839126586914,-0.4137326180934906,-0.6852403283119202
1788861666195315000,7.85031494140625,-1.6006474494934082,-0.4306623339653015,-0.7684636116027832
1788861666205321700,7.86032177734375,-1.600420355796814,-0.4710691273212433,-0.7935044765472412
1788861666215327700,7.87032763671875,-1.577804446220398,-0.5663376450538635,-0.7581766247749329
1788861666225334800,7.880334716796875,-1.5326406955718994,-0.6200485825538635,-0.7264032363891602
1788861666235340800,7.8903408203125,-1.4866541624069214,-0.5936189889907837,-0.7097176313400269
1788861666245346800,7.900346923828125,-1.4614675045013428,-0.554750919342041,-0.6847702860832214
1788861666255353600,7.910353515625,-1.4585810899734497,-0.6289055943489075,-0.6631022691726685
1788861666265360000,7.92035986328125,-1.4582256078720093,-0.7712051868438721,-0.6802149415016174
1788861666275366000,7.930365966796875,-1.4481816291809082,-0.8749300837516785,-0.7107451558113098
1788861666285372700,7.94037255859375,-1.3987782001495361,-0.9701087474822998,-0.7309116721153259
1788861666295378700,7.950378662109375,-1.3108491897583008,-1.057227373123169,-0.7205848693847656
1788861666305385700,7.9603857421875,-1.2541217803955078,-1.0937881469726562,-0.6746357083320618
1788861666315391700,7.970391845703125,-1.2247881889343262,-1.130646824836731,-0.6627551317214966
1788861666325397800,7.980397705078125,-1.226644515991211,-1.1480382680892944,-0.6593366861343384
1788861666335404800,7.99040478515625,-1.2228379249572754,-1.0561845302581787,-0.6700613498687744
1788861666345410800,8.000410888671874,-1.1826080083847046,-0.9597660303115845,-0.670620322227478
1788861666355417900,8.01041796875,-1.1059430837631226,-0.7938188910484314,-0.5891704559326172
1788861666365423900,8.020423828125,-1.0013631582260132,-0.5366920232772827,-0.4804365336894989
1788861666375430000,8.030429931640626,-0.8224334120750427,-0.33604171872138977,-0.4741707742214203
1788861666385436700,8.040436767578125,-0.5989081859588623,-0.26979318261146545,-0.5147294402122498
1788861666395442700,8.050442626953124,-0.3992690145969391,-0.15861459076404572,-0.45148125290870667
1788861666405449000,8.060448974609375,-0.25778380036354065,-0.004695328883826733,-0.24827036261558533
1788861666415455700,8.070455810546875,-0.17924799025058746,0.17240092158317566,-0.07124637067317963
1788861666425461800,8.080461669921876,-0.12046270817518234,0.2821196913719177,-0.02470097318291664
1788861666435468800,8.09046875,-0.009722769260406494,0.24933883547782898,-0.017903294414281845
1788861666445474800,8.100474853515625,0.1578037291765213,0.38524582982063293,0.06833001971244812
1788861666455480800,8.110480712890626,0.32406142354011536,0.5541184544563293,0.1057698056101799
1788861666465487600,8.120487548828125,0.4919494688510895,0.7246960401535034,0.09491982311010361
1788861666475494000,8.130493896484374,0.663499116897583,0.787043035030365,0.1150982528924942
1788861666485500000,8.1405,0.8146343231201172,0.6983986496925354,0.16354940831661224
1788861666495506700,8.150506591796875,0.9403659701347351,0.6422054171562195,0.23019921779632568
1788861666505512700,8.1605126953125,1.0862802267074585,0.6559723615646362,0.25789129734039307
1788861666515519000,8.17051904296875,1.2535529136657715,0.6257085204124451,0.280565470457077
1788861666525525800,8.18052587890625,1.43267023563385,0.6007571220397949,0.33506011962890625
1788861666535531800,8.19053173828125,1.6090432405471802,0.5460930466651917,0.3834783732891083
1788861666545538800,8.200538818359375,1.727150559425354,0.5515682101249695,0.4196474552154541
1788861666555544800,8.210544921875,1.8208948373794556,0.6099348664283752,0.45257318019866943
1788861666565550800,8.22055078125,1.8851138353347778,0.654791533946991,0.47841060161590576
1788861666575557600,8.2305576171875,1.9369109869003296,0.6825302243232727,0.4836307466030121
1788861666585564000,8.24056396484375,1.9830049276351929,0.6318358778953552,0.4790429174900055
1788861666595570700,8.25057080078125,2.011061668395996,0.5450581312179565,0.5114102363586426
1788861666605576700,8.26057666015625,2.0034546852111816,0.5014632344245911,0.5704812407493591
1788861666615582700,8.270582763671875,1.99227774143219,0.5317749381065369,0.6550632119178772
1788861666625589800,8.28058984375,2.037594795227051,0.5681235790252686,0.7382789850234985
1788861666635595800,8.290595703125,2.1399483680725098,0.5390260219573975,0.791430652141571
1788861666645601800,8.300601806640625,2.2559595108032227,0.46503305435180664,0.8298176527023315
1788861666655608800,8.31060888671875,2.3408896923065186,0.3744554817676544,0.9043552279472351
1788861666665614800,8.32061474609375,2.3686695098876953,0.22897818684577942,0.976909875869751
1788861666675621600,8.33062158203125,2.341813802719116,0.025392573326826096,1.002606987953186
1788861666685627600,8.340627685546876,2.242542266845703,-0.12922176718711853,1.022103190422058
1788861666695634000,8.350634033203125,2.1041488647460938,-0.1577109843492508,1.0387005805969238
1788861666705640700,8.360640625,1.9769556522369385,-0.12827372550964355,1.0747618675231934
1788861666715646700,8.370646728515625,1.880845546722412,-0.16635018587112427,1.0876344442367554
1788861666725652700,8.38065283203125,1.8314952850341797,-0.24989141523838043,1.0389900207519531
1788861666735659800,8.39065966796875,1.8095159530639648,-0.21386268734931946,0.9525986313819885
1788861666745665800,8.400665771484375,1.7874728441238403,0.018469933420419693,0.8548837900161743
1788861666755672600,8.410672607421875,1.758411169052124,0.29226312041282654,0.7656466364860535
1788861666765678800,8.420678955078126,1.732790231704712,0.506393551826477,0.7004942297935486
1788861666775684900,8.430684814453125,1.6495964527130127,0.52970951795578,0.6351203322410583
1788861666785691600,8.440691650390624,1.4453109502792358,0.39894482493400574,0.5580186247825623
1788861666795697700,8.45069775390625,1.155967116355896,0.17804604768753052,0.46843093633651733
1788861666805704000,8.460703857421874,0.8482978940010071,-0.01812373287975788,0.3319367468357086
1788861666815710700,8.470710693359376,0.5428972244262695,-0.1334923803806305,0.13990484178066254
1788861666825716700,8.480716796875,0.26016777753829956,-0.174526646733284,-0.039244942367076874
1788861666835723800,8.490723876953124,0.009718782268464565,-0.059331849217414856,-0.140231192111969
1788861666845729800,8.500729736328125,-0.1666610985994339,0.014713558368384838,-0.15747418999671936
1788861666855735800,8.51073583984375,-0.28773027658462524,-0.02249719202518463,-0.17526064813137054
1788861666865742600,8.52074267578125,-0.3957803249359131,-0.08926583081483841,-0.2166999727487564
1788861666875748900,8.530748779296875,-0.5068013668060303,-0.1448798030614853,-0.2819099426269531
1788861666885755000,8.5407548828125,-0.6184259057044983,-0.15317873656749725,-0.3552352786064148
1788861666895761700,8.55076171875,-0.7227485775947571,-0.09996028989553452,-0.3786023259162903
1788861666905767000,8.560766845703125,-0.8044325113296509,-0.05142631381750107,-0.32067376375198364
1788861666915774200,8.570774169921876,-0.8889244794845581,-0.025989927351474762,-0.23929928243160248
1788861666925780000,8.580780029296875,-0.9996057748794556,-0.021197836846113205,-0.2116871029138565
1788861666935786000,8.590785888671874,-1.090132236480713,0.01376151479780674,-0.22327405214309692
1788861666945793000,8.60079296875,-1.1673825979232788,0.12099582701921463,-0.22729834914207458
1788861666955799000,8.610799072265625,-1.2519901990890503,0.20669923722743988,-0.23433512449264526
1788861666965806000,8.62080615234375,-1.3029804229736328,0.2899014353752136,-0.25105124711990356
1788861666975811800,8.630811767578125,-1.3110413551330566,0.35525181889533997,-0.24564270675182343
1788861666985818000,8.640818115234374,-1.3209164142608643,0.347935289144516,-0.1654016673564911
1788861666995825200,8.6508251953125,-1.3330179452896118,0.263404905796051,-0.1279163956642151
1788861667005831000,8.660830810546875,-1.320797324180603,0.14015570282936096,-0.15911346673965454
1788861667015837000,8.6708369140625,-1.3436399698257446,0.048452336341142654,-0.19579365849494934
1788861667025844200,8.68084423828125,-1.3778146505355835,-0.01933097466826439,-0.22346018254756927
1788861667035850000,8.69085009765625,-1.3953777551651,-0.009394679218530655,-0.16462230682373047
1788861667045857000,8.70085693359375,-1.3872439861297607,0.0522519089281559,-0.09631861001253128
1788861667055863000,8.710863037109375,-1.3687599897384644,0.027192851528525352,-0.12067467719316483
1788861667065869000,8.720869140625,-1.394580364227295,-0.08264043927192688,-0.23027707636356354
1788861667075876000,8.7308759765625,-1.475683331489563,-0.17763561010360718,-0.34117603302001953
1788861667085881900,8.7408818359375,-1.5670968294143677,-0.25672033429145813,-0.32659628987312317
1788861667095888100,8.75088818359375,-1.647189974784851,-0.5170243382453918,-0.22915400564670563
1788861667105895200,8.760895263671875,-1.6450799703598022,-0.7532413601875305,-0.2420695424079895
1788861667115901000,8.77090087890625,-1.599053978919983,-0.722571611404419,-0.3603360652923584
1788861667125908200,8.780908203125,-1.5570851564407349,-0.578062117099762,-0.5320290327072144
1788861667135914000,8.7909140625,-1.508185863494873,-0.4571607708930969,-0.6539782881736755
1788861667145920000,8.800919921875,-1.4485012292861938,-0.409709632396698,-0.6710584759712219
1788861667155927000,8.810927001953125,-1.402117371559143,-0.42255833745002747,-0.6180940270423889
1788861667165933000,8.82093310546875,-1.4070122241973877,-0.4568401277065277,-0.6027512550354004
1788861667175939000,8.83093896484375,-1.4162276983261108,-0.41487112641334534,-0.6473069190979004
1788861667185946000,8.840946044921875,-1.4151906967163086,-0.358416885137558,-0.6798661947250366
1788861667195951900,8.850951904296876,-1.4165536165237427,-0.41099458932876587,-0.6684820652008057
1788861667205959200,8.860959228515625,-1.4111684560775757,-0.573502779006958,-0.653075635433197
1788861667215965000,8.87096484375,-1.3861860036849976,-0.7350455522537231,-0.6471654176712036
1788861667225971000,8.880970947265626,-1.3593509197235107,-0.7797509431838989,-0.6521703004837036
1788861667235978200,8.890978271484375,-1.3342664241790771,-0.8312525749206543,-0.6614031791687012
1788861667245984000,8.90098388671875,-1.2963759899139404,-0.957173764705658,-0.6650578379631042
1788861667255990000,8.910989990234375,-1.25336754322052,-1.105658769607544,-0.6897087097167969
1788861667265997000,8.9209970703125,-1.1976385116577148,-1.1143505573272705,-0.7122601270675659
1788861667276003000,8.931003173828126,-1.168444275856018,-1.058496356010437,-0.7212144732475281
1788861667286010000,8.941010009765625,-1.1351886987686157,-1.0194802284240723,-0.7389575242996216
1788861667296016000,8.951015869140624,-1.0688691139221191,-0.8978286981582642,-0.7230225801467896
1788861667306022100,8.961022216796875,-0.9790427684783936,-0.6252325773239136,-0.6712219715118408
1788861667316029200,8.971029296875,-0.865027904510498,-0.4144858717918396,-0.5988426804542542
1788861667326035000,8.981034912109376,-0.7452484965324402,-0.3444252908229828,-0.5138391256332397
1788861667336042200,8.991042236328125,-0.5795435309410095,-0.2879519462585449,-0.45421144366264343
1788861667346048000,9.001048095703124,-0.42222127318382263,-0.20525920391082764,-0.4607316851615906
1788861667356054000,9.011053955078125,-0.3005857467651367,-0.05687851831316948,-0.3908059895038605
1788861667366061000,9.02106103515625,-0.15284395217895508,0.08478833734989166,-0.22768259048461914
1788861667376067000,9.031067138671874,-0.019807271659374237,0.16696253418922424,-0.2044258713722229
1788861667386073000,9.041072998046875,0.12014583498239517,0.23534531891345978,-0.17653298377990723
1788861667396080000,9.051080078125,0.2854576110839844,0.29551857709884644,-0.05668633431196213
1788861667406086000,9.0610859375,0.45067641139030457,0.4209420084953308,0.007754439488053322
1788861667416093200,9.07109326171875,0.6067996621131897,0.5205264687538147,0.04288512095808983
1788861667426099000,9.081098876953124,0.7683480381965637,0.5542636513710022,0.08138564974069595
1788861667436105000,9.09110498046875,0.9121053814888,0.6359124183654785,0.14983458817005157
1788861667446112300,9.1011123046875,1.0735132694244385,0.7684329152107239,0.17959994077682495
1788861667456118000,9.111117919921876,1.2560882568359375,0.8066684603691101,0.20629219710826874
1788861667466124000,9.1211240234375,1.4381499290466309,0.7449100017547607,0.2444254755973816
1788861667476131000,9.131131103515624,1.5965863466262817,0.6790969371795654,0.3256358802318573
1788861667486137000,9.14113720703125,1.7415027618408203,0.6567937731742859,0.4388742744922638
1788861667496144100,9.15114404296875,1.862226128578186,0.6425626277923584,0.4385327398777008
1788861667506150000,9.16114990234375,1.95748770236969,0.4754764437675476,0.4302593767642975
1788861667516156000,9.171156005859375,2.0127065181732178,0.2723674476146698,0.4712757170200348
1788861667526163200,9.1811630859375,2.012634038925171,0.26952001452445984,0.4636327028274536
1788861667536169000,9.1911689453125,1.9871731996536255,0.43582963943481445,0.43252167105674744
1788861667546176000,9.201176025390625,1.9736363887786865,0.5324041843414307,0.4483262002468109
1788861667556182300,9.211182373046874,1.9787386655807495,0.5069541931152344,0.499141663312912
1788861667566188000,9.22118798828125,2.016425609588623,0.4109480381011963,0.5480433702468872
1788861667576195000,9.231195068359375,2.0741169452667236,0.345704048871994,0.6262036561965942
1788861667586200800,9.241200927734376,2.1404151916503906,0.34108373522758484,0.7323005199432373
1788861667596207000,9.25120703125,2.221980094909668,0.3336135745048523,0.8459402322769165
1788861667606214100,9.261214111328124,2.2833690643310547,0.27883264422416687,0.9306158423423767
1788861667616220000,9.271219970703125,2.299920082092285,0.22215016186237335,1.012472152709961
1788861667626227200,9.281227294921875,2.309762716293335,0.1695370227098465,1.1116693019866943
1788861667636233200,9.291233154296876,2.2997589111328125,0.12026476114988327,1.198850393295288
1788861667646239000,9.301239013671875,2.2407584190368652,0.07020851969718933,1.2343215942382812
1788861667656246000,9.31124609375,2.130009651184082,-0.01814976893365383,1.2585481405258179
1788861667666252000,9.321251953125,1.993769645690918,-0.13938964903354645,1.2760578393936157
1788861667676258000,9.331258056640625,1.9017874002456665,-0.2509044110774994,1.2796541452407837
1788861667686265000,9.34126513671875,1.8837345838546753,-0.25852182507514954,1.2392704486846924
1788861667696270800,9.351270751953125,1.842682123184204,-0.21847063302993774,1.1359477043151855
1788861667706278100,9.361278076171875,1.7224292755126953,-0.14925721287727356,0.9897521734237671
1788861667716284200,9.3712841796875,1.5265321731567383,-0.01774284802377224,0.8531503677368164
1788861667726290000,9.3812900390625,1.3141616582870483,0.1129845380783081,0.7475371360778809
1788861667736297200,9.391297119140624,1.131858229637146,0.20528510212898254,0.647251307964325
1788861667746303000,9.401302978515625,0.9466710090637207,0.22501620650291443,0.5332198143005371
1788861667756310000,9.41131005859375,0.7271780967712402,0.13708743453025818,0.4122455418109894
1788861667766316000,9.42131591796875,0.4917016625404358,-0.042246367782354355,0.3002473711967468
1788861667776322000,9.431322021484375,0.23205825686454773,-0.16635975241661072,0.17950183153152466
1788861667786329000,9.4413291015625,-0.026440396904945374,-0.17506268620491028,0.07211678475141525
1788861667796335000,9.451335205078125,-0.22711217403411865,-0.1470441222190857,-0.014988936483860016
1788861667806340900,9.4613408203125,-0.37845268845558167,-0.11992914229631424,-0.08632224053144455
1788861667816348200,9.47134814453125,-0.5161997079849243,-0.07444469630718231,-0.1282363384962082
1788861667826354000,9.48135400390625,-0.6435917615890503,-0.07098817825317383,-0.15009716153144836
1788861667836361200,9.491361328125,-0.7569613456726074,-0.040306456387043,-0.1879212111234665
1788861667846367200,9.5013671875,-0.8637527823448181,-0.008321892470121384,-0.2324734926223755
1788861667856373000,9.511373046875,-0.9904336333274841,0.04820768162608147,-0.29206418991088867
1788861667866380000,9.521380126953124,-1.1202054023742676,0.17619441449642181,-0.3343610465526581
1788861667876386000,9.531385986328125,-1.240424633026123,0.29617059230804443,-0.3526756763458252
1788861667886393000,9.54139306640625,-1.303029179573059,0.3429996073246002,-0.3617323040962219
1788861667896399000,9.551399169921876,-1.2646770477294922,0.3247590661048889,-0.3473685085773468
1788861667906405400,9.5614052734375,-1.1783424615859985,0.2426237165927887,-0.28682154417037964
1788861667916412400,9.571412353515624,-1.1177703142166138,0.17879819869995117,-0.17802250385284424
1788861667926418400,9.58141845703125,-1.1694700717926025,0.15583962202072144,-0.0009087191428989172
1788861667936424400,9.591424560546875,-1.3579291105270386,0.004405307117849588,0.02309057116508484
1788861667946431500,9.601431396484376,-1.5564574003219604,-0.08267553150653839,-0.12656070291996002
1788861667956437200,9.611437255859375,-1.6581283807754517,0.0025400477461516857,-0.284263014793396
1788861667966444500,9.621444580078125,-1.659428358078003,0.10627922415733337,-0.37678441405296326
1788861667976450600,9.631450439453126,-1.5819849967956543,0.17058345675468445,-0.3803451955318451
1788861667986456300,9.641456298828125,-1.508126974105835,0.07742474973201752,-0.34410756826400757
1788861667996463600,9.651463623046874,-1.4795035123825073,-0.022735215723514557,-0.3651767671108246
1788861668006469400,9.661469482421875,-1.4608206748962402,-0.06780868768692017,-0.44007259607315063
1788861668016475400,9.671475341796874,-1.4368740320205688,-0.053534384816884995,-0.49684110283851624
1788861668026482400,9.681482421875,-1.4384410381317139,-0.14059312641620636,-0.5078892111778259
1788861668036488400,9.691488525390625,-1.4664515256881714,-0.32365700602531433,-0.5496291518211365
1788861668046495500,9.70149560546875,-1.468711495399475,-0.3590911626815796,-0.5984035730361938
1788861668056501500,9.71150146484375,-1.4704954624176025,-0.3175671100616455,-0.6096272468566895
1788861668066507300,9.72150732421875,-1.4797272682189941,-0.2990317642688751,-0.6300310492515564
1788861668076514600,9.7315146484375,-1.4976309537887573,-0.31914135813713074,-0.6765971779823303
1788861668086520300,9.741520263671875,-1.5120916366577148,-0.3492675721645355,-0.7072837352752686
1788861668096527400,9.75152734375,-1.5113263130187988,-0.3290404975414276,-0.7114442586898804
1788861668106533600,9.76153369140625,-1.4860068559646606,-0.30421051383018494,-0.7051399946212769
1788861668116539400,9.771539306640625,-1.4633736610412598,-0.3627234995365143,-0.6968610286712646
1788861668126546400,9.78154638671875,-1.4643068313598633,-0.5004030466079712,-0.706404983997345
1788861668136552400,9.791552490234375,-1.4834208488464355,-0.5494595766067505,-0.7168513536453247
1788861668146558500,9.801558349609374,-1.4829082489013672,-0.5482166409492493,-0.7376179099082947
1788861668156565500,9.8115654296875,-1.446076512336731,-0.6639406085014343,-0.7784075736999512
1788861668166571300,9.8215712890625,-1.3862321376800537,-0.8675424456596375,-0.785748302936554
1788861668176578600,9.83157861328125,-1.3370537757873535,-1.0584243535995483,-0.7425021529197693
1788861668186584600,9.84158447265625,-1.2973893880844116,-1.1642069816589355,-0.6838926672935486
1788861668196590300,9.85159033203125,-1.2483092546463013,-1.1903800964355469,-0.6762100458145142
1788861668206597400,9.861597412109376,-1.1950657367706299,-1.134236216545105,-0.76519376039505
1788861668216603400,9.871603271484375,-1.1444839239120483,-1.1730725765228271,-0.7951984405517578
1788861668226610400,9.8816103515625,-1.1097831726074219,-1.2203571796417236,-0.7396515607833862
1788861668236616400,9.891616455078125,-1.0985163450241089,-1.0385031700134277,-0.646679162979126
1788861668246622200,9.901622314453125,-1.0888171195983887,-0.6527983546257019,-0.5438952445983887
1788861668256629500,9.91162939453125,-0.9639555811882019,-0.3950374126434326,-0.43325257301330566
1788861668266635500,9.921635498046875,-0.7009719014167786,-0.31487175822257996,-0.431697815656662
1788861668276641300,9.931641357421874,-0.5279409885406494,-0.20388056337833405,-0.43069562315940857
1788861668286648600,9.941648681640626,-0.4775252342224121,-0.07561367005109787,-0.26986464858055115
1788861668296654300,9.951654296875,-0.42959064245224,-0.0070640817284584045,-0.130630761384964
1788861668306661400,9.961661376953124,-0.2883456349372864,0.02214786596596241,-0.12454091757535934
1788861668316667400,9.97166748046875,-0.08988013863563538,0.010843498632311821,-0.08153330534696579
1788861668326673400,9.98167333984375,0.10781190544366837,0.13503442704677582,0.06847909092903137
1788861668336680400,9.991680419921876,0.26851460337638855,0.43792179226875305,0.11395970731973648
1788861668346686500,10.0016865234375,0.43355974555015564,0.626852810382843,0.13092057406902313
1788861668356692200,10.011692138671876,0.5685060620307922,0.7461944818496704,0.16437765955924988
1788861668366699500,10.021699462890625,0.6992179751396179,0.7976869344711304,0.16796226799488068
1788861668376705500,10.03170556640625,0.8196759223937988,0.6748717427253723,0.19726955890655518
1788861668386712300,10.04171240234375,0.9272940158843994,0.650533139705658,0.25847405195236206
1788861668396718600,10.051718505859375,1.076461911201477,0.7054440975189209,0.2579766511917114
1788861668406724400,10.061724365234374,1.2185312509536743,0.705878496170044,0.22771862149238586
1788861668416731400,10.0717314453125,1.3643230199813843,0.659235417842865,0.24603088200092316
1788861668426737400,10.0817373046875,1.524507999420166,0.6038347482681274,0.33348801732063293
1788861668436744400,10.091744384765626,1.6917558908462524,0.5585162043571472,0.4287155270576477
1788861668446750500,10.10175048828125,1.8328323364257812,0.5375959873199463,0.5089944005012512
1788861668456756500,10.111756591796874,1.9519777297973633,0.5069981813430786,0.5697270035743713
1788861668466763500,10.121763427734376,2.0432066917419434,0.4412439465522766,0.5943255424499512
1788861668476769500,10.13176953125,2.1046154499053955,0.3927365243434906,0.5927056670188904
1788861668486775300,10.141775390625,2.1419754028320312,0.4055607318878174,0.6091975569725037
1788861668496782600,10.151782470703125,2.1405580043792725,0.4435121715068817,0.6271470189094543
1788861668506788600,10.16178857421875,2.112996816635132,0.4656771123409271,0.6781465411186218
1788861668516795400,10.17179541015625,2.1079142093658447,0.43981239199638367,0.7467029094696045
1788861668526801400,10.181801513671875,2.121535062789917,0.42205312848091125,0.8032870888710022
1788861668536807400,10.191807373046874,2.1396780014038086,0.3895689845085144,0.8776217699050903
1788861668546814500,10.201814453125,2.1768946647644043,0.36911723017692566,0.9704830050468445
1788861668556820500,10.211820556640625,2.243577718734741,0.3446124196052551,1.0553910732269287
1788861668566827500,10.22182763671875,2.303253650665283,0.2439126968383789,1.1296991109848022
1788861668576833500,10.23183349609375,2.3193459510803223,0.08798268437385559,1.2339909076690674
1788861668586839600,10.241839599609374,2.24493408203125,-0.01073590200394392,1.3514411449432373
1788861668596846300,10.251846435546875,2.1305997371673584,0.00980541855096817,1.4366066455841064
1788861668606852600,10.2618525390625,2.0365822315216064,0.06618613004684448,1.4675112962722778
1788861668616858400,10.2718583984375,1.9966968297958374,0.10250866413116455,1.4405574798583984
1788861668626865400,10.281865478515625,1.9659876823425293,0.08388970047235489,1.388222575187683
1788861668636871400,10.291871337890624,1.8744627237319946,-0.020807314664125443,1.3167831897735596
1788861668646878500,10.30187841796875,1.711472749710083,-0.12634599208831787,1.2182625532150269
1788861668656884500,10.311884521484375,1.4998290538787842,-0.08808112889528275,1.1176426410675049
1788861668666890500,10.321890380859376,1.2603751420974731,0.09309452027082443,0.9772514700889587
1788861668676897500,10.3318974609375,1.0471653938293457,0.192632794380188,0.7780121564865112
1788861668686903600,10.341903564453125,0.8275713920593262,0.1368078887462616,0.5478071570396423
1788861668696910300,10.351910400390626,0.5743153691291809,0.10937807708978653,0.3351142704486847
1788861668706916400,10.361916259765625,0.32308921217918396,0.23597490787506104,0.1714199036359787
1788861668716922600,10.371922607421874,0.1271166056394577,0.30782774090766907,0.07337823510169983
1788861668726929400,10.381929443359375,-0.000907127745449543,0.176291823387146,0.031873397529125214
1788861668736935400,10.391935302734375,-0.09099387377500534,-0.08614327013492584,0.003860407043248415
1788861668746941400,10.40194140625,-0.1910690814256668,-0.24953672289848328,-0.07165858149528503
1788861668756948500,10.411948486328125,-0.34686049818992615,-0.2789965867996216,-0.17352813482284546
1788861668766954500,10.42195458984375,-0.5229002237319946,-0.21899528801441193,-0.2750728726387024
1788861668776961300,10.431961181640625,-0.6637104749679565,-0.166103795170784,-0.3555671274662018
1788861668786967600,10.441967529296875,-0.7710241079330444,-0.12054910510778427,-0.41417744755744934
1788861668796973600,10.4519736328125,-0.8452483415603638,-0.013142215088009834,-0.46862930059432983
1788861668806980400,10.46198046875,-0.8732876777648926,0.224559023976326,-0.5364752411842346
1788861668816986400,10.471986328125,-0.88083815574646,0.42192715406417847,-0.5988267660140991
1788861668826993400,10.481993408203126,-0.9358193874359131,0.5548635721206665,-0.6133775115013123
1788861668836999400,10.49199951171875,-1.024341344833374,0.6551812291145325,-0.5751243233680725
1788861668847005400,10.50200537109375,-1.1129735708236694,0.6982386708259583,-0.531883955001831
1788861668857012500,10.512012451171875,-1.1309337615966797,0.5902315974235535,-0.5206472277641296
1788861668867018500,10.5220185546875,-1.0919554233551025,0.42875000834465027,-0.5336602330207825
1788861668877024500,10.5320244140625,-1.0375367403030396,0.2802411615848541,-0.5371946096420288
1788861668887031300,10.54203125,-1.0315548181533813,0.2730748653411865,-0.44551295042037964
1788861668897037600,10.55203759765625,-1.1201726198196411,0.3353198170661926,-0.28773367404937744
1788861668907043800,10.5620439453125,-1.2707312107086182,0.21992000937461853,-0.2691866159439087
1788861668917050000,10.572050048828125,-1.4271842241287231,0.10274271667003632,-0.3665652871131897
1788861668927056100,10.58205615234375,-1.5404585599899292,0.05509423464536667,-0.4936138093471527
1788861668937063000,10.59206298828125,-1.6052554845809937,0.046107977628707886,-0.5249399542808533
1788861668947069200,10.602069091796874,-1.5981800556182861,0.034124817699193954,-0.4663432538509369
1788861668957075200,10.6120751953125,-1.5582915544509888,0.04224720969796181,-0.3685376048088074
1788861668967082000,10.62208203125,-1.5145577192306519,-0.009214382618665695,-0.3473622798919678
1788861668977088000,10.632087890625,-1.5013046264648438,-0.16877338290214539,-0.38274332880973816
1788861668987095000,10.642094970703125,-1.506975531578064,-0.31758415699005127,-0.43143925070762634
1788861668997101000,10.65210107421875,-1.511276125907898,-0.17546670138835907,-0.4476407468318939
1788861669007107000,10.662107177734375,-1.4603466987609863,-0.3141521215438843,-0.39094099402427673
1788861669017114000,10.672114013671875,-1.4490852355957031,-0.6682319641113281,-0.49435049295425415
1788861669027120000,10.6821201171875,-1.552079200744629,-0.5504970550537109,-0.647611677646637
1788861669037127000,10.692126953125,-1.6389566659927368,-0.41010281443595886,-0.6882947087287903
1788861669047133000,10.7021328125,-1.6135269403457642,-0.48989829421043396,-0.719329833984375
1788861669057139200,10.71213916015625,-1.5565539598464966,-0.5923126935958862,-0.7045387029647827
1788861669067146000,10.72214599609375,-1.4657108783721924,-0.6184542775154114,-0.6300476789474487
1788861669077152000,10.732152099609374,-1.4189742803573608,-0.6632583141326904,-0.6155251264572144
1788861669087158000,10.742157958984375,-1.4994240999221802,-0.7351812124252319,-0.6999375224113464
1788861669097165000,10.7521650390625,-1.605160117149353,-0.7739355564117432,-0.7678515911102295
1788861669107171000,10.762171142578126,-1.6333882808685303,-0.8182913064956665,-0.8077853918075562
1788861669117177900,10.772177734375,-1.572027564048767,-0.8775044679641724,-0.8411467671394348
1788861669127184100,10.78218408203125,-1.4780144691467285,-0.9478238821029663,-0.8148664236068726
1788861669137190100,10.792190185546875,-1.4153245687484741,-1.0412321090698242,-0.744152307510376
1788861669147197000,10.802197021484375,-1.3774688243865967,-1.1358901262283325,-0.7139427661895752
1788861669157203000,10.812202880859376,-1.3364769220352173,-1.2081060409545898,-0.7359201312065125
1788861669167210000,10.8222099609375,-1.2786455154418945,-1.29006826877594,-0.7363494634628296
1788861669177216000,10.832216064453124,-1.2009398937225342,-1.2142345905303955,-0.6928611397743225
1788861669187222000,10.842221923828125,-1.119216799736023,-0.9523691534996033,-0.5965860486030579
1788861669197229000,10.85222900390625,-1.0180168151855469,-0.6428655385971069,-0.5374711155891418
1788861669207235000,10.862235107421874,-0.8667322993278503,-0.4644995629787445,-0.5329360365867615
1788861669217241000,10.872240966796875,-0.6672105193138123,-0.44595497846603394,-0.4772793650627136
1788861669227247900,10.882247802734375,-0.5501781702041626,-0.37962788343429565,-0.4024067223072052
1788861669237254100,10.892254150390626,-0.4820713996887207,-0.15698280930519104,-0.3259529769420624
1788861669247261000,10.902260986328125,-0.3740951418876648,-0.08841600269079208,-0.25970712304115295
1788861669257267000,10.912266845703124,-0.23573037981987,-0.05205342918634415,-0.19096015393733978
1788861669267273000,10.92227294921875,-0.06137669458985329,-0.0043146670795977116,-0.1379174441099167
1788861669277280000,10.932280029296875,0.11555922776460648,0.06931959837675095,-0.07895579189062119
1788861669287286000,10.9422861328125,0.2879251539707184,0.2080812156200409,-0.026781264692544937
1788861669297293000,10.95229296875,0.4291720986366272,0.4289816915988922,0.008437080308794975
1788861669307299000,10.962299072265624,0.5779266953468323,0.6973497867584229,0.043453387916088104
1788861669317305000,10.97230517578125,0.7709993124008179,0.7902008891105652,0.0630047470331192
1788861669327312000,10.982311767578125,0.9467179179191589,0.6689125299453735,0.07586834579706192
1788861669337318000,10.99231787109375,1.0728862285614014,0.6368889808654785,0.10131197422742844
1788861669347324200,11.00232421875,1.2014037370681763,0.6941386461257935,0.1549035608768463
1788861669357331000,11.0123310546875,1.3439735174179077,0.6827946901321411,0.20834463834762573
1788861669367337000,11.0223369140625,1.4705783128738403,0.6011642217636108,0.22509245574474335
1788861669377344300,11.03234423828125,1.5837422609329224,0.5499538779258728,0.2892296612262726
1788861669387350000,11.04235009765625,1.6996827125549316,0.5914259552955627,0.341797798871994
1788861669397356000,11.05235595703125,1.804423451423645,0.6424433588981628,0.3521612286567688
1788861669407362800,11.06236279296875,1.9051079750061035,0.5631416440010071,0.3910207450389862
1788861669417369000,11.072369140625,1.9817131757736206,0.43342694640159607,0.4239708483219147
1788861669427376000,11.082376220703125,2.024005651473999,0.39193782210350037,0.4333536922931671
1788861669437382000,11.0923818359375,2.0493083000183105,0.4557272493839264,0.48396703600883484
1788861669447388000,11.102387939453125,2.0891072750091553,0.49104875326156616,0.5554313659667969
1788861669457395200,11.112395263671875,2.130063533782959,0.45399779081344604,0.6287281513214111
1788861669467401000,11.12240087890625,2.14682936668396,0.40863990783691406,0.6965926885604858
1788861669477407000,11.132406982421875,2.1405224800109863,0.33633264899253845,0.7729327082633972
1788861669487414000,11.1424140625,2.1675832271575928,0.26927053928375244,0.8409975171089172
1788861669497420000,11.152419921875,2.2225701808929443,0.2674827575683594,0.9040386080741882
1788861669507427000,11.162427001953125,2.2718915939331055,0.26642146706581116,0.9676791429519653
1788861669517433000,11.17243310546875,2.3139493465423584,0.17541807889938354,1.0508129596710205
1788861669527439000,11.182439208984375,2.3075644969940186,0.002809821628034115,1.1331677436828613
1788861669537446100,11.192446044921875,2.227205753326416,-0.10196985304355621,1.190639615058899
1788861669547452000,11.202451904296876,2.129483222961426,-0.0549517460167408,1.2261600494384766
1788861669557459200,11.212459228515625,2.0601389408111572,0.11403701454401016,1.278095006942749
1788861669567465000,11.22246484375,2.0467071533203125,0.17023849487304688,1.335332989692688
1788861669577471000,11.232470947265625,2.082261562347412,0.07520948350429535,1.3752473592758179
1788861669587478300,11.242478271484375,2.0994231700897217,-0.1603117734193802,1.341079592704773
1788861669597484000,11.252484130859376,1.9990220069885254,-0.3528602123260498,1.2147033214569092
1788861669607490000,11.262489990234375,1.7435798645019531,-0.3970947861671448,1.0287600755691528
1788861669617497000,11.2724970703125,1.367508053779602,-0.26189741492271423,0.8159279823303223
1788861669627503000,11.282503173828125,1.0020217895507812,-0.050350550562143326,0.6214945912361145
1788861669637510100,11.29251025390625,0.7460718154907227,0.04269009828567505,0.4711170196533203
1788861669647516000,11.302515869140626,0.5709143877029419,0.06730862706899643,0.3376671075820923
1788861669657522000,11.31252197265625,0.43373167514801025,0.053217556327581406,0.20529524981975555
1788861669667529200,11.322529296875,0.27329593896865845,0.0313548669219017,0.058783840388059616
1788861669677535000,11.332534912109375,0.08125592023134232,0.07129375636577606,-0.06750831007957458
1788861669687542000,11.3425419921875,-0.07490652054548264,0.010802987031638622,-0.12102293968200684
1788861669697548000,11.352548095703124,-0.17649242281913757,-0.04794835299253464,-0.14752225577831268
1788861669707554000,11.362553955078125,-0.2690463364124298,0.004757200367748737,-0.18342725932598114
1788861669717561000,11.37256103515625,-0.35905253887176514,0.010808354243636131,-0.20923416316509247
1788861669727566800,11.38256689453125,-0.4769890308380127,-0.07420560717582703,-0.2463170737028122
1788861669737573000,11.392572998046875,-0.617326557636261,-0.14210261404514313,-0.30893415212631226
1788861669747580200,11.402580078125,-0.7297524809837341,-0.161577507853508,-0.3496999442577362
1788861669757586000,11.4125859375,-0.8187758922576904,-0.0907026007771492,-0.3421691060066223
1788861669767593200,11.42259326171875,-0.883668065071106,0.019253194332122803,-0.31601232290267944
1788861669777599000,11.432598876953126,-0.9497929811477661,0.08516953140497208,-0.2955498993396759
1788861669787605000,11.44260498046875,-1.0617562532424927,0.17298193275928497,-0.2553425431251526
1788861669797612000,11.452612060546874,-1.2268847227096558,0.2586037516593933,-0.2554682791233063
1788861669807618000,11.4626181640625,-1.3603291511535645,0.3165280520915985,-0.32704898715019226
1788861669817625000,11.472625,-1.4009730815887451,0.35959213972091675,-0.3891865313053131
1788861669827631000,11.482631103515626,-1.386993408203125,0.2936043441295624,-0.38393211364746094
1788861669837636900,11.492636962890625,-1.316820740699768,0.23436015844345093,-0.2666514813899994
1788861669847644200,11.50264404296875,-1.2125334739685059,0.19501647353172302,-0.1113889217376709
1788861669857650000,11.51264990234375,-1.1418325901031494,0.12987373769283295,-0.05964935943484306
1788861669867656000,11.522656005859375,-1.1170177459716797,0.04305708035826683,-0.07702594995498657
1788861669877663200,11.532663330078124,-1.1499967575073242,-0.07016240060329437,-0.07241658866405487
1788861669887669000,11.5426689453125,-1.29091477394104,-0.17405471205711365,-0.025625377893447876
1788861669897676000,11.552676025390625,-1.51162588596344,-0.12717211246490479,-0.08495443314313889
1788861669907682300,11.562682373046876,-1.6582672595977783,0.09604233503341675,-0.18748852610588074
1788861669917688000,11.57268798828125,-1.6696773767471313,0.1675473302602768,-0.2739856541156769
1788861669927695400,11.5826953125,-1.6015551090240479,-0.10741312801837921,-0.36688363552093506
1788861669937701000,11.592701171875,-1.555050015449524,-0.48340263962745667,-0.4174477756023407
1788861669947708200,11.602708251953125,-1.5454227924346924,-0.6196047067642212,-0.412540078163147
1788861669957714400,11.61271435546875,-1.540317177772522,-0.5899553298950195,-0.3963221311569214
1788861669967720200,11.62272021484375,-1.509617567062378,-0.5342318415641785,-0.44646865129470825
1788861669977727200,11.632727294921875,-1.4452317953109741,-0.430122435092926,-0.5359391570091248
1788861669987733200,11.642733154296875,-1.3766013383865356,-0.30762583017349243,-0.6205800175666809
1788861669997739300,11.6527392578125,-1.3656656742095947,-0.2402886301279068,-0.6799689531326294
1788861670007746300,11.662746337890624,-1.4385313987731934,-0.2709866166114807,-0.6936991214752197
1788861670017752000,11.672751953125,-1.5255061388015747,-0.41375699639320374,-0.652190625667572
1788861670027759400,11.68275927734375,-1.5692903995513916,-0.5900145769119263,-0.6117073893547058
1788861670037765400,11.692765380859376,-1.597307801246643,-0.6217578649520874,-0.6474552154541016
1788861670047771100,11.702771240234375,-1.6318053007125854,-0.5777568221092224,-0.7694021463394165
1788861670057778200,11.712778076171874,-1.60727858543396,-0.5992816686630249,-0.8928800225257874
1788861670067784200,11.7227841796875,-1.5432438850402832,-0.724812388420105,-0.9203259944915771
1788861670077790200,11.732790283203125,-1.4837539196014404,-0.8686391115188599,-0.8626464605331421
1788861670087797200,11.74279736328125,-1.4326339960098267,-0.9371366500854492,-0.8044203519821167
1788861670097803000,11.752802978515625,-1.376353144645691,-0.9424049258232117,-0.7553465366363525
1788861670107810300,11.762810302734374,-1.2907708883285522,-0.9247417449951172,-0.7362614870071411
1788861670117816300,11.77281640625,-1.2028095722198486,-0.9837150573730469,-0.7525169849395752
1788861670127822000,11.782822021484375,-1.1580380201339722,-1.032162070274353,-0.7566302418708801
1788861670137829400,11.792829345703124,-1.1135847568511963,-0.9469278454780579,-0.7169234156608582
1788861670147835100,11.802835205078125,-1.0312371253967285,-0.7606932520866394,-0.6430651545524597
1788861670157842200,11.81284228515625,-0.9055183529853821,-0.5730170607566833,-0.6015589833259583
1788861670167848200,11.82284814453125,-0.7222669124603271,-0.48787012696266174,-0.508105993270874
1788861670177854200,11.832854248046875,-0.550513744354248,-0.4269218444824219,-0.4386546313762665
1788861670187861200,11.842861328125,-0.43684685230255127,-0.20713596045970917,-0.33655568957328796
1788861670197867300,11.8528671875,-0.3692362606525421,-0.0758674144744873,-0.2673010230064392
1788861670207873000,11.862873046875,-0.2583502233028412,0.01099797710776329,-0.22302114963531494
1788861670217880300,11.87288037109375,-0.09107478708028793,0.14174188673496246,-0.19124320149421692
1788861670227886000,11.882885986328125,0.06222289428114891,0.24220670759677887,-0.08711521327495575
1788861670237893000,11.89289306640625,0.1809905618429184,0.37899520993232727,-0.0018285324331372976
1788861670247899400,11.9028994140625,0.2975488603115082,0.47144100069999695,0.04279699549078941
1788861670257905200,11.9129052734375,0.41932347416877747,0.3924363851547241,0.10223313421010971
1788861670267912200,11.922912109375,0.5383369326591492,0.43075501918792725,0.1683540940284729
1788861670277918200,11.932918212890625,0.6681979298591614,0.5930549502372742,0.19790995121002197
1788861670287925200,11.94292529296875,0.8086775541305542,0.6570757031440735,0.23003646731376648
1788861670297931300,11.95293115234375,0.9847093820571899,0.6921629309654236,0.27352097630500793
1788861670307937000,11.96293701171875,1.1728421449661255,0.6716201901435852,0.32865026593208313
1788861670317944300,11.9729443359375,1.3140485286712646,0.621201753616333,0.3757466971874237
1788861670327950300,11.982950439453125,1.4170329570770264,0.5996250510215759,0.4292208254337311
1788861670337956000,11.9929560546875,1.5048772096633911,0.5593709945678711,0.447620689868927
1788861670347963400,12.00296337890625,1.5737900733947754,0.5715706944465637,0.43321749567985535
1788861670357969400,12.012969482421875,1.6534069776535034,0.6005774140357971,0.44943687319755554
1788861670367976200,12.02297607421875,1.7392240762710571,0.5451925992965698,0.5040187835693359
1788861670377982200,12.032982177734375,1.8057794570922852,0.44339272379875183,0.5412402153015137
1788861670387988200,12.04298828125,1.8500396013259888,0.3949386477470398,0.578801155090332
1788861670397995300,12.052995361328126,1.8833644390106201,0.4319922626018524,0.5915033221244812
1788861670408001300,12.063001220703125,1.9319913387298584,0.502153754234314,0.643740713596344
1788861670418007000,12.073007080078124,2.021841049194336,0.4910273551940918,0.7453071475028992
1788861670428014300,12.083014404296875,2.1181674003601074,0.41546815633773804,0.8399907946586609
1788861670438020400,12.093020263671875,2.203394889831543,0.2865326404571533,0.8853145241737366
1788861670448027100,12.103027099609376,2.2580885887145996,0.13922946155071259,0.8936387896537781
1788861670458033400,12.113033447265625,2.2238521575927734,0.11813183128833771,0.8955765962600708
1788861670468039200,12.1230390625,2.135636568069458,0.21623869240283966,0.9457671046257019
1788861670478046200,12.133046142578126,2.0599262714385986,0.3241790533065796,1.0470784902572632
1788861670488052200,12.14305224609375,1.9983564615249634,0.30749940872192383,1.168215274810791
1788861670498059300,12.153059326171874,1.962456464767456,0.21965764462947845,1.2295106649398804
1788861670508065300,12.163065185546875,1.9626948833465576,0.12142934650182724,1.2178219556808472
1788861670518071300,12.1730712890625,1.9698045253753662,0.01008498016744852,1.1663131713867188
1788861670528078300,12.183078369140626,1.9377930164337158,-0.04643954709172249,1.1396472454071045
1788861670538084400,12.19308447265625,1.8954321146011353,0.019638588652014732,1.1486750841140747
1788861670548090000,12.203090087890626,1.8495354652404785,0.1465587168931961,1.1304806470870972
1788861670558097200,12.21309716796875,1.787102222442627,0.25186461210250854,1.047276496887207
1788861670568103400,12.223103515625,1.6717466115951538,0.25154954195022583,0.9112984538078308
1788861670578110200,12.233110107421876,1.4718272686004639,0.1484442502260208,0.7255483865737915
1788861670588116200,12.2431162109375,1.2103965282440186,0.04945194721221924,0.5151036381721497
1788861670598122200,12.253122314453124,0.939668595790863,-0.025971969589591026,0.3147308826446533
1788861670608129300,12.26312939453125,0.6730850338935852,-0.036092836409807205,0.14179356396198273
1788861670618135300,12.27313525390625,0.4047805964946747,0.038397908210754395,0.009015007875859737
1788861670628142000,12.28314208984375,0.16242417693138123,0.15084989368915558,-0.07987838238477707
1788861670638148400,12.2931484375,-0.03743364289402962,0.2332424372434616,-0.1573682725429535
1788861670648154400,12.303154296875,-0.16832853853702545,0.24109530448913574,-0.23931054770946503
1788861670658161200,12.3131611328125,-0.24703992903232574,0.16787520051002502,-0.3092341125011444
1788861670668167200,12.323167236328125,-0.3072441518306732,0.05334169417619705,-0.3197336196899414
1788861670678173200,12.333173095703126,-0.37844499945640564,-0.08731799572706223,-0.30187371373176575
1788861670688180200,12.34318017578125,-0.47548553347587585,-0.15735752880573273,-0.28958961367607117
1788861670698186200,12.353186279296875,-0.5915192365646362,-0.09784913808107376,-0.2956273555755615
1788861670708193300,12.363193359375,-0.7051542401313782,0.02784135565161705,-0.2753932476043701
1788861670718199300,12.37319921875,-0.8131976127624512,0.14454452693462372,-0.19563211500644684
1788861670728205300,12.383205322265624,-0.9457433819770813,0.2048233151435852,-0.09241252392530441
1788861670738212000,12.393212158203125,-1.102882742881775,0.2442200481891632,-0.030025601387023926
1788861670748218400,12.40321826171875,-1.2533137798309326,0.2362111210823059,-0.08332904428243637
1788861670758224100,12.41322412109375,-1.339597463607788,0.2521771788597107,-0.22912417352199554
1788861670768231200,12.423231201171875,-1.3718589544296265,0.28598466515541077,-0.3468793034553528
1788861670778237200,12.4332373046875,-1.3717732429504395,0.24585701525211334,-0.3595903515815735
1788861670788244200,12.443244140625,-1.3455810546875,0.145181804895401,-0.2372758686542511
1788861670798250200,12.453250244140625,-1.3022358417510986,0.12224054336547852,-0.05777762457728386
1788861670808256300,12.46325634765625,-1.2508755922317505,0.0978100523352623,0.025138607248663902
1788861670818263300,12.47326318359375,-1.2280230522155762,0.026727352291345596,0.0007520403014495969
1788861670828269300,12.483269287109374,-1.2312486171722412,-0.010291383601725101,-0.08460360020399094
1788861670838275000,12.493275146484375,-1.24213445186615,0.007924867793917656,-0.11220720410346985
1788861670848282400,12.503282470703125,-1.2825095653533936,-0.0062934826128184795,-0.10715971142053604
