time,seconds_elapsed,z,y,x
1788862259271988200,0.04998828125,-0.9444943070411682,-0.6612493395805359,1.9115509986877441
1788862259282029000,0.060029052734375,-0.8265141844749451,-1.1929970979690552,2.1495933532714844
1788862259292071200,0.0700712890625,-0.6458929777145386,-1.670377254486084,2.466948986053467
1788862259302113000,0.080113037109375,-0.5602031350135803,-1.624639868736267,2.6166512966156006
1788862259312154000,0.090154052734375,-0.6045429110527039,-1.0907410383224487,2.3760275840759277
1788862259322196000,0.100196044921875,-0.5908520817756653,-0.7631029486656189,1.9443539381027222
1788862259332237000,0.110237060546875,-0.47560781240463257,-0.5041776895523071,1.349334478378296
1788862259342279000,0.12027880859375,-0.28545013070106506,-0.385913610458374,0.6865312457084656
1788862259352321000,0.130321044921875,-0.11188764870166779,-0.33802199363708496,0.07499248534440994
1788862259362362000,0.140362060546875,-0.0026264095213264227,-0.3848872184753418,-0.3543495535850525
1788862259372404200,0.150404296875,0.03225434198975563,-0.6655614972114563,-0.5157797336578369
1788862259382445000,0.160445068359375,0.02257135510444641,-1.1454112529754639,-0.4112362861633301
1788862259392487200,0.170487060546875,0.03712419793009758,-1.7263576984405518,-0.12850497663021088
1788862259402528000,0.180528076171875,0.14389725029468536,-2.4232027530670166,0.23493075370788574
1788862259412570000,0.190570068359375,0.4535275399684906,-3.3682446479797363,0.6167169809341431
1788862259422612000,0.200612060546875,0.9934714436531067,-4.342488765716553,0.95675128698349
1788862259432653000,0.210653076171875,1.5805754661560059,-4.959440231323242,1.2259904146194458
1788862259442695200,0.220695068359375,1.8808073997497559,-5.289301872253418,1.326022744178772
1788862259452736300,0.230736328125,1.7509117126464844,-5.334031105041504,1.0660662651062012
1788862259462778000,0.240778076171875,1.681375503540039,-4.7692952156066895,0.654596209526062
1788862259472820000,0.250820068359375,1.7556580305099487,-3.9688374996185303,0.22839269042015076
1788862259482861000,0.260861083984375,1.8273590803146362,-3.4111976623535156,-0.2083505392074585
1788862259492903000,0.27090283203125,1.7774863243103027,-3.17855167388916,-0.7639325261116028
1788862259502944000,0.280944091796875,1.6700536012649536,-3.437624454498291,-1.352915644645691
1788862259512985900,0.29098583984375,1.7816050052642822,-3.7369728088378906,-1.6673647165298462
1788862259523028200,0.3010283203125,2.157334566116333,-3.587599754333496,-1.6507781744003296
1788862259533069000,0.311069091796875,2.4436070919036865,-3.423107624053955,-1.440269947052002
1788862259543111200,0.321111083984375,2.2984845638275146,-3.545562505722046,-1.1467448472976685
1788862259553152000,0.331152099609375,1.79217529296875,-4.061319351196289,-0.8366445899009705
1788862259563194000,0.341194091796875,1.2665519714355469,-4.837172031402588,-0.48533394932746887
1788862259573236000,0.351236083984375,1.0732667446136475,-5.778683662414551,-0.029136046767234802
1788862259583277000,0.361277099609375,1.210486888885498,-6.638599872589111,0.523398220539093
1788862259593319000,0.37131884765625,1.467300295829773,-7.140320301055908,1.1011385917663574
1788862259603360000,0.381360107421875,1.6810141801834106,-7.316953182220459,1.6007776260375977
1788862259613402000,0.391402099609375,1.851653814315796,-7.2482500076293945,1.964545488357544
1788862259623444000,0.40144384765625,2.0296213626861572,-6.907061576843262,2.231976270675659
1788862259633485000,0.411485107421875,2.2706105709075928,-6.407634735107422,2.4499993324279785
1788862259643527000,0.42152685546875,2.5569839477539062,-5.958446025848389,2.6696128845214844
1788862259653568000,0.431568115234375,2.834866523742676,-5.583262920379639,2.9036951065063477
1788862259663609900,0.44160986328125,3.099855661392212,-5.491176128387451,3.1446826457977295
1788862259673652000,0.45165185546875,3.368715286254883,-5.494067192077637,3.441096782684326
1788862259683693000,0.461693115234375,3.5873751640319824,-5.429223537445068,3.7948389053344727
1788862259693735200,0.471735107421875,3.6627635955810547,-5.284329414367676,4.169206142425537
1788862259703776000,0.48177587890625,3.569129228591919,-4.6055779457092285,4.1827712059021
1788862259713818000,0.491818115234375,3.2917089462280273,-3.860295534133911,4.03508996963501
1788862259723859000,0.50185888671875,2.980522632598877,-3.2827281951904297,3.763278007507324
1788862259733901000,0.511901123046875,2.7907063961029053,-2.925748109817505,3.4805917739868164
1788862259743943000,0.52194287109375,2.6967272758483887,-2.513241767883301,3.170806646347046
1788862259753984000,0.53198388671875,2.567174196243286,-1.8896536827087402,2.91507887840271
1788862259764025900,0.54202587890625,2.3815760612487793,-1.265763759613037,2.90248441696167
1788862259774067000,0.55206689453125,2.2094764709472656,-0.6776024699211121,3.2133655548095703
1788862259784109000,0.562109130859375,2.086064338684082,0.038111165165901184,3.7886762619018555
1788862259794151200,0.572151123046875,1.9472426176071167,0.3752622902393341,4.360105514526367
1788862259804192000,0.58219189453125,1.787680745124817,0.2820862829685211,4.792300701141357
1788862259814234000,0.592234130859375,1.5230284929275513,0.060336045920848846,5.0960187911987305
1788862259824275000,0.60227490234375,1.293735384941101,-0.23317572474479675,5.31463098526001
1788862259834317000,0.612317138671875,1.2010926008224487,-0.4673144519329071,5.415102481842041
1788862259844359000,0.62235888671875,1.1202685832977295,-0.7485439777374268,4.998254776000977
1788862259854400000,0.63239990234375,1.0698086023330688,-2.666308641433716,1.3574334383010864
1788862259864442000,0.642442138671875,1.6730207204818726,-3.489935874938965,-2.646381139755249
1788862259874483200,0.652483154296875,2.881042957305908,-2.4621212482452393,-3.799712657928467
1788862259884525000,0.662525146484375,3.1428520679473877,-1.1692034006118774,-3.2456581592559814
1788862259894567000,0.67256689453125,2.7848098278045654,0.16961966454982758,-1.8147727251052856
1788862259904608000,0.68260791015625,2.4666354656219482,1.258766531944275,-0.6857192516326904
1788862259914649900,0.69264990234375,2.724041223526001,1.0122318267822266,-0.929416298866272
1788862259924691000,0.70269091796875,3.4426801204681396,0.6516510248184204,-1.7167681455612183
1788862259934733000,0.712733154296875,3.195864677429199,0.36920467019081116,-2.3425071239471436
1788862259944775200,0.722775146484375,2.6058332920074463,-0.41373777389526367,-2.0634050369262695
1788862259954816000,0.73281591796875,2.72023868560791,-0.24138732254505157,-1.6723650693893433
1788862259964858000,0.742858154296875,3.881892204284668,1.742492914199829,-1.9598047733306885
1788862259974899000,0.75289892578125,5.332626819610596,2.974710702896118,-2.301582098007202
1788862259984941000,0.762941162109375,4.75152587890625,1.9754718542099,-1.2057241201400757
1788862259994983000,0.77298291015625,4.156576633453369,2.295342206954956,-0.6120924353599548
1788862260005024000,0.78302392578125,2.6847116947174072,3.1297402381896973,0.16659803688526154
1788862260015066000,0.793066162109375,1.3691926002502441,4.3948869705200195,0.26791825890541077
1788862260025107200,0.803107177734375,1.0930031538009644,5.452230930328369,0.12267079204320908
1788862260035149000,0.813149169921875,1.1170823574066162,4.924758434295654,0.23947623372077942
1788862260045190100,0.823190185546875,0.6973630785942078,1.6102025508880615,0.1617332398891449
1788862260055232000,0.83323193359375,0.26487958431243896,-0.07955580949783325,0.37872254848480225
1788862260065274000,0.843274169921875,-0.07044833153486252,0.24716131389141083,0.6604508757591248
1788862260075315000,0.85331494140625,-0.17395181953907013,0.4114956557750702,0.9710359573364258
1788862260085357000,0.863357177734375,-0.25145354866981506,0.6412473917007446,1.1389673948287964
1788862260095398000,0.87339794921875,-0.3006863296031952,0.43160679936408997,0.9044888615608215
1788862260105440300,0.883440185546875,-0.3924838900566101,0.10400895774364471,0.674686849117279
1788862260115482000,0.893482177734375,-0.5945214033126831,-0.1757771521806717,0.6015742421150208
1788862260125523200,0.903523193359375,-0.9171282052993774,-0.391103059053421,0.5530823469161987
1788862260135565000,0.91356494140625,-1.1489102840423584,-0.5755178928375244,0.39789438247680664
1788862260145606100,0.923606201171875,-1.2386242151260376,-0.8425796627998352,0.27101099491119385
1788862260155648000,0.93364794921875,-1.2493493556976318,-1.2402268648147583,0.347103089094162
1788862260165689900,0.94368994140625,-1.3571114540100098,-1.5723915100097656,0.7674010396003723
1788862260175731000,0.95373095703125,-1.399917483329773,-2.066164016723633,1.151038408279419
1788862260185773000,0.96377294921875,-1.3244155645370483,-2.2774322032928467,1.3901852369308472
1788862260195814100,0.973814208984375,-1.117531657218933,-2.148136854171753,1.8800846338272095
1788862260205856000,0.98385595703125,-0.7670739889144897,-2.5365793704986572,2.89609956741333
1788862260215898000,0.993898193359375,-0.8909885287284851,-4.105771541595459,3.8684239387512207
1788862260225939000,1.00393896484375,-1.156473994255066,-6.03263521194458,3.597785234451294
1788862260235981000,1.01398095703125,-1.1387474536895752,-6.089296340942383,2.8408143520355225
1788862260246022000,1.02402197265625,-0.6958786845207214,-4.898327350616455,1.9811683893203735
1788862260256064000,1.03406396484375,-0.10545505583286285,-3.2931177616119385,0.9428029656410217
1788862260266106400,1.0441064453125,0.03496623784303665,-1.534686803817749,0.06328602880239487
1788862260276147500,1.0541474609375,0.11166314780712128,-0.2038750946521759,-0.32194846868515015
1788862260286189300,1.064189208984375,0.5027033686637878,0.7036287188529968,-0.44488397240638733
1788862260296230400,1.07423046875,1.1272287368774414,1.5869773626327515,-0.6455973982810974
1788862260306272300,1.084272216796875,1.6921701431274414,2.000440835952759,-1.2260255813598633
1788862260316314400,1.094314453125,2.4358863830566406,1.7598296403884888,-1.6186645030975342
1788862260326355500,1.10435546875,3.352346420288086,1.129059910774231,-1.5661402940750122
1788862260336397300,1.114397216796875,4.564807415008545,-0.7556543946266174,-0.4668944776058197
1788862260346438400,1.1244384765625,4.8008012771606445,-1.4799069166183472,0.5962972044944763
1788862260356480300,1.134480224609375,4.95061731338501,-0.3631398677825928,0.7348582744598389
1788862260366522400,1.1445224609375,3.8623390197753906,0.8982296586036682,-0.04601782560348511
1788862260376563200,1.154563232421875,3.2540271282196045,1.188392162322998,-0.5928638577461243
1788862260386605300,1.164605224609375,2.73673415184021,0.2420957237482071,-0.5845337510108948
1788862260396646100,1.174646240234375,2.4583022594451904,-0.7609093189239502,-0.11421632021665573
1788862260406688500,1.1846884765625,2.3260135650634766,-2.0006942749023438,0.16040273010730743
1788862260416730400,1.19473046875,2.4201161861419678,-3.4770750999450684,0.6952512264251709
1788862260426771500,1.204771484375,2.1541526317596436,-4.754249572753906,1.6594960689544678
1788862260436813300,1.214813232421875,2.393643617630005,-5.019869327545166,2.0582034587860107
1788862260446854400,1.2248544921875,2.841125249862671,-5.095712184906006,1.6296184062957764
1788862260456896300,1.234896240234375,2.9793221950531006,-4.53725004196167,1.0104835033416748
1788862260466937300,1.244937255859375,3.66143536567688,-3.4885807037353516,0.5482831001281738
1788862260476979200,1.254979248046875,4.385808944702148,-2.2669100761413574,0.2764345109462738
1788862260487021600,1.265021484375,3.3545682430267334,0.13080701231956482,0.8355888724327087
1788862260497062400,1.2750625,0.9334509968757629,1.6098241806030273,1.8424041271209717
1788862260507104500,1.2851044921875,1.2587270736694336,1.3177965879440308,2.0210468769073486
1788862260517146400,1.295146484375,1.3799991607666016,0.5540818572044373,1.233806848526001
1788862260527187500,1.3051875,0.5433152318000793,-0.38506990671157837,0.33833757042884827
1788862260537229300,1.315229248046875,-0.05348559468984604,-0.820693850517273,-0.2622055113315582
1788862260547270400,1.3252705078125,-0.01203855313360691,-0.6957042217254639,-0.5423977375030518
1788862260557312500,1.3353125,0.08106236159801483,-0.43543723225593567,-0.6020344495773315
1788862260567353600,1.345353515625,0.0765690729022026,-0.10280200839042664,-0.6561304330825806
1788862260577395500,1.3553955078125,0.024339161813259125,0.20035040378570557,-0.7663866281509399
1788862260587437300,1.365437255859375,-0.025552231818437576,0.6548603773117065,-0.91297447681427
1788862260597478400,1.375478515625,-0.07548516988754272,1.1118465662002563,-1.1513553857803345
1788862260607520300,1.385520263671875,-0.09209370613098145,1.4335694313049316,-1.3088765144348145
1788862260617561300,1.395561279296875,-0.11938844621181488,1.4729599952697754,-1.2910016775131226
1788862260627603200,1.405603271484375,-0.12743571400642395,1.2873643636703491,-1.1608964204788208
1788862260637645600,1.4156455078125,-0.10968521982431412,1.1297179460525513,-0.9948334097862244
1788862260647686400,1.425686279296875,-0.04861866682767868,0.44861188530921936,-0.3542720675468445
1788862260657728500,1.435728515625,0.0033135050907731056,0.9441073536872864,-0.28509992361068726
1788862260667769300,1.445769287109375,-0.06961210072040558,1.0632481575012207,-0.278656929731369
1788862260677811500,1.4558115234375,-0.03638463839888573,0.5959140062332153,-0.0798112079501152
1788862260687853300,1.465853271484375,-0.018458636477589607,0.2412421852350235,-0.15505217015743256
1788862260697894400,1.475894287109375,0.14408527314662933,0.2600656747817993,-0.20370012521743774
1788862260707936300,1.485936279296875,0.4449119567871094,0.1295023262500763,-0.13755227625370026
1788862260717977300,1.495977294921875,0.6191849708557129,0.12849591672420502,-0.11422643810510635
1788862260728019500,1.50601953125,0.6353690028190613,0.1110527515411377,-0.20415233075618744
1788862260738061300,1.516061279296875,0.49007225036621094,0.003915645647794008,-0.20600776374340057
1788862260748102400,1.526102294921875,-0.060321398079395294,-0.2174721360206604,-0.13752244412899017
1788862260758144300,1.536144287109375,-0.6631752848625183,-0.26872679591178894,0.005164934787899256
1788862260768185300,1.546185302734375,-1.144904375076294,-0.5293229818344116,0.13024482131004333
1788862260778227500,1.5562275390625,-1.1752372980117798,-0.7300099730491638,0.20331503450870514
1788862260788269300,1.566269287109375,-0.95047527551651,-0.7930403351783752,0.2316630482673645
1788862260798310400,1.576310302734375,-0.8130061030387878,-0.568897008895874,0.04742663726210594
1788862260808352500,1.5863525390625,-0.5152063369750977,-0.20995216071605682,-0.02762363851070404
1788862260818393300,1.596393310546875,-0.45599469542503357,0.3911168873310089,-0.009667807258665562
1788862260828435500,1.606435546875,-0.7813038229942322,0.6615532040596008,-0.3254894018173218
1788862260838477300,1.616477294921875,-0.8953257203102112,0.4316781759262085,-0.36759451031684875
1788862260848518400,1.626518310546875,-0.9405848383903503,-0.11100108921527863,-0.2918366491794586
1788862260858560300,1.636560302734375,-0.9646379351615906,-0.6547290682792664,-0.011681689880788326
1788862260868601300,1.646601318359375,-0.8800476789474487,-1.2750818729400635,0.42449429631233215
1788862260878643200,1.656643310546875,-0.46372371912002563,-2.1081125736236572,0.6414657235145569
1788862260888685600,1.666685546875,0.21873953938484192,-3.6568567752838135,-0.22405892610549927
1788862260898726400,1.676726318359375,0.8171406388282776,-4.876347541809082,-0.6758410334587097
1788862260908768500,1.6867685546875,1.3818213939666748,-2.747347116470337,-0.650192141532898
1788862260918809300,1.696809326171875,2.304255485534668,-1.3805017471313477,-0.9534899592399597
1788862260928851500,1.7068515625,2.7862493991851807,-1.3270009756088257,-1.0931658744812012
1788862260938893300,1.716893310546875,2.262801170349121,-1.4245216846466064,-0.5952319502830505
1788862260948934400,1.726934326171875,1.4816749095916748,-1.2612677812576294,-0.411324679851532
1788862260958976300,1.736976318359375,0.9103182554244995,-1.5333610773086548,-0.41958290338516235
1788862260969017300,1.747017333984375,0.21101370453834534,-1.8324459791183472,-0.6114657521247864
1788862260979059500,1.7570595703125,-0.1522233635187149,-1.8511850833892822,-0.5237034559249878
1788862260989101300,1.767101318359375,-0.02760978974401951,-1.2401525974273682,-0.4991450905799866
1788862260999142400,1.777142333984375,0.07450752705335617,-0.7749870419502258,-0.26182469725608826
1788862261009184300,1.787184326171875,0.1060076579451561,-0.6038597822189331,-0.10613309592008591
1788862261019225300,1.797225341796875,0.05720390006899834,-0.6228523850440979,-0.05042668804526329
1788862261029267200,1.80726708984375,0.11858843266963959,-0.5512421131134033,-0.04899896681308746
1788862261039308300,1.817308349609375,0.1909307986497879,-0.533564031124115,-0.1283012479543686
1788862261049350100,1.82735009765625,0.3414428234100342,-0.5182726979255676,-0.30906757712364197
1788862261059392500,1.837392578125,0.6009915471076965,-0.2602480947971344,-0.40617093443870544
1788862261069433300,1.847433349609375,0.7353741526603699,-0.0963052287697792,-0.3387133479118347
1788862261079475500,1.857475341796875,0.7670833468437195,0.12348758429288864,-0.13251996040344238
1788862261089516300,1.867516357421875,0.7800316214561462,0.041185252368450165,-0.1418711245059967
1788862261099558400,1.877558349609375,0.7891321778297424,-0.30765530467033386,-0.15702104568481445
1788862261109600300,1.887600341796875,0.7529739141464233,-0.34342634677886963,-0.44511649012565613
1788862261119641300,1.897641357421875,0.5571370124816895,-0.5585716962814331,-0.8265924453735352
1788862261129683200,1.90768310546875,0.1817231923341751,-0.5975635647773743,-0.812401294708252
1788862261139724300,1.917724365234375,0.04911268502473831,-0.5144140720367432,-0.5130537152290344
1788862261149766400,1.927766357421875,0.1474781334400177,-0.6654374003410339,-0.3178301751613617
1788862261159808500,1.93780859375,0.3174794316291809,-0.6098819971084595,-0.20564903318881989
1788862261169849300,1.947849365234375,0.516512393951416,-0.16528962552547455,-0.24877066910266876
1788862261179891500,1.957891357421875,0.5325866937637329,-0.0012772521004080772,-0.22624698281288147
1788862261189932300,1.967932373046875,0.29597413539886475,0.20111925899982452,-0.1917574554681778
1788862261199974400,1.977974365234375,0.28222715854644775,0.20611454546451569,-0.20669005811214447
1788862261210016300,1.988016357421875,0.24102379381656647,-0.042336802929639816,-0.14607945084571838
1788862261220057600,1.9980576171875,0.16451650857925415,-0.23417255282402039,-0.17817425727844238
1788862261230099500,2.008099365234375,0.0904337614774704,-0.2335517704486847,-0.3227247893810272
1788862261240140500,2.018140625,0.10457567870616913,-0.1057775616645813,-0.39101195335388184
1788862261250182400,2.028182373046875,0.21408486366271973,-0.1402343362569809,-0.4019157588481903
1788862261260223500,2.038223388671875,0.35877281427383423,-0.36311057209968567,-0.3133850693702698
1788862261270264300,2.048264404296875,0.49378469586372375,-0.5489358305931091,-0.2257806658744812
1788862261280306700,2.058306640625,0.6635881066322327,-0.8624628186225891,-0.17085057497024536
1788862261290347500,2.068347412109375,0.6771057844161987,-0.6800618767738342,0.025583922863006592
1788862261300389600,2.0783896484375,0.6984297037124634,-0.8145110607147217,0.19924625754356384
1788862261310430500,2.088430419921875,0.7036787867546082,-1.0094720125198364,0.2656002640724182
1788862261320472600,2.09847265625,0.6780799627304077,-1.167142629623413,0.24191994965076447
1788862261330514400,2.108514404296875,0.7413273453712463,-1.3336492776870728,0.20423249900341034
1788862261340555500,2.118555419921875,0.7526013255119324,-1.4260891675949097,0.200745090842247
1788862261350597400,2.128597412109375,0.7412155270576477,-1.47678804397583,0.227102130651474
1788862261360638500,2.138638427734375,0.7045299410820007,-1.583556890487671,0.258075475692749
1788862261370680600,2.1486806640625,0.6393453478813171,-1.8287628889083862,0.18583537638187408
1788862261380722400,2.158722412109375,0.5475807785987854,-1.4482437372207642,0.15775874257087708
1788862261390763500,2.168763427734375,0.4377499222755432,-0.9367421269416809,0.12832868099212646
1788862261400805400,2.178805419921875,0.34132564067840576,-0.7956342697143555,0.15155650675296783
1788862261410846500,2.188846435546875,0.32542523741722107,-0.7364218235015869,0.20124922692775726
1788862261420888300,2.198888427734375,0.23897503316402435,-0.5544602870941162,0.22144024074077606
1788862261430930400,2.208930419921875,0.20959636569023132,-0.3194459080696106,0.3408031165599823
1788862261440971500,2.218971435546875,0.1647079885005951,-0.28065988421440125,0.4165423512458801
1788862261451013600,2.229013671875,0.08108925819396973,-0.27053534984588623,0.43593576550483704
1788862261461054500,2.239054443359375,0.023359917104244232,-0.23229822516441345,0.48743438720703125
1788862261471096600,2.2490966796875,-0.0703071877360344,-0.1756967306137085,0.5729023814201355
1788862261481138400,2.259138427734375,-0.13846786320209503,-0.1177428811788559,0.6527101397514343
1788862261491179500,2.269179443359375,-0.15492966771125793,-0.02761112153530121,0.7123918533325195
1788862261501221400,2.279221435546875,-0.2400091290473938,0.1247003898024559,0.7289695143699646
1788862261511262500,2.289262451171875,-0.4162062704563141,0.3175204396247864,0.6872297525405884
1788862261521304600,2.2993046875,-0.575250506401062,0.39605438709259033,0.6662813425064087
1788862261531345700,2.309345703125,-0.5834817886352539,0.6202632784843445,0.6479470729827881
1788862261541387500,2.319387451171875,-0.5008782744407654,0.7710589170455933,0.592880129814148
1788862261551429600,2.3294296875,-0.44622063636779785,0.911098837852478,0.48224732279777527
1788862261561470500,2.339470458984375,-0.4428946077823639,1.2281923294067383,0.34527191519737244
1788862261571512600,2.3495126953125,-0.5054363012313843,1.3283804655075073,0.3423336446285248
1788862261581553400,2.359553466796875,-0.47705018520355225,1.1940172910690308,0.3708063066005707
1788862261591595500,2.369595458984375,-0.2945714592933655,1.0301448106765747,0.32072314620018005
1788862261601637600,2.3796376953125,0.0016966998809948564,0.8327845931053162,0.25325384736061096
1788862261611678700,2.3896787109375,0.31324660778045654,0.5305014252662659,0.18990574777126312
1788862261621720600,2.399720458984375,0.4119763672351837,0.14663204550743103,0.1330704391002655
1788862261631761700,2.40976171875,0.1326507180929184,-0.19215746223926544,0.1685197651386261
1788862261641803500,2.419803466796875,-0.2837406396865845,-0.5447048544883728,0.2140806019306183
1788862261651844600,2.4298447265625,-0.322331964969635,-0.7291703224182129,0.2812258005142212
1788862261661886500,2.439886474609375,-0.3492051362991333,-0.5757187008857727,0.31461361050605774
1788862261671928300,2.44992822265625,-0.4381014406681061,-0.29538077116012573,0.2815331518650055
1788862261681969400,2.459969482421875,-0.4631095826625824,-0.0672575980424881,0.25537237524986267
1788862261692011500,2.470011474609375,-0.33561447262763977,0.1254761666059494,0.16052550077438354
1788862261702052600,2.480052490234375,-0.11794900894165039,0.06168120726943016,0.07516718655824661
1788862261712094500,2.490094482421875,-0.06489671021699905,-0.03299044072628021,0.012885704636573792
1788862261722136600,2.500136474609375,-0.25717881321907043,-0.11110042035579681,0.025359950959682465
1788862261732177400,2.510177490234375,-0.3746436536312103,-0.15855209529399872,-0.014431669376790524
1788862261742219500,2.520219482421875,-0.49207785725593567,-0.09902112185955048,-0.20421305298805237
1788862261752260400,2.53026025390625,-0.3857354521751404,-0.15153519809246063,-0.2758081555366516
1788862261762302500,2.540302490234375,-0.2758616805076599,-0.26345294713974,-0.2251092791557312
1788862261772343300,2.55034326171875,-0.2128097414970398,-0.13050128519535065,-0.20901846885681152
1788862261782385700,2.5603857421875,-0.1767721027135849,-0.037816088646650314,-0.15176822245121002
1788862261792427500,2.570427490234375,-0.11895834654569626,0.10247444361448288,-0.13139770925045013
1788862261802468600,2.580468505859375,-0.0730917900800705,0.21631845831871033,-0.12270514667034149
1788862261812510500,2.590510498046875,-0.11034195125102997,0.24605904519557953,-0.1223224475979805
1788862261822551600,2.600551513671875,-0.22088764607906342,0.14301042258739471,-0.13780073821544647
1788862261832593400,2.610593505859375,-0.2616039216518402,-0.06332278251647949,-0.11010200530290604
1788862261842635500,2.620635498046875,-0.252246618270874,-0.21370668709278107,-0.06767172366380692
1788862261852676400,2.63067626953125,-0.2527608871459961,-0.24993526935577393,-0.007896805182099342
1788862261862718500,2.640718505859375,-0.2406139373779297,-0.1851980835199356,0.050518833100795746
1788862261872759600,2.650759521484375,-0.22945156693458557,-0.09880939871072769,0.0809294730424881
1788862261882801400,2.660801513671875,-0.2177797257900238,-0.03827255219221115,0.08713436871767044
1788862261892842500,2.670842529296875,-0.1991112381219864,0.00344506511464715,0.09627513587474823
1788862261902884600,2.680884521484375,-0.17487087845802307,0.0062573631294071674,0.1247137039899826
1788862261912926500,2.690926513671875,-0.15432219207286835,-0.04655897989869118,0.15330886840820312
1788862261922967600,2.700967529296875,-0.11856659501791,-0.0803196057677269,0.165721595287323
1788862261933009400,2.711009521484375,-0.10275807231664658,-0.06961396336555481,0.1575518101453781
1788862261943050500,2.721050537109375,-0.09103776514530182,-0.03967204689979553,0.1586679369211197
1788862261953092600,2.731092529296875,-0.09020765870809555,-0.020665597170591354,0.19908593595027924
1788862261963134500,2.741134521484375,-0.088363416492939,-0.0026075011119246483,0.2833166718482971
1788862261973175600,2.751175537109375,-0.0709862932562828,-0.0075750951655209064,0.37587669491767883
1788862261983217400,2.761217529296875,-0.04766951873898506,-0.023607324808835983,0.4737643599510193
1788862261993258500,2.771258544921875,-0.03810077905654907,-0.057435330003499985,0.5552094578742981
1788862262003300400,2.78130029296875,-0.024272849783301353,-0.07310430705547333,0.5911490321159363
1788862262013341400,2.791341552734375,-0.014705975539982319,-0.07282893359661102,0.5916311144828796
1788862262023383300,2.80138330078125,-0.016017049551010132,-0.06559498608112335,0.5959044098854065
1788862262033425700,2.81142578125,-0.005303951445966959,-0.040952492505311966,0.6183135509490967
1788862262043466500,2.821466552734375,0.013498231768608093,0.01835823431611061,0.6560641527175903
1788862262053508600,2.831508544921875,0.03508847951889038,0.08827260136604309,0.7168127298355103
1788862262063549400,2.841549560546875,0.06063458323478699,0.1178765669465065,0.7460765838623047
1788862262073591600,2.851591552734375,0.08399556577205658,0.10213010013103485,0.7333842515945435
1788862262083633400,2.86163330078125,0.09220369905233383,0.03328312188386917,0.7144238352775574
1788862262093674500,2.871674560546875,0.0842411145567894,-0.0750659853219986,0.7122243642807007
1788862262103716600,2.881716552734375,0.059848152101039886,-0.1246844083070755,0.7218178510665894
1788862262113757700,2.8917578125,0.04102945700287819,-0.05049246922135353,0.7000856399536133
1788862262123799600,2.901799560546875,-0.004826979245990515,0.07190055400133133,0.6267179846763611
1788862262133840600,2.911840576171875,-0.09241089224815369,0.17333130538463593,0.5298430919647217
1788862262143882500,2.921882568359375,-0.18097084760665894,0.2499440610408783,0.46949613094329834
1788862262153924400,2.93192431640625,-0.23950766026973724,0.2982569932937622,0.4777764081954956
1788862262163965400,2.94196533203125,-0.26328331232070923,0.25200241804122925,0.5170372724533081
1788862262174007300,2.95200732421875,-0.22953492403030396,0.1358979195356369,0.5247766971588135
1788862262184048400,2.96204833984375,-0.1663660705089569,0.019174760207533836,0.4688630998134613
1788862262194090500,2.972090576171875,-0.12934307754039764,-0.07419087737798691,0.372204452753067
1788862262204131600,2.982131591796875,-0.11984943598508835,-0.10615546256303787,0.2819962799549103
1788862262214173400,2.99217333984375,-0.10644947737455368,-0.03513375297188759,0.21576158702373505
1788862262224215600,3.002215576171875,-0.09075760096311569,0.04519597440958023,0.15516908466815948
1788862262234256400,3.01225634765625,-0.07854460924863815,0.08831840753555298,0.1076819896697998
1788862262244298500,3.022298583984375,-0.045035917311906815,0.05115879327058792,0.06705600023269653
1788862262254339600,3.032339599609375,0.007553790230304003,-0.02371065504848957,0.04344228282570839
1788862262264381700,3.042381591796875,0.06835908442735672,-0.08436921238899231,0.051969192922115326
1788862262274423800,3.052423828125,0.11112039536237717,-0.1330568492412567,0.06932128220796585
1788862262284465000,3.06246484375,0.12855637073516846,-0.16633650660514832,0.05907050892710686
1788862262294506800,3.0725068359375,0.11700518429279327,-0.12098900228738785,0.023014770820736885
1788862262304547800,3.0825478515625,0.08413618057966232,-0.03598649799823761,-0.007077616639435291
1788862262314589700,3.092589599609375,0.042689673602581024,-0.025736788287758827,0.007868309505283833
1788862262324630800,3.102630859375,0.028479577973484993,-0.08716925978660583,0.042445726692676544
1788862262334672600,3.112672607421875,0.04439862444996834,-0.062020495533943176,0.056231848895549774
1788862262344714800,3.12271484375,0.040586575865745544,0.01817500963807106,0.04886075109243393
1788862262354755600,3.132755615234375,0.03712845966219902,0.17140664160251617,0.027418840676546097
1788862262364798000,3.1427978515625,0.05130846053361893,0.19919618964195251,0.011472364887595177
1788862262374838800,3.1528388671875,0.1034528911113739,0.13802550733089447,-0.024808410555124283
1788862262384881000,3.162880859375,0.11543471366167068,0.09865520149469376,-0.035169705748558044
1788862262394921700,3.172921630859375,0.0853431299328804,0.09866665303707123,-0.035479698330163956
1788862262404963800,3.1829638671875,0.04879683256149292,0.06859371066093445,-0.02195722982287407
1788862262415005700,3.193005615234375,0.0011853729374706745,-0.006074670236557722,-0.020557738840579987
1788862262425046800,3.203046875,-0.04446174204349518,0.051657333970069885,-0.037523940205574036
1788862262435088600,3.213088623046875,-0.06405940651893616,0.14003486931324005,-0.06617476046085358
1788862262445129700,3.223129638671875,-0.05883535370230675,0.15995930135250092,-0.07832356542348862
1788862262455171800,3.233171875,-0.017978200688958168,0.034513235092163086,-0.07611554116010666
1788862262465213700,3.243213623046875,0.05137450620532036,-0.11366957426071167,-0.07295916229486465
1788862262475254800,3.2532548828125,0.05403420701622963,-0.19699323177337646,-0.08610878884792328
1788862262485296600,3.263296630859375,0.0070943948812782764,-0.2680317163467407,-0.057313092052936554
1788862262495337700,3.273337646484375,-0.010820156894624233,-0.3310980200767517,0.017772872000932693
1788862262505379600,3.283379638671875,-0.02516314387321472,-0.2946279048919678,0.086028091609478
1788862262515420700,3.293420654296875,-0.052629657089710236,-0.1631351262331009,0.10641512274742126
1788862262525462500,3.303462646484375,-0.05385550856590271,-0.04423324018716812,0.09603651612997055
1788862262535505000,3.3135048828125,-0.019300194457173347,-0.04056926444172859,0.10379936546087265
1788862262545545700,3.323545654296875,0.028267856687307358,-0.08380115777254105,0.13234499096870422
1788862262555587800,3.333587890625,0.07099108397960663,-0.052140966057777405,0.13785719871520996
1788862262565628700,3.343628662109375,0.12093067914247513,0.014658571220934391,0.12205879390239716
1788862262575670800,3.3536708984375,0.17282290756702423,0.09723680466413498,0.11658786237239838
1788862262585711600,3.363711669921875,0.17857719957828522,0.23827941715717316,0.13560576736927032
1788862262595753700,3.373753662109375,0.11481020599603653,0.3656749129295349,0.18385958671569824
1788862262605795800,3.3837958984375,0.06314274668693542,0.43736109137535095,0.19980765879154205
1788862262615837000,3.3938369140625,-0.02658793516457081,0.45040765404701233,0.12996305525302887
1788862262625878800,3.403878662109375,-0.12595206499099731,0.46457645297050476,0.044790107756853104
1788862262635920000,3.413919921875,-0.15975716710090637,0.3669907748699188,0.020981181412935257
1788862262645961700,3.423961669921875,-0.11795033514499664,0.20460054278373718,0.0502392016351223
1788862262656002800,3.4340029296875,-0.047018639743328094,0.09026491641998291,0.06844723224639893
1788862262666044700,3.444044677734375,0.012884639203548431,0.027003388851881027,0.05476870760321617
1788862262676086800,3.454086669921875,0.04483644664287567,-0.004581169690936804,0.0629185140132904
1788862262686127600,3.464127685546875,0.052925530821084976,0.03912343457341194,0.10200812667608261
1788862262696169700,3.474169677734375,0.06514038890600204,0.08006580919027328,0.13484543561935425
1788862262706210800,3.4842109375,0.06553719937801361,0.06704241782426834,0.16279371082782745
1788862262716253000,3.4942529296875,0.07278179377317429,0.023314377292990685,0.18763887882232666
1788862262726294800,3.504294677734375,0.07382947951555252,0.07636640965938568,0.19976264238357544
1788862262736336000,3.5143359375,0.08198008686304092,0.2982889413833618,0.19167809188365936
1788862262746377700,3.524377685546875,0.074399933218956,0.4897100329399109,0.16720923781394958
1788862262756418800,3.534418701171875,0.04825354740023613,0.5565871000289917,0.17285087704658508
1788862262766460700,3.544460693359375,0.03761129081249237,0.4700220823287964,0.21723538637161255
1788862262776501800,3.554501708984375,0.052135106176137924,0.23236718773841858,0.2711942195892334
1788862262786543900,3.5645439453125,0.09037703275680542,-0.06380640715360641,0.33201122283935547
1788862262796585700,3.574585693359375,0.12620320916175842,-0.29385611414909363,0.3718380033969879
1788862262806626800,3.584626708984375,0.14507463574409485,-0.32074686884880066,0.37914252281188965
1788862262816668700,3.594668701171875,0.14050784707069397,-0.15456081926822662,0.3478357195854187
1788862262826709800,3.604709716796875,0.14150014519691467,0.08258329331874847,0.3170700967311859
1788862262836751600,3.614751708984375,0.14973756670951843,0.2444038838148117,0.31129664182662964
1788862262846792700,3.624792724609375,0.15541915595531464,0.3265208601951599,0.2995787262916565
1788862262856834600,3.63483447265625,0.17592841386795044,0.30425071716308594,0.2865489423274994
1788862262866877000,3.644876953125,0.21743272244930267,0.19313058257102966,0.271185964345932
1788862262876917800,3.654917724609375,0.2545454800128937,0.08833838254213333,0.26564446091651917
1788862262886959900,3.6649599609375,0.24782177805900574,0.040048349648714066,0.25825604796409607
1788862262897000700,3.675000732421875,0.24164244532585144,0.000050600061513250694,0.24799728393554688
1788862262907042800,3.685042724609375,0.22457878291606903,-0.03628530353307724,0.24748942255973816
1788862262917083600,3.695083740234375,0.1886327564716339,-0.03310788422822952,0.238238126039505
1788862262927125800,3.705125732421875,0.14182238280773163,-0.021996112540364265,0.23055411875247955
1788862262937167600,3.715167724609375,0.0806032344698906,-0.005375057924538851,0.21093034744262695
1788862262947208700,3.725208740234375,0.0527670755982399,0.032289497554302216,0.18761196732521057
1788862262957250800,3.735250732421875,0.037642981857061386,0.09727808088064194,0.15507985651493073
1788862262967292000,3.7452919921875,0.021583322435617447,0.16892804205417633,0.10365928709506989
1788862262977333800,3.755333740234375,-0.0006490123341791332,0.21881116926670074,0.03994608297944069
1788862262987374800,3.765374755859375,-0.02436259761452675,0.261698454618454,-0.027628697454929352
1788862262997416700,3.775416748046875,-0.048599760979413986,0.2860866189002991,-0.0910382941365242
1788862263007458600,3.78545849609375,-0.09093257039785385,0.3060893416404724,-0.15968233346939087
1788862263017499600,3.795499755859375,-0.10998482257127762,0.3132913410663605,-0.2282685935497284
1788862263027541800,3.805541748046875,-0.11241495609283447,0.28800463676452637,-0.30673864483833313
1788862263037582600,3.81558251953125,-0.11928778141736984,0.25122982263565063,-0.3909118175506592
1788862263047624700,3.825624755859375,-0.14936791360378265,0.2551209628582001,-0.46053779125213623
1788862263057666800,3.835666748046875,-0.17838385701179504,0.2705417573451996,-0.5153067708015442
1788862263067708000,3.8457080078125,-0.18907564878463745,0.2736895978450775,-0.5614878535270691
1788862263077749800,3.855749755859375,-0.1844790279865265,0.2591886818408966,-0.6054030656814575
1788862263087790800,3.865790771484375,-0.18222306668758392,0.25523096323013306,-0.6313223242759705
1788862263097832700,3.875832763671875,-0.18746577203273773,0.2592557966709137,-0.6496871709823608
1788862263107873800,3.885873779296875,-0.2129383683204651,0.2528058886528015,-0.643395185470581
1788862263117915600,3.89591552734375,-0.2463245540857315,0.2182186245918274,-0.6360169053077698
1788862263127957800,3.905957763671875,-0.28533241152763367,0.16128689050674438,-0.6178246140480042
1788862263137998800,3.915998779296875,-0.33278167247772217,0.08663848787546158,-0.5784811973571777
1788862263148040700,3.926040771484375,-0.36591219902038574,0.05368959531188011,-0.5325437784194946
1788862263158081800,3.936081787109375,-0.3718092441558838,0.025957297533750534,-0.4829663932323456
1788862263168123600,3.94612353515625,-0.3591783940792084,-0.037221670150756836,-0.42130622267723083
1788862263178164700,3.956164794921875,-0.3386877775192261,-0.09797370433807373,-0.3716888725757599
1788862263188206600,3.96620654296875,-0.3139941394329071,-0.10462334752082825,-0.34414803981781006
1788862263198249000,3.9762490234375,-0.2866269648075104,-0.06365088373422623,-0.3147001564502716
1788862263208289800,3.986289794921875,-0.25842994451522827,-0.007487210910767317,-0.29854753613471985
1788862263218332000,3.996331787109375,-0.24103978276252747,0.07697680592536926,-0.3031904995441437
1788862263228372700,4.006372802734375,-0.2070181667804718,0.12426576018333435,-0.3060528635978699
1788862263238414800,4.016414794921875,-0.12171418219804764,0.050749197602272034,-0.2779994010925293
1788862263248455700,4.02645556640625,-0.005783586762845516,-0.010158628225326538,-0.2527843117713928
1788862263258497800,4.036497802734375,0.07991427183151245,0.0582481250166893,-0.2708653211593628
1788862263268540700,4.046540771484375,0.12719257175922394,0.19148901104927063,-0.30744996666908264
1788862263278581500,4.05658154296875,0.17198480665683746,0.27684277296066284,-0.33439528942108154
1788862263288623600,4.06662353515625,0.2385483980178833,0.27603423595428467,-0.3669084906578064
1788862263298664400,4.07666455078125,0.31286442279815674,0.22633273899555206,-0.4110453426837921
1788862263308706600,4.08670654296875,0.35970598459243774,0.2500170171260834,-0.453464150428772
1788862263318747600,4.09674755859375,0.3885136544704437,0.3252294957637787,-0.47862863540649414
1788862263328789500,4.10678955078125,0.39930105209350586,0.3803257644176483,-0.4900232255458832
1788862263338831400,4.116831298828125,0.40178871154785156,0.38228639960289,-0.49061498045921326
1788862263348872400,4.12687255859375,0.39698728919029236,0.35434022545814514,-0.4975666403770447
1788862263358914600,4.13691455078125,0.3885386884212494,0.32667797803878784,-0.5111583471298218
1788862263368955600,4.14695556640625,0.3782740533351898,0.28371453285217285,-0.5308085083961487
1788862263378997500,4.15699755859375,0.37235572934150696,0.24755333364009857,-0.5589354634284973
1788862263389038600,4.16703857421875,0.36580806970596313,0.20410652458667755,-0.5967376828193665
1788862263399080400,4.17708056640625,0.35884764790534973,0.13996082544326782,-0.6219096183776855
1788862263409122600,4.18712255859375,0.34909993410110474,0.062486015260219574,-0.6224611401557922
1788862263419163400,4.197163330078125,0.32174742221832275,-0.001995772821828723,-0.5978820323944092
1788862263429205500,4.20720556640625,0.2659531235694885,0.006307963281869888,-0.5839079022407532
1788862263439246600,4.21724658203125,0.19515138864517212,0.14907097816467285,-0.6330922245979309
1788862263449288700,4.227288818359375,0.115391306579113,0.32745614647865295,-0.7454560399055481
1788862263459329500,4.23732958984375,0.053652044385671616,0.35438045859336853,-0.8361436128616333
1788862263469371600,4.24737158203125,0.026446521282196045,0.20251742005348206,-0.8645235896110535
1788862263479413500,4.25741357421875,-0.013767743483185768,-0.029803436249494553,-0.8520903587341309
1788862263489454600,4.26745458984375,-0.05462436378002167,-0.23948556184768677,-0.8451432585716248
1788862263499496400,4.277496337890625,-0.09819979965686798,-0.3872944712638855,-0.8543666005134583
1788862263509537500,4.28753759765625,-0.13974617421627045,-0.4598647952079773,-0.8850986361503601
1788862263519579600,4.29757958984375,-0.1976907104253769,-0.4464525878429413,-0.910871684551239
1788862263529620700,4.307620849609375,-0.25967124104499817,-0.39397740364074707,-0.9024004340171814
1788862263539662600,4.31766259765625,-0.31148970127105713,-0.35375353693962097,-0.8773036003112793
1788862263549704400,4.327704345703125,-0.35794296860694885,-0.3322216272354126,-0.8733596801757812
1788862263559745500,4.33774560546875,-0.3985220789909363,-0.37397173047065735,-0.9205876588821411
1788862263569787400,4.347787353515625,-0.43782874941825867,-0.4762677550315857,-0.995827317237854
1788862263579828500,4.357828369140625,-0.47538623213768005,-0.622314453125,-1.0696783065795898
1788862263589870300,4.367870361328125,-0.5015685558319092,-0.7301641702651978,-1.1180384159088135
1788862263599911400,4.377911376953125,-0.508528470993042,-0.7609239816665649,-1.1347726583480835
1788862263609953500,4.38795361328125,-0.517643928527832,-0.7095774412155151,-1.1318341493606567
1788862263619995600,4.39799560546875,-0.5231329798698425,-0.6095613241195679,-1.1217652559280396
1788862263630036500,4.408036376953125,-0.5177541971206665,-0.49972325563430786,-1.0920963287353516
1788862263640078600,4.41807861328125,-0.5053723454475403,-0.422639399766922,-1.044042706489563
1788862263650119400,4.428119384765625,-0.49678152799606323,-0.40984052419662476,-1.0102012157440186
1788862263660161500,4.43816162109375,-0.4954850971698761,-0.4665567874908447,-1.0243563652038574
1788862263670202400,4.448202392578125,-0.5152614712715149,-0.5794777274131775,-1.0859547853469849
1788862263680244500,4.458244384765625,-0.5283442735671997,-0.7327698469161987,-1.1477755308151245
1788862263690286600,4.46828662109375,-0.5285413265228271,-0.8499624729156494,-1.1952799558639526
1788862263700327700,4.47832763671875,-0.5216203331947327,-0.8624732494354248,-1.209658145904541
1788862263710369500,4.48836962890625,-0.5354527831077576,-0.755694568157196,-1.1964112520217896
1788862263720410600,4.49841064453125,-0.5670490264892578,-0.5800498127937317,-1.1910945177078247
1788862263730452500,4.508452392578125,-0.6205127835273743,-0.45819181203842163,-1.2055989503860474
1788862263740493600,4.51849365234375,-0.6714920997619629,-0.459177702665329,-1.227164626121521
1788862263750535400,4.528535400390625,-0.6950458884239197,-0.5191547274589539,-1.2468807697296143
1788862263760577500,4.53857763671875,-0.6827799081802368,-0.5760454535484314,-1.2871342897415161
1788862263770618400,4.548618408203125,-0.6436545848846436,-0.6234113574028015,-1.3362528085708618
1788862263780660700,4.55866064453125,-0.6112830638885498,-0.6834771037101746,-1.388178825378418
1788862263790701600,4.56870166015625,-0.5810844302177429,-0.704662561416626,-1.428585410118103
1788862263800743700,4.57874365234375,-0.5546498894691467,-0.5807062387466431,-1.449527382850647
1788862263810784500,4.588784423828125,-0.5344170928001404,-0.39319947361946106,-1.448336124420166
1788862263820826600,4.59882666015625,-0.5372298955917358,-0.25896552205085754,-1.4639670848846436
1788862263830868500,4.608868408203125,-0.5324798822402954,-0.23276320099830627,-1.4655609130859375
1788862263840909600,4.61890966796875,-0.5147139430046082,-0.2675451636314392,-1.4315813779830933
1788862263850951400,4.628951416015625,-0.5004652142524719,-0.2725742757320404,-1.4131991863250732
1788862263860992500,4.638992431640625,-0.5055444240570068,-0.21736454963684082,-1.4458935260772705
1788862263871034600,4.64903466796875,-0.5261106491088867,-0.23826876282691956,-1.5171376466751099
1788862263881075700,4.65907568359375,-0.5098959803581238,-0.36206313967704773,-1.5729215145111084
1788862263891117600,4.66911767578125,-0.49735066294670105,-0.5048961639404297,-1.599417805671692
1788862263901159400,4.679159423828125,-0.5008891820907593,-0.624638020992279,-1.5777220726013184
1788862263911200500,4.689200439453125,-0.5434401035308838,-0.6039543151855469,-1.5693174600601196
1788862263921242400,4.699242431640625,-0.5961856245994568,-0.43573468923568726,-1.6113243103027344
1788862263931283500,4.709283447265625,-0.6245157718658447,-0.30409225821495056,-1.6575336456298828
1788862263941325300,4.7193251953125,-0.6282154321670532,-0.2951163351535797,-1.6673667430877686
1788862263951366400,4.729366455078125,-0.6037077307701111,-0.3953952491283417,-1.657920002937317
1788862263961408500,4.739408447265625,-0.554859459400177,-0.5077340602874756,-1.638014554977417
1788862263971450600,4.74945068359375,-0.5009368658065796,-0.5660958886146545,-1.632506251335144
1788862263981491500,4.759491455078125,-0.46341824531555176,-0.5554807782173157,-1.6006181240081787
1788862263991533600,4.769533447265625,-0.4539131820201874,-0.4860263764858246,-1.5434021949768066
1788862264001574400,4.779574462890625,-0.4707089364528656,-0.3893008828163147,-1.4875293970108032
1788862264011616500,4.789616455078125,-0.4797112047672272,-0.3139083981513977,-1.4904247522354126
1788862264021657300,4.7996572265625,-0.46577221155166626,-0.30103015899658203,-1.5333232879638672
1788862264031699500,4.809699462890625,-0.4480339586734772,-0.3359204828739166,-1.576156735420227
1788862264041741600,4.819741455078125,-0.4278506636619568,-0.3751533627510071,-1.5376378297805786
1788862264051782700,4.82978271484375,-0.41769176721572876,-0.41442060470581055,-1.4347293376922607
1788862264061824500,4.839824462890625,-0.3880169689655304,-0.42365431785583496,-1.3662892580032349
1788862264071865600,4.849865478515625,-0.33883798122406006,-0.38899514079093933,-1.3600656986236572
1788862264081907500,4.859907470703125,-0.3023358881473541,-0.3589025139808655,-1.385253667831421
1788862264091948500,4.869948486328125,-0.2720504105091095,-0.3840736448764801,-1.3566683530807495
1788862264101990400,4.879990478515625,-0.25047215819358826,-0.4204508066177368,-1.2700053453445435
1788862264112032800,4.89003271484375,-0.20933537185192108,-0.4622563123703003,-1.2156987190246582
1788862264122073600,4.900073486328125,-0.16146692633628845,-0.5204999446868896,-1.233568787574768
1788862264132115700,4.91011572265625,-0.10105711221694946,-0.5614017844200134,-1.2570096254348755
1788862264142156500,4.920156494140625,-0.07629450410604477,-0.5448012351989746,-1.2188292741775513
1788862264152198700,4.93019873046875,-0.07515387237071991,-0.49685904383659363,-1.1745922565460205
1788862264162239500,4.940239501953125,-0.10170505940914154,-0.4610656201839447,-1.1716854572296143
1788862264172281600,4.950281494140625,-0.11630477011203766,-0.4516846239566803,-1.1726993322372437
1788862264182323500,4.960323486328125,-0.09888450056314468,-0.4099995195865631,-1.1404087543487549
1788862264192364500,4.970364501953125,-0.04989032819867134,-0.37084996700286865,-1.0520682334899902
1788862264202406700,4.98040673828125,0.013307283632457256,-0.3438766896724701,-0.9667394757270813
1788862264212447700,4.99044775390625,0.08349782228469849,-0.2890624403953552,-0.9042031168937683
1788862264222489600,5.000489501953125,0.14288951456546783,-0.22016166150569916,-0.8710065484046936
1788862264232530700,5.01053076171875,0.17153526842594147,-0.1895904392004013,-0.8021560907363892
1788862264242572500,5.020572509765625,0.1850856989622116,-0.14629435539245605,-0.6032243371009827
1788862264252614400,5.030614501953125,0.20260077714920044,-0.01025876309722662,-0.5093148946762085
1788862264262655500,5.040655517578125,0.21126803755760193,-0.004254399798810482,-0.5989137887954712
1788862264272696800,5.05069677734375,0.2290177345275879,-0.12413659691810608,-0.72923344373703
1788862264282737700,5.060737548828125,0.2234344184398651,-0.23092269897460938,-0.751951277256012
1788862264292779800,5.07077978515625,0.22512632608413696,-0.21273356676101685,-0.6442785859107971
1788862264302820600,5.080820556640625,0.22794821858406067,-0.11110547930002213,-0.4043879508972168
1788862264312862700,5.09086279296875,0.2193070501089096,0.13091780245304108,-0.21701540052890778
1788862264322904600,5.100904541015625,0.2017858475446701,0.2575138211250305,-0.18417435884475708
1788862264332945700,5.110945556640625,0.21581538021564484,0.22914743423461914,-0.23295122385025024
1788862264342987500,5.120987548828125,0.30394497513771057,0.15277622640132904,-0.28125590085983276
1788862264353028600,5.131028564453125,0.40528011322021484,0.11912079900503159,-0.2335621565580368
1788862264363070700,5.14107080078125,0.4826745092868805,0.08454950153827667,-0.19355668127536774
1788862264373111800,5.15111181640625,0.5099724531173706,0.11570955812931061,-0.13481906056404114
1788862264383153700,5.161153564453125,0.461119681596756,0.24232102930545807,-0.09226654469966888
1788862264393195500,5.171195556640625,0.3879184424877167,0.28956684470176697,-0.07546146959066391
1788862264403236600,5.181236572265625,0.3382638096809387,0.2743756175041199,-0.04519890248775482
1788862264413278500,5.191278564453125,0.35113459825515747,0.22426852583885193,0.0021664814557880163
1788862264423319600,5.201319580078125,0.3766902983188629,0.21167123317718506,0.00948058720678091
1788862264433361400,5.211361328125,0.3799223005771637,0.19003039598464966,-0.07928390055894852
1788862264443402500,5.221402587890625,0.3426401615142822,0.21547609567642212,-0.18124915659427643
1788862264453444600,5.231444580078125,0.33105888962745667,0.259196937084198,-0.2357661873102188
1788862264463486700,5.24148681640625,0.3670616149902344,0.23168116807937622,-0.304880291223526
1788862264473527600,5.251527587890625,0.4325580894947052,0.19234441220760345,-0.44830214977264404
1788862264483569700,5.261569580078125,0.49955788254737854,0.12132696062326431,-0.5799339413642883
1788862264493610500,5.271610595703125,0.5320742726325989,0.0809640884399414,-0.6731461882591248
1788862264503652600,5.281652587890625,0.48457279801368713,-0.024926122277975082,-0.7062934637069702
1788862264513693700,5.291693603515625,0.3841199576854706,-0.14988456666469574,-0.6760112047195435
1788862264523735600,5.301735595703125,0.30971232056617737,-0.0667705088853836,-0.6187183856964111
1788862264533777700,5.311777587890625,0.2747114598751068,0.056170329451560974,-0.506957471370697
1788862264543818800,5.32181884765625,0.2911788523197174,0.1449585258960724,-0.39469245076179504
1788862264553860600,5.331860595703125,0.2982897460460663,0.1429118812084198,-0.3119845390319824
1788862264563901700,5.341901611328125,0.3224102556705475,0.08422087132930756,-0.2631719708442688
1788862264573943600,5.351943603515625,0.35218122601509094,0.07350404560565948,-0.2722616195678711
1788862264583984600,5.361984619140625,0.34917768836021423,0.10027413815259933,-0.33031079173088074
1788862264594026500,5.372026611328125,0.2964761257171631,0.17100156843662262,-0.40830788016319275
1788862264604068600,5.382068603515625,0.22643500566482544,0.20483329892158508,-0.4975743591785431
1788862264614109400,5.392109375,0.1645207703113556,0.1588042974472046,-0.600867748260498
1788862264624151800,5.40215185546875,0.12126331031322479,0.06244047358632088,-0.6725858449935913
1788862264634192600,5.412192626953125,0.08914585411548615,-0.008430768735706806,-0.6863136291503906
1788862264644234800,5.42223486328125,0.0823526605963707,-0.009139436297118664,-0.6024248600006104
1788862264654275600,5.432275634765625,0.07870413362979889,-0.000630636524874717,-0.4406772553920746
1788862264664317700,5.442317626953125,0.0739261582493782,0.1334613859653473,-0.3146708607673645
1788862264674359600,5.452359619140625,0.07994143664836884,0.28572627902030945,-0.33316758275032043
1788862264684400600,5.462400634765625,0.10212450474500656,0.27153828740119934,-0.41126930713653564
1788862264694442500,5.4724423828125,0.1033538207411766,0.17352890968322754,-0.4466613829135895
1788862264704483600,5.482483642578125,0.09020072966814041,0.16277585923671722,-0.4000275731086731
1788862264714525700,5.492525634765625,0.057068344205617905,0.18827243149280548,-0.2713840901851654
1788862264724566800,5.50256689453125,0.00119629199616611,0.22169724106788635,-0.12405696511268616
1788862264734608600,5.512608642578125,-0.051126301288604736,0.1967972218990326,0.01290674414485693
1788862264744650500,5.522650390625,-0.07926978915929794,0.22589890658855438,0.18227607011795044
1788862264754691600,5.532691650390625,-0.07583564519882202,0.333728164434433,0.30104905366897583
1788862264764733400,5.5427333984375,-0.06333689391613007,0.3839913308620453,0.325397789478302
1788862264774774500,5.5527744140625,-0.0991968885064125,0.2997422516345978,0.35194551944732666
1788862264784816400,5.56281640625,-0.20253686606884003,0.2573399245738983,0.42729806900024414
1788862264794857500,5.572857421875,-0.313100129365921,0.3515753448009491,0.4899260401725769
1788862264804899600,5.582899658203125,-0.3733392357826233,0.4205853044986725,0.5390581488609314
1788862264814941700,5.592941650390625,-0.4156043827533722,0.4330531656742096,0.6163204312324524
1788862264824982500,5.602982421875,-0.4522148668766022,0.4512057900428772,0.7189980745315552
1788862264835024600,5.613024658203125,-0.4645218551158905,0.48725301027297974,0.8091397285461426
1788862264845065500,5.6230654296875,-0.45161086320877075,0.5371092557907104,0.8397668600082397
1788862264855107600,5.633107666015625,-0.4319112002849579,0.5443629026412964,0.8289307355880737
1788862264865148700,5.643148681640625,-0.43249788880348206,0.5195720791816711,0.8442822694778442
1788862264875190800,5.653190673828125,-0.44454124569892883,0.5040628910064697,0.8847572207450867
1788862264885232600,5.663232666015625,-0.4569968283176422,0.4877837896347046,0.9026401042938232
1788862264895273700,5.673273681640625,-0.45898088812828064,0.4601643979549408,0.8958149552345276
1788862264905315600,5.683315673828125,-0.4463473856449127,0.43100863695144653,0.9119097590446472
1788862264915356700,5.693356689453125,-0.4291953146457672,0.4364071488380432,0.9347309470176697
1788862264925398500,5.7033984375,-0.415168434381485,0.4445582926273346,0.9478267431259155
1788862264935439600,5.713439697265625,-0.4141860008239746,0.4497429132461548,0.9671900868415833
1788862264945481500,5.7234814453125,-0.41753891110420227,0.44589120149612427,0.980067789554596
1788862264955523800,5.73352392578125,-0.40713128447532654,0.3758902847766876,0.9519187211990356
1788862264965564700,5.743564697265625,-0.3780876398086548,0.2728182077407837,0.9240292906761169
1788862264975606800,5.753606689453125,-0.3180874288082123,0.20424048602581024,0.9104633927345276
1788862264985647600,5.763647705078125,-0.22475188970565796,0.19319581985473633,0.8824892640113831
1788862264995689700,5.773689697265625,-0.11586162447929382,0.1968451589345932,0.8409828543663025
1788862265005730600,5.78373046875,-0.007772169075906277,0.17887254059314728,0.8202930092811584
1788862265015772700,5.793772705078125,0.0909445509314537,0.16271594166755676,0.8770463466644287
1788862265025814500,5.803814453125,0.1677522510290146,0.1777561455965042,0.9425928592681885
1788862265035855600,5.813855712890625,0.22372736036777496,0.21969135105609894,0.9714492559432983
1788862265045897700,5.823897705078125,0.2613935172557831,0.2655741572380066,0.9974057674407959
1788862265055938800,5.833938720703125,0.283252477645874,0.27532532811164856,1.0179024934768677
1788862265065980700,5.843980712890625,0.2870357632637024,0.24312131106853485,1.025367021560669
1788862265076021800,5.854021728515625,0.2964617609977722,0.19215185940265656,1.0326255559921265
1788862265086063600,5.864063720703125,0.3211785554885864,0.14225886762142181,1.0380562543869019
1788862265096105500,5.87410546875,0.3663122057914734,0.10037107765674591,1.044554352760315
1788862265106146600,5.884146484375,0.39059942960739136,0.12060178071260452,1.071684718132019
1788862265116188400,5.8941884765625,0.3927243649959564,0.18610063195228577,1.0816305875778198
1788862265126229500,5.9042294921875,0.3877488076686859,0.2406056821346283,1.0683550834655762
1788862265136271600,5.914271728515625,0.393126517534256,0.23797954618930817,1.0455021858215332
1788862265146312700,5.924312744140625,0.39396435022354126,0.1889917552471161,1.0493533611297607
1788862265156354600,5.9343544921875,0.3880191147327423,0.1609092503786087,1.0697063207626343
1788862265166395600,5.944395751953125,0.3644014000892639,0.14120878279209137,1.0830724239349365
1788862265176437500,5.9544375,0.3297502100467682,0.12461596727371216,1.0988622903823853
1788862265186479600,5.964479736328125,0.2885444462299347,0.11643766611814499,1.1313520669937134
1788862265196520400,5.9745205078125,0.22609758377075195,0.09026704728603363,1.1710686683654785
1788862265206562600,5.9845625,0.1471574902534485,0.08606191724538803,1.2014344930648804
1788862265216603400,5.994603271484375,0.05933043360710144,0.09251528978347778,1.214010238647461
1788862265226645800,6.004645751953125,-0.037392646074295044,0.11930695176124573,1.2259310483932495
1788862265236686600,6.0146865234375,-0.13039422035217285,0.1353897750377655,1.2252721786499023
1788862265246728700,6.024728759765625,-0.21811795234680176,0.12493661046028137,1.2054636478424072
1788862265256770600,6.0347705078125,-0.28679555654525757,0.1135886162519455,1.1767449378967285
1788862265266812700,6.044812744140625,-0.3190336525440216,0.08560704439878464,1.1533087491989136
1788862265276854500,6.0548544921875,-0.3115216791629791,0.03406555950641632,1.1228846311569214
1788862265286895600,6.0648955078125,-0.29181960225105286,-0.022473882883787155,1.0921447277069092
1788862265296937500,6.0749375,-0.26684609055519104,-0.03531644493341446,1.0856900215148926
1788862265306978600,6.084978515625,-0.2566041052341461,0.0013590110465884209,1.1210358142852783
1788862265317020400,6.0950205078125,-0.22682808339595795,0.05366775393486023,1.150266170501709
1788862265327062500,6.1050625,-0.17673136293888092,0.04514138028025627,1.1244300603866577
1788862265337103600,6.115103515625,-0.09273260086774826,-0.041188716888427734,1.034233570098877
1788862265347145500,6.1251455078125,0.032039690762758255,-0.1514614224433899,0.9450274705886841
1788862265357186600,6.1351865234375,0.17631112039089203,-0.2598768472671509,0.861264169216156
1788862265367228400,6.145228515625,0.2976921498775482,-0.3427075445652008,0.7939794063568115
1788862265377269500,6.15526953125,0.3757278323173523,-0.30341342091560364,0.788713276386261
1788862265387311400,6.165311279296875,0.400078684091568,-0.14213690161705017,0.8623986840248108
1788862265397353500,6.175353515625,0.38992592692375183,0.028264926746487617,0.955930769443512
1788862265407394300,6.185394287109375,0.37351393699645996,0.10702205449342728,1.0205446481704712
1788862265417436700,6.195436767578125,0.3847532570362091,0.10258762538433075,0.9922131299972534
1788862265427477500,6.2054775390625,0.42152300477027893,0.02888890542089939,0.8744776844978333
1788862265437519600,6.21551953125,0.4692516326904297,-0.057485129684209824,0.7478017807006836
1788862265447560400,6.225560546875,0.5213696956634521,-0.01678004488348961,0.7000007033348083
1788862265457602600,6.2356025390625,0.5478372573852539,0.10606971383094788,0.7132187485694885
1788862265467644400,6.24564453125,0.5524964928627014,0.19398625195026398,0.7449679374694824
1788862265477685500,6.255685546875,0.5484458208084106,0.24042804539203644,0.7779445052146912
1788862265487727400,6.265727294921875,0.5234355330467224,0.2775533199310303,0.7898173928260803
1788862265497768400,6.2757685546875,0.5082850456237793,0.27603477239608765,0.8000620603561401
1788862265507810600,6.285810546875,0.5065540075302124,0.21062488853931427,0.7852634191513062
1788862265517851600,6.2958515625,0.5010353922843933,0.13921675086021423,0.7433202266693115
1788862265527893500,6.3058935546875,0.4817642271518707,0.09614357352256775,0.7019304037094116
1788862265537934600,6.3159345703125,0.4471316933631897,0.09407217055559158,0.6860867738723755
1788862265547976400,6.3259765625,0.41165226697921753,0.12025024741888046,0.6878188848495483
1788862265558018600,6.3360185546875,0.3925161063671112,0.15472672879695892,0.6841133236885071
1788862265568059400,6.346059326171875,0.37855610251426697,0.12016315758228302,0.6413858532905579
1788862265578101500,6.3561015625,0.3541719317436218,0.006208094768226147,0.5844911336898804
1788862265588142300,6.366142333984375,0.3320639729499817,-0.09360504895448685,0.5315568447113037
1788862265598184700,6.376184814453125,0.312990665435791,-0.1157391145825386,0.4855238199234009
1788862265608225500,6.3862255859375,0.3036815822124481,-0.036367062479257584,0.43943169713020325
1788862265618267600,6.396267578125,0.286612331867218,0.06483519077301025,0.38494741916656494
1788862265628309500,6.4063095703125,0.2776864767074585,0.057915497571229935,0.3021950125694275
1788862265638350600,6.4163505859375,0.2499254196882248,-0.013411412946879864,0.21068346500396729
1788862265648392400,6.426392333984375,0.18550515174865723,-0.015448198653757572,0.15743276476860046
1788862265658433500,6.43643359375,0.12130645662546158,0.05925746262073517,0.11599317938089371
1788862265668475400,6.446475341796875,0.05384166166186333,0.13660897314548492,0.022939937189221382
1788862265678516500,6.4565166015625,-0.010599647648632526,0.15885436534881592,-0.06878145784139633
1788862265688558600,6.46655859375,-0.06305300444364548,0.0330389104783535,-0.1373962014913559
1788862265698600400,6.476600341796875,-0.08689282089471817,-0.11791332066059113,-0.17735373973846436
1788862265708641500,6.4866416015625,-0.07534988224506378,-0.1704138070344925,-0.15255838632583618
1788862265718683400,6.496683349609375,-0.07107817381620407,-0.10666120052337646,-0.0782545879483223
1788862265728724500,6.506724365234375,-0.08164026588201523,-0.02309972606599331,0.00010466222738614306
1788862265738766300,6.516766357421875,-0.11401312053203583,0.03738066181540489,0.042643867433071136
1788862265748807400,6.526807373046875,-0.171775221824646,0.08334282785654068,0.03943023085594177
1788862265758849300,6.536849365234375,-0.21351201832294464,0.1361335963010788,-0.0019044264918193221
1788862265768891600,6.5468916015625,-0.2531238794326782,0.1749076247215271,-0.07464707642793655
1788862265778932500,6.556932373046875,-0.2856368124485016,0.17061248421669006,-0.17588260769844055
1788862265788974600,6.566974609375,-0.3127821385860443,0.15318502485752106,-0.28565144538879395
1788862265799015400,6.577015380859375,-0.3273696005344391,0.14471644163131714,-0.35768863558769226
1788862265809057500,6.5870576171875,-0.34727779030799866,0.15122680366039276,-0.38415300846099854
1788862265819098400,6.597098388671875,-0.36642006039619446,0.1856502890586853,-0.3602902591228485
1788862265829140500,6.607140380859375,-0.36347994208335876,0.2279047966003418,-0.30799219012260437
1788862265839181300,6.617181396484375,-0.3146381080150604,0.2450512945652008,-0.2708248496055603
1788862265849223400,6.627223388671875,-0.24926814436912537,0.2844218611717224,-0.2543601095676422
1788862265859265500,6.637265625,-0.1787729412317276,0.4131156802177429,-0.2575415372848511
1788862265869306600,6.647306640625,-0.1158009022474289,0.5135884881019592,-0.27550214529037476
1788862265879348500,6.657348388671875,-0.07013168185949326,0.5206538438796997,-0.3099895417690277
1788862265889389600,6.6673896484375,-0.041789259761571884,0.4620238244533539,-0.34989941120147705
1788862265899431400,6.677431396484375,-0.015280152671039104,0.3574947416782379,-0.3886508047580719
1788862265909472500,6.687472412109375,0.007577226031571627,0.2182668149471283,-0.4158904254436493
1788862265919514400,6.697514404296875,0.031858064234256744,0.037469878792762756,-0.40904316306114197
1788862265929556700,6.707556640625,0.0414624884724617,-0.12782347202301025,-0.3897640109062195
1788862265939597600,6.71759765625,0.02629285678267479,-0.2216988354921341,-0.3664019703865051
1788862265949639700,6.7276396484375,-0.002425074577331543,-0.19397133588790894,-0.3656435012817383
1788862265959680500,6.737680419921875,-0.03957377374172211,-0.059004731476306915,-0.3658975660800934
1788862265969722600,6.74772265625,-0.0705639123916626,0.14717373251914978,-0.34169021248817444
1788862265979763500,6.757763427734375,-0.10800662636756897,0.39577823877334595,-0.26997795701026917
1788862265989805600,6.7678056640625,-0.14965686202049255,0.6085078120231628,-0.20606501400470734
1788862265999846400,6.777846435546875,-0.17594332993030548,0.7331559658050537,-0.20948557555675507
1788862266009888500,6.787888427734375,-0.16566139459609985,0.750392496585846,-0.2680966854095459
1788862266019930600,6.7979306640625,-0.1367887407541275,0.6412186026573181,-0.3632245361804962
1788862266029971700,6.8079716796875,-0.09820806235074997,0.4311886727809906,-0.4989035427570343
1788862266040013600,6.818013671875,-0.05194362625479698,0.1784863919019699,-0.6374020576477051
1788862266050054700,6.8280546875,-0.006337524391710758,-0.04249818995594978,-0.7262911796569824
1788862266060096500,6.838096435546875,0.030469225719571114,-0.16800445318222046,-0.7429859638214111
1788862266070137600,6.8481376953125,0.04537041112780571,-0.1627359241247177,-0.7277612090110779
1788862266080179500,6.858179443359375,0.04665645211935043,-0.050330016762018204,-0.7012885808944702
1788862266090221300,6.86822119140625,0.057440657168626785,0.09927518665790558,-0.6446780562400818
1788862266100262400,6.878262451171875,0.07147924602031708,0.24119025468826294,-0.5515862107276917
1788862266110304500,6.888304443359375,0.09132165461778641,0.30612796545028687,-0.47007402777671814
1788862266120345600,6.898345703125,0.11651808768510818,0.3210829496383667,-0.4282677173614502
1788862266130387500,6.908387451171875,0.13813550770282745,0.27632400393486023,-0.4585036635398865
1788862266140428500,6.918428466796875,0.15160523355007172,0.1404886692762375,-0.5859606862068176
1788862266150470400,6.928470458984375,0.17549672722816467,-0.03026868961751461,-0.7821695804595947
1788862266160512500,6.938512451171875,0.23814545571804047,-0.13821274042129517,-0.9396564364433289
1788862266170553300,6.94855322265625,0.30735674500465393,-0.1238337904214859,-0.9718668460845947
1788862266180595500,6.958595458984375,0.31617608666419983,-0.032879918813705444,-0.9189378619194031
1788862266190636300,6.96863623046875,0.2665792405605316,0.0871540755033493,-0.8899261355400085
1788862266200678700,6.9786787109375,0.21071170270442963,0.1969871073961258,-0.9000211358070374
1788862266210719500,6.988719482421875,0.17952822148799896,0.27957624197006226,-0.9060995578765869
1788862266220761600,6.99876171875,0.15865355730056763,0.23940938711166382,-0.8805624842643738
1788862266230803500,7.008803466796875,0.15137754380702972,0.1025087982416153,-0.8483198881149292
1788862266240844500,7.018844482421875,0.11698254942893982,-0.12016848474740982,-0.8389862775802612
1788862266250886400,7.028886474609375,0.05552850663661957,-0.3485635817050934,-0.8592162132263184
1788862266260927500,7.038927490234375,0.0026967169251292944,-0.437806099653244,-0.9180246591567993
1788862266270969000,7.048968994140625,-0.054256048053503036,-0.4533565640449524,-1.0094109773635864
1788862266281010200,7.05901025390625,-0.09924749284982681,-0.4678247272968292,-1.0571439266204834
1788862266291052000,7.069052001953125,-0.1612277776002884,-0.49438655376434326,-1.0549428462982178
1788862266301093000,7.079093017578125,-0.23702798783779144,-0.5864933133125305,-1.0670464038848877
1788862266311135000,7.089135009765625,-0.26750999689102173,-0.7246679663658142,-1.0978708267211914
1788862266321177000,7.099177001953125,-0.24610351026058197,-0.8152855038642883,-1.1318721771240234
1788862266331218000,7.109218017578125,-0.19790615141391754,-0.8175214529037476,-1.136375069618225
1788862266341260000,7.119260009765625,-0.16334284842014313,-0.7394304275512695,-1.0827091932296753
1788862266351300900,7.12930078125,-0.1634959876537323,-0.6123238205909729,-1.00979483127594
1788862266361343200,7.13934326171875,-0.1888285130262375,-0.5228943824768066,-0.983955979347229
1788862266371384000,7.149384033203125,-0.19597217440605164,-0.5115881562232971,-1.0243505239486694
1788862266381426200,7.15942626953125,-0.17652177810668945,-0.564113199710846,-1.134965419769287
1788862266391468000,7.169468017578125,-0.14987976849079132,-0.6504086256027222,-1.264884114265442
1788862266401509000,7.179509033203125,-0.13379748165607452,-0.7431678771972656,-1.3189233541488647
1788862266411551000,7.189551025390625,-0.13805800676345825,-0.8061771988868713,-1.2984747886657715
1788862266421592000,7.199592041015625,-0.20788875222206116,-0.8858094215393066,-1.3138813972473145
1788862266431634000,7.209634033203125,-0.2981629967689514,-1.0085431337356567,-1.3472771644592285
1788862266441675000,7.219675048828125,-0.34197092056274414,-1.0493214130401611,-1.318698525428772
1788862266451717000,7.229717041015625,-0.34248945116996765,-0.9449204206466675,-1.3089998960494995
1788862266461758200,7.23975830078125,-0.2756020128726959,-0.6849812865257263,-1.3336706161499023
1788862266471800000,7.249800048828125,-0.19566164910793304,-0.4614675045013428,-1.3350056409835815
1788862266481842000,7.259842041015625,-0.13198547065258026,-0.3935542106628418,-1.3737103939056396
1788862266491883000,7.269883056640625,-0.02845667488873005,-0.5147988796234131,-1.4541234970092773
1788862266501924900,7.2799248046875,0.1373027265071869,-0.746420681476593,-1.5449782609939575
1788862266511966000,7.289966064453125,0.35173940658569336,-0.9724268913269043,-1.5892685651779175
1788862266522008000,7.300008056640625,0.46877041459083557,-0.9145316481590271,-1.5603026151657104
1788862266532049000,7.310048828125,0.4947381019592285,-0.5975086688995361,-1.5013759136199951
1788862266542091000,7.320091064453125,0.43560951948165894,-0.3804674446582794,-1.3991267681121826
1788862266552133000,7.330133056640625,0.37678536772727966,-0.3341188430786133,-1.2747182846069336
1788862266562174200,7.34017431640625,0.39137014746665955,-0.22030414640903473,-1.1013673543930054
1788862266572216000,7.350216064453125,0.48551398515701294,-0.03244049847126007,-1.043056845664978
1788862266582257200,7.360257080078125,0.6147939562797546,0.007498928811401129,-1.0265860557556152
1788862266592299000,7.370299072265625,0.7240405082702637,0.009354086592793465,-0.9889914989471436
1788862266602340000,7.380340087890625,0.7864602208137512,0.06896202266216278,-0.9066904783248901
1788862266612382000,7.3903818359375,0.7748273015022278,0.07692460715770721,-0.8390672206878662
1788862266622424000,7.400424072265625,0.6836076378822327,0.08224480599164963,-0.7954635620117188
1788862266632465200,7.410465087890625,0.5616201758384705,0.10752086341381073,-0.7417223453521729
1788862266642507000,7.420507080078125,0.4645484983921051,0.10787773132324219,-0.6479929089546204
1788862266652548000,7.430548095703125,0.3781052231788635,0.07822050154209137,-0.5842541456222534
1788862266662590000,7.44058984375,0.3381253182888031,0.05445392057299614,-0.541320264339447
1788862266672631000,7.450631103515625,0.35197001695632935,0.09835267066955566,-0.5575969815254211
1788862266682673000,7.4606728515625,0.35438072681427,0.32801756262779236,-0.6709067225456238
1788862266692714000,7.4707138671875,0.34811750054359436,0.5065652132034302,-0.8031233549118042
1788862266702755800,7.480755859375,0.30368077754974365,0.44088923931121826,-0.9354414343833923
1788862266712798200,7.490798095703125,0.2914467453956604,0.28847014904022217,-1.1340371370315552
1788862266722839000,7.500839111328125,0.3649691939353943,0.26580610871315,-1.1644136905670166
1788862266732881200,7.510881103515625,0.44315454363822937,0.255462646484375,-1.0740150213241577
1788862266742922000,7.520921875,0.46646544337272644,0.1461968868970871,-1.0353329181671143
1788862266752964000,7.530964111328125,0.34003347158432007,-0.03285248950123787,-0.9755231142044067
1788862266763005000,7.5410048828125,0.10708171129226685,-0.11772556602954865,-0.8060342073440552
1788862266773047000,7.551047119140625,-0.1051059141755104,-0.14089693129062653,-0.4731486439704895
1788862266783089000,7.5610888671875,-0.23938675224781036,-0.2063792645931244,-0.2617458701133728
1788862266793130000,7.5711298828125,-0.2929418683052063,-0.34542450308799744,-0.15903279185295105
1788862266803172000,7.581172119140625,-0.32194048166275024,-0.4085659384727478,0.03310921788215637
1788862266813213200,7.591213134765625,-0.3083341419696808,-0.3003790080547333,0.2310047149658203
1788862266823255000,7.601255126953125,-0.24988679587841034,-0.18012022972106934,0.32387208938598633
1788862266833296100,7.611296142578125,-0.20780326426029205,-0.07670596241950989,0.4297971725463867
1788862266843338000,7.621337890625,-0.223964661359787,0.10853846371173859,0.526752233505249
1788862266853379000,7.631379150390625,-0.2862764894962311,0.26333656907081604,0.6180568337440491
1788862266863421000,7.6414208984375,-0.3776783049106598,0.2888035774230957,0.7238426804542542
1788862266873463000,7.651463134765625,-0.47984009981155396,0.26768842339515686,0.7921386361122131
1788862266883504000,7.661504150390625,-0.5696640014648438,0.23237945139408112,0.8070496320724487
1788862266893546000,7.6715458984375,-0.6291254758834839,0.19580119848251343,0.8405013680458069
1788862266903587000,7.681587158203125,-0.6449984312057495,0.22442245483398438,0.90975022315979
1788862266913629000,7.69162890625,-0.6260010600090027,0.2867699861526489,0.9883089065551758
1788862266923670000,7.701669921875,-0.5781035423278809,0.3730907440185547,1.0837739706039429
1788862266933712100,7.711712158203125,-0.5124715566635132,0.4454709589481354,1.1826730966567993
1788862266943754000,7.72175390625,-0.4435737133026123,0.4934595227241516,1.2646139860153198
1788862266953795000,7.731795166015625,-0.3839820325374603,0.518397331237793,1.3416028022766113
1788862266963837200,7.741837158203125,-0.3421197831630707,0.5450153946876526,1.4410988092422485
1788862266973878300,7.751878173828125,-0.2959219217300415,0.5417186617851257,1.531402826309204
1788862266983920000,7.761920166015625,-0.24900822341442108,0.4757252633571625,1.5846407413482666
1788862266993961200,7.771961181640625,-0.19510477781295776,0.3709714114665985,1.5948947668075562
1788862267004003000,7.782003173828125,-0.15171176195144653,0.2478604018688202,1.55995512008667
1788862267014044200,7.792044189453125,-0.12246093153953552,0.19433964788913727,1.56220281124115
1788862267024086000,7.8020859375,-0.09988292306661606,0.2532397210597992,1.6095272302627563
1788862267034128000,7.8121279296875,-0.05450558662414551,0.3554198741912842,1.6342474222183228
1788862267044169000,7.8221689453125,0.0019244002178311348,0.41649681329727173,1.640636920928955
1788862267054211000,7.832211181640625,0.04845808073878288,0.4536644220352173,1.6721980571746826
1788862267064252200,7.842252197265625,0.08992749452590942,0.4617955982685089,1.7372130155563354
1788862267074294000,7.8522939453125,0.11481526494026184,0.43057188391685486,1.7986869812011719
1788862267084335000,7.862335205078125,0.13069729506969452,0.38284698128700256,1.839929461479187
1788862267094377000,7.872376953125,0.1324685662984848,0.314109206199646,1.8549963235855103
1788862267104419000,7.882419189453125,0.110038623213768,0.2756960391998291,1.891305923461914
1788862267114460000,7.8924599609375,0.058825232088565826,0.26383110880851746,1.9116899967193604
1788862267124502000,7.902501953125,-0.007999603636562824,0.238722562789917,1.8624449968338013
1788862267134542800,7.91254296875,-0.07164941728115082,0.19652637839317322,1.8002755641937256
1788862267144585200,7.922585205078125,-0.11363894492387772,0.14604003727436066,1.8002300262451172
1788862267154626000,7.9326259765625,-0.15209072828292847,0.10639408230781555,1.8379154205322266
1788862267164668200,7.942668212890625,-0.1872713565826416,0.04469556733965874,1.8425873517990112
1788862267174710000,7.9527099609375,-0.21532297134399414,-0.05510879307985306,1.7974853515625
1788862267184751000,7.962751220703125,-0.24626809358596802,-0.17271292209625244,1.7645801305770874
1788862267194793000,7.97279296875,-0.272868275642395,-0.24565663933753967,1.809524416923523
1788862267204834000,7.982833984375,-0.27468428015708923,-0.22715245187282562,1.9112151861190796
1788862267214876000,7.9928759765625,-0.25575053691864014,-0.14838387072086334,1.966707706451416
1788862267224917000,8.0029169921875,-0.20264045894145966,-0.06549059599637985,1.931068778038025
1788862267234959000,8.012958984375,-0.1326746940612793,-0.033310018479824066,1.8640860319137573
1788862267245000200,8.023000244140626,-0.06323356181383133,-0.057911768555641174,1.8107095956802368
1788862267255042000,8.0330419921875,-0.029560821130871773,-0.1542191356420517,1.7499277591705322
1788862267265084000,8.043083984375,-0.05337587371468544,-0.24957361817359924,1.6833561658859253
1788862267275124500,8.05312451171875,-0.11750852316617966,-0.27171194553375244,1.6442921161651611
1788862267285166600,8.06316650390625,-0.1865198165178299,-0.19751706719398499,1.6409357786178589
1788862267295207400,8.07320751953125,-0.22418196499347687,-0.11259792000055313,1.6473712921142578
1788862267305249500,8.08324951171875,-0.231904074549675,-0.07102756947278976,1.6096906661987305
1788862267315290400,8.093290283203125,-0.2174724042415619,-0.07233225554227829,1.5158421993255615
1788862267325332700,8.103332763671874,-0.18286915123462677,-0.07598451524972916,1.414007544517517
1788862267335373600,8.11337353515625,-0.14018666744232178,-0.039860598742961884,1.352990984916687
1788862267345415700,8.123415771484375,-0.10367552936077118,0.000303334032651037,1.3259730339050293
1788862267355457500,8.13345751953125,-0.09505168348550797,-0.014282000251114368,1.2968169450759888
1788862267365498600,8.14349853515625,-0.11004980653524399,-0.07272373884916306,1.267588496208191
1788862267375540500,8.15354052734375,-0.13358841836452484,-0.11017843335866928,1.2404437065124512
1788862267385581600,8.16358154296875,-0.13061952590942383,-0.09328920394182205,1.2024997472763062
1788862267395623400,8.17362353515625,-0.11626482754945755,-0.04411473125219345,1.1443688869476318
1788862267405664500,8.18366455078125,-0.09435047209262848,-0.020243220031261444,1.0486655235290527
1788862267415706600,8.19370654296875,-0.08009590208530426,-0.024020913988351822,0.9440637230873108
1788862267425748500,8.20374853515625,-0.06755507737398148,-0.0367811843752861,0.8112058043479919
1788862267435789600,8.21378955078125,-0.052135907113552094,-0.010991131886839867,0.6185750961303711
1788862267445831400,8.22383154296875,-0.03185140714049339,0.06657050549983978,0.3885219097137451
1788862267455872500,8.23387255859375,0.004216582980006933,0.13535968959331512,0.17254780232906342
1788862267465914400,8.243914306640624,0.043713390827178955,0.1675003170967102,0.029644710943102837
1788862267475955500,8.25395556640625,0.058153051882982254,0.2685137391090393,0.005674663465470076
1788862267485997300,8.263997314453125,0.05235002189874649,0.4392532706260681,0.03495505452156067
1788862267496038400,8.274038330078126,0.06241650506854057,0.562481164932251,0.039494145661592484
1788862267506080500,8.28408056640625,0.0954815149307251,0.5370397567749023,0.0026082999538630247
1788862267516122600,8.29412255859375,0.08840949088335037,0.40307849645614624,-0.059544287621974945
1788862267526163500,8.30416357421875,0.06226630508899689,0.28315261006355286,-0.13312742114067078
1788862267536205600,8.31420556640625,0.05950646847486496,0.16257533431053162,-0.21595120429992676
1788862267546246700,8.32424658203125,0.05892190709710121,0.025841716676950455,-0.29827138781547546
1788862267556288500,8.33428857421875,0.08154173195362091,-0.029825540259480476,-0.3769523501396179
1788862267566329600,8.34432958984375,0.1024259701371193,-0.0019520970527082682,-0.4694979786872864
1788862267576371500,8.354371337890624,0.11244212090969086,0.08441395312547684,-0.5637235641479492
1788862267586413600,8.36441357421875,0.11922439187765121,0.16522517800331116,-0.6369117498397827
1788862267596454700,8.37445458984375,0.1328621804714203,0.20664718747138977,-0.6975415349006653
1788862267606496500,8.38449658203125,0.13112099468708038,0.2657161056995392,-0.7355725169181824
1788862267616537600,8.39453759765625,0.14498434960842133,0.364025354385376,-0.7502771615982056
1788862267626579500,8.404579345703125,0.17011047899723053,0.4468954801559448,-0.7424647808074951
1788862267636620500,8.41462060546875,0.19754396378993988,0.4897688925266266,-0.7042769193649292
1788862267646662400,8.424662353515625,0.20672760903835297,0.5256712436676025,-0.6475308537483215
1788862267656703500,8.434703369140625,0.2425556480884552,0.5612776875495911,-0.5837116241455078
1788862267666745300,8.444745361328126,0.26725247502326965,0.5690591931343079,-0.5179568529129028
1788862267676787700,8.45478759765625,0.24788996577262878,0.5523449182510376,-0.5161626935005188
1788862267686828500,8.46482861328125,0.2095969021320343,0.5423514246940613,-0.587351381778717
1788862267696870700,8.47487060546875,0.1853083372116089,0.4877648651599884,-0.7158685922622681
1788862267706911500,8.484911376953125,0.18556959927082062,0.3521263599395752,-0.8495811223983765
1788862267716953600,8.49495361328125,0.2126813679933548,0.17128227651119232,-0.9545935988426208
1788862267726994400,8.504994384765626,0.2420581728219986,-0.04766605421900749,-1.0197904109954834
1788862267737036500,8.51503662109375,0.2549143135547638,-0.2487426996231079,-0.9834185838699341
1788862267747077400,8.525077392578124,0.2396876960992813,-0.31441518664360046,-0.8636045455932617
1788862267757119500,8.535119384765625,0.19103839993476868,-0.1889811009168625,-0.7563406825065613
1788862267767161600,8.54516162109375,0.12120365351438522,0.051603008061647415,-0.7031370997428894
1788862267777202700,8.55520263671875,0.055579639971256256,0.29078230261802673,-0.682921826839447
1788862267787244500,8.56524462890625,0.0052136704325675964,0.43125152587890625,-0.7051920294761658
1788862267797285600,8.57528564453125,-0.012104333378374577,0.4238910973072052,-0.7584847807884216
1788862267807327500,8.585327392578124,-0.011661715805530548,0.25631698966026306,-0.8636074662208557
1788862267817368600,8.59536865234375,-0.0038072550669312477,0.010844391770660877,-1.0243401527404785
1788862267827410400,8.605410400390625,0.004576908424496651,-0.1768868863582611,-1.1886920928955078
1788862267837451500,8.615451416015626,0.028248682618141174,-0.25330042839050293,-1.272126317024231
1788862267847493600,8.62549365234375,0.04194212332367897,-0.24847479164600372,-1.2343580722808838
1788862267857535500,8.635535400390625,0.035117506980895996,-0.20891620218753815,-1.1329374313354492
1788862267867576600,8.64557666015625,0.004238420631736517,-0.17028997838497162,-1.0535582304000854
1788862267877618400,8.655618408203125,-0.025644376873970032,-0.09694811701774597,-1.0471889972686768
1788862267887659500,8.665659423828124,-0.03223090618848801,-0.02304087020456791,-1.0773820877075195
1788862267897701400,8.675701416015626,-0.027945613488554955,0.009221994318068027,-1.1065738201141357
1788862267907742500,8.685742431640625,-0.022054435685276985,-0.058210574090480804,-1.1594276428222656
1788862267917784600,8.69578466796875,-0.0037417414132505655,-0.14873968064785004,-1.2958744764328003
1788862267927826700,8.70582666015625,0.04105529189109802,-0.2643539011478424,-1.421725869178772
1788862267937867500,8.715867431640625,0.09885574132204056,-0.41149887442588806,-1.484413981437683
1788862267947909600,8.72590966796875,0.15037351846694946,-0.5545236468315125,-1.4921585321426392
1788862267957950700,8.73595068359375,0.16665582358837128,-0.5916436314582825,-1.4508970975875854
1788862267967992600,8.74599267578125,0.16320542991161346,-0.490742027759552,-1.3449411392211914
1788862267978033700,8.75603369140625,0.1033540889620781,-0.3760705590248108,-1.2383960485458374
1788862267988075500,8.766075439453125,0.003766242414712906,-0.30773279070854187,-1.2227813005447388
1788862267998116600,8.77611669921875,-0.0688733384013176,-0.3215426206588745,-1.31122887134552
1788862268008158500,8.786158447265626,-0.07303959131240845,-0.4825266897678375,-1.4301531314849854
1788862268018200600,8.79620068359375,-0.027630029246211052,-0.6219610571861267,-1.5173293352127075
1788862268028241700,8.80624169921875,0.022126873955130577,-0.6544097661972046,-1.5559734106063843
1788862268038283500,8.816283447265626,0.048534512519836426,-0.574729323387146,-1.546140193939209
1788862268048324600,8.82632470703125,0.03814259171485901,-0.4544846713542938,-1.507426142692566
1788862268058366500,8.836366455078124,0.01055996585637331,-0.3398449122905731,-1.4686108827590942
1788862268068407600,8.846407470703125,-0.007511445786803961,-0.2579527199268341,-1.445313811302185
1788862268078449400,8.856449462890625,-0.013575729914009571,-0.27271488308906555,-1.4876936674118042
1788862268088490500,8.866490478515624,0.007634750101715326,-0.3371122479438782,-1.5621708631515503
1788862268098532400,8.876532470703125,0.04495682194828987,-0.35785162448883057,-1.6411035060882568
1788862268108574700,8.88657470703125,0.10599620640277863,-0.40425825119018555,-1.7297813892364502
1788862268118615600,8.896615478515624,0.16795730590820312,-0.40227606892585754,-1.7659472227096558
1788862268128657700,8.90665771484375,0.20052137970924377,-0.2750403583049774,-1.7454535961151123
1788862268138698500,8.916698486328125,0.20691163837909698,-0.1616959571838379,-1.6805143356323242
1788862268148740600,8.92674072265625,0.18520714342594147,-0.16290342807769775,-1.6098270416259766
1788862268158781400,8.936781494140625,0.14857536554336548,-0.22352230548858643,-1.5747811794281006
1788862268168823600,8.946823486328125,0.10013964772224426,-0.2714088559150696,-1.5429940223693848
1788862268178864400,8.956864501953126,0.0636274442076683,-0.25102102756500244,-1.4974230527877808
1788862268188906500,8.966906494140625,0.08502141386270523,-0.26927727460861206,-1.5155754089355469
1788862268198948600,8.976948486328125,0.14439526200294495,-0.35917067527770996,-1.5161371231079102
1788862268208989700,8.98698974609375,0.19776314496994019,-0.3598119616508484,-1.514229416847229
1788862268219031600,8.997031494140625,0.21620526909828186,-0.3278721570968628,-1.5351371765136719
1788862268229072600,9.00707275390625,0.20099249482154846,-0.18228937685489655,-1.534759759902954
1788862268239114500,9.017114501953126,0.16117450594902039,-0.035295139998197556,-1.4662984609603882
1788862268249155600,9.027155517578125,0.11970669031143188,0.046365901827812195,-1.4643687009811401
1788862268259197400,9.037197509765624,0.11298460513353348,-0.04181855171918869,-1.4450093507766724
1788862268269239600,9.047239501953126,0.11656922101974487,-0.12127982079982758,-1.3334589004516602
1788862268279281400,9.057281494140625,0.1343356966972351,-0.056894972920417786,-1.1961199045181274
1788862268289323300,9.0673232421875,0.18788361549377441,0.09592040628194809,-1.105297565460205
1788862268299364400,9.0773642578125,0.19572369754314423,0.25237739086151123,-1.0221604108810425
1788862268309406500,9.087406494140625,0.19801054894924164,0.27066370844841003,-0.9349514245986938
1788862268319447600,9.097447509765624,0.1888926923274994,0.06467700004577637,-0.740606963634491
1788862268329489400,9.107489501953125,0.15428490936756134,0.049369681626558304,-0.5282329320907593
1788862268339530500,9.117530517578125,0.09416484832763672,0.27414020895957947,-0.22578811645507812
1788862268349572400,9.127572265625,0.021470405161380768,0.32563507556915283,0.009018261916935444
1788862268359614500,9.137614501953125,-0.02467764914035797,0.2692892551422119,0.18384572863578796
1788862268369655300,9.1476552734375,-0.05214842036366463,0.2648175358772278,0.3554704785346985
1788862268379697400,9.157697509765624,-0.09939609467983246,0.23999714851379395,0.4526100754737854
1788862268389738200,9.16773828125,-0.18409952521324158,0.26840031147003174,0.588478684425354
1788862268399780600,9.177780517578125,-0.23972630500793457,0.37404710054397583,0.702940046787262
1788862268409821400,9.187821533203126,-0.26623886823654175,0.38045811653137207,0.8501201868057251
1788862268419863600,9.197863525390625,-0.3098191022872925,0.32782313227653503,0.9839943647384644
1788862268429904400,9.207904296875,-0.3448016047477722,0.3293587267398834,1.1162296533584595
1788862268439946500,9.217946533203126,-0.3944554328918457,0.3436870574951172,1.2427809238433838
1788862268449988400,9.22798828125,-0.4246405065059662,0.35729581117630005,1.354085087776184
1788862268460029400,9.238029541015624,-0.4335021674633026,0.3230781853199005,1.4307491779327393
1788862268470071300,9.2480712890625,-0.4373243451118469,0.26582369208335876,1.4903228282928467
1788862268480112400,9.2581123046875,-0.4292304515838623,0.26281166076660156,1.5339751243591309
1788862268490154500,9.268154541015624,-0.40879735350608826,0.30674368143081665,1.6005104780197144
1788862268500195600,9.278195556640625,-0.37573474645614624,0.35057345032691956,1.6638597249984741
1788862268510237400,9.288237548828125,-0.32217085361480713,0.38723665475845337,1.7274773120880127
1788862268520278500,9.298278564453126,-0.2675755023956299,0.4107116460800171,1.789088487625122
1788862268530320400,9.3083203125,-0.23265321552753448,0.39356833696365356,1.8636242151260376
1788862268540362200,9.3183623046875,-0.2155623883008957,0.3520243465900421,1.9442037343978882
1788862268550403300,9.3284033203125,-0.20440000295639038,0.34117943048477173,1.9919956922531128
1788862268560445200,9.338445068359375,-0.18014287948608398,0.36604005098342896,2.008411169052124
1788862268570486300,9.348486328125,-0.15283934772014618,0.36734285950660706,1.990763783454895
1788862268580528400,9.3585283203125,-0.12619495391845703,0.37278634309768677,2.007289171218872
1788862268590569500,9.368569580078125,-0.11963265389204025,0.43701326847076416,2.0592494010925293
1788862268600611300,9.378611328125,-0.12144413590431213,0.47659024596214294,2.076774835586548
1788862268610652400,9.38865234375,-0.11115635186433792,0.4342883229255676,2.0564701557159424
1788862268620694300,9.3986943359375,-0.09325245022773743,0.3721455931663513,2.0321805477142334
1788862268630736400,9.408736328125,-0.06798996776342392,0.28542640805244446,2.0065133571624756
1788862268640777500,9.418777587890625,-0.035344939678907394,0.12665700912475586,1.9612489938735962
1788862268650819300,9.4288193359375,-0.01853054016828537,-0.005421929527074099,1.9044365882873535
1788862268660860400,9.4388603515625,-0.04809935390949249,-0.050820570439100266,1.908430576324463
1788862268670902500,9.448902587890625,-0.09795985370874405,-0.026811107993125916,1.9770245552062988
1788862268680943600,9.458943603515625,-0.14281919598579407,-0.007905327714979649,2.0484046936035156
1788862268690985500,9.4689853515625,-0.1916261613368988,-0.02196655236184597,2.061709403991699
1788862268701026600,9.479026611328125,-0.23189209401607513,-0.054553255438804626,2.039973735809326
1788862268711068400,9.489068359375,-0.24872273206710815,-0.08236411213874817,2.0142526626586914
1788862268721110300,9.4991103515625,-0.23556698858737946,-0.08895783871412277,1.9856853485107422
1788862268731151400,9.5091513671875,-0.19796234369277954,-0.07502204924821854,1.9466599225997925
1788862268741193200,9.519193115234375,-0.15959471464157104,-0.044314999133348465,1.8922617435455322
1788862268751234300,9.529234375,-0.11996448785066605,-0.06095336377620697,1.841199278831482
1788862268761276400,9.5392763671875,-0.07868815213441849,-0.10950891673564911,1.7864614725112915
1788862268771317500,9.5493173828125,-0.04422099143266678,-0.19669309258460999,1.742784857749939
1788862268781359400,9.559359375,-0.02570296637713909,-0.23641785979270935,1.7235523462295532
1788862268791400400,9.569400390625,0.004235491156578064,-0.16702866554260254,1.730081558227539
1788862268801442300,9.5794423828125,0.05542251095175743,-0.09663466364145279,1.7235089540481567
1788862268811484400,9.589484375,0.12503302097320557,-0.12791988253593445,1.6614785194396973
1788862268821525200,9.599525146484375,0.1719251573085785,-0.20515820384025574,1.5670455694198608
1788862268831567600,9.609567626953124,0.17146655917167664,-0.19288849830627441,1.4916961193084717
1788862268841608400,9.6196083984375,0.14936551451683044,-0.13221688568592072,1.4312740564346313
1788862268851650600,9.629650634765625,0.11218246072530746,-0.1391560286283493,1.3708949089050293
1788862268861691400,9.63969140625,0.09296056628227234,-0.23036502301692963,1.3104313611984253
1788862268871733500,9.6497333984375,0.0917821153998375,-0.3425549566745758,1.245028018951416
1788862268881774300,9.6597744140625,0.09127745032310486,-0.376910001039505,1.1813510656356812
1788862268891816400,9.66981640625,0.11302748322486877,-0.29199671745300293,1.108651876449585
1788862268901858300,9.6798583984375,0.1392468363046646,-0.22023436427116394,1.000244140625
1788862268911899400,9.6898994140625,0.14339391887187958,-0.19304855167865753,0.8212160468101501
1788862268921941500,9.69994140625,0.10468779504299164,-0.09030912071466446,0.5903977751731873
1788862268931982600,9.709982666015625,0.09312275052070618,0.0240161195397377,0.3746362030506134
1788862268942024400,9.7200244140625,0.15524019300937653,0.09998305886983871,0.21797600388526917
1788862268952065500,9.7300654296875,0.26496827602386475,0.2922843098640442,0.1244090348482132
1788862268962107400,9.740107421875,0.35220465064048767,0.5464202165603638,0.042154911905527115
1788862268972148500,9.7501484375,0.3414028584957123,0.6186139583587646,-0.06874390691518784
1788862268982190300,9.7601904296875,0.2771083116531372,0.3951356112957001,-0.19026634097099304
1788862268992232400,9.770232421875,0.2771647572517395,-0.0007688545738346875,-0.32721781730651855
1788862269002273300,9.780273193359376,0.23987224698066711,-0.35972487926483154,-0.47890934348106384
1788862269012315400,9.7903154296875,0.11159922927618027,-0.5042431950569153,-0.6352038383483887
1788862269022356500,9.8003564453125,-0.03301627188920975,-0.3642597198486328,-0.7350742816925049
1788862269032398300,9.8103984375,-0.1687472015619278,-0.09258559346199036,-0.7350955605506897
1788862269042439400,9.820439453125,-0.26458796858787537,0.13408243656158447,-0.6685400009155273
1788862269052481500,9.8304814453125,-0.28520750999450684,0.260655015707016,-0.5816964507102966
1788862269062522400,9.8405224609375,-0.2802540361881256,0.3264670670032501,-0.5051504969596863
1788862269072564500,9.850564453125,-0.25102823972702026,0.3751608431339264,-0.4584203064441681
1788862269082605300,9.860605224609374,-0.21254794299602509,0.36760011315345764,-0.44804996252059937
1788862269092647400,9.8706474609375,-0.19314070045948029,0.26627615094184875,-0.4618198275566101
1788862269102689500,9.880689453125,-0.18574003875255585,0.11588772386312485,-0.49158331751823425
1788862269112730600,9.890730712890624,-0.17255046963691711,-0.05512263998389244,-0.55851149559021
1788862269122772500,9.9007724609375,-0.16322967410087585,-0.2667110562324524,-0.6504145264625549
1788862269132813600,9.9108134765625,-0.14825604856014252,-0.45476004481315613,-0.7678987979888916
1788862269142855400,9.92085546875,-0.12348758429288864,-0.5517992377281189,-0.8929626941680908
1788862269152896500,9.930896484375,-0.09050539880990982,-0.5517012476921082,-1.009586215019226
1788862269162938400,9.9409384765625,-0.05049353465437889,-0.4765889048576355,-1.101501226425171
1788862269172979500,9.9509794921875,0.005033107940107584,-0.3159545063972473,-1.191604495048523
1788862269183021300,9.961021240234375,0.011471566744148731,-0.13631123304367065,-1.3235058784484863
1788862269193063400,9.9710634765625,-0.08840123564004898,0.010014018043875694,-1.4663703441619873
1788862269203104500,9.9811044921875,-0.23874227702617645,0.1921558529138565,-1.532219648361206
1788862269213146400,9.991146484375,-0.36075419187545776,0.5145858526229858,-1.447869896888733
1788862269223187500,10.0011875,-0.4361405670642853,0.9761928915977478,-1.2448227405548096
1788862269233229300,10.011229248046876,-0.5027257204055786,1.4278303384780884,-1.0134656429290771
1788862269243270400,10.0212705078125,-0.580939531326294,1.6376011371612549,-0.8475302457809448
1788862269253312300,10.031312255859374,-0.5801190137863159,1.566075086593628,-0.826829195022583
1788862269263353300,10.041353271484375,-0.4582754373550415,1.2283172607421875,-1.0069025754928589
1788862269273394700,10.051394775390625,-0.2111748307943344,0.6423634886741638,-1.2700940370559692
1788862269283436500,10.0614365234375,0.1401408612728119,-0.0024317323695868254,-1.2690764665603638
1788862269293477600,10.0714775390625,0.3920849561691284,-0.40352535247802734,-1.112169861793518
1788862269303519700,10.081519775390625,0.42015865445137024,-0.3989284932613373,-0.9744895100593567
1788862269313560800,10.091560791015626,0.35516634583473206,-0.18791504204273224,-0.8978306651115417
1788862269323602700,10.101602783203125,0.3043665587902069,0.019644808024168015,-0.9497879147529602
1788862269333643800,10.111643798828124,0.30324509739875793,0.06462319940328598,-1.1035956144332886
1788862269343685600,10.121685546875,0.32242172956466675,-0.13107413053512573,-1.2355053424835205
1788862269353726700,10.131726806640625,0.30951258540153503,-0.45352593064308167,-1.3268715143203735
1788862269363768600,10.1417685546875,0.2578011751174927,-0.7542865872383118,-1.4153300523757935
1788862269373810400,10.151810546875,0.2088986188173294,-0.9194880723953247,-1.4913592338562012
1788862269383851500,10.1618515625,0.17196829617023468,-0.9192230701446533,-1.5312994718551636
1788862269393893600,10.1718935546875,0.15833477675914764,-0.6867216229438782,-1.5171213150024414
1788862269403934700,10.181934814453125,0.13336817920207977,-0.40477198362350464,-1.5294264554977417
1788862269413976600,10.1919765625,0.10151703655719757,-0.21986418962478638,-1.622941493988037
1788862269424017700,10.202017578125,0.1368851512670517,-0.15922720730304718,-1.7407128810882568
1788862269434059500,10.2120595703125,0.21237164735794067,-0.19818419218063354,-1.8116384744644165
1788862269444100600,10.2221005859375,0.3299339711666107,-0.18683646619319916,-1.8529473543167114
1788862269454142500,10.232142578125,0.4568202793598175,-0.10707824677228928,-1.8748345375061035
1788862269464183600,10.24218359375,0.5614784955978394,-0.08787792176008224,-1.8821901082992554
1788862269474225400,10.252225341796875,0.6298410296440125,-0.16299717128276825,-1.9146325588226318
1788862269484267800,10.262267822265626,0.6704542636871338,-0.3146956264972687,-1.9710627794265747
1788862269494308600,10.27230859375,0.6975854635238647,-0.5131365656852722,-2.0023326873779297
1788862269504350700,10.282350830078125,0.7100791931152344,-0.6146402359008789,-2.0388741493225098
1788862269514391600,10.2923916015625,0.6745150685310364,-0.6101475358009338,-2.0712051391601562
1788862269524433700,10.30243359375,0.6251003742218018,-0.5350348949432373,-2.099946975708008
1788862269534474500,10.312474609375,0.562837541103363,-0.4015090763568878,-2.1764020919799805
1788862269544516600,10.3225166015625,0.5378328561782837,-0.369291216135025,-2.238621473312378
1788862269554557400,10.332557373046875,0.5600380301475525,-0.43935394287109375,-2.239168882369995
1788862269564599600,10.342599609375,0.5744869709014893,-0.5378568172454834,-2.149538278579712
1788862269574641700,10.3526416015625,0.5520644783973694,-0.5258853435516357,-1.9361058473587036
1788862269584682800,10.362682861328125,0.5029613971710205,-0.42420268058776855,-1.6919161081314087
1788862269594724600,10.372724609375,0.4308829605579376,-0.28410547971725464,-1.5059562921524048
1788862269604765700,10.382765625,0.29247981309890747,-0.2019277960062027,-1.3870389461517334
1788862269614807600,10.3928076171875,0.1659117341041565,-0.21047094464302063,-1.3190836906433105
1788862269624848600,10.4028486328125,0.08149725943803787,-0.2782646417617798,-1.2213906049728394
1788862269634890500,10.412890380859375,0.11468850076198578,-0.1345391720533371,-1.093407154083252
1788862269644931600,10.422931640625,0.2373523712158203,0.1433558315038681,-1.000165581703186
1788862269654973400,10.432973388671876,0.3985329866409302,0.3205423355102539,-0.928223192691803
1788862269665015800,10.443015869140625,0.48224493861198425,0.31404608488082886,-0.8155952095985413
1788862269675056600,10.453056640625,0.40141561627388,0.2742967903614044,-0.6650125980377197
1788862269685098800,10.4630986328125,0.21646040678024292,0.15414749085903168,-0.47522032260894775
1788862269695139600,10.4731396484375,-0.04535603150725365,0.02281210571527481,-0.29433736205101013
1788862269705181700,10.483181640625,-0.2723148763179779,0.02353755012154579,-0.18111146986484528
1788862269715222500,10.493222412109375,-0.3766556680202484,0.08255825936794281,-0.10262730717658997
1788862269725264600,10.5032646484375,-0.4168376922607422,0.05240568518638611,-0.07238151878118515
1788862269735305500,10.513305419921876,-0.47545599937438965,0.04283641278743744,-0.0391245000064373
1788862269745347800,10.523347900390625,-0.53363436460495,0.024286163970828056,0.00461765518411994
1788862269755388700,10.533388671875,-0.5602167248725891,-0.04036553204059601,0.11632128059864044
1788862269765430800,10.5434306640625,-0.5584049820899963,-0.024526914581656456,0.25791171193122864
1788862269775472600,10.55347265625,-0.5703455209732056,0.061399444937705994,0.4148949384689331
1788862269785513700,10.563513671875,-0.6058284044265747,0.11789973825216293,0.594074010848999
1788862269795555600,10.5735556640625,-0.6203937530517578,0.24889929592609406,0.7229318618774414
1788862269805596700,10.5835966796875,-0.5851446986198425,0.5454438924789429,0.8327590227127075
1788862269815638500,10.593638427734374,-0.4917082190513611,0.7613769769668579,0.9377051591873169
1788862269825679600,10.6036796875,-0.39272916316986084,0.8612052798271179,1.0058131217956543
1788862269835721700,10.6137216796875,-0.3061942756175995,0.9703959822654724,1.0088962316513062
1788862269845762800,10.6237626953125,-0.21378472447395325,1.108500361442566,1.0459487438201904
1788862269855804700,10.6338046875,-0.13358895480632782,1.1531239748001099,1.0909080505371094
1788862269865846500,10.643846435546875,-0.06711645424365997,1.050240159034729,1.1155604124069214
1788862269875887600,10.6538876953125,-0.04406359791755676,0.891377329826355,1.139237403869629
1788862269885929500,10.663929443359375,-0.06902886927127838,0.8145374059677124,1.221854329109192
1788862269895970600,10.673970458984375,-0.1405019909143448,0.7564666271209717,1.3156495094299316
1788862269906012400,10.684012451171874,-0.20373421907424927,0.6626016497612,1.422399640083313
1788862269916053500,10.694053466796875,-0.20003588497638702,0.5666857957839966,1.5493956804275513
1788862269926095600,10.704095703125,-0.11147193610668182,0.5591272115707397,1.6750599145889282
1788862269936136700,10.71413671875,0.07521938532590866,0.6334757208824158,1.7685661315917969
1788862269946178600,10.724178466796875,0.27025943994522095,0.6800671815872192,1.9029654264450073
1788862269956219600,10.7342197265625,0.35483506321907043,0.651242196559906,2.144040584564209
1788862269966261500,10.744261474609376,0.37749430537223816,0.593864917755127,2.3605761528015137
1788862269976303600,10.7543037109375,0.42673906683921814,0.49094095826148987,2.431159257888794
1788862269986344400,10.764344482421874,0.4570208191871643,0.3576611876487732,2.457068681716919
1788862269996386600,10.774386474609376,0.4417632818222046,0.2742858827114105,2.4490342140197754
1788862270006427600,10.784427734375,0.41424989700317383,0.16579429805278778,2.391869306564331
1788862270016469800,10.7944697265625,0.3990693688392639,0.028593827039003372,2.2896740436553955
1788862270026510600,10.804510498046875,0.4049578607082367,-0.07689318060874939,2.194277763366699
1788862270036552700,10.814552734375,0.42581814527511597,-0.20138078927993774,2.124539375305176
1788862270046593800,10.82459375,0.4500102996826172,-0.3405325412750244,2.0667471885681152
1788862270056635600,10.8346357421875,0.48906210064888,-0.41783958673477173,2.034470558166504
1788862270066677500,10.844677490234375,0.5301874279975891,-0.445130854845047,2.0319859981536865
1788862270076718600,10.854718505859376,0.5938372611999512,-0.4946877658367157,2.009243965148926
1788862270086760400,10.864760498046875,0.6456106901168823,-0.5970714092254639,1.9464011192321777
1788862270096801500,10.874801513671875,0.6443403959274292,-0.6394830346107483,1.8746675252914429
1788862270106843600,10.88484375,0.5828498601913452,-0.5508404970169067,1.8455429077148438
1788862270116884700,10.894884765625,0.4920496344566345,-0.45029500126838684,1.8524929285049438
1788862270126926600,10.904926513671874,0.40598931908607483,-0.4337567687034607,1.8521054983139038
1788862270136967700,10.9149677734375,0.31831300258636475,-0.5234789252281189,1.8270496129989624
1788862270147009500,10.925009521484375,0.23178502917289734,-0.6472722291946411,1.790460228919983
1788862270157050600,10.935050537109374,0.13832750916481018,-0.7412554621696472,1.7570130825042725
1788862270167092500,10.945092529296875,0.031985096633434296,-0.7581194043159485,1.700038194656372
1788862270177134600,10.955134521484375,-0.06221836805343628,-0.6645334959030151,1.6521053314208984
1788862270187175400,10.965175537109374,-0.13001765310764313,-0.5049164295196533,1.6403945684432983
1788862270197217800,10.9752177734375,-0.16841937601566315,-0.3526403307914734,1.6592129468917847
1788862270207258600,10.985258544921875,-0.18378101289272308,-0.2650148868560791,1.6652131080627441
1788862270217300700,10.99530078125,-0.19303922355175018,-0.25335344672203064,1.6568795442581177
1788862270227341600,11.005341552734375,-0.21467235684394836,-0.2663206458091736,1.6386024951934814
1788862270237383700,11.0153837890625,-0.2411028891801834,-0.3118777275085449,1.5757803916931152
1788862270247424500,11.025424560546876,-0.2655421793460846,-0.4214755892753601,1.4759899377822876
1788862270257466600,11.035466552734375,-0.2784755825996399,-0.5371912717819214,1.356580138206482
1788862270267507500,11.045507568359374,-0.3012178838253021,-0.5736851096153259,1.2208926677703857
1788862270277549800,11.0555498046875,-0.35485076904296875,-0.518242597579956,1.0647701025009155
1788862270287591700,11.065591796875,-0.4121555984020233,-0.4177767336368561,0.9024690985679626
1788862270297632800,11.0756328125,-0.45594727993011475,-0.3115229904651642,0.7479035258293152
1788862270307674600,11.085674560546876,-0.5000495314598083,-0.1704564243555069,0.6073852777481079
1788862270317715700,11.0957158203125,-0.517942488193512,-0.01834731549024582,0.4788115918636322
1788862270327757600,11.105757568359374,-0.5105285048484802,0.09645463526248932,0.3434167504310608
1788862270337798700,11.115798583984375,-0.47198033332824707,0.1355527639389038,0.20340052247047424
1788862270347840500,11.125840576171875,-0.4066162109375,0.1773468255996704,0.08324296027421951
1788862270357881600,11.135881591796876,-0.3260881006717682,0.21427235007286072,-0.023089073598384857
1788862270367923700,11.145923828125,-0.22607707977294922,0.22206129133701324,-0.11330205947160721
1788862270377965600,11.155965576171875,-0.11748374998569489,0.16175347566604614,-0.19218622148036957
1788862270388006700,11.166006591796876,-0.06669913232326508,0.040285103023052216,-0.2653408646583557
1788862270398048500,11.176048583984375,-0.024152474477887154,-0.10228083282709122,-0.34031444787979126
1788862270408089600,11.186089599609375,0.02442837692797184,-0.21043314039707184,-0.42609167098999023
1788862270418131700,11.196131591796876,0.057801779359579086,-0.23535366356372833,-0.5289070010185242
1788862270428172500,11.206172607421875,0.07455093413591385,-0.21883541345596313,-0.6309840679168701
1788862270438214700,11.216214599609375,0.06175550818443298,-0.16700203716754913,-0.7197906374931335
1788862270448255700,11.226255859375,0.04488890990614891,-0.09212486445903778,-0.7858983278274536
1788862270458297900,11.2362978515625,0.05017608404159546,-0.040111467242240906,-0.8349353671073914
1788862270468338700,11.246338623046874,0.07094554603099823,-0.006134857889264822,-0.8740785121917725
1788862270478380800,11.256380859375,0.09455793350934982,0.03130039945244789,-0.906387984752655
1788862270488422700,11.266422607421875,0.11058136820793152,0.12076077610254288,-0.9265262484550476
1788862270498463700,11.276463623046874,0.1083509773015976,0.2629235088825226,-0.9310333728790283
1788862270508505600,11.286505615234375,0.08264347910881042,0.4214681386947632,-0.9339210391044617
1788862270518546700,11.296546630859375,0.026552781462669373,0.5461221933364868,-0.9564111828804016
1788862270528588800,11.3065888671875,-0.005663478281348944,0.6219045519828796,-1.0223238468170166
1788862270538630000,11.3166298828125,-0.020560136064887047,0.6665418148040771,-1.102687120437622
1788862270548671700,11.326671630859375,-0.017470071092247963,0.6921483874320984,-1.1560883522033691
1788862270558712800,11.336712890625,-0.026703249663114548,0.6720593571662903,-1.180022954940796
1788862270568754700,11.346754638671875,-0.04333202913403511,0.7114315032958984,-1.2416250705718994
1788862270578795800,11.356795654296874,-0.04151814803481102,0.8069494962692261,-1.3311076164245605
1788862270588837600,11.366837646484376,-0.006398510653525591,0.7299623489379883,-1.3411753177642822
1788862270598879500,11.37687939453125,0.0296148844063282,0.46514877676963806,-1.2745548486709595
1788862270608920600,11.386920654296874,0.049068208783864975,0.1947103589773178,-1.2455143928527832
1788862270618962700,11.396962646484376,0.07811850309371948,0.010949053801596165,-1.2790595293045044
1788862270629003800,11.407003662109375,0.09275337308645248,-0.06660166382789612,-1.2937690019607544
1788862270639045600,11.417045654296874,0.06464503705501556,-0.03617504984140396,-1.2803996801376343
1788862270649086700,11.427086669921875,0.010112554766237736,0.02636183239519596,-1.3116707801818848
1788862270659128600,11.437128662109375,-0.04625591263175011,0.05273272097110748,-1.3614718914031982
1788862270669169700,11.447169677734376,-0.10186883807182312,0.03814871609210968,-1.3898835182189941
1788862270679211500,11.45721142578125,-0.12375576049089432,-0.01715901307761669,-1.4356815814971924
1788862270689252600,11.467252685546875,-0.08262617141008377,-0.12142709642648697,-1.5116991996765137
1788862270699294500,11.47729443359375,-0.018154501914978027,-0.2493658810853958,-1.5639845132827759
1788862270709336800,11.4873369140625,0.021628595888614655,-0.3031766414642334,-1.594250202178955
1788862270719377700,11.497377685546875,0.038850460201501846,-0.23016902804374695,-1.6315571069717407
1788862270729419800,11.507419677734376,0.06498059630393982,-0.12234722077846527,-1.67843759059906
1788862270739460600,11.517460693359375,0.09167692065238953,-0.09179756045341492,-1.761971354484558
1788862270749502700,11.527502685546875,0.12126517295837402,-0.14625388383865356,-1.818001627922058
1788862270759543600,11.53754345703125,0.15535709261894226,-0.2075478583574295,-1.8172491788864136
1788862270769585700,11.547585693359375,0.1785620152950287,-0.20993512868881226,-1.7995994091033936
1788862270779626500,11.55762646484375,0.19456495344638824,-0.19664621353149414,-1.797636866569519
1788862270789668600,11.567668701171876,0.20321783423423767,-0.22167007625102997,-1.8010340929031372
1788862270799709400,11.57770947265625,0.20535607635974884,-0.28074193000793457,-1.7754783630371094
1788862270809751800,11.587751708984374,0.1756831407546997,-0.3781110942363739,-1.7666696310043335
1788862270819793700,11.597793701171875,0.14711062610149384,-0.48445484042167664,-1.7925350666046143
1788862270829834800,11.607834716796875,0.12861204147338867,-0.5452486872673035,-1.8171424865722656
1788862270839876600,11.617876708984374,0.11038003861904144,-0.4961005747318268,-1.8133224248886108
1788862270849917700,11.627917724609375,0.08248315751552582,-0.3532946705818176,-1.7929904460906982
1788862270859959600,11.63795947265625,0.07464787364006042,-0.2779570519924164,-1.7837400436401367
1788862270870000600,11.648000732421876,0.09329506009817123,-0.38008421659469604,-1.7480254173278809
1788862270880042500,11.65804248046875,0.07884448021650314,-0.5495976209640503,-1.7420461177825928
1788862270890083600,11.66808349609375,0.04136049002408981,-0.5358676910400391,-1.7496033906936646
1788862270900125700,11.678125732421876,0.015806926414370537,-0.3919416666030884,-1.7295838594436646
1788862270910166800,11.688166748046875,0.019414976239204407,-0.27304404973983765,-1.6612210273742676
1788862270920208600,11.698208740234374,0.011004714295268059,-0.20248626172542572,-1.5965863466262817
1788862270930250800,11.708250732421876,0.015486547723412514,-0.19180990755558014,-1.5886530876159668
1788862270940291600,11.71829150390625,0.056839846074581146,-0.27120327949523926,-1.5829488039016724
1788862270950333700,11.728333740234374,0.08725287765264511,-0.29749852418899536,-1.555923581123352
1788862270960374500,11.73837451171875,0.09551187604665756,-0.1960134506225586,-1.5132254362106323
1788862270970416600,11.748416748046875,0.12401915341615677,-0.06384502351284027,-1.4782112836837769
1788862270980457500,11.75845751953125,0.12940432131290436,0.0859450027346611,-1.4482139348983765
1788862270990499800,11.768499755859375,0.14618170261383057,0.22511780261993408,-1.4230955839157104
1788862271000540700,11.778540771484375,0.17032299935817719,0.37893399596214294,-1.316906213760376
1788862271010582800,11.788582763671876,0.1666896492242813,0.40874728560447693,-1.186824917793274
1788862271020623600,11.79862353515625,0.1744663417339325,0.34729909896850586,-1.0764254331588745
1788862271030665700,11.808665771484375,0.1950368732213974,0.35689660906791687,-0.9830427765846252
1788862271040707600,11.81870751953125,0.23834039270877838,0.4380820095539093,-0.9012342095375061
1788862271050748700,11.828748779296875,0.29130640625953674,0.44812852144241333,-0.8053289651870728
1788862271060790800,11.838790771484375,0.33100563287734985,0.3989383280277252,-0.6597776412963867
1788862271070831900,11.848831787109376,0.372207373380661,0.34391769766807556,-0.4427585303783417
1788862271080873700,11.858873779296875,0.38260915875434875,0.35197746753692627,-0.19017739593982697
1788862271090914800,11.868914794921874,0.3358038365840912,0.34397920966148376,0.05179821699857712
1788862271100956700,11.878956787109376,0.26282256841659546,0.25512149930000305,0.27663397789001465
1788862271110997800,11.888997802734375,0.22217315435409546,0.19288477301597595,0.40755659341812134
1788862271121039600,11.89903955078125,0.19651518762111664,0.11792370676994324,0.4851187467575073
1788862271131080700,11.909080810546875,0.16964948177337646,0.1342124044895172,0.5942702889442444
1788862271141122600,11.91912255859375,0.12990020215511322,0.18437063694000244,0.7167269587516785
1788862271151164700,11.92916455078125,0.06953779608011246,0.23109740018844604,0.8061316609382629
1788862271161205800,11.939205810546875,0.008143946528434753,0.26688042283058167,0.9097014665603638
1788862271171247600,11.94924755859375,-0.012827381491661072,0.2897082567214966,1.0669771432876587
1788862271181288700,11.959288818359376,-0.01269741915166378,0.32703137397766113,1.215213656425476
1788862271191330600,11.96933056640625,0.0006761765689589083,0.3229319751262665,1.3042144775390625
1788862271201371600,11.97937158203125,-0.012771189212799072,0.2797437608242035,1.3616523742675781
1788862271211413500,11.98941357421875,-0.0229180995374918,0.2548823654651642,1.448311686515808
1788862271221454600,11.99945458984375,-0.029690517112612724,0.19656579196453094,1.5264320373535156
1788862271231496400,12.009496337890624,-0.05961672589182854,0.13266509771347046,1.5997416973114014
1788862271241537500,12.01953759765625,-0.09158078581094742,0.14067243039608002,1.6444036960601807
1788862271251579600,12.02957958984375,-0.07659144699573517,0.15860988199710846,1.6640561819076538
1788862271261621800,12.039621826171874,-0.027150128036737442,0.18313653767108917,1.7252264022827148
1788862271271663400,12.049663330078126,0.032955020666122437,0.2243311107158661,1.8057044744491577
1788862271281705500,12.05970556640625,0.0962490364909172,0.2195531278848648,1.8750616312026978
1788862271291746300,12.069746337890624,0.14930373430252075,0.16614076495170593,1.9740196466445923
1788862271301788400,12.079788330078125,0.1521700918674469,0.17857852578163147,2.0635125637054443
1788862271311829200,12.089829345703125,0.1338302344083786,0.2654428482055664,2.0879223346710205
1788862271321871400,12.099871337890624,0.13011512160301208,0.3416241705417633,2.0629122257232666
1788862271331912200,12.109912109375,0.10889292508363724,0.34570175409317017,2.038970470428467
1788862271341954600,12.11995458984375,0.06199066713452339,0.2647104859352112,2.0603458881378174
1788862271351995400,12.129995361328126,0.014963769353926182,0.1846657246351242,2.152228593826294
1788862271362037500,12.14003759765625,-0.021403025835752487,0.12308891117572784,2.2471394538879395
1788862271372078300,12.150078369140624,-0.057197775691747665,0.08750907331705093,2.2898333072662354
1788862271382120400,12.160120361328126,-0.10760315507650375,0.11593219637870789,2.2924909591674805
1788862271392162300,12.170162353515625,-0.1588010936975479,0.15524764358997345,2.305589199066162
1788862271402203400,12.180203369140624,-0.18940295279026031,0.11099522560834885,2.3181474208831787
1788862271412245200,12.190245361328126,-0.2092168629169464,0.011798868887126446,2.3058295249938965
1788862271422286300,12.200286376953125,-0.2001812905073166,-0.06360107660293579,2.28006911277771
1788862271432328400,12.210328369140624,-0.16501185297966003,-0.1232050210237503,2.2531120777130127
1788862271442369500,12.22036962890625,-0.13058464229106903,-0.16832828521728516,2.211986780166626
1788862271452411400,12.230411376953125,-0.09836358577013016,-0.20477737486362457,2.1628692150115967
1788862271462452500,12.240452392578124,-0.052811816334724426,-0.26999953389167786,2.101107358932495
1788862271472494300,12.250494384765625,-0.024985244497656822,-0.3542454242706299,2.034830093383789
1788862271482535400,12.260535400390625,-0.03694203868508339,-0.3596324622631073,2.0100815296173096
1788862271492577300,12.270577392578126,-0.10228961706161499,-0.29234957695007324,2.026904344558716
1788862271502619400,12.280619384765625,-0.17866268754005432,-0.21071995794773102,2.0556302070617676
1788862271512660200,12.29066015625,-0.2468279004096985,-0.18172186613082886,2.0666728019714355
1788862271522702300,12.300702392578126,-0.29709771275520325,-0.2125178575515747,2.0284721851348877
1788862271532743400,12.310743408203125,-0.3303789794445038,-0.26348942518234253,1.92636239528656
1788862271542785300,12.320785400390625,-0.3534161150455475,-0.33376678824424744,1.7671610116958618
1788862271552826400,12.330826416015626,-0.35142460465431213,-0.4223642945289612,1.6043263673782349
1788862271562868500,12.340868408203125,-0.32075777649879456,-0.534152626991272,1.4902697801589966
1788862271572909300,12.350909423828124,-0.29687827825546265,-0.5816013813018799,1.4505833387374878
1788862271582951400,12.360951416015626,-0.3035723865032196,-0.4617884159088135,1.4657620191574097
1788862271592992300,12.3709921875,-0.34214508533477783,-0.22278061509132385,1.474989652633667
1788862271603034400,12.381034423828124,-0.3532067835330963,-0.0288833137601614,1.4178738594055176
1788862271613075200,12.3910751953125,-0.31236642599105835,-0.010702178813517094,1.2711142301559448
1788862271623117600,12.40111767578125,-0.2219310700893402,-0.1825181394815445,1.0819973945617676
1788862271633159400,12.411159423828124,-0.11856233328580856,-0.4495184123516083,0.8931930661201477
1788862271643200500,12.421200439453125,-0.04760000854730606,-0.6235488057136536,0.7127782702445984
1788862271653242400,12.431242431640625,-0.01047341339290142,-0.563896656036377,0.5547873377799988
1788862271663283500,12.441283447265626,0.016044480726122856,-0.2760635316371918,0.42467084527015686
1788862271673325300,12.4513251953125,0.04195064678788185,0.085056833922863,0.3117874562740326
1788862271683366400,12.461366455078124,0.08273588865995407,0.38073989748954773,0.19908539950847626
