time,seconds_elapsed,z,y,x
1788861361431385000,0.046385009765625,0.15689140558242798,0.8081568479537964,0.20317861437797546
1788861361441391000,0.05639111328125,0.10976314544677734,1.1751532554626465,0.2524230182170868
1788861361451396900,0.06639697265625,0.008421346545219421,1.5146690607070923,0.2593996822834015
1788861361461403000,0.07640283203125,-0.11205166578292847,1.777237057685852,0.2685256004333496
1788861361471409000,0.086408935546875,-0.22474466264247894,1.9866738319396973,0.29930880665779114
1788861361481415000,0.096414794921875,-0.27744433283805847,2.0539844036102295,0.3220756947994232
1788861361491421000,0.1064208984375,-0.2712884247303009,1.9296300411224365,0.27910345792770386
1788861361501427000,0.116427001953125,-0.27770593762397766,1.743851661682129,0.17419297993183136
1788861361511433000,0.126432861328125,-0.3320504128932953,1.5024875402450562,0.03371255472302437
1788861361521438700,0.136438720703125,-0.43533533811569214,1.3098722696304321,-0.10490255057811737
1788861361531445000,0.146445068359375,-0.5205796360969543,1.079817771911621,-0.1521185338497162
1788861361541451000,0.156450927734375,-0.5652792453765869,0.7865520119667053,-0.12380431592464447
1788861361551457000,0.16645703125,-0.600383460521698,0.5598738789558411,-0.1323820948600769
1788861361561462800,0.176462890625,-0.593026340007782,0.44592782855033875,-0.18234550952911377
1788861361571468800,0.18646875,-0.573283314704895,0.3230067193508148,-0.20984265208244324
1788861361581475000,0.19647509765625,-0.5826802849769592,0.25259432196617126,-0.17460119724273682
1788861361591480000,0.20647998046875,-0.653293788433075,-0.025151526555418968,0.022100940346717834
1788861361601486000,0.216486083984375,-0.7237566709518433,-0.3566003143787384,0.2351156324148178
1788861361611491000,0.226490966796875,-0.7748395800590515,-0.6083049178123474,0.3245435059070587
1788861361621496800,0.236496826171875,-0.7175970673561096,-0.7323283553123474,0.29149743914604187
1788861361631503000,0.246503173828125,-0.572698175907135,-0.8637489676475525,0.23353424668312073
1788861361641509000,0.256509033203125,-0.40385115146636963,-0.934994101524353,0.18016202747821808
1788861361651515000,0.266514892578125,-0.3076050281524658,-0.8940671682357788,0.10651310533285141
1788861361661521000,0.27652099609375,-0.27206680178642273,-0.6942875385284424,0.016305727884173393
1788861361671527000,0.28652685546875,-0.2574084997177124,-0.5884143710136414,-0.03324238210916519
1788861361681533200,0.296533203125,-0.245553657412529,-0.6514484286308289,-0.04387560114264488
1788861361691539000,0.3065390625,-0.27523696422576904,-0.9176974296569824,-0.01852683536708355
1788861361701545000,0.316544921875,-0.294582337141037,-1.3151901960372925,0.05844389274716377
1788861361711551000,0.326551025390625,-0.2511086165904999,-1.7230620384216309,0.1046002060174942
1788861361721557000,0.336556884765625,-0.16969235241413116,-1.9665993452072144,0.0866493508219719
1788861361731563000,0.34656298828125,0.01604103296995163,-1.9701176881790161,0.05108629912137985
1788861361741569000,0.356569091796875,0.28915393352508545,-1.9327359199523926,0.014609105885028839
1788861361751575000,0.366574951171875,0.5920398235321045,-1.702044129371643,-0.12332824617624283
1788861361761581000,0.3765810546875,0.914228081703186,-1.455770492553711,-0.21728748083114624
1788861361771587000,0.386587158203125,1.2152737379074097,-1.3408284187316895,-0.16210651397705078
1788861361781593000,0.396593017578125,1.4726636409759521,-1.524126648902893,-0.11392965912818909
1788861361791599000,0.40659912109375,1.647423505783081,-1.5708779096603394,-0.16310414671897888
1788861361801604900,0.41660498046875,1.7210086584091187,-1.2523963451385498,-0.19992884993553162
1788861361811611000,0.42661083984375,1.7356621026992798,-1.0551828145980835,-0.3547937870025635
1788861361821617200,0.4366171875,1.622546672821045,-1.358117938041687,-0.6132697463035583
1788861361831623200,0.446623046875,1.542662262916565,-1.9246500730514526,-0.7942986488342285
1788861361841629000,0.45662890625,1.6714023351669312,-2.4801058769226074,-0.8546438813209534
1788861361851635000,0.466635009765625,1.9141428470611572,-2.987464189529419,-0.8321186304092407
1788861361861641000,0.476640869140625,2.159139633178711,-3.4662680625915527,-0.7992398738861084
1788861361871647200,0.486647216796875,2.3375084400177,-3.8224995136260986,-0.77131187915802
1788861361881652200,0.49665234375,2.3920226097106934,-3.703805923461914,-0.7233566045761108
1788861361891658000,0.506657958984375,2.327031373977661,-3.345187187194824,-0.533797025680542
1788861361901664000,0.5166640625,2.095456600189209,-3.0215322971343994,-0.23924246430397034
1788861361911670000,0.526669921875,1.809946894645691,-2.7627344131469727,0.02296491526067257
1788861361921676000,0.536676025390625,1.729153037071228,-2.745558261871338,0.12310851365327835
1788861361931682000,0.54668212890625,1.8302913904190063,-2.8421709537506104,0.0707896500825882
1788861361941688000,0.55668798828125,1.9331532716751099,-2.63485050201416,-0.0948323979973793
1788861361951694000,0.566694091796875,2.0265026092529297,-2.256937026977539,-0.3989403545856476
1788861361961699800,0.576699951171875,2.118593692779541,-2.071765422821045,-0.7592025995254517
1788861361971705900,0.586705810546875,2.210034132003784,-2.2031283378601074,-0.9828015565872192
1788861361981712100,0.596712158203125,2.3711585998535156,-2.611971616744995,-1.0158023834228516
1788861361991718100,0.60671826171875,2.470834970474243,-3.23787784576416,-0.8811774253845215
1788861362001724000,0.616723876953125,2.4186840057373047,-3.7764813899993896,-0.6001777052879333
1788861362011730000,0.62672998046875,2.269885778427124,-4.188230037689209,-0.2581782937049866
1788861362021736000,0.63673583984375,2.152771234512329,-4.312015533447266,-0.006775574758648872
1788861362031742200,0.6467421875,2.163846254348755,-4.03566312789917,0.003592910710722208
1788861362041748000,0.656748046875,2.365274429321289,-3.623274087905884,-0.2821826934814453
1788861362051754000,0.66675390625,2.7189955711364746,-3.283874273300171,-0.6829681992530823
1788861362061760000,0.676760009765625,3.163923978805542,-2.989396333694458,-0.9986779689788818
1788861362071766000,0.68676611328125,3.4999208450317383,-3.253870725631714,-1.1357975006103516
1788861362081772000,0.69677197265625,3.5071845054626465,-4.0251617431640625,-1.0824084281921387
1788861362091778000,0.706778076171875,3.259298324584961,-4.905242919921875,-0.8615114688873291
1788861362101784000,0.7167841796875,3.0411758422851562,-5.571380615234375,-0.5761562585830688
1788861362111789800,0.726789794921875,2.920684337615967,-5.669265270233154,-0.30322036147117615
1788861362121796000,0.736796142578125,2.96532940864563,-5.088377475738525,-0.0729442685842514
1788861362131802000,0.746802001953125,3.0931079387664795,-3.8947386741638184,0.06963391602039337
1788861362141808000,0.75680810546875,3.154761791229248,-2.695979356765747,0.12437767535448074
1788861362151814000,0.76681396484375,3.119905471801758,-1.7295650243759155,0.12410522997379303
1788861362161820000,0.77681982421875,2.914860725402832,-1.0815001726150513,0.17202863097190857
1788861362171826200,0.786826171875,2.530207872390747,-0.420303076505661,0.30970683693885803
1788861362181832200,0.796832275390625,2.039116382598877,-0.0416221097111702,0.45712560415267944
1788861362191838000,0.806837890625,1.2351219654083252,-0.8567507266998291,0.14519086480140686
1788861362201844000,0.816843994140625,0.1801917999982834,-2.2037551403045654,-0.702847421169281
1788861362211850000,0.82685009765625,-0.3316597640514374,-3.4381299018859863,-1.396785020828247
1788861362221856000,0.83685595703125,-0.21279926598072052,-3.8822970390319824,-1.404418706893921
1788861362231862000,0.846862060546875,0.18008144199848175,-3.769279718399048,-0.7247196435928345
1788861362241868000,0.856867919921875,0.41454899311065674,-3.729600429534912,0.16232255101203918
1788861362251874000,0.8668740234375,0.3557402789592743,-3.932279586791992,0.8814924359321594
1788861362261879000,0.876879150390625,0.21421201527118683,-4.040410041809082,1.357696771621704
1788861362271884800,0.886884765625,0.18088121712207794,-3.9020776748657227,1.6327531337738037
1788861362281891000,0.89689111328125,0.2504226863384247,-3.2428195476531982,1.7419689893722534
1788861362291897000,0.90689697265625,0.44057318568229675,-2.5334320068359375,1.577852725982666
1788861362301903000,0.916903076171875,0.7967134118080139,-2.1136443614959717,1.198443055152893
1788861362311908900,0.926908935546875,1.0514147281646729,-1.583904504776001,0.6621226668357849
1788861362321915000,0.936914794921875,1.3347455263137817,-0.778318464756012,-0.3821728229522705
1788861362331921200,0.946921142578125,1.6735153198242188,-0.4730065166950226,-0.29876473546028137
1788861362341927200,0.95692724609375,1.6227020025253296,-0.3752429187297821,0.022808216512203217
1788861362351933000,0.966932861328125,1.635072112083435,-0.36874163150787354,0.3499740958213806
1788861362361939000,0.97693896484375,2.061939001083374,-0.42167380452156067,0.7580593228340149
1788861362371945000,0.986945068359375,2.7730746269226074,-0.4131447672843933,1.2414451837539673
1788861362381951000,0.996950927734375,3.631571054458618,-0.5018634796142578,1.8902647495269775
1788861362391957000,1.00695703125,4.156960487365723,-0.720099151134491,1.928557276725769
1788861362401963000,1.016962890625,4.655277252197266,-0.260673463344574,1.0696746110916138
1788861362411969000,1.026968994140625,4.371739864349365,0.648951530456543,0.30346956849098206
1788861362421975000,1.03697509765625,3.809811592102051,0.8303431868553162,-0.054968465119600296
1788861362431981000,1.04698095703125,3.0668888092041016,0.37420654296875,-0.0023799578193575144
1788861362441987000,1.056987060546875,2.367363214492798,-0.06021122261881828,0.245597243309021
1788861362451993000,1.0669931640625,2.015314817428589,-0.07094668596982956,0.25981399416923523
1788861362461998800,1.076998779296875,2.1747825145721436,0.3009416460990906,0.07206353545188904
1788861362472005000,1.087005126953125,2.308272361755371,0.4098396301269531,-0.06325381249189377
1788861362482011100,1.09701123046875,2.2469675540924072,0.15568405389785767,-0.11582087725400925
1788861362492017200,1.10701708984375,2.055567741394043,-0.4535326659679413,-0.16492019593715668
1788861362502023000,1.11702294921875,1.8981245756149292,-0.8660984039306641,-0.24217483401298523
1788861362512029000,1.12702880859375,1.9123804569244385,-0.905109703540802,-0.299232542514801
1788861362522035200,1.13703515625,1.9353662729263306,-0.7675614356994629,-0.45488908886909485
1788861362532041000,1.147041015625,1.854785680770874,-0.698663055896759,-0.6852452754974365
1788861362542047000,1.157046875,1.6123509407043457,-0.6125979423522949,-0.8984262943267822
1788861362552053000,1.167052978515625,1.418565273284912,-0.9123383164405823,-1.0787336826324463
1788861362562059000,1.17705908203125,1.4529799222946167,-1.5713324546813965,-1.25497305393219
1788861362572065000,1.18706494140625,1.8039579391479492,-2.144444465637207,-1.1311800479888916
1788861362582071000,1.197071044921875,2.5415120124816895,-2.164530038833618,-0.6612602472305298
1788861362592077000,1.2070771484375,3.120368242263794,-1.7243376970291138,-0.2677880823612213
1788861362602083600,1.21708349609375,3.429892063140869,-1.7695059776306152,0.09513851255178452
1788861362612089600,1.227089599609375,3.2356157302856445,-2.16902232170105,0.41526350378990173
1788861362622095600,1.237095703125,2.7659671306610107,-2.723261594772339,0.7663781642913818
1788861362632102000,1.247101806640625,2.4098458290100098,-3.2706902027130127,1.0768285989761353
1788861362642107600,1.257107666015625,2.168133497238159,-3.295790433883667,1.1714026927947998
1788861362652113700,1.26711376953125,1.879094123840332,-2.8178677558898926,1.114179253578186
1788861362662119700,1.27711962890625,1.5448569059371948,-2.1655445098876953,1.0440385341644287
1788861362672125700,1.287125732421875,1.2084687948226929,-1.6161329746246338,1.0012534856796265
1788861362682131700,1.297131591796875,0.811141848564148,-1.3336941003799438,0.9207898378372192
1788861362692137700,1.3071376953125,0.5026822686195374,-1.1339999437332153,0.8033684492111206
1788861362702143700,1.317143798828125,0.2764623761177063,-0.7025611400604248,0.5690739154815674
1788861362712149500,1.3271494140625,0.006710766814649105,-0.2936474084854126,0.1549481451511383
1788861362722155500,1.337155517578125,-0.3400433361530304,-0.03450104966759682,-0.5268447399139404
1788861362732161800,1.347161865234375,-0.6537235379219055,0.32612156867980957,-1.207789659500122
1788861362742167800,1.357167724609375,-0.8942322731018066,0.611967146396637,-1.4565510749816895
1788861362752173600,1.367173583984375,-0.9440417885780334,0.6777669787406921,-1.4537787437438965
1788861362762179600,1.3771796875,-0.6174430847167969,0.3065564036369324,-1.846193552017212
1788861362772185900,1.387185791015625,-0.48661527037620544,0.6112028360366821,-1.8820784091949463
1788861362782191900,1.39719189453125,-0.5646827816963196,0.985988199710846,-1.511857032775879
1788861362792197600,1.40719775390625,-0.36007747054100037,0.5751377940177917,-1.139840006828308
1788861362802203600,1.41720361328125,-0.061739686876535416,0.10368238389492035,-0.7402520179748535
1788861362812209700,1.427209716796875,0.22558236122131348,0.12084805220365524,-0.4637075364589691
1788861362822215700,1.437215576171875,0.3863767981529236,0.2559763193130493,-0.09003183990716934
1788861362832221700,1.4472216796875,0.525320827960968,0.2477429062128067,0.4062623381614685
1788861362842227700,1.457227783203125,0.6138311624526978,0.15700207650661469,0.6945294141769409
1788861362852233700,1.467233642578125,0.7154632210731506,-0.00820978358387947,0.7137407064437866
1788861362862239500,1.477239501953125,0.7619599103927612,0.019170699641108513,0.61542809009552
1788861362872245800,1.487245849609375,0.780875563621521,-0.005117861554026604,0.3738570213317871
1788861362882251800,1.497251708984375,0.37322938442230225,0.19835004210472107,-0.10150973498821259
1788861362892257800,1.5072578125,-0.18225330114364624,0.39559653401374817,-0.5177040696144104
1788861362902263600,1.517263671875,-0.46716123819351196,0.2848958373069763,-0.34725239872932434
1788861362912269600,1.52726953125,-0.6998274922370911,0.18541905283927917,0.17876482009887695
1788861362922275800,1.53727587890625,-0.255919486284256,-0.45064496994018555,1.2716103792190552
1788861362932281900,1.54728173828125,-0.2607896029949188,-1.1841996908187866,1.758854627609253
1788861362942287600,1.55728759765625,-0.7290266156196594,-1.5624418258666992,1.208277702331543
1788861362952293600,1.567293701171875,-0.7587152719497681,-1.316582441329956,0.37836506962776184
1788861362962299600,1.577299560546875,-0.443024605512619,-0.38836243748664856,-0.5044043064117432
1788861362972305700,1.5873056640625,-0.36157581210136414,0.4386444091796875,-0.861943781375885
1788861362982311700,1.597311767578125,-0.0760573148727417,0.770430326461792,-0.5542393922805786
1788861362992317700,1.607317626953125,0.23929211497306824,0.9830331206321716,-0.3494705557823181
1788861363002323700,1.61732373046875,0.34769320487976074,0.7205402851104736,-0.3893589377403259
1788861363012329500,1.62732958984375,0.8117708563804626,-0.3275126516819,-0.8795573711395264
1788861363022335700,1.637335693359375,1.4905726909637451,-0.7940167188644409,-1.0680208206176758
1788861363032341800,1.647341796875,1.068734884262085,-0.34502267837524414,-0.6170991063117981
1788861363042347800,1.65734765625,0.3173503577709198,-0.05336606130003929,-0.12807811796665192
1788861363052353500,1.667353515625,0.026143278926610947,-0.060972847044467926,0.06681840121746063
1788861363062359600,1.677359619140625,-0.3325132727622986,0.10026291012763977,0.27280309796333313
1788861363072365800,1.68736572265625,-0.41610297560691833,-0.23143327236175537,0.4051118791103363
1788861363082371600,1.69737158203125,-0.45217299461364746,-1.1728702783584595,0.6586413383483887
1788861363092377600,1.707377685546875,-0.4238193929195404,-2.040998935699463,0.7607088088989258
1788861363102383600,1.717383544921875,-0.2918497622013092,-2.117119073867798,0.7869184017181396
1788861363112390000,1.727389892578125,-0.23951731622219086,-1.556113600730896,0.8135209679603577
1788861363122395600,1.737395751953125,-0.24335958063602448,-1.2612971067428589,0.7464512586593628
1788861363132401700,1.747401611328125,-0.2574237287044525,-1.3635175228118896,0.5422398447990417
1788861363142407700,1.75740771484375,-0.037396177649497986,-1.5133485794067383,0.19282403588294983
1788861363152413700,1.76741357421875,0.2784970700740814,-1.285280466079712,0.12588629126548767
1788861363162419700,1.777419677734375,0.5378651022911072,-1.037654161453247,0.16214139759540558
1788861363172425700,1.78742578125,0.5994003415107727,-1.1085014343261719,0.39405557513237
1788861363182431700,1.797431640625,0.6500617265701294,-1.0998767614364624,0.6719363927841187
1788861363192437800,1.807437744140625,0.6946382522583008,-0.9234045743942261,0.6715320944786072
1788861363202443500,1.817443603515625,0.828898549079895,-0.6635780334472656,0.47769081592559814
1788861363212449800,1.82744970703125,0.9428914189338684,-0.3993453085422516,0.19315630197525024
1788861363222455800,1.837455810546875,1.0026148557662964,-0.25586989521980286,-0.09357744455337524
1788861363232461600,1.847461669921875,1.0067338943481445,-0.13768868148326874,-0.43511641025543213
1788861363242467600,1.857467529296875,1.001666784286499,-0.013170445337891579,-0.7666640877723694
1788861363252473600,1.8674736328125,1.0127780437469482,0.0631277933716774,-0.9346605539321899
1788861363262480000,1.87747998046875,0.8203974962234497,0.2631157636642456,-0.9941222667694092
1788861363272485600,1.887485595703125,0.4325714409351349,0.6311699748039246,-0.8825376629829407
1788861363282491600,1.89749169921875,0.05601033940911293,0.9423022270202637,-0.5504236817359924
1788861363292497700,1.90749755859375,-0.3743269443511963,0.9727749228477478,-0.23012930154800415
1788861363302503700,1.917503662109375,-0.692569375038147,0.9040629863739014,0.07714978605508804
1788861363312509700,1.927509765625,-0.6581432223320007,0.7326707243919373,0.1908521205186844
1788861363322515700,1.937515625,-0.34031108021736145,0.31423670053482056,-0.08818522840738297
1788861363332521700,1.947521728515625,-0.036897122859954834,-0.003124724607914686,-0.29925328493118286
1788861363342527700,1.95752783203125,0.099884994328022,-0.08111247420310974,-0.28136536478996277
1788861363352533500,1.967533447265625,-0.03896236792206764,-0.0325409471988678,-0.1971740573644638
1788861363362539800,1.977539794921875,-0.04896481707692146,-0.01473291590809822,-0.13656862080097198
1788861363372545800,1.9875458984375,0.010091843083500862,-0.023435059934854507,0.007142477668821812
1788861363382551600,1.997551513671875,0.022507021203637123,0.03487326204776764,0.14757253229618073
1788861363392557600,2.0075576171875,-0.02823418751358986,0.09796034544706345,0.1392887681722641
1788861363402563600,2.0175634765625,-0.049174219369888306,0.02739272080361843,0.025326846167445183
1788861363412569900,2.02756982421875,-0.028943249955773354,-0.0015451882500201464,-0.028871677815914154
1788861363422575600,2.03757568359375,-0.027888888493180275,-0.037933576852083206,-0.0425804927945137
1788861363432581600,2.04758154296875,-0.0365191288292408,-0.06289725005626678,-0.017854109406471252
1788861363442587600,2.057587646484375,-0.04023725911974907,-0.09217923134565353,0.006430756766349077
1788861363452594000,2.067593994140625,-0.03441638872027397,-0.1347101777791977,0.020238714292645454
1788861363462599700,2.077599609375,-0.0297662653028965,-0.1610746830701828,0.014219796285033226
1788861363472605700,2.087605712890625,-0.034142106771469116,-0.15384793281555176,0.004485143348574638
1788861363482611700,2.09761181640625,-0.03596780076622963,-0.14443416893482208,0.0024005495943129063
1788861363492617700,2.10761767578125,-0.02747684344649315,-0.10542232543230057,0.004067155532538891
1788861363502623700,2.117623779296875,-0.005209804512560368,-0.04256187006831169,-0.017191195860505104
1788861363512629800,2.127629638671875,0.03519940376281738,-0.013553386554121971,-0.05013237148523331
1788861363522635800,2.1376357421875,0.07482872158288956,-0.026992235332727432,-0.06993204355239868
1788861363532641500,2.1476416015625,0.11099445074796677,-0.07056767493486404,-0.08220921456813812
1788861363542647600,2.1576474609375,0.14315265417099,-0.14290818572044373,-0.08902504295110703
1788861363552653800,2.16765380859375,0.16469363868236542,-0.19344858825206757,-0.08434081077575684
1788861363562659800,2.177659912109375,0.16603069007396698,-0.21692034602165222,-0.061670076102018356
1788861363572665600,2.18766552734375,0.1583261638879776,-0.20822378993034363,-0.044076431542634964
1788861363582671600,2.197671630859375,0.14470551908016205,-0.1624257117509842,-0.02951209805905819
1788861363592677600,2.207677734375,0.137818843126297,-0.12089476734399796,-0.03345969691872597
1788861363602684000,2.217683837890625,0.12409108132123947,-0.052883751690387726,-0.0745057612657547
1788861363612689200,2.227689208984375,0.09047319740056992,0.052843477576971054,-0.13124068081378937
1788861363622695200,2.237695068359375,0.01900055818259716,0.20749109983444214,-0.23903584480285645
1788861363632701200,2.247701171875,-0.04333418980240822,0.4405171573162079,-0.2892627716064453
1788861363642707200,2.257707275390625,-0.0534278079867363,0.5321597456932068,-0.29976996779441833
1788861363652713000,2.267712890625,-0.07478289306163788,0.4770030081272125,-0.3344261944293976
1788861363662719200,2.27771923828125,-0.11240042001008987,0.38566112518310547,-0.3685956597328186
1788861363672725200,2.287725341796875,-0.11789745092391968,0.34480637311935425,-0.37835535407066345
1788861363682731300,2.297731201171875,-0.16799436509609222,0.32683590054512024,-0.35971519351005554
1788861363692737000,2.307737060546875,-0.25626644492149353,0.40104299783706665,-0.3335629403591156
1788861363702743000,2.317742919921875,-0.28958943486213684,0.4609238803386688,-0.36250001192092896
1788861363712749300,2.327749267578125,-0.3085833787918091,0.28794732689857483,-0.4458763897418976
1788861363722755000,2.337755126953125,-0.40610912442207336,0.15618877112865448,-0.591505229473114
1788861363732761000,2.347760986328125,-0.5548991560935974,0.3182910978794098,-0.71882164478302
1788861363742767000,2.35776708984375,-0.6780974864959717,0.5918859243392944,-0.8357916474342346
1788861363752773000,2.367773193359375,-0.7305812239646912,0.6593605875968933,-0.9998498558998108
1788861363762779100,2.377779052734375,-0.7065566778182983,0.42795372009277344,-1.2207297086715698
1788861363772785200,2.38778515625,-0.6595058441162109,0.07035455852746964,-1.3861674070358276
1788861363782791200,2.397791259765625,-0.6567719578742981,-0.15499946475028992,-1.4410476684570312
1788861363792797200,2.407797119140625,-0.7043469548225403,-0.16891208291053772,-1.4072787761688232
1788861363802803000,2.417802978515625,-0.775165319442749,-0.04699603468179703,-1.3936423063278198
1788861363812809200,2.427809326171875,-0.8396953344345093,0.05078325420618057,-1.5126286745071411
1788861363822815200,2.437815185546875,-0.8777661323547363,0.05640333145856857,-1.696316123008728
1788861363832821200,2.4478212890625,-0.8890696167945862,0.07101450115442276,-1.8102253675460815
1788861363842827000,2.457826904296875,-0.8880407214164734,0.14688022434711456,-1.8014146089553833
1788861363852833000,2.4678330078125,-0.9289567470550537,0.30454763770103455,-1.719674825668335
1788861363862840000,2.477840087890625,-1.0259493589401245,0.39187267422676086,-1.6318801641464233
1788861363872846000,2.48784619140625,-1.1351646184921265,0.2886243164539337,-1.5128147602081299
1788861363882852000,2.49785205078125,-1.1782227754592896,-0.13967376947402954,-1.3851817846298218
1788861363892858000,2.507858154296875,-1.1446592807769775,-0.7089776992797852,-1.2774041891098022
1788861363902864100,2.517864013671875,-1.0923610925674438,-1.1928602457046509,-1.2102283239364624
1788861363912870100,2.5278701171875,-1.0821197032928467,-1.4250484704971313,-1.1665096282958984
1788861363922876200,2.537876220703125,-1.1176421642303467,-1.444321632385254,-1.1395156383514404
1788861363932882200,2.547882080078125,-1.175610899925232,-1.3043938875198364,-1.1364831924438477
1788861363942888200,2.55788818359375,-1.2435784339904785,-1.0728472471237183,-1.1725919246673584
1788861363952894200,2.567894287109375,-1.246924877166748,-0.7960678339004517,-1.2284845113754272
1788861363962900200,2.577900146484375,-1.1448345184326172,-0.6222707629203796,-1.2306967973709106
1788861363972906200,2.58790625,-1.0036132335662842,-0.6191647052764893,-1.1747161149978638
1788861363982912000,2.597912109375,-0.901456892490387,-0.6587672829627991,-1.1589155197143555
1788861363992918300,2.607918212890625,-0.8493766188621521,-0.7124485969543457,-1.148781180381775
1788861364002924300,2.61792431640625,-0.7380272150039673,-0.6408212780952454,-1.1360019445419312
1788861364012930000,2.627929931640625,-0.5637328624725342,-0.5017816424369812,-1.1134964227676392
1788861364022936000,2.63793603515625,-0.40032970905303955,-0.4160861670970917,-1.0692580938339233
1788861364032942000,2.647942138671875,-0.3003876507282257,-0.3951798379421234,-0.9954606294631958
1788861364042948400,2.6579482421875,-0.2620013356208801,-0.4129796028137207,-0.9393507242202759
1788861364052954000,2.6679541015625,-0.2912611961364746,-0.43713581562042236,-0.9096737504005432
1788861364062960000,2.677960205078125,-0.35037142038345337,-0.41958874464035034,-0.866202175617218
1788861364072966100,2.687966064453125,-0.420594722032547,-0.37105903029441833,-0.7656158804893494
1788861364082972200,2.69797216796875,-0.5105547904968262,-0.36201411485671997,-0.6272874474525452
1788861364092978200,2.707978271484375,-0.6276153922080994,-0.40006351470947266,-0.49458053708076477
1788861364102984200,2.717984130859375,-0.7255129218101501,-0.41682732105255127,-0.3923530578613281
1788861364112990200,2.727990234375,-0.7564644813537598,-0.37443193793296814,-0.33753907680511475
1788861364122996000,2.737995849609375,-0.7215283513069153,-0.30843159556388855,-0.3247823119163513
1788861364133002000,2.748001953125,-0.6486770510673523,-0.3235463500022888,-0.30340006947517395
1788861364143008300,2.75800830078125,-0.5674569606781006,-0.39592868089675903,-0.24096202850341797
1788861364153014300,2.76801416015625,-0.5008147954940796,-0.4399195611476898,-0.12414352595806122
1788861364163020000,2.77802001953125,-0.4527718722820282,-0.45932602882385254,-0.006217439193278551
1788861364173026000,2.788026123046875,-0.4212315082550049,-0.47600939869880676,0.06866345554590225
1788861364183032000,2.798031982421875,-0.42593228816986084,-0.42602425813674927,0.06512900441884995
1788861364193038300,2.808038330078125,-0.4445778727531433,-0.40231573581695557,0.03959701210260391
1788861364203044000,2.818044189453125,-0.4664645493030548,-0.4242870807647705,0.01802647113800049
1788861364213050000,2.828050048828125,-0.5020866990089417,-0.5217700004577637,0.0004418852040544152
1788861364223056100,2.83805615234375,-0.5196995735168457,-0.574720561504364,-0.005252108909189701
1788861364233062100,2.848062255859375,-0.48161426186561584,-0.48809537291526794,0.05477447807788849
1788861364243068200,2.858068115234375,-0.4663095772266388,-0.30457454919815063,0.11100222915410995
1788861364253074200,2.86807421875,-0.4818944036960602,-0.24760526418685913,0.05511712655425072
1788861364263080200,2.878080078125,-0.4402499794960022,-0.4907079339027405,-0.13637402653694153
1788861364273086000,2.8880859375,-0.4235737919807434,-0.9326645731925964,-0.2612144649028778
1788861364283092200,2.89809228515625,-0.4469991624355316,-1.0301849842071533,-0.20718252658843994
1788861364293098200,2.90809814453125,-0.4833225607872009,-0.7682127952575684,-0.12187614291906357
1788861364303104300,2.918104248046875,-0.5224688649177551,-0.4959716498851776,-0.1126786544919014
1788861364313110000,2.928110107421875,-0.5403064489364624,-0.3628162741661072,-0.12751272320747375
1788861364323116000,2.938115966796875,-0.4811600148677826,-0.4277295172214508,-0.041340671479701996
1788861364333123300,2.948123291015625,-0.45006147027015686,-0.5434494614601135,0.04211027920246124
1788861364343129000,2.958129150390625,-0.5038117170333862,-0.5165040493011475,0.015706533566117287
1788861364353135000,2.968135009765625,-0.6066755056381226,-0.4232950508594513,-0.05683184787631035
1788861364363141000,2.97814111328125,-0.6571159362792969,-0.46672454476356506,-0.056825488805770874
1788861364373147100,2.988147216796875,-0.6463919281959534,-0.5854429602622986,0.016642868518829346
1788861364383153200,2.998153076171875,-0.6160060167312622,-0.6235024333000183,0.059945058077573776
1788861364393159200,3.0081591796875,-0.5674794912338257,-0.6064491271972656,0.035017337650060654
1788861364403165200,3.018165283203125,-0.5028793811798096,-0.592573344707489,0.0240680743008852
1788861364413171000,3.0281708984375,-0.4517565667629242,-0.5743871331214905,0.05724014341831207
1788861364423177200,3.03817724609375,-0.4483412206172943,-0.4795359671115875,0.05923588201403618
1788861364433183200,3.048183349609375,-0.5080016255378723,-0.36793407797813416,-0.023773783817887306
1788861364443189200,3.058189208984375,-0.5710986852645874,-0.3121062219142914,-0.12017102539539337
1788861364453195000,3.068195068359375,-0.5663382411003113,-0.3775283694267273,-0.19238132238388062
1788861364463201000,3.078200927734375,-0.4720425605773926,-0.5309354662895203,-0.2340405434370041
1788861364473207300,3.088207275390625,-0.3645150363445282,-0.6493867635726929,-0.2376725673675537
1788861364483213300,3.09821337890625,-0.28565990924835205,-0.6216248869895935,-0.2314804494380951
1788861364493219000,3.108218994140625,-0.23091596364974976,-0.5496093034744263,-0.2518373727798462
1788861364503225000,3.11822509765625,-0.21252194046974182,-0.43586140871047974,-0.30553722381591797
1788861364513231000,3.128231201171875,-0.1876046061515808,-0.3717045485973358,-0.4093802571296692
1788861364523237000,3.138237060546875,-0.1447577327489853,-0.4304642975330353,-0.4735880494117737
1788861364533243100,3.1482431640625,-0.06986483931541443,-0.4737299978733063,-0.495717853307724
1788861364543249200,3.158249267578125,-0.024519329890608788,-0.5167434811592102,-0.500618577003479
1788861364553255200,3.168255126953125,0.01523846946656704,-0.4700303375720978,-0.49141281843185425
1788861364563261000,3.178260986328125,0.027886629104614258,-0.3747842609882355,-0.48551106452941895
1788861364573267200,3.18826708984375,0.037614356726408005,-0.3633904457092285,-0.5343151092529297
1788861364583273200,3.198273193359375,0.05046672374010086,-0.41136112809181213,-0.6108683347702026
1788861364593279200,3.208279296875,0.064857117831707,-0.4231131374835968,-0.6706216931343079
1788861364603285000,3.218284912109375,0.09256432205438614,-0.4047671854496002,-0.7195868492126465
1788861364613291300,3.228291259765625,0.13230668008327484,-0.41946089267730713,-0.7551844716072083
1788861364623297300,3.23829736328125,0.18200363218784332,-0.3480450510978699,-0.7788313627243042
1788861364633303000,3.248302978515625,0.24359163641929626,-0.2823754847049713,-0.7761205434799194
1788861364643310300,3.258310302734375,0.29448404908180237,-0.21470239758491516,-0.7704366445541382
1788861364653316400,3.26831640625,0.3289778232574463,-0.16590237617492676,-0.8133761286735535
1788861364663322000,3.278322021484375,0.3582020699977875,-0.17922458052635193,-0.8393258452415466
1788861364673328000,3.288328125,0.34556323289871216,-0.15795524418354034,-0.8918963670730591
1788861364683334400,3.29833447265625,0.32137012481689453,-0.10948757827281952,-0.9378786683082581
1788861364693340400,3.30834033203125,0.32034215331077576,-0.0375145822763443,-0.942665696144104
1788861364703346200,3.31834619140625,0.3417690694332123,0.0013380099553614855,-0.9588316082954407
1788861364713352200,3.328352294921875,0.3325340151786804,0.01724853366613388,-0.9703479409217834
1788861364723358200,3.338358154296875,0.31353285908699036,0.04054824262857437,-0.9227012991905212
1788861364733364200,3.3483642578125,0.3327835202217102,0.10707959532737732,-0.8720421195030212
1788861364743370200,3.358370361328125,0.32219019532203674,0.11950352042913437,-0.8602319359779358
1788861364753376300,3.368376220703125,0.295497328042984,0.1400359570980072,-0.8279248476028442
1788861364763382300,3.37838232421875,0.2842991054058075,0.17454254627227783,-0.7767596244812012
1788861364773388300,3.38838818359375,0.2925029695034027,0.1040838211774826,-0.6597486138343811
1788861364783394300,3.398394287109375,0.30280938744544983,0.08262673020362854,-0.5979465246200562
1788861364793400300,3.408400390625,0.28547006845474243,0.15280528366565704,-0.6015202403068542
1788861364803406300,3.41840625,0.25593605637550354,0.16618366539478302,-0.5422940254211426
1788861364813412000,3.428412109375,0.24923714995384216,0.13108320534229279,-0.5159785151481628
1788861364823418400,3.43841845703125,0.2686481773853302,0.14382164180278778,-0.581706702709198
1788861364833424400,3.44842431640625,0.2933351695537567,0.18836727738380432,-0.6822237372398376
1788861364843430400,3.458430419921875,0.3002353310585022,0.21565058827400208,-0.7217223644256592
1788861364853436200,3.468436279296875,0.27444154024124146,0.2955472767353058,-0.7388035655021667
1788861364863442200,3.478442138671875,0.2257958948612213,0.37155094742774963,-0.7421355843544006
1788861364873448400,3.488448486328125,0.1790931075811386,0.3922650218009949,-0.6798892617225647
1788861364883454200,3.4984541015625,0.12398839741945267,0.4001176357269287,-0.6252619028091431
1788861364893460200,3.508460205078125,0.08656273037195206,0.3395248353481293,-0.5603103637695312
1788861364903466200,3.51846630859375,0.021762046962976456,0.3778589367866516,-0.4740336835384369
1788861364913473300,3.528473388671875,-0.045031096786260605,0.49746760725975037,-0.3610421419143677
1788861364923479300,3.538479248046875,-0.05439847707748413,0.6200622320175171,-0.25187578797340393
1788861364933485300,3.5484853515625,-0.047865476459264755,0.6951285004615784,-0.17190267145633698
1788861364943491300,3.5584912109375,-0.06437595933675766,0.6538318991661072,-0.07088951766490936
1788861364953497000,3.5684970703125,-0.09681539237499237,0.6012816429138184,0.07571670413017273
1788861364963503400,3.57850341796875,-0.10577347874641418,0.7149479985237122,0.15760596096515656
1788861364973509400,3.58850927734375,-0.07701665908098221,0.8328253626823425,0.18240424990653992
1788861364983515100,3.59851513671875,-0.05948866158723831,0.9680039882659912,0.20579954981803894
1788861364993521200,3.608521240234375,-0.02222384884953499,1.0979268550872803,0.22901564836502075
1788861365003527200,3.618527099609375,0.011435733176767826,1.129868745803833,0.28395920991897583
1788861365013533400,3.628533447265625,0.020050259307026863,1.057847023010254,0.3250134289264679
1788861365023539200,3.638539306640625,0.022024840116500854,0.9459497928619385,0.40754440426826477
1788861365033545200,3.648545166015625,0.007809152826666832,0.9258168339729309,0.48597848415374756
1788861365043551200,3.65855126953125,0.02148250862956047,0.9407142996788025,0.5262880325317383
1788861365053557200,3.66855712890625,0.09597884863615036,0.8162336349487305,0.5830807089805603
1788861365063563300,3.678563232421875,0.19992657005786896,0.6948078870773315,0.6516929864883423
1788861365073569300,3.6885693359375,0.2750200033187866,0.6475170850753784,0.7392979860305786
1788861365083575300,3.6985751953125,0.29708370566368103,0.7252781987190247,0.8011001944541931
1788861365093581300,3.708581298828125,0.28926652669906616,0.8696073889732361,0.8031851649284363
1788861365103587000,3.718587158203125,0.31763437390327454,0.9363951683044434,0.7867240905761719
1788861365113593300,3.72859326171875,0.37523162364959717,0.9213171601295471,0.7562383413314819
1788861365123599400,3.738599365234375,0.43090498447418213,0.8741006255149841,0.7652669548988342
1788861365133605000,3.748605224609375,0.47020071744918823,0.7823179960250854,0.7994632720947266
1788861365143612400,3.7586123046875,0.4804235100746155,0.7189741730690002,0.8260695934295654
1788861365153618400,3.768618408203125,0.46251988410949707,0.7346394658088684,0.8215441703796387
1788861365163624200,3.778624267578125,0.4761435389518738,0.7063724398612976,0.7998388409614563
1788861365173630200,3.788630126953125,0.5375337600708008,0.654437243938446,0.8061188459396362
1788861365183636200,3.79863623046875,0.6104750633239746,0.574186384677887,0.8270432949066162
1788861365193642500,3.808642578125,0.6777523159980774,0.49100786447525024,0.8537207245826721
1788861365203648300,3.818648193359375,0.7390360832214355,0.49342575669288635,0.869674801826477
1788861365213654300,3.828654296875,0.7602458000183105,0.5615339279174805,0.8324533700942993
1788861365223660300,3.838660400390625,0.7632439732551575,0.6337738037109375,0.8086791038513184
1788861365233666300,3.848666259765625,0.7852583527565002,0.6782589554786682,0.8394152522087097
1788861365243672300,3.85867236328125,0.8250451683998108,0.6668707728385925,0.8826364874839783
1788861365253678300,3.86867822265625,0.8702465295791626,0.6108948588371277,0.8992289900779724
1788861365263684400,3.878684326171875,0.9167298674583435,0.5476809740066528,0.87400883436203
1788861365273690000,3.888690185546875,0.9827360510826111,0.4879172742366791,0.8232290744781494
1788861365283696000,3.898696044921875,1.0747220516204834,0.4330628216266632,0.8185067176818848
1788861365293702400,3.908702392578125,1.1729952096939087,0.4363001585006714,0.8756959438323975
1788861365303708400,3.91870849609375,1.2274563312530518,0.42602649331092834,0.8994156718254089
1788861365313714200,3.928714111328125,1.2359038591384888,0.320811927318573,0.9100942015647888
1788861365323720200,3.93872021484375,1.2167824506759644,0.2643803358078003,0.9520243406295776
1788861365333726200,3.948726318359375,1.1862372159957886,0.3012014627456665,0.9828813076019287
1788861365343733200,3.958733154296875,1.1498823165893555,0.32442182302474976,0.9656392335891724
1788861365353739300,3.9687392578125,1.1317577362060547,0.27610117197036743,0.9631249308586121
1788861365363745300,3.978745361328125,1.146979808807373,0.1914464682340622,0.9979082345962524
1788861365373751000,3.9887509765625,1.18940007686615,0.14682094752788544,1.0478535890579224
1788861365383757300,3.99875732421875,1.2202426195144653,0.12755510210990906,1.0725733041763306
1788861365393763300,4.008763427734375,1.2053354978561401,0.09104234725236893,1.1049119234085083
1788861365403769300,4.018769287109375,1.1621066331863403,0.11355274170637131,1.1480720043182373
1788861365413775000,4.028775146484375,1.0988399982452393,0.15595212578773499,1.2085038423538208
1788861365423781000,4.038781005859375,1.0265682935714722,0.10309796780347824,1.2486143112182617
1788861365433787400,4.048787353515625,0.9990501999855042,0.058367785066366196,1.2763053178787231
1788861365443793400,4.05879345703125,1.0299650430679321,0.10165293514728546,1.3279869556427002
1788861365453799200,4.068799072265625,1.067121982574463,0.18989145755767822,1.358167052268982
1788861365463805200,4.07880517578125,1.0603183507919312,0.21273872256278992,1.3827006816864014
1788861365473811500,4.0888115234375,1.0269149541854858,0.23002634942531586,1.4045926332473755
1788861365483817200,4.098817138671875,0.9809800386428833,0.27281588315963745,1.4208276271820068
1788861365493823200,4.1088232421875,0.9395769834518433,0.3076942563056946,1.4108386039733887
1788861365503829200,4.118829345703125,0.8999606370925903,0.2930428683757782,1.3681836128234863
1788861365513835300,4.128835205078125,0.8404642939567566,0.1976066380739212,1.297316551208496
1788861365523841300,4.13884130859375,0.7751076817512512,0.08691128343343735,1.2397124767303467
1788861365533848300,4.148848388671875,0.7330658435821533,0.05638320744037628,1.2223566770553589
1788861365543854300,4.158854248046875,0.7166125774383545,-0.029881376773118973,1.2193169593811035
1788861365553860000,4.168860107421875,0.691170871257782,-0.17256741225719452,1.1819459199905396
1788861365563866400,4.178866455078125,0.6177225112915039,-0.25208860635757446,1.1172659397125244
1788861365573872400,4.188872314453125,0.4876004159450531,-0.16511270403862,1.0431668758392334
1788861365583878400,4.19887841796875,0.320801317691803,-0.029122108593583107,0.955182671546936
1788861365593884200,4.20888427734375,0.14729496836662292,0.051051825284957886,0.8443233966827393
1788861365603890200,4.21889013671875,0.007101999595761299,-0.004933936987072229,0.7324720621109009
1788861365613896200,4.228896240234375,-0.08212827891111374,-0.17751236259937286,0.6171177625656128
1788861365623902200,4.238902099609375,-0.1282116174697876,-0.3083827495574951,0.4839964509010315
1788861365633908000,4.248907958984375,-0.17442959547042847,-0.272188276052475,0.3414473235607147
1788861365643914200,4.258914306640625,-0.2378583699464798,-0.15745583176612854,0.2265300750732422
1788861365653920300,4.268920166015625,-0.2978772819042206,-0.06451524794101715,0.1664188951253891
1788861365663926000,4.278926025390625,-0.3580753803253174,0.005305648315697908,0.11481988430023193
1788861365673932000,4.28893212890625,-0.4608793556690216,-0.03005181811749935,0.024776747450232506
1788861365683939300,4.298939208984375,-0.5900346636772156,-0.14453019201755524,-0.11209002137184143
1788861365693945000,4.308945068359375,-0.7102779746055603,-0.21010571718215942,-0.2677758038043976
1788861365703951000,4.318951171875,-0.7889191508293152,-0.3456569015979767,-0.37556833028793335
1788861365713957000,4.32895703125,-0.7785788774490356,-0.5147463083267212,-0.4341040551662445
1788861365723963100,4.338963134765625,-0.7239657044410706,-0.4393410384654999,-0.42895030975341797
1788861365733969200,4.34896923828125,-0.6802628040313721,-0.15140168368816376,-0.3880588412284851
1788861365743975200,4.35897509765625,-0.6696381568908691,0.09976743161678314,-0.3633630871772766
1788861365753981200,4.368981201171875,-0.669867992401123,0.19156046211719513,-0.37554827332496643
1788861365763987000,4.378987060546875,-0.6440765857696533,0.14820340275764465,-0.4325407147407532
1788861365773993200,4.3889931640625,-0.6633245348930359,-0.1570371687412262,-0.5837725400924683
1788861365783999200,4.398999267578125,-0.7602678537368774,-1.3107422590255737,-1.1007349491119385
1788861365794005200,4.409005126953125,-0.7783514261245728,-1.1796784400939941,-0.9754253625869751
1788861365804011000,4.419010986328125,-0.6461704969406128,-0.8983190059661865,-0.794466495513916
1788861365814017000,4.42901708984375,-0.5344956517219543,-0.47194769978523254,-0.5077721476554871
1788861365824023300,4.439023193359375,-0.4154088795185089,0.180708110332489,-0.23504739999771118
1788861365834029300,4.449029296875,-0.15649254620075226,0.5350161194801331,0.030884554609656334
1788861365844036000,4.4590361328125,-0.23003466427326202,0.24296963214874268,-0.014118872582912445
1788861365854042000,4.4690419921875,-0.6355115175247192,-0.11210349202156067,-0.4883732199668884
1788861365864048000,4.479048095703125,-0.6144842505455017,-0.041215475648641586,-0.9872666001319885
1788861365874054100,4.48905419921875,-0.369325190782547,0.22306625545024872,-1.0990586280822754
1788861365884060200,4.49906005859375,-0.26611199975013733,0.15893839299678802,-0.8777278065681458
1788861365894066200,4.509066162109375,-0.3028717637062073,-0.2056577205657959,-0.5105985403060913
1788861365904072000,4.519072021484375,-0.3115110397338867,-0.18569332361221313,-0.3303517997264862
1788861365914078200,4.529078125,-0.3774277865886688,0.01632159948348999,-0.30953890085220337
1788861365924084200,4.539084228515625,-0.5049894452095032,0.09012498706579208,-0.3412281274795532
1788861365934090200,4.54909033203125,-0.5690860748291016,0.10160770267248154,-0.38957998156547546
1788861365944096000,4.559095947265625,-0.5800836086273193,0.28235673904418945,-0.4922997057437897
1788861365954102000,4.56910205078125,-0.5794845223426819,0.678925096988678,-0.6952108144760132
1788861365964108300,4.5791083984375,-0.48662295937538147,0.9639989137649536,-0.9528271555900574
1788861365974114300,4.5891142578125,-0.2622125744819641,0.71095871925354,-1.1785203218460083
1788861365984121000,4.59912109375,-0.25904691219329834,0.4229884147644043,-1.2188137769699097
1788861365994127000,4.609127197265625,-0.380899578332901,0.19469159841537476,-1.0918217897415161
1788861366004133000,4.619133056640625,-0.43510809540748596,0.09630826860666275,-0.9450160264968872
1788861366014139100,4.62913916015625,-0.41627341508865356,0.03968707099556923,-0.8561002612113953
1788861366024145200,4.639145263671875,-0.42640700936317444,-0.006262312643229961,-0.858209490776062
1788861366034151200,4.649151123046875,-0.48152855038642883,-0.044758282601833344,-0.9348278045654297
1788861366044157000,4.659156982421875,-0.5262541770935059,-0.12781588733196259,-1.0408618450164795
1788861366054163200,4.6691630859375,-0.5559490919113159,-0.24465249478816986,-1.0744366645812988
1788861366064169200,4.679169189453125,-0.5675655603408813,-0.27014878392219543,-1.0696971416473389
1788861366074175200,4.68917529296875,-0.5683894753456116,-0.2968882620334625,-1.0861388444900513
1788861366084181000,4.699180908203125,-0.5945595502853394,-0.2524251937866211,-1.0852197408676147
1788861366094187300,4.709187255859375,-0.6333173513412476,-0.10205940902233124,-1.055561900138855
1788861366104193300,4.719193359375,-0.6568108797073364,-0.024701468646526337,-1.022772192955017
1788861366114200000,4.729199951171875,-0.6758623719215393,-0.06873364001512527,-1.0004112720489502
1788861366124206000,4.7392060546875,-0.6979569792747498,-0.15566347539424896,-1.0327694416046143
1788861366134212400,4.74921240234375,-0.7214347720146179,-0.23699907958507538,-1.0837222337722778
1788861366144218000,4.759218017578125,-0.7278865575790405,-0.3970244526863098,-1.1137454509735107
1788861366154224000,4.76922412109375,-0.7130920886993408,-0.6666399240493774,-1.1241841316223145
1788861366164230100,4.779230224609375,-0.6760799884796143,-0.928999125957489,-1.1542494297027588
1788861366174236200,4.789236083984375,-0.615272045135498,-1.1061373949050903,-1.197903037071228
1788861366184242200,4.7992421875,-0.5403429865837097,-1.2038445472717285,-1.2222286462783813
1788861366194248200,4.809248291015625,-0.5094693899154663,-1.1780365705490112,-1.2256128787994385
1788861366204254200,4.819254150390625,-0.5017703771591187,-1.0672909021377563,-1.2529774904251099
1788861366214260200,4.82926025390625,-0.474174439907074,-1.0022916793823242,-1.283595085144043
1788861366224266000,4.839265869140625,-0.411035418510437,-0.9794489741325378,-1.2873895168304443
1788861366234272300,4.849272216796875,-0.32889100909233093,-0.9853579998016357,-1.2816282510757446
1788861366244279000,4.859279052734375,-0.2546474039554596,-1.0520325899124146,-1.277624249458313
1788861366254285000,4.86928515625,-0.19079752266407013,-1.103021264076233,-1.2854541540145874
1788861366264291000,4.879291015625,-0.13103166222572327,-1.0936485528945923,-1.3134673833847046
1788861366274297300,4.88929736328125,-0.05203136429190636,-1.065302848815918,-1.3212895393371582
1788861366284303000,4.89930322265625,0.01973283663392067,-0.9677430391311646,-1.2659974098205566
1788861366294309000,4.90930908203125,-0.0038410918787121773,-0.8499159812927246,-1.2075995206832886
1788861366304315100,4.919315185546875,-0.06489662081003189,-0.6895180940628052,-1.2067710161209106
1788861366314321200,4.929321044921875,-0.08759794384241104,-0.5610613226890564,-1.2818444967269897
1788861366324327200,4.9393271484375,-0.0512537844479084,-0.8204180598258972,-1.3728071451187134
1788861366334333200,4.949333251953125,-0.026656175032258034,-1.1990774869918823,-1.4662177562713623
1788861366344339200,4.959339111328125,-0.05426143482327461,-1.3420995473861694,-1.4965112209320068
1788861366354345000,4.969344970703125,-0.10337493568658829,-1.0778697729110718,-1.5254559516906738
1788861366364352300,4.979352294921875,-0.10352353751659393,-0.7249692678451538,-1.5197021961212158
1788861366374358300,4.989358154296875,-0.0753869116306305,-0.5312549471855164,-1.3067364692687988
1788861366384364000,4.999364013671875,-0.07164356857538223,-0.47572562098503113,-1.0531567335128784
1788861366394370000,5.0093701171875,-0.08287487179040909,-0.36616793274879456,-0.9353930950164795
1788861366404376000,5.0193759765625,-0.13150472939014435,-0.21714679896831512,-0.8458389639854431
1788861366414382300,5.02938232421875,-0.2280443161725998,-0.14582841098308563,-0.7505947351455688
1788861366424388000,5.03938818359375,-0.33236968517303467,-0.06623371690511703,-0.6790769100189209
1788861366434394000,5.04939404296875,-0.3711572289466858,-0.037246543914079666,-0.5407167673110962
1788861366444400000,5.059400146484375,-0.35167139768600464,0.04005436599254608,-0.3708563446998596
1788861366454406100,5.06940625,-0.31295841932296753,0.20215407013893127,-0.30739825963974
1788861366464412200,5.079412109375,-0.25211530923843384,0.34601137042045593,-0.29633787274360657
1788861366474419200,5.089419189453125,-0.197083979845047,0.41801849007606506,-0.19423283636569977
1788861366484425000,5.099425048828125,-0.15867453813552856,0.4077991247177124,-0.07998509705066681
1788861366494431200,5.10943115234375,-0.12181766331195831,0.2532199025154114,-0.03363892808556557
1788861366504437200,5.119437255859375,-0.08645513653755188,0.17844554781913757,-0.006901676766574383
1788861366514443300,5.129443359375,-0.02897426299750805,0.18808698654174805,-0.0032068071886897087
1788861366524449000,5.139448974609375,0.04290604963898659,0.27364373207092285,0.01662042737007141
1788861366534455000,5.149455078125,0.03840649873018265,0.35960760712623596,0.007144942879676819
1788861366544461300,5.15946142578125,0.08065488934516907,0.3736336827278137,0.016693441197276115
1788861366554467300,5.16946728515625,0.15107634663581848,0.30471402406692505,0.03254520148038864
1788861366564473000,5.17947314453125,0.24845749139785767,0.3337501883506775,0.06681129336357117
1788861366574479000,5.18947900390625,0.3332825005054474,0.35632580518722534,0.13624243438243866
1788861366584486100,5.199486083984375,0.41997477412223816,0.33192434906959534,0.23343609273433685
1788861366594492200,5.2094921875,0.49740150570869446,0.27844882011413574,0.3565037250518799
1788861366604498200,5.219498291015625,0.5526832938194275,0.2467503398656845,0.4711184501647949
1788861366614504700,5.229504638671875,0.5889734029769897,0.2909279465675354,0.5998290181159973
1788861366624510700,5.2395107421875,0.6079114079475403,0.383908748626709,0.719558835029602
1788861366634516700,5.249516845703125,0.6127644777297974,0.4860515892505646,0.7947508096694946
1788861366644522800,5.259522705078125,0.6146572232246399,0.5075340270996094,0.8873329162597656
1788861366654528800,5.26952880859375,0.6143798828125,0.577577531337738,1.0184757709503174
1788861366664534800,5.27953466796875,0.6311125159263611,0.6410127282142639,1.146499514579773
1788861366674540800,5.289540771484375,0.6605408787727356,0.6072052121162415,1.2414344549179077
1788861366684546800,5.299546875,0.6921432614326477,0.5283077359199524,1.3184988498687744
1788861366694553900,5.309553955078125,0.712493360042572,0.4003460109233856,1.3783332109451294
1788861366704559900,5.319559814453125,0.7271217703819275,0.31275567412376404,1.4316679239273071
1788861366714565600,5.329565673828125,0.7543216943740845,0.304951012134552,1.461565375328064
1788861366724571600,5.339571533203125,0.8033742308616638,0.2857014238834381,1.466262936592102
1788861366734577700,5.34957763671875,0.8490043878555298,0.22076985239982605,1.4572477340698242
1788861366744584000,5.359583984375,0.8882713913917542,0.18911339342594147,1.4377951622009277
1788861366754589700,5.369589599609375,0.8994989395141602,0.1505524218082428,1.3896028995513916
1788861366764595700,5.379595703125,0.870383620262146,0.05629541724920273,1.3560394048690796
1788861366774601700,5.389601806640625,0.8279059529304504,-0.015857575461268425,1.3556385040283203
1788861366784608000,5.39960791015625,0.7921551465988159,-0.019760172814130783,1.3757344484329224
1788861366794613800,5.40961376953125,0.7522786855697632,-0.02777578867971897,1.402164101600647
1788861366804620800,5.419620849609375,0.699585497379303,-0.037032660096883774,1.4384031295776367
1788861366814626800,5.429626708984375,0.6382212042808533,-0.006101907696574926,1.5075422525405884
1788861366824632800,5.4396328125,0.5962889194488525,0.05235793814063072,1.6171283721923828
1788861366834638800,5.449638916015625,0.5982735753059387,0.07408405095338821,1.6957364082336426
1788861366844644900,5.459644775390625,0.6295462846755981,-0.007351954933255911,1.7151710987091064
1788861366854650600,5.469650634765625,0.6411179304122925,-0.15553133189678192,1.7046246528625488
1788861366864656600,5.47965673828125,0.6357202529907227,-0.18241406977176666,1.7520939111709595
1788861366874663000,5.489662841796875,0.623553991317749,-0.08369841426610947,1.835300326347351
1788861366884669000,5.4996689453125,0.5966427326202393,-0.028744883835315704,1.8942468166351318
1788861366894675700,5.50967578125,0.5511698722839355,-0.06876447796821594,1.9547672271728516
1788861366904681700,5.519681640625,0.5274328589439392,-0.10741493105888367,2.0075087547302246
1788861366914687700,5.529687744140625,0.5343022346496582,-0.08162488043308258,2.0583713054656982
1788861366924693800,5.53969384765625,0.5721877813339233,-0.030686330050230026,2.0738401412963867
1788861366934699800,5.54969970703125,0.6266680359840393,0.0764547735452652,2.0357983112335205
1788861366944705800,5.559705810546875,0.6660321950912476,0.246394544839859,2.0097463130950928
1788861366954711600,5.569711669921875,0.6951184868812561,0.39178532361984253,2.0384573936462402
1788861366964717800,5.5797177734375,0.7008139491081238,0.405723512172699,2.063135862350464
1788861366974723800,5.589723876953125,0.6586347818374634,0.2980490028858185,2.0367517471313477
1788861366984729900,5.599729736328125,0.5513285994529724,0.21747183799743652,1.9494036436080933
1788861366994736600,5.609736572265625,0.4239824116230011,0.25847116112709045,1.7990776300430298
1788861367004743000,5.619742919921875,0.33313265442848206,0.33366236090660095,1.5892637968063354
1788861367014749000,5.6297490234375,0.2789791226387024,0.3639552593231201,1.36239755153656
1788861367024754700,5.639754638671875,0.25403836369514465,0.40684202313423157,1.160446047782898
1788861367034760700,5.6497607421875,0.2495051473379135,0.4535360336303711,0.9838685989379883
1788861367044766700,5.6597666015625,0.2573425769805908,0.3974541127681732,0.7839267253875732
1788861367054772700,5.669772705078125,0.2278151512145996,0.20819814503192902,0.5626903772354126
1788861367064778800,5.67977880859375,0.13894148170948029,-0.0024155392311513424,0.37247568368911743
1788861367074784800,5.68978466796875,0.023552292957901955,-0.11795808374881744,0.20210076868534088
1788861367084790800,5.699790771484375,-0.1286873072385788,-0.0951656848192215,0.006906770169734955
1788861367094797800,5.7097978515625,-0.26665279269218445,0.022939613088965416,-0.20913423597812653
1788861367104803800,5.719803955078125,-0.3421038091182709,0.08606987446546555,-0.4078007638454437
1788861367114809900,5.729809814453125,-0.39873218536376953,0.0383010171353817,-0.5926608443260193
1788861367124815600,5.739815673828125,-0.48049336671829224,-0.005723698064684868,-0.7532574534416199
1788861367134821600,5.749821533203125,-0.5477178692817688,0.017310259863734245,-0.885643720626831
1788861367144828000,5.759827880859375,-0.5631522536277771,0.09712839126586914,-0.9911925196647644
1788861367154834000,5.769833984375,-0.5782392621040344,0.1789228469133377,-1.0463699102401733
1788861367164839700,5.779839599609375,-0.6161072850227356,0.16741639375686646,-1.0491979122161865
1788861367174845700,5.789845703125,-0.6800784468650818,0.1924751251935959,-1.0342210531234741
1788861367184852700,5.799852783203125,-0.7486865520477295,0.3367342948913574,-1.0711028575897217
1788861367194858800,5.809858642578125,-0.7896137833595276,0.47713643312454224,-1.1990710496902466
1788861367204864800,5.81986474609375,-0.8137624263763428,0.5039770603179932,-1.3713120222091675
1788861367214870800,5.829870849609375,-0.8324468731880188,0.40909242630004883,-1.5133416652679443
1788861367224876800,5.839876708984375,-0.8148532509803772,0.2740219533443451,-1.5144623517990112
1788861367234882800,5.8498828125,-0.7668589353561401,0.11843926459550858,-1.3342130184173584
1788861367244888800,5.859888916015625,-0.7333558201789856,-0.01674412004649639,-1.058939814567566
1788861367254894800,5.869894775390625,-0.7342644333839417,-0.06019650772213936,-0.7863285541534424
1788861367264900600,5.879900634765625,-0.7491446137428284,-0.038390278816223145,-0.647156298160553
1788861367274908000,5.889907958984375,-0.7828881740570068,-0.03577668219804764,-0.6964885592460632
1788861367284913700,5.89991357421875,-0.8363466262817383,-0.10049708932638168,-0.863120973110199
1788861367294919700,5.909919677734375,-0.8753519654273987,-0.19097794592380524,-1.0617263317108154
1788861367304925700,5.91992578125,-0.8764963150024414,-0.18000918626785278,-1.208065390586853
1788861367314932000,5.929931884765625,-0.856374204158783,-0.07395332306623459,-1.171220064163208
1788861367324937700,5.939937744140625,-0.8261428475379944,0.018916426226496696,-0.9948354363441467
1788861367334943700,5.94994384765625,-0.7947925925254822,0.06468496471643448,-0.8808405995368958
1788861367344949800,5.95994970703125,-0.7486125826835632,0.05705873668193817,-0.8954278230667114
1788861367354956800,5.969956787109375,-0.6876841187477112,0.00940786488354206,-0.9755867719650269
1788861367364962800,5.979962890625,-0.6402220726013184,-0.05219424515962601,-1.0426933765411377
1788861367374968800,5.98996875,-0.623694896697998,-0.14209428429603577,-1.055637240409851
1788861367384974600,5.999974609375,-0.6536563038825989,-0.2412824034690857,-1.0371572971343994
1788861367394980600,6.009980712890625,-0.6984149813652039,-0.3775922954082489,-0.9894108772277832
1788861367404987000,6.01998681640625,-0.7105909585952759,-0.49756184220314026,-0.9442771673202515
1788861367414993000,6.029992919921875,-0.7062443494796753,-0.4794853925704956,-0.9470670223236084
1788861367424998700,6.03999853515625,-0.7198504209518433,-0.3642597198486328,-0.9824820160865784
1788861367435004700,6.050004638671875,-0.7690907716751099,-0.30283230543136597,-0.9826191663742065
1788861367445012000,6.060011962890625,-0.8177070021629333,-0.35045841336250305,-0.95097416639328
1788861367455017700,6.070017822265625,-0.8540670275688171,-0.429853618144989,-0.9407120943069458
1788861367465023700,6.080023681640625,-0.8725104928016663,-0.4837181866168976,-0.9624022245407104
1788861367475029800,6.09002978515625,-0.8447534441947937,-0.5301586389541626,-0.9974282383918762
1788861367485035800,6.100035888671875,-0.7858347296714783,-0.5848104357719421,-1.0463929176330566
1788861367495041800,6.110041748046875,-0.7230895757675171,-0.6651518940925598,-1.0590174198150635
1788861367505047800,6.1200478515625,-0.6705869436264038,-0.697874128818512,-1.0292747020721436
1788861367515053800,6.1300537109375,-0.6166368722915649,-0.657898485660553,-1.0063128471374512
1788861367525059600,6.1400595703125,-0.5591528415679932,-0.6780219078063965,-1.003474473953247
1788861367535067000,6.15006689453125,-0.5120331645011902,-0.7676737308502197,-1.0316039323806763
1788861367545073000,6.160072998046875,-0.4949636161327362,-0.8929134011268616,-1.0812950134277344
1788861367555078700,6.17007861328125,-0.47447142004966736,-0.9730758666992188,-1.1235440969467163
1788861367565084700,6.180084716796875,-0.4309452474117279,-0.967583417892456,-1.1351171731948853
1788861367575091000,6.190091064453125,-0.387490838766098,-0.8958282470703125,-1.1329576969146729
1788861367585097000,6.200096923828125,-0.32081839442253113,-0.8748779296875,-1.1430679559707642
1788861367595102700,6.210102783203125,-0.2354334592819214,-1.0028884410858154,-1.197006106376648
1788861367605108700,6.220108642578125,-0.16982676088809967,-1.2059054374694824,-1.1763782501220703
1788861367615115800,6.23011572265625,-0.1048756092786789,-1.2912343740463257,-1.0846034288406372
1788861367625121800,6.240121826171875,-0.02916434407234192,-1.2281835079193115,-1.0656100511550903
1788861367635127800,6.2501279296875,0.027903655543923378,-1.3512042760849,-1.1634091138839722
1788861367645134000,6.260134033203125,0.03758317977190018,-1.450414776802063,-1.2436586618423462
1788861367655139800,6.270139892578125,-0.0008719083853065968,-1.2695480585098267,-1.2354775667190552
1788861367665145900,6.280145751953125,-0.06739181280136108,-0.8585131168365479,-1.2726491689682007
1788861367675152000,6.29015185546875,-0.10739505290985107,-0.5666785836219788,-1.308297038078308
1788861367685158000,6.300157958984375,-0.12953375279903412,-0.41728588938713074,-1.2770310640335083
1788861367695164000,6.310163818359375,-0.18073275685310364,-0.3281131386756897,-1.1877890825271606
1788861367705171000,6.3201708984375,-0.20580749213695526,-0.29414212703704834,-1.0212472677230835
1788861367715176700,6.3301767578125,-0.16245238482952118,-0.1254953145980835,-0.7940772175788879
1788861367725183000,6.340182861328125,-0.12178459018468857,0.08954987674951553,-0.6764834523200989
1788861367735189000,6.35018896484375,-0.13872066140174866,0.18178392946720123,-0.6561978459358215
1788861367745195000,6.360195068359375,-0.16177858412265778,0.14706642925739288,-0.4739763140678406
1788861367755200800,6.37020068359375,-0.14402639865875244,0.11090737581253052,-0.28056633472442627
1788861367765206800,6.380206787109375,-0.09421437233686447,0.143673837184906,-0.18705233931541443
1788861367775214000,6.390214111328125,-0.014023086056113243,0.2403700351715088,-0.05316485837101936
1788861367785219800,6.4002197265625,0.042822085320949554,0.25873520970344543,0.0277321208268404
1788861367795225900,6.410225830078125,0.05905140936374664,0.43009838461875916,0.005577178671956062
1788861367805231900,6.42023193359375,0.04188413918018341,0.5820338726043701,0.002471666317433119
1788861367815238000,6.43023779296875,0.021239835768938065,0.5842384099960327,0.060492709279060364
1788861367825244000,6.440243896484375,0.00860659871250391,0.5525020956993103,0.16320283710956573
1788861367835250000,6.45025,0.020472528412938118,0.5404800176620483,0.2694520652294159
1788861367845256000,6.460255859375,0.08026981353759766,0.5357468128204346,0.37647998332977295
1788861367855263000,6.470262939453125,0.17420610785484314,0.471054345369339,0.4833138585090637
1788861367865269000,6.48026904296875,0.26908040046691895,0.41583824157714844,0.5909409523010254
1788861367875275000,6.49027490234375,0.3317243456840515,0.37732040882110596,0.7052611708641052
1788861367885280800,6.50028076171875,0.3933130204677582,0.40253573656082153,0.8265097141265869
1788861367895286800,6.510286865234375,0.4878873825073242,0.4906933605670929,0.954404354095459
1788861367905293000,6.52029296875,0.5887948274612427,0.5931062698364258,1.0655194520950317
1788861367915298800,6.530298828125,0.6627395749092102,0.6672625541687012,1.1970595121383667
1788861367925304800,6.540304931640625,0.7182318568229675,0.7278651595115662,1.3293308019638062
1788861367935312000,6.550311767578125,0.7533891201019287,0.783399760723114,1.4462865591049194
1788861367945318000,6.56031787109375,0.7619088292121887,0.7477940917015076,1.543761968612671
1788861367955324000,6.570323974609375,0.7456021308898926,0.7050673961639404,1.5882818698883057
1788861367965330000,6.580329833984375,0.7373793721199036,0.7032707929611206,1.6116628646850586
1788861367975336000,6.5903359375,0.7573670744895935,0.7001903653144836,1.6120970249176025
1788861367985341700,6.600341796875,0.7999672889709473,0.6282157897949219,1.5744132995605469
1788861367995348000,6.610347900390625,0.8415665030479431,0.5387186408042908,1.5451546907424927
1788861368005354000,6.62035400390625,0.8946585059165955,0.5473510026931763,1.577268123626709
1788861368015360800,6.63036083984375,0.9665728211402893,0.5972203016281128,1.6422123908996582
1788861368025366800,6.64036669921875,1.053731918334961,0.5809241533279419,1.7607989311218262
1788861368035373000,6.650373046875,1.1250485181808472,0.5439856052398682,1.848628044128418
1788861368045378800,6.66037890625,1.1447912454605103,0.501785933971405,1.8505572080612183
1788861368055384800,6.670384765625,1.1003742218017578,0.4903487265110016,1.814021110534668
1788861368065390800,6.680390869140625,1.0395556688308716,0.465928852558136,1.8064111471176147
1788861368075396900,6.69039697265625,1.013649821281433,0.4415883719921112,1.8370262384414673
1788861368085403000,6.70040283203125,1.007827877998352,0.43919631838798523,1.8951289653778076
1788861368095410000,6.710409912109375,1.0112524032592773,0.39895838499069214,1.9461216926574707
1788861368105416000,6.720416015625,1.0102777481079102,0.34053581953048706,2.002227544784546
1788861368115422000,6.730421875,1.0047146081924438,0.3934312164783478,2.0579922199249268
1788861368125428000,6.740427978515625,0.9794577956199646,0.5068241357803345,2.0849838256835938
1788861368135434000,6.75043408203125,0.9200658798217773,0.5607286095619202,2.0828869342803955
1788861368145439700,6.760439697265625,0.8460747003555298,0.5479129552841187,2.0747015476226807
1788861368155445800,6.77044580078125,0.7890024185180664,0.5473350882530212,2.0683391094207764
1788861368165453000,6.780453125,0.7817479372024536,0.6162614226341248,2.0874133110046387
1788861368175458800,6.790458740234375,0.8179223537445068,0.6309825778007507,2.0976405143737793
1788861368185464800,6.80046484375,0.8306000232696533,0.5547775626182556,2.061976671218872
1788861368195470800,6.810470947265625,0.7791877388954163,0.5193045139312744,1.9782437086105347
1788861368205477000,6.82047705078125,0.6620139479637146,0.5022421479225159,1.8394120931625366
1788861368215483000,6.83048291015625,0.5420899391174316,0.4509081244468689,1.6598341464996338
1788861368225489000,6.840489013671875,0.4781380891799927,0.42518386244773865,1.4353222846984863
1788861368235495700,6.85049560546875,0.4613693356513977,0.5088733434677124,1.1777398586273193
1788861368245502000,6.860501953125,0.43097999691963196,0.6794216632843018,0.9250431060791016
1788861368255508000,6.870508056640625,0.3653389811515808,0.7106800675392151,0.7129693627357483
1788861368265514000,6.880513916015625,0.29500728845596313,0.5008482336997986,0.5326264500617981
1788861368275519700,6.890519775390625,0.2310618758201599,0.286045104265213,0.37251201272010803
1788861368285525800,6.90052587890625,0.15395963191986084,0.25535857677459717,0.19773542881011963
1788861368295532000,6.910531982421875,0.06778334081172943,0.16543562710285187,-0.0036251640412956476
1788861368305538000,6.9205380859375,0.0013547844719141722,-0.029305893927812576,-0.20219098031520844
1788861368315544800,6.930544921875,-0.0496697872877121,-0.11552625894546509,-0.3664795160293579
1788861368325550800,6.94055078125,-0.09167555719614029,-0.09719385951757431,-0.49998754262924194
1788861368335556900,6.950556884765625,-0.13281527161598206,-0.08417792618274689,-0.5919153094291687
1788861368345563000,6.96056298828125,-0.16110257804393768,-0.10503900051116943,-0.6323807239532471
1788861368355569000,6.97056884765625,-0.17294436693191528,-0.062249742448329926,-0.6327570080757141
1788861368365575000,6.980574951171875,-0.19487468898296356,0.05426594987511635,-0.6363187432289124
1788861368375580700,6.99058056640625,-0.23445604741573334,0.14333485066890717,-0.6655759811401367
1788861368385588000,7.000587890625,-0.30127742886543274,0.10812892764806747,-0.6963115334510803
1788861368395594000,7.010593994140625,-0.36469390988349915,0.055385831743478775,-0.7469310164451599
1788861368405599700,7.020599853515625,-0.41831159591674805,0.10904613137245178,-0.8343439698219299
1788861368415605800,7.030605712890625,-0.45076343417167664,0.20874585211277008,-0.9374665021896362
1788861368425612000,7.040612060546875,-0.4636467397212982,0.19867296516895294,-0.9936903715133667
1788861368435618000,7.0506181640625,-0.4663800299167633,0.10333018749952316,-1.0092227458953857
1788861368445623800,7.060623779296875,-0.4718831777572632,0.00527312932536006,-0.9909063577651978
1788861368455630800,7.070630859375,-0.4885222613811493,-0.010953730903565884,-0.9637041091918945
1788861368465636900,7.080636962890625,-0.5088253617286682,0.018387645483016968,-0.9435271620750427
1788861368475643000,7.090642822265625,-0.5324352979660034,0.03056785836815834,-0.9287646412849426
1788861368485649000,7.10064892578125,-0.5688979625701904,0.00884418934583664,-0.921036958694458
1788861368495655000,7.110655029296875,-0.6092624068260193,-0.002931266790255904,-0.9362634420394897
1788861368505661000,7.120660888671875,-0.6248373985290527,0.028904162347316742,-0.9567999243736267
1788861368515667000,7.1306669921875,-0.6138522028923035,0.05219776928424835,-0.9713694453239441
1788861368525674000,7.140674072265625,-0.5885228514671326,0.0005835774354636669,-0.9805328249931335
1788861368535679700,7.1506796875,-0.5571896433830261,-0.1285049021244049,-0.9996907114982605
1788861368545686000,7.16068603515625,-0.545392632484436,-0.2862497866153717,-1.026349425315857
1788861368555692000,7.170692138671875,-0.5509563088417053,-0.3677159249782562,-1.000208854675293
1788861368565697800,7.18069775390625,-0.575255274772644,-0.3360210955142975,-0.954858660697937
1788861368575703800,7.190703857421875,-0.6172308325767517,-0.19189633429050446,-0.956976592540741
1788861368585709800,7.200709716796875,-0.6648287177085876,-0.05794413387775421,-1.011803388595581
1788861368595716900,7.210716796875,-0.6883901357650757,-0.10389994829893112,-1.0945920944213867
1788861368605723000,7.220722900390625,-0.6910434365272522,-0.2890178859233856,-1.1841020584106445
1788861368615728600,7.230728759765625,-0.7023230791091919,-0.47900617122650146,-1.2463887929916382
1788861368625734700,7.240734619140625,-0.7233956456184387,-0.5443559288978577,-1.2558952569961548
1788861368635740400,7.250740478515625,-0.7241306304931641,-0.5148345232009888,-1.2552273273468018
1788861368645746400,7.260746337890625,-0.7034000158309937,-0.48346832394599915,-1.2972416877746582
1788861368655752400,7.27075244140625,-0.675514280796051,-0.4830182194709778,-1.3568823337554932
1788861368665759500,7.280759521484375,-0.6559081077575684,-0.5497536063194275,-1.4252361059188843
1788861368675765500,7.290765625,-0.6458361744880676,-0.6220375895500183,-1.4952551126480103
1788861368685771500,7.300771484375,-0.6423174738883972,-0.6713380813598633,-1.5509966611862183
1788861368695777500,7.310777587890625,-0.6432090997695923,-0.7197743058204651,-1.5492945909500122
1788861368705783600,7.320783447265625,-0.6373640298843384,-0.758846640586853,-1.4814479351043701
1788861368715789600,7.33078955078125,-0.5915040373802185,-0.8302088975906372,-1.4327995777130127
1788861368725795600,7.340795654296875,-0.5163542032241821,-0.9203569293022156,-1.483218789100647
1788861368735802400,7.35080224609375,-0.43981799483299255,-1.0208302736282349,-1.5749847888946533
1788861368745808600,7.36080859375,-0.4393053352832794,-1.132306456565857,-1.5763970613479614
1788861368755814700,7.370814697265625,-0.5017043948173523,-1.2276772260665894,-1.5793673992156982
1788861368765820400,7.3808203125,-0.5326173305511475,-1.3138331174850464,-1.5835334062576294
1788861368775826400,7.390826416015625,-0.5203812122344971,-1.4062961339950562,-1.5672762393951416
1788861368785832400,7.40083251953125,-0.4795165956020355,-1.5132601261138916,-1.5052552223205566
1788861368795838700,7.410838623046875,-0.43460899591445923,-1.56672203540802,-1.4424641132354736
1788861368805845500,7.420845458984375,-0.4104754328727722,-1.4842746257781982,-1.4312689304351807
1788861368815851500,7.4308515625,-0.40739843249320984,-1.3819570541381836,-1.4629039764404297
1788861368825857300,7.440857177734375,-0.37183672189712524,-1.317301869392395,-1.4990155696868896
1788861368835863600,7.450863525390625,-0.30111730098724365,-1.4167799949645996,-1.4892652034759521
1788861368845869600,7.46086962890625,-0.2797715365886688,-1.436185598373413,-1.5330792665481567
1788861368855875600,7.47087548828125,-0.29987671971321106,-1.0782400369644165,-1.5523360967636108
1788861368865882600,7.480882568359375,-0.3051881194114685,-0.6252599954605103,-1.4795944690704346
1788861368875888600,7.490888671875,-0.29025113582611084,-0.3678090572357178,-1.403572678565979
1788861368885894700,7.500894775390625,-0.2696997821331024,-0.3157208263874054,-1.3170489072799683
1788861368895900400,7.510900390625,-0.25503385066986084,-0.3732544481754303,-1.2056082487106323
1788861368905906400,7.520906494140625,-0.25736862421035767,-0.3906787037849426,-1.046836495399475
1788861368915912700,7.53091259765625,-0.24209308624267578,-0.25670546293258667,-0.8926832675933838
1788861368925918500,7.54091845703125,-0.19741857051849365,-0.09770514816045761,-0.7688186168670654
1788861368935925500,7.550925537109375,-0.14552584290504456,0.01970243826508522,-0.6597028374671936
1788861368945931500,7.560931640625,-0.093067966401577,0.11307579278945923,-0.5277916789054871
1788861368955937500,7.5709375,-0.053910184651613235,0.2295883297920227,-0.37118181586265564
1788861368965943600,7.580943603515625,-0.020861424505710602,0.29011425375938416,-0.17149397730827332
1788861368975949600,7.590949462890625,0.009032391011714935,0.2695801556110382,0.020741267129778862
1788861368985955600,7.60095556640625,0.008971937000751495,0.28375643491744995,0.13417701423168182
1788861368995961300,7.61096142578125,0.009032742120325565,0.3236205279827118,0.21541140973567963
1788861369005968600,7.62096875,0.023993050679564476,0.3487604856491089,0.28512659668922424
1788861369015974400,7.630974365234375,0.05430147424340248,0.41459861397743225,0.3327268064022064
1788861369025980400,7.64098046875,0.10533855855464935,0.45329540967941284,0.38461023569107056
1788861369035986400,7.650986328125,0.18248626589775085,0.5051615834236145,0.46584397554397583
1788861369045992700,7.66099267578125,0.2631677985191345,0.5370726585388184,0.5894631743431091
1788861369055998500,7.67099853515625,0.3377750813961029,0.5420029759407043,0.7470512986183167
1788861369066004500,7.68100439453125,0.4080130159854889,0.5419952273368835,0.9225932955741882
1788861369076011500,7.691011474609375,0.46330925822257996,0.5439649224281311,1.0917774438858032
1788861369086017500,7.701017578125,0.4908945560455322,0.5591763257980347,1.2572557926177979
1788861369096023600,7.7110234375,0.5101138353347778,0.638054370880127,1.4215353727340698
1788861369106029600,7.721029541015625,0.5694913864135742,0.7109062075614929,1.545175552368164
1788861369116035600,7.73103564453125,0.659841001033783,0.7185364365577698,1.5829955339431763
1788861369126041300,7.741041259765625,0.7265982031822205,0.715901255607605,1.5647536516189575
1788861369136048600,7.751048583984375,0.7728748321533203,0.7570324540138245,1.5756303071975708
1788861369146054400,7.761054443359375,0.8242538571357727,0.8021527528762817,1.6013020277023315
1788861369156060400,7.771060302734375,0.8528868556022644,0.8232404589653015,1.6291513442993164
1788861369166066400,7.78106640625,0.8658654093742371,0.7900037169456482,1.7258354425430298
1788861369176072700,7.79107275390625,0.897629976272583,0.6882632374763489,1.8729517459869385
1788861369186078500,7.801078369140625,0.9212008714675903,0.5907356142997742,2.018531084060669
1788861369196084500,7.81108447265625,0.9167675971984863,0.5579882860183716,2.150599479675293
1788861369206091500,7.821091552734375,0.9031082391738892,0.5645450353622437,2.272632122039795
1788861369216097500,7.83109765625,0.8987084627151489,0.5303130149841309,2.288844347000122
1788861369226103600,7.841103515625,0.8822940587997437,0.3833842873573303,2.1838529109954834
1788861369236109600,7.851109619140625,0.8372395038604736,0.23248901963233948,2.0709686279296875
1788861369246115300,7.861115234375,0.7972870469093323,0.19348596036434174,2.045978307723999
1788861369256121600,7.87112158203125,0.7789829969406128,0.2320312261581421,2.0924813747406006
1788861369266128600,7.881128662109375,0.779352605342865,0.29238882660865784,2.1886191368103027
1788861369276134400,7.891134521484375,0.8054115772247314,0.39250800013542175,2.304638624191284
1788861369286140400,7.901140380859375,0.8468620777130127,0.4843124747276306,2.3913521766662598
1788861369296146700,7.911146728515625,0.8627122640609741,0.5251193046569824,2.4371726512908936
1788861369306152700,7.921152587890625,0.8397720456123352,0.5736618041992188,2.4240527153015137
1788861369316158500,7.931158447265625,0.7965021133422852,0.6434808373451233,2.3735523223876953
1788861369326165500,7.94116552734375,0.7518870234489441,0.6508567333221436,2.302605628967285
1788861369336171500,7.951171630859375,0.739853024482727,0.6154273748397827,2.219759464263916
1788861369346177500,7.961177490234375,0.7497498393058777,0.6402573585510254,2.1341676712036133
1788861369356183600,7.97118359375,0.7625866532325745,0.7077861428260803,2.03690767288208
1788861369366189600,7.981189453125,0.7557815909385681,0.7113296985626221,1.9238654375076294
1788861369376195300,7.9911953125,0.7232955694198608,0.6187374591827393,1.8079047203063965
1788861369386201600,8.00120166015625,0.6645920276641846,0.5093079209327698,1.6804189682006836
1788861369396208600,8.011208740234375,0.5914055109024048,0.4490621089935303,1.5236791372299194
1788861369406214400,8.02121435546875,0.5375433564186096,0.4638053774833679,1.341826319694519
1788861369416220400,8.031220458984375,0.5177574753761292,0.46357470750808716,1.1653351783752441
1788861369426226700,8.041226806640625,0.48684191703796387,0.4025571644306183,1.004608392715454
1788861369436232400,8.051232421875,0.4060743749141693,0.4114811420440674,0.826476514339447
1788861369446238500,8.061238525390625,0.2890351116657257,0.4467826783657074,0.5937143564224243
1788861369456245500,8.07124560546875,0.1673070192337036,0.37055209279060364,0.32951831817626953
1788861369466251500,8.08125146484375,0.06731065362691879,0.2027529925107956,0.07412879168987274
1788861369476257500,8.091257568359374,0.02876831777393818,0.04737938567996025,-0.1428583860397339
1788861369486263600,8.101263671875,0.00948330294340849,-0.04541260004043579,-0.32315438985824585
1788861369496269600,8.11126953125,-0.052364740520715714,-0.15722672641277313,-0.4642367959022522
1788861369506275300,8.121275390625,-0.1099231019616127,-0.22040942311286926,-0.5621548295021057
1788861369516282600,8.13128271484375,-0.1748085767030716,-0.15145620703697205,-0.6187984943389893
1788861369526288400,8.141288330078124,-0.25442591309547424,-0.03602096065878868,-0.6751024723052979
1788861369536294400,8.15129443359375,-0.3325926959514618,-0.003982098773121834,-0.7507862448692322
1788861369546300400,8.161300537109375,-0.412155419588089,-0.0509653203189373,-0.833647608757019
1788861369556306700,8.171306640625,-0.482530802488327,-0.032713327556848526,-0.9165005087852478
1788861369566312400,8.1813125,-0.5435594916343689,0.038511067628860474,-0.9600682854652405
1788861369576319500,8.191319580078124,-0.5773456692695618,0.05613160505890846,-0.9492920637130737
1788861369586325500,8.201325439453125,-0.5898047685623169,0.019383978098630905,-0.9340646862983704
1788861369596331500,8.21133154296875,-0.5713858008384705,-0.048949822783470154,-0.9604297876358032
1788861369606337500,8.221337646484375,-0.5150889158248901,-0.09042029827833176,-1.0165666341781616
1788861369616343600,8.231343505859375,-0.45403143763542175,-0.09430158883333206,-1.0228077173233032
1788861369626349300,8.241349365234376,-0.4251481294631958,-0.05687672272324562,-0.9573420882225037
1788861369636355000,8.25135498046875,-0.45392531156539917,-0.0282748993486166,-0.8573944568634033
1788861369646362400,8.2613623046875,-0.5385707020759583,-0.00716988043859601,-0.7919619083404541
1788861369656368000,8.2713681640625,-0.6352716684341431,0.0255739726126194,-0.8043645024299622
1788861369666374100,8.2813740234375,-0.709284782409668,0.03169337287545204,-0.9017223119735718
1788861369676380200,8.291380126953126,-0.7518823146820068,0.0212098378688097,-1.0326144695281982
1788861369686386400,8.301386474609375,-0.7851014733314514,-0.0027343768160790205,-1.1016851663589478
1788861369696393200,8.311393310546874,-0.7958210110664368,-0.0030690988060086966,-1.0905132293701172
1788861369706399200,8.321399169921875,-0.7848266363143921,0.02779400907456875,-1.0499337911605835
1788861369716405200,8.3314052734375,-0.7743020057678223,0.0028979936614632607,-1.0081350803375244
1788861369726411300,8.341411376953126,-0.7686592936515808,-0.06374308466911316,-0.9615271091461182
1788861369736417300,8.351417236328125,-0.7612801790237427,-0.16832919418811798,-0.9669740796089172
1788861369746423300,8.36142333984375,-0.7665066123008728,-0.2950487732887268,-1.0484057664871216
1788861369756429300,8.37142919921875,-0.76712965965271,-0.36083152890205383,-1.128023386001587
1788861369766436400,8.381436279296874,-0.7528494596481323,-0.2957358658313751,-1.1630098819732666
1788861369776442400,8.3914423828125,-0.753925085067749,-0.19238151609897614,-1.2010598182678223
1788861369786448100,8.4014482421875,-0.7713906168937683,-0.19073913991451263,-1.2289117574691772
1788861369796454100,8.4114541015625,-0.8015759587287903,-0.26581183075904846,-1.208422303199768
1788861369806460400,8.42146044921875,-0.8028095364570618,-0.371834933757782,-1.192516565322876
1788861369816466400,8.431466552734374,-0.7803069353103638,-0.5050342082977295,-1.1706202030181885
1788861369826473200,8.44147314453125,-0.7592431902885437,-0.638963520526886,-1.1642872095108032
1788861369836479200,8.451479248046875,-0.740278422832489,-0.7154051065444946,-1.2014622688293457
1788861369846485500,8.461485595703126,-0.7245181202888489,-0.7144016027450562,-1.2469167709350586
1788861369856491300,8.4714912109375,-0.7147831320762634,-0.715162992477417,-1.2676805257797241
1788861369866497300,8.481497314453126,-0.6915358304977417,-0.8351818323135376,-1.3184376955032349
1788861369876503300,8.49150341796875,-0.6493808031082153,-0.9570187926292419,-1.3901194334030151
1788861369886510300,8.50151025390625,-0.6207611560821533,-0.9275756478309631,-1.4221439361572266
1788861369896516400,8.511516357421876,-0.6176334619522095,-0.8501434922218323,-1.432222604751587
1788861369906522400,8.5215224609375,-0.5858083963394165,-0.8864420652389526,-1.4282318353652954
1788861369916528000,8.531528076171876,-0.5149206519126892,-1.0057027339935303,-1.4352349042892456
1788861369926534100,8.5415341796875,-0.44822725653648376,-1.0723559856414795,-1.4386343955993652
1788861369936540400,8.55154052734375,-0.39739903807640076,-1.0766353607177734,-1.4305514097213745
1788861369946547200,8.561547119140625,-0.34698912501335144,-1.0778484344482422,-1.4327610731124878
1788861369956553200,8.57155322265625,-0.32437998056411743,-1.2065448760986328,-1.4605026245117188
1788861369966559200,8.581559326171876,-0.3049381971359253,-1.4527294635772705,-1.5225342512130737
1788861369976565200,8.591565185546875,-0.26864251494407654,-1.5840022563934326,-1.5687075853347778
1788861369986571300,8.6015712890625,-0.23852989077568054,-1.5804210901260376,-1.530423879623413
1788861369996577300,8.611577392578125,-0.24842983484268188,-1.5473248958587646,-1.5089082717895508
1788861370006584000,8.621583984375,-0.25537800788879395,-1.360857605934143,-1.5265601873397827
1788861370016590300,8.63159033203125,-0.23711074888706207,-1.0791468620300293,-1.520673155784607
1788861370026596400,8.641596435546875,-0.2271510511636734,-0.8569802641868591,-1.4996826648712158
1788861370036602400,8.651602294921876,-0.2334260791540146,-0.7430636286735535,-1.4762177467346191
1788861370046608100,8.661608154296875,-0.2208104133605957,-0.6923967003822327,-1.4252251386642456
1788861370056614100,8.6716142578125,-0.1728641837835312,-0.6032063364982605,-1.3265886306762695
1788861370066621200,8.68162109375,-0.08324068784713745,-0.444023072719574,-1.2117687463760376
1788861370076627200,8.691627197265625,-0.0022243971470743418,-0.24450647830963135,-1.121321439743042
1788861370086633200,8.70163330078125,0.041535332798957825,-0.035928502678871155,-1.0089874267578125
1788861370096639200,8.71163916015625,0.07670637220144272,0.08946936577558517,-0.8006603121757507
1788861370106645200,8.721645263671874,0.09588778764009476,0.08520804345607758,-0.5609739422798157
1788861370116651300,8.7316513671875,0.08045952767133713,0.03970232605934143,-0.38137543201446533
1788861370126658300,8.741658203125,0.0357101634144783,-0.020021723583340645,-0.26438677310943604
1788861370136664000,8.7516640625,-0.004034022800624371,0.030350634828209877,-0.16409523785114288
1788861370146670300,8.76167041015625,0.003121092449873686,0.1526496410369873,-0.04960647225379944
1788861370156676400,8.77167626953125,0.04823834076523781,0.19243115186691284,0.03575810790061951
1788861370166682400,8.781682373046875,0.09999222308397293,0.2802686393260956,0.10695120692253113
1788861370176688000,8.791688232421874,0.15977992117404938,0.34170135855674744,0.22363415360450745
1788861370186695400,8.8016953125,0.21940331161022186,0.38513219356536865,0.3448857367038727
1788861370196701200,8.811701171875,0.2772819995880127,0.4392167031764984,0.4665634334087372
1788861370206707200,8.821707275390626,0.3379916846752167,0.4627175033092499,0.5912020206451416
1788861370216713200,8.831713134765625,0.38054317235946655,0.4905845522880554,0.7467229962348938
1788861370226719500,8.841719482421874,0.42468559741973877,0.5026257634162903,0.9290019869804382
1788861370236725200,8.851725341796875,0.49102282524108887,0.5016641020774841,1.0659226179122925
1788861370246732300,8.861732177734375,0.554970383644104,0.5442078113555908,1.188722848892212
1788861370256738300,8.87173828125,0.5885584950447083,0.62429279088974,1.3190144300460815
1788861370266744300,8.881744384765625,0.625633716583252,0.698708176612854,1.4520044326782227
1788861370276750300,8.891750244140624,0.6760764122009277,0.7765931487083435,1.5698820352554321
1788861370286756400,8.90175634765625,0.7159430980682373,0.8538487553596497,1.681740164756775
1788861370296762000,8.91176220703125,0.7510319352149963,0.8596294522285461,1.7745805978775024
1788861370306769400,8.921769287109376,0.7876192331314087,0.8362948298454285,1.8078227043151855
1788861370316775400,8.931775390625,0.819692850112915,0.7804744243621826,1.7881492376327515
1788861370326781200,8.94178125,0.8345103859901428,0.6932204961776733,1.7772225141525269
1788861370336787200,8.951787109375,0.8442316055297852,0.6429160237312317,1.8223589658737183
1788861370346793200,8.961793212890624,0.8448755741119385,0.5854958891868591,1.868608832359314
1788861370356800300,8.97180029296875,0.8234410881996155,0.5041996836662292,1.904581069946289
1788861370366806300,8.98180615234375,0.7741060256958008,0.46210289001464844,1.9676079750061035
1788861370376812300,8.991812255859376,0.7544545531272888,0.4815540313720703,2.0354743003845215
1788861370386818000,9.001818115234375,0.7610421180725098,0.5299983024597168,2.0965843200683594
1788861370396824300,9.01182421875,0.774276614189148,0.543967604637146,2.146953821182251
1788861370406830300,9.021830322265625,0.7778790593147278,0.5340257883071899,2.1817076206207275
1788861370416837000,9.031837158203125,0.7846869826316833,0.5653907060623169,2.231038808822632
1788861370426843100,9.041843017578126,0.7989055514335632,0.556045651435852,2.2825276851654053
1788861370436849400,9.051849365234375,0.832307755947113,0.44160643219947815,2.3183465003967285
1788861370446855400,9.06185546875,0.8477726578712463,0.3790513575077057,2.363680362701416
1788861370456861200,9.071861083984375,0.8498731255531311,0.3526536226272583,2.3895926475524902
1788861370466867200,9.0818671875,0.8403101563453674,0.31731003522872925,2.3834168910980225
1788861370476874200,9.091874267578126,0.8104537129402161,0.30638495087623596,2.3635640144348145
1788861370486880300,9.10188037109375,0.7532615065574646,0.31929275393486023,2.357835292816162
1788861370496886300,9.11188623046875,0.678600013256073,0.3171832263469696,2.3561911582946777
1788861370506892300,9.121892333984375,0.6285600066184998,0.3827020525932312,2.352964162826538
1788861370516898000,9.13189794921875,0.5873140692710876,0.5170007348060608,2.319956064224243
1788861370526904300,9.141904296875,0.5496329665184021,0.599632203578949,2.253532648086548
1788861370536911400,9.151911376953125,0.5295593738555908,0.562872052192688,2.1326897144317627
1788861370546917000,9.161917236328126,0.5373621582984924,0.4528326392173767,1.9570364952087402
1788861370556923100,9.171923095703125,0.5527400970458984,0.36619845032691956,1.7471569776535034
1788861370566929400,9.181929443359374,0.5559262633323669,0.35770830512046814,1.5208948850631714
1788861370576935200,9.19193505859375,0.5266181826591492,0.45000094175338745,1.302823543548584
1788861370586941200,9.201941162109375,0.4467443823814392,0.5630981922149658,1.0753099918365479
1788861370596948500,9.211948486328126,0.32762449979782104,0.6085801720619202,0.8145740032196045
1788861370606954200,9.221954345703125,0.22767312824726105,0.5546215772628784,0.5415856242179871
1788861370616960300,9.231960205078124,0.17373192310333252,0.4100574851036072,0.29592546820640564
1788861370626967300,9.24196728515625,0.14579004049301147,0.14770656824111938,0.10579867660999298
1788861370636973000,9.25197314453125,0.10145149379968643,-0.12442722171545029,-0.048194050788879395
1788861370646980400,9.26198046875,0.0026029457803815603,-0.36282089352607727,-0.19546979665756226
1788861370656986000,9.271986083984375,-0.12446514517068863,-0.4609221816062927,-0.3263373076915741
1788861370666992000,9.2819921875,-0.2268405258655548,-0.3523551821708679,-0.44627007842063904
1788861370676998100,9.291998046875,-0.3061276376247406,-0.20472978055477142,-0.5779053568840027
1788861370687004200,9.302004150390625,-0.3787216544151306,-0.00654000137001276,-0.7287468314170837
1788861370697010200,9.31201025390625,-0.43544021248817444,0.2289276272058487,-0.8793734312057495
1788861370707017200,9.322017333984375,-0.47685715556144714,0.3590534031391144,-1.0090675354003906
1788861370717023200,9.332023193359374,-0.5064698457717896,0.2954196333885193,-1.1061807870864868
1788861370727029000,9.342029052734375,-0.5044248104095459,0.21156974136829376,-1.1667922735214233
1788861370737035300,9.35203515625,-0.4598410129547119,0.154684916138649,-1.1905741691589355
1788861370747041300,9.362041259765626,-0.4216235876083374,0.04259459674358368,-1.2055370807647705
1788861370757048000,9.372048095703125,-0.43921011686325073,-0.09802277386188507,-1.2172993421554565
1788861370767054000,9.38205419921875,-0.49948522448539734,-0.14233346283435822,-1.2038577795028687
1788861370777060400,9.392060302734375,-0.5567948222160339,-0.07180604338645935,-1.1417598724365234
1788861370787066000,9.402066162109374,-0.6154365539550781,0.015191707760095596,-1.0173169374465942
1788861370797072100,9.412072021484375,-0.6959109306335449,0.11579181253910065,-0.891741931438446
1788861370807078100,9.422078125,-0.7779346704483032,0.2091883420944214,-0.8604665994644165
1788861370817085200,9.432085205078126,-0.8424806594848633,0.2096911072731018,-0.948586642742157
1788861370827091200,9.44209130859375,-0.8580864667892456,0.10531702637672424,-1.0965840816497803
1788861370837097200,9.45209716796875,-0.8336322903633118,-0.03310287743806839,-1.2234108448028564
1788861370847103200,9.462103271484375,-0.8138256072998047,-0.09453161805868149,-1.1961421966552734
1788861370857109000,9.47210888671875,-0.8230668902397156,-0.05404864624142647,-1.018249750137329
1788861370867115300,9.482115234375,-0.8521561026573181,0.07818955183029175,-0.8590723872184753
1788861370877122000,9.4921220703125,-0.8949447274208069,0.2009599655866623,-0.8446980714797974
1788861370887128000,9.502128173828124,-0.9430289268493652,0.18139851093292236,-0.9448300004005432
1788861370897134300,9.51213427734375,-0.9706071019172668,0.018414616584777832,-1.0794118642807007
1788861370907140400,9.522140380859375,-0.9629497528076172,-0.17027460038661957,-1.1788222789764404
1788861370917146000,9.53214599609375,-0.9125552177429199,-0.2740603983402252,-1.196090579032898
1788861370927153200,9.542153076171875,-0.8182689547538757,-0.3127515912055969,-1.1666769981384277
1788861370937159400,9.552159423828124,-0.7060903310775757,-0.3265096843242645,-1.154520869255066
1788861370947165200,9.562165283203125,-0.641059935092926,-0.3148716688156128,-1.1774420738220215
1788861370957171200,9.572171142578124,-0.6534489393234253,-0.34188416600227356,-1.2246544361114502
1788861370967177200,9.58217724609375,-0.7144346833229065,-0.442500501871109,-1.2724956274032593
1788861370977183000,9.592182861328125,-0.7673990726470947,-0.5393516421318054,-1.2843035459518433
1788861370987190300,9.602190185546876,-0.751758337020874,-0.5487001538276672,-1.2739717960357666
1788861370997196300,9.6121962890625,-0.6734653115272522,-0.5622252821922302,-1.2598240375518799
1788861371007202000,9.6222021484375,-0.5705746412277222,-0.6721954345703125,-1.2313995361328125
1788861371017208000,9.6322080078125,-0.4799778461456299,-0.842783510684967,-1.2174817323684692
1788861371027214300,9.64221435546875,-0.4247609078884125,-0.9764278531074524,-1.253686547279358
1788861371037220400,9.652220458984376,-0.4252261817455292,-1.120242714881897,-1.3083441257476807
1788861371047227100,9.66222705078125,-0.42428529262542725,-1.178968071937561,-1.3576091527938843
1788861371057233200,9.672233154296874,-0.4023178517818451,-1.0949515104293823,-1.3921207189559937
1788861371067239200,9.6822392578125,-0.3942689597606659,-0.979248583316803,-1.4229720830917358
1788861371077245200,9.6922451171875,-0.3758254945278168,-1.0007294416427612,-1.3998216390609741
1788861371087251200,9.702251220703126,-0.3256573975086212,-1.1234489679336548,-1.3955373764038086
1788861371097258000,9.712258056640625,-0.27266550064086914,-1.2884730100631714,-1.4491945505142212
1788861371107264300,9.72226416015625,-0.22516722977161407,-1.424625039100647,-1.5193179845809937
1788861371117270300,9.732270263671875,-0.17049911618232727,-1.4349972009658813,-1.5569087266921997
1788861371127276300,9.7422763671875,-0.11568832397460938,-1.333487629890442,-1.5309618711471558
1788861371137282000,9.752281982421875,-0.10856816917657852,-1.267049789428711,-1.5647443532943726
1788861371147288000,9.7622880859375,-0.11018311232328415,-1.1668506860733032,-1.6639348268508911
1788861371157295000,9.772295166015626,-0.09258480370044708,-0.9938214421272278,-1.6869581937789917
1788861371167301000,9.782301025390625,-0.12238185107707977,-0.7578911781311035,-1.6739795207977295
1788861371177307100,9.79230712890625,-0.17105235159397125,-0.573897659778595,-1.6829932928085327
1788861371187313200,9.802313232421875,-0.19262422621250153,-0.47924572229385376,-1.6142653226852417
1788861371197319200,9.812319091796875,-0.19250522553920746,-0.41134071350097656,-1.4883114099502563
1788861371207326200,9.822326171875,-0.179182231426239,-0.2824501097202301,-1.3736591339111328
1788861371217332200,9.832332275390625,-0.13614417612552643,-0.05254713445901871,-1.2164362668991089
1788861371227338000,9.842337890625,-0.04781005159020424,0.03948585316538811,-0.9749159812927246
1788861371237344300,9.85234423828125,0.04291902855038643,0.04174103960394859,-0.7584666609764099
1788861371247350300,9.862350341796875,0.04829089343547821,0.0339805893599987,-0.5560395121574402
1788861371257356300,9.872356201171876,-0.01982572115957737,0.1161811500787735,-0.35412120819091797
1788861371267363000,9.882363037109375,-0.0422213114798069,0.21688780188560486,-0.12303443253040314
1788861371277369300,9.892369384765624,-0.00105638662353158,0.21124298870563507,0.0011207563802599907
1788861371287375000,9.902375,0.07282156497240067,0.34004783630371094,0.04104819893836975
1788861371297381000,9.912381103515624,0.15949711203575134,0.5792678594589233,0.10614969581365585
1788861371307387100,9.92238720703125,0.23668856918811798,0.6685631275177002,0.21843655407428741
1788861371317393400,9.932393310546875,0.27411267161369324,0.6548994779586792,0.36904671788215637
1788861371327400200,9.942400146484376,0.28392454981803894,0.6337568759918213,0.5776028633117676
1788861371337406200,9.95240625,0.3137132525444031,0.5902847647666931,0.8083820939064026
1788861371347412200,9.962412109375,0.3862859904766083,0.5421132445335388,0.9646518230438232
1788861371357418200,9.972418212890625,0.4785878658294678,0.5098613500595093,1.0576698780059814
1788861371367424300,9.98242431640625,0.5654130578041077,0.512569785118103,1.103269338607788
1788861371377431000,9.99243115234375,0.6408907175064087,0.5913634300231934,1.1560083627700806
1788861371387437000,10.00243701171875,0.7222731709480286,0.6669148802757263,1.2641955614089966
1788861371397443300,10.012443359375,0.8096670508384705,0.7085462212562561,1.374131202697754
1788861371407449300,10.022449462890625,0.8806823492050171,0.7891553044319153,1.471985101699829
1788861371417455000,10.032455078125,0.918962836265564,0.8522588610649109,1.5652244091033936
1788861371427462100,10.042462158203126,0.9469899535179138,0.8412211537361145,1.6265335083007812
1788861371437468400,10.052468505859375,0.986855149269104,0.775795042514801,1.6715643405914307
1788861371447474200,10.06247412109375,1.015134572982788,0.6904894709587097,1.6811604499816895
1788861371457480200,10.072480224609375,1.0240122079849243,0.5475946664810181,1.6928088665008545
1788861371467486200,10.082486328125,1.0260660648345947,0.4004659056663513,1.6860544681549072
1788861371477492000,10.092491943359375,1.0137323141098022,0.41516467928886414,1.6567834615707397
1788861371487499300,10.102499267578125,0.9858672618865967,0.5160156488418579,1.6737358570098877
1788861371497505300,10.11250537109375,0.9752527475357056,0.5466680526733398,1.7503550052642822
1788861371507511000,10.122510986328125,0.9892069101333618,0.5633639693260193,1.8420971632003784
1788861371517517000,10.13251708984375,1.007460594177246,0.5907423496246338,1.9308853149414062
1788861371527523300,10.1425234375,1.0262513160705566,0.545735776424408,1.9908463954925537
1788861371537529300,10.152529296875,1.0589030981063843,0.47520217299461365,2.0273983478546143
1788861371547536100,10.1625361328125,1.08141028881073,0.45544150471687317,2.0786619186401367
1788861371557542100,10.172542236328125,1.0814852714538574,0.41389650106430054,2.0877695083618164
1788861371567548200,10.182548095703124,1.0535430908203125,0.3784133493900299,2.068835496902466
1788861371577554200,10.19255419921875,0.990608274936676,0.4163687229156494,2.0524370670318604
1788861371587560200,10.202560302734375,0.9204416871070862,0.4496864378452301,2.048922300338745
1788861371597567000,10.21256689453125,0.8875914812088013,0.4281494617462158,2.0661733150482178
1788861371607573200,10.2225732421875,0.8942674994468689,0.4277271032333374,2.089087963104248
1788861371617579300,10.232579345703124,0.8811705708503723,0.5121068954467773,2.114312171936035
1788861371627584500,10.24258447265625,0.8269975781440735,0.6455488204956055,2.1211636066436768
1788861371637590500,10.252590576171874,0.7527079582214355,0.7218599319458008,2.081285238265991
1788861371647597300,10.262597412109375,0.6804015636444092,0.6299039125442505,2.0029091835021973
1788861371657603600,10.272603515625,0.6353175640106201,0.4479537904262543,1.9047735929489136
1788861371667609300,10.282609375,0.6102678775787354,0.2992897629737854,1.796714186668396
1788861371677615400,10.292615478515625,0.579825758934021,0.19264690577983856,1.6844794750213623
1788861371687621400,10.302621337890624,0.5341469645500183,0.1458522379398346,1.558905839920044
1788861371697627400,10.31262744140625,0.4867629110813141,0.15484602749347687,1.396546483039856
1788861371707634400,10.322634521484375,0.4241597056388855,0.22931227087974548,1.202453374862671
1788861371717640400,10.332640380859376,0.3139438331127167,0.377254843711853,0.9786861538887024
1788861371727646500,10.342646484375,0.1932656168937683,0.44946804642677307,0.7165112495422363
1788861371737652200,10.35265234375,0.09642306715250015,0.2660071551799774,0.42637643218040466
1788861371747658500,10.362658447265625,0.01649308390915394,-0.04505482688546181,0.15694975852966309
1788861371757665300,10.372665283203125,-0.049149587750434875,-0.18230566382408142,-0.056191910058259964
1788861371767671300,10.38267138671875,-0.11395787447690964,-0.16765081882476807,-0.21745748817920685
1788861371777677300,10.39267724609375,-0.18348655104637146,-0.15451501309871674,-0.3576465845108032
1788861371787683600,10.40268359375,-0.24707964062690735,-0.1785103678703308,-0.4837842881679535
1788861371797689300,10.412689453125,-0.30163079500198364,-0.2598934471607208,-0.5966210961341858
1788861371807695400,10.4226953125,-0.34948593378067017,-0.39409011602401733,-0.6805993318557739
1788861371817702400,10.432702392578125,-0.3891717791557312,-0.49918270111083984,-0.7293030619621277
1788861371827708400,10.44270849609375,-0.42832183837890625,-0.4454965591430664,-0.7464223504066467
1788861371837714400,10.45271435546875,-0.48206189274787903,-0.2448579967021942,-0.7720176577568054
1788861371847720400,10.462720458984375,-0.5528590679168701,-0.050984930247068405,-0.8433887958526611
1788861371857726200,10.472726318359374,-0.6350641846656799,0.011596486903727055,-0.9324925541877747
1788861371867733500,10.4827333984375,-0.72636479139328,-0.022146031260490417,-1.0213650465011597
1788861371877739500,10.492739501953125,-0.7873663902282715,-0.0077120233327150345,-1.1095514297485352
1788861371887745300,10.502745361328126,-0.7788996696472168,0.15730728209018707,-1.1852833032608032
1788861371897751300,10.512751220703125,-0.7145731449127197,0.2826301157474518,-1.1925402879714966
1788861371907757300,10.52275732421875,-0.6393300294876099,0.1871161162853241,-1.1068555116653442
1788861371917764400,10.532764404296875,-0.5956761837005615,-0.036975644528865814,-1.0030337572097778
1788861371927770400,10.542770263671875,-0.5902739763259888,-0.15615397691726685,-0.9418849349021912
1788861371937776400,10.5527763671875,-0.6136863827705383,-0.1711706966161728,-0.9087246060371399
1788861371947782400,10.562782470703125,-0.6635668277740479,-0.14809200167655945,-0.9197617769241333
1788861371957788400,10.572788330078126,-0.7482014894485474,-0.09772257506847382,-0.9743236303329468
1788861371967794400,10.58279443359375,-0.8426350951194763,-0.0660160481929779,-1.0427786111831665
1788861371977801200,10.59280126953125,-0.9118929505348206,-0.07925622165203094,-1.1287070512771606
1788861371987807500,10.602807373046875,-0.9409946799278259,-0.07624391466379166,-1.1635364294052124
1788861371997813500,10.6128134765625,-0.9024463295936584,0.061116863042116165,-1.1588844060897827
1788861372007819500,10.622819580078126,-0.8273105621337891,0.18842661380767822,-1.1681838035583496
1788861372017825300,10.6328251953125,-0.7674447298049927,0.10678233951330185,-1.1723811626434326
1788861372027832600,10.64283251953125,-0.7389540076255798,-0.16432346403598785,-1.186112880706787
1788861372037838300,10.65283837890625,-0.7406931519508362,-0.4214194118976593,-1.203517198562622
1788861372047844400,10.66284423828125,-0.7634416222572327,-0.5260616540908813,-1.1849278211593628
1788861372057850400,10.672850341796876,-0.7625965476036072,-0.5229194164276123,-1.1604341268539429
1788861372067856400,10.6828564453125,-0.74668288230896,-0.5209531784057617,-1.1895371675491333
1788861372077862400,10.6928623046875,-0.7378630042076111,-0.575972855091095,-1.259846568107605
1788861372087869400,10.702869384765625,-0.7419674396514893,-0.7029252052307129,-1.3592751026153564
1788861372097875500,10.71287548828125,-0.7435286641120911,-0.8122779726982117,-1.4256023168563843
1788861372107881200,10.722881103515626,-0.7325247526168823,-0.810906171798706,-1.4005497694015503
1788861372117887500,10.732887451171875,-0.681827187538147,-0.7374846935272217,-1.3390223979949951
1788861372127893500,10.7428935546875,-0.5653314590454102,-0.7441897392272949,-1.352127194404602
1788861372137900300,10.752900390625,-0.44599321484565735,-0.8895424008369446,-1.4859901666641235
1788861372147906300,10.76290625,-0.3707498610019684,-1.1086691617965698,-1.5878715515136719
1788861372157912600,10.77291259765625,-0.33585190773010254,-1.300068736076355,-1.6198194026947021
1788861372167918300,10.78291845703125,-0.31168240308761597,-1.3036264181137085,-1.6086692810058594
1788861372177924400,10.79292431640625,-0.30008941888809204,-1.1748822927474976,-1.5978301763534546
1788861372187931400,10.802931396484375,-0.2785830795764923,-1.099603295326233,-1.6331884860992432
1788861372197937400,10.8129375,-0.2546178698539734,-1.2193114757537842,-1.6887463331222534
1788861372207943400,10.822943359375,-0.26433202624320984,-1.3484593629837036,-1.6988284587860107
1788861372217949400,10.832949462890625,-0.30074337124824524,-1.3701311349868774,-1.6793482303619385
1788861372227955500,10.84295556640625,-0.34061169624328613,-1.344296932220459,-1.667587399482727
1788861372237961200,10.852961181640625,-0.3745354413986206,-1.3320873975753784,-1.6598864793777466
1788861372247968500,10.862968505859374,-0.3981470465660095,-1.355307698249817,-1.692460298538208
1788861372257974300,10.872974365234375,-0.4224788248538971,-1.1846635341644287,-1.7768213748931885
1788861372267980300,10.882980224609375,-0.40874677896499634,-0.9182576537132263,-1.7868340015411377
1788861372277986300,10.892986328125,-0.3585183024406433,-0.7009362578392029,-1.7413711547851562
1788861372287992600,10.90299267578125,-0.3219078481197357,-0.5063979625701904,-1.6523652076721191
1788861372297999400,10.912999267578124,-0.2831915318965912,-0.3647138178348541,-1.4809925556182861
1788861372308005400,10.92300537109375,-0.19417804479599,-0.24415171146392822,-1.2436484098434448
1788861372318011400,10.933011474609375,-0.10968086868524551,-0.11327919363975525,-0.9677070379257202
1788861372328017400,10.943017333984375,-0.09359351545572281,0.053062379360198975,-0.7118220329284668
1788861372338023400,10.9530234375,-0.09823067486286163,0.16826674342155457,-0.5566256642341614
1788861372348030200,10.9630302734375,-0.10150077193975449,0.1971133053302765,-0.4630797207355499
1788861372358036200,10.9730361328125,-0.10253980755805969,0.2695739269256592,-0.3256857097148895
1788861372368042500,10.98304248046875,-0.07618383318185806,0.33164557814598083,-0.142970472574234
1788861372378048500,10.993048583984375,-0.006879926659166813,0.3442252576351166,0.016972238197922707
1788861372388054300,11.00305419921875,0.05551474168896675,0.4062308371067047,0.1585133820772171
1788861372398060300,11.013060302734376,0.0846858099102974,0.47426658868789673,0.3173447847366333
1788861372408067600,11.023067626953125,0.10121924430131912,0.5590987205505371,0.47431710362434387
1788861372418073300,11.0330732421875,0.16034479439258575,0.6871501207351685,0.6539859771728516
1788861372428079400,11.043079345703125,0.26321712136268616,0.6706840991973877,0.7811852097511292
1788861372438085400,11.05308544921875,0.3512168526649475,0.6056166291236877,0.8676615953445435
1788861372448091400,11.06309130859375,0.40596479177474976,0.6170040369033813,1.001497745513916
1788861372458098400,11.073098388671875,0.47312405705451965,0.7166020274162292,1.182730793952942
1788861372468104400,11.0831044921875,0.5738989114761353,0.8176231980323792,1.3357847929000854
1788861372478110200,11.093110107421875,0.6838153600692749,0.7961650490760803,1.4501994848251343
1788861372488116500,11.103116455078125,0.7647743821144104,0.6546582579612732,1.5820564031600952
1788861372498122500,11.11312255859375,0.7944691777229309,0.6133997440338135,1.7133152484893799
1788861372508129300,11.12312939453125,0.7689398527145386,0.7461351752281189,1.7952889204025269
1788861372518135300,11.13313525390625,0.7202622294425964,0.811575174331665,1.8065537214279175
1788861372528141600,11.1431416015625,0.7080631256103516,0.7704210877418518,1.7664361000061035
1788861372538147300,11.153147216796874,0.7444543242454529,0.7506129741668701,1.7113351821899414
1788861372548153300,11.1631533203125,0.8001300692558289,0.7613388895988464,1.7176133394241333
1788861372558159400,11.173159423828125,0.8745118975639343,0.759781002998352,1.7803120613098145
1788861372568166400,11.18316650390625,0.9539029002189636,0.7132318615913391,1.860303521156311
1788861372578172400,11.19317236328125,1.0079013109207153,0.6906953454017639,1.9599088430404663
1788861372588178400,11.203178466796874,1.0367646217346191,0.6618269681930542,2.0160470008850098
1788861372598184400,11.213184326171875,1.035057783126831,0.6101189851760864,2.021883010864258
1788861372608190200,11.223190185546875,0.9930762052536011,0.5467557311058044,2.021913528442383
1788861372618197500,11.233197509765626,0.9399718642234802,0.49159932136535645,2.0135414600372314
1788861372628203500,11.24320361328125,0.9213696718215942,0.5009992122650146,2.0140600204467773
1788861372638209300,11.253209228515624,0.9537517428398132,0.5473813414573669,2.0576672554016113
1788861372648215300,11.26321533203125,1.002992868423462,0.5328958630561829,2.084775447845459
1788861372658221600,11.2732216796875,1.0122319459915161,0.4701557457447052,2.1138525009155273
1788861372668228400,11.283228271484376,0.9799589514732361,0.44735321402549744,2.1912529468536377
1788861372678234400,11.293234375,0.9449433088302612,0.4700374901294708,2.282741069793701
1788861372688240400,11.303240478515624,0.9112186431884766,0.5064094066619873,2.322237253189087
1788861372698246400,11.313246337890625,0.8479241728782654,0.5629696249961853,2.277040958404541
1788861372708252400,11.32325244140625,0.7371891736984253,0.6210411787033081,2.1714420318603516
1788861372718259500,11.333259521484376,0.611057698726654,0.6714292168617249,2.045288324356079
1788861372728265200,11.34326513671875,0.5392122268676758,0.6934770345687866,1.9481782913208008
1788861372738271500,11.353271484375,0.5627589225769043,0.6212840676307678,1.878690481185913
1788861372748277500,11.363277587890625,0.6677823066711426,0.5002630949020386,1.7974814176559448
1788861372758283300,11.373283203125,0.7724684476852417,0.4469841420650482,1.6776320934295654
1788861372768289300,11.383289306640625,0.7993102073669434,0.43379244208335876,1.529416799545288
1788861372778296600,11.393296630859375,0.7343713641166687,0.3673514127731323,1.3678474426269531
1788861372788302300,11.40330224609375,0.5973778367042542,0.2736113369464874,1.1806155443191528
1788861372798308400,11.413308349609375,0.42778801918029785,0.2992817759513855,0.9583787322044373
1788861372808314400,11.423314453125,0.26181554794311523,0.3740262985229492,0.7302547693252563
1788861372818320600,11.433320556640625,0.1488325446844101,0.30834317207336426,0.4965364933013916
1788861372828327400,11.443327392578125,0.08674441277980804,0.11994663625955582,0.24554210901260376
1788861372838333400,11.45333349609375,0.053283583372831345,0.007130858488380909,0.013864325359463692
1788861372848339200,11.463339111328125,0.01239607110619545,-0.04411076009273529,-0.15206073224544525
1788861372858345500,11.473345458984374,-0.0353253111243248,-0.10477277636528015,-0.2686108946800232
1788861372868351500,11.4833515625,-0.06733065098524094,-0.0729575902223587,-0.3715047836303711
1788861372878358300,11.493358154296875,-0.11190144717693329,0.0033704801462590694,-0.46190980076789856
1788861372888364300,11.5033642578125,-0.1830882728099823,0.038329530507326126,-0.5464287400245667
1788861372898370600,11.51337060546875,-0.25912314653396606,0.07545503973960876,-0.6250075697898865
1788861372908376600,11.52337646484375,-0.3284151256084442,0.08856205642223358,-0.716953456401825
1788861372918382300,11.53338232421875,-0.3908531665802002,0.057641707360744476,-0.8472468852996826
1788861372928389400,11.543389404296875,-0.44785013794898987,0.010443037375807762,-0.984777569770813
1788861372938395400,11.5533955078125,-0.48994430899620056,-0.07520952820777893,-1.0681986808776855
1788861372948401400,11.5634013671875,-0.5029786229133606,-0.21407580375671387,-1.0954625606536865
1788861372958407400,11.573407470703126,-0.4841109812259674,-0.3098744750022888,-1.0594983100891113
1788861372968413400,11.583413330078125,-0.47132620215415955,-0.27788540720939636,-0.9617077708244324
1788861372978419200,11.593419189453124,-0.5074678063392639,-0.1495002806186676,-0.8464585542678833
1788861372988426500,11.603426513671875,-0.6280347108840942,0.01390728447586298,-0.8109506368637085
1788861372998432500,11.6134326171875,-0.8065975308418274,0.11801184713840485,-0.8769834637641907
1788861373008438300,11.623438232421876,-0.9663441181182861,0.1454213559627533,-0.9854892492294312
1788861373018444300,11.6334443359375,-1.0480892658233643,0.1208648830652237,-1.1005805730819702
1788861373028450600,11.643450439453124,-1.0500425100326538,0.08131986856460571,-1.175239086151123
1788861373038457300,11.653457275390625,-0.9809343218803406,-0.004200354218482971,-1.1636942625045776
1788861373048463400,11.66346337890625,-0.865321934223175,-0.1658366471529007,-1.1122901439666748
1788861373058469400,11.673469482421876,-0.7617928385734558,-0.3429863452911377,-1.1128532886505127
1788861373068475400,11.683475341796875,-0.7143235802650452,-0.42711320519447327,-1.1191306114196777
1788861373078481400,11.6934814453125,-0.6957440972328186,-0.3442537486553192,-1.116104245185852
1788861373088488400,11.703488525390625,-0.6797845363616943,-0.23028135299682617,-1.166754961013794
1788861373098494200,11.713494140625,-0.68142169713974,-0.19870774447917938,-1.2578970193862915
1788861373108500500,11.72350048828125,-0.6915339827537537,-0.2768574059009552,-1.3326220512390137
1788861373118506500,11.733506591796875,-0.6971959471702576,-0.4138283133506775,-1.3752797842025757
1788861373128512300,11.74351220703125,-0.6848934888839722,-0.551863968372345,-1.4215596914291382
1788861373138518300,11.753518310546875,-0.6513966917991638,-0.6566782593727112,-1.469327688217163
1788861373148525600,11.763525634765625,-0.5988304018974304,-0.6287704706192017,-1.513624906539917
1788861373158531300,11.77353125,-0.5571868419647217,-0.5328143239021301,-1.5079230070114136
1788861373168537300,11.783537353515625,-0.537735104560852,-0.5676136016845703,-1.4135816097259521
1788861373178543400,11.79354345703125,-0.54812091588974,-0.6240977644920349,-1.3666578531265259
1788861373188549400,11.80354931640625,-0.5800330638885498,-0.653983473777771,-1.4353277683258057
1788861373198556400,11.813556396484374,-0.5972028970718384,-0.7436989545822144,-1.5605510473251343
1788861373208562400,11.8235625,-0.5853768587112427,-0.8392392992973328,-1.6156054735183716
1788861373218568400,11.833568359375,-0.5512734055519104,-0.9399115443229675,-1.6065508127212524
1788861373228574200,11.84357421875,-0.5196166634559631,-1.0362050533294678,-1.5962917804718018
1788861373238580500,11.85358056640625,-0.4982679784297943,-1.0894784927368164,-1.6021183729171753
1788861373248587300,11.863587158203124,-0.4729573130607605,-1.1126031875610352,-1.6382542848587036
1788861373258593300,11.87359326171875,-0.4481268525123596,-1.163716435432434,-1.6784344911575317
1788861373268599600,11.883599609375,-0.42787402868270874,-1.271239161491394,-1.7303544282913208
1788861373278605600,11.89360546875,-0.38811150193214417,-1.3835936784744263,-1.7669775485992432
1788861373288611300,11.903611328125,-0.3372139632701874,-1.4322203397750854,-1.7251571416854858
1788861373298618400,11.913618408203124,-0.32737717032432556,-1.4908632040023804,-1.6928092241287231
1788861373308624400,11.923624267578125,-0.3459058403968811,-1.3366302251815796,-1.7275227308273315
1788861373318630400,11.93363037109375,-0.3311034142971039,-0.9963940382003784,-1.7370240688323975
1788861373328636400,11.943636474609375,-0.30070874094963074,-0.7487037777900696,-1.7342493534088135
1788861373338642400,11.953642333984375,-0.28222280740737915,-0.6402732133865356,-1.691510796546936
1788861373348648200,11.963648193359376,-0.26313620805740356,-0.5784114599227905,-1.6087749004364014
1788861373358655500,11.973655517578125,-0.2673274278640747,-0.5253993272781372,-1.4632434844970703
1788861373368661500,11.98366162109375,-0.2740271985530853,-0.4425356090068817,-1.255698561668396
1788861373378667300,11.993667236328125,-0.25871747732162476,-0.3032885193824768,-1.0536508560180664
1788861373388673300,12.00367333984375,-0.20942449569702148,-0.15449316799640656,-0.9240090250968933
1788861373398679600,12.013679443359376,-0.16337256133556366,-0.040292296558618546,-0.8032665252685547
1788861373408686300,12.023686279296875,-0.12410397827625275,0.04989458620548248,-0.6329872012138367
1788861373418692400,12.0336923828125,-0.09261494874954224,0.07429823279380798,-0.4633753001689911
1788861373428698400,12.043698486328125,-0.08524491637945175,0.06321069598197937,-0.3120443522930145
1788861373438704400,12.053704345703125,-0.045367103070020676,0.15740527212619781,-0.15302568674087524
1788861373448710400,12.06371044921875,0.036282483488321304,0.26943379640579224,-0.009053079411387444
1788861373458717400,12.073717529296875,0.10569563508033752,0.3263852894306183,0.11374575644731522
1788861373468723200,12.08372314453125,0.1492372453212738,0.41061869263648987,0.2235071361064911
1788861373478729500,12.0937294921875,0.1958373785018921,0.49602997303009033,0.32573822140693665
1788861373488735500,12.103735595703125,0.25816571712493896,0.5196706056594849,0.44528937339782715
1788861373498741500,12.113741455078125,0.32879024744033813,0.5462918281555176,0.5753045678138733
1788861373508748300,12.123748291015625,0.3986569344997406,0.6053122878074646,0.6901901364326477
1788861373518754600,12.133754638671874,0.4620223939418793,0.6126770377159119,0.8104480504989624
1788861373528760300,12.14376025390625,0.5259380340576172,0.6297473311424255,0.9845255613327026
1788861373538766300,12.153766357421874,0.625883936882019,0.6018437743186951,1.1726473569869995
1788861373548772400,12.1637724609375,0.7185553312301636,0.5338324904441833,1.3405271768569946
1788861373558778400,12.1737783203125,0.7740885615348816,0.6215009093284607,1.4972559213638306
1788861373568785400,12.183785400390626,0.8219213485717773,0.7968159914016724,1.6036694049835205
1788861373578791400,12.19379150390625,0.8723549246788025,0.8468301296234131,1.6416984796524048
1788861373588797400,12.20379736328125,0.9018417000770569,0.8586884140968323,1.662959337234497
1788861373598803200,12.21380322265625,0.9311986565589905,0.9209818840026855,1.6973801851272583
1788861373608809500,12.2238095703125,0.9720653891563416,0.9011650085449219,1.7343813180923462
1788861373618816300,12.233816162109376,1.017655372619629,0.8278273344039917,1.793094515800476
1788861373628822000,12.243822021484375,1.070784330368042,0.8380837440490723,1.8758865594863892
1788861373638828000,12.253828125,1.1129741668701172,0.8327736258506775,1.9420138597488403
1788861373648834300,12.263834228515625,1.10820472240448,0.7493796944618225,1.998216152191162
1788861373658840000,12.273840087890624,1.054809331893921,0.6164869070053101,2.0754692554473877
1788861373668847000,12.28384716796875,0.9678494930267334,0.5004247426986694,2.1263225078582764
1788861373678853000,12.29385302734375,0.8960438966751099,0.48579466342926025,2.1574156284332275
1788861373688859100,12.303859130859376,0.8914717435836792,0.5173765420913696,2.1885080337524414
1788861373698865200,12.313865234375,0.9612550139427185,0.47815757989883423,2.2072503566741943
1788861373708871200,12.32387109375,1.0284154415130615,0.4367821514606476,2.230637550354004
1788861373718878000,12.3338779296875,1.0577584505081177,0.5208011865615845,2.2716894149780273
1788861373728884200,12.34388427734375,1.0557520389556885,0.638522207736969,2.30134916305542
1788861373738890200,12.35389013671875,1.0283434391021729,0.6339651942253113,2.301332950592041
1788861373748896000,12.36389599609375,0.9857443571090698,0.5070788860321045,2.273832082748413
1788861373758902000,12.373902099609374,0.9405033588409424,0.4060386121273041,2.247831106185913
1788861373768909300,12.383909423828126,0.8741464614868164,0.39724990725517273,2.2475125789642334
1788861373778915000,12.3939150390625,0.7902001142501831,0.4288267493247986,2.25140380859375
1788861373788921000,12.403921142578126,0.7173669338226318,0.4699571430683136,2.212977170944214
1788861373798927000,12.413927001953125,0.6844667792320251,0.5116888284683228,2.1206281185150146
1788861373808933400,12.423933349609374,0.6749649047851562,0.5088120698928833,1.9978522062301636
1788861373818939100,12.433939208984375,0.6729150414466858,0.4724879264831543,1.868786334991455
1788861373828946200,12.4439462890625,0.6744111180305481,0.4253308176994324,1.7112035751342773
1788861373838952200,12.4539521484375,0.6597067713737488,0.3868744969367981,1.533684492111206
1788861373848958200,12.463958251953125,0.615249514579773,0.36334919929504395,1.34413480758667
1788861373858964200,12.473964111328126,0.5601841807365417,0.3178381621837616,1.1456098556518555
1788861373868970200,12.48397021484375,0.5088083148002625,0.2847878038883209,0.9455407857894897
1788861373878977000,12.49397705078125,0.4427458941936493,0.3435105085372925,0.7504887580871582
