time,seconds_elapsed,z,y,x
1788861361420127700,0.035127685546875,0.13398416340351105,0.5403420925140381,0.1294192373752594
1788861361430133800,0.0451337890625,0.15602688491344452,0.7709651589393616,0.19315454363822937
1788861361440140000,0.05514013671875,0.11745285987854004,1.131305456161499,0.2465144395828247
1788861361450146000,0.06514599609375,0.02027224749326706,1.4799116849899292,0.25671568512916565
1788861361460151800,0.07515185546875,-0.0997694730758667,1.7488491535186768,0.2640974223613739
1788861361470157800,0.08515771484375,-0.2145162969827652,1.9695007801055908,0.29264357686042786
1788861361480164000,0.0951640625,-0.27765265107154846,2.0662014484405518,0.318817675113678
1788861361490170000,0.105170166015625,-0.27441293001174927,1.9493529796600342,0.28760913014411926
1788861361500176000,0.11517578125,-0.27717673778533936,1.7742860317230225,0.1874692291021347
1788861361510182000,0.125181884765625,-0.32449525594711304,1.5325285196304321,0.05104134604334831
1788861361520188000,0.13518798828125,-0.42390039563179016,1.3354977369308472,-0.09362103044986725
1788861361530194000,0.14519384765625,-0.5157209038734436,1.1164159774780273,-0.1545906364917755
1788861361540200000,0.155199951171875,-0.5616018176078796,0.8236222267150879,-0.1292479932308197
1788861361550206000,0.1652060546875,-0.6005473732948303,0.5849444270133972,-0.1300560086965561
1788861361560212000,0.1752119140625,-0.5979728698730469,0.4628097116947174,-0.17785201966762543
1788861361570217700,0.1852177734375,-0.5766170024871826,0.33713382482528687,-0.21174873411655426
1788861361580224000,0.19522412109375,-0.5791808366775513,0.2772334814071655,-0.18933796882629395
1788861361590229000,0.20522900390625,-0.6466575860977173,0.010913633741438389,-0.007103449665009975
1788861361600235000,0.215235107421875,-0.717954158782959,-0.31050220131874084,0.20965522527694702
1788861361610240000,0.225239990234375,-0.7751777172088623,-0.5898379683494568,0.3214544653892517
1788861361620246000,0.23524609375,-0.7328678369522095,-0.7118901014328003,0.2946678400039673
1788861361630252000,0.245251953125,-0.5958596467971802,-0.8484522104263306,0.23806902766227722
1788861361640258000,0.255258056640625,-0.4247795045375824,-0.9242314100265503,0.1839226931333542
1788861361650264000,0.26526416015625,-0.31733134388923645,-0.9109600782394409,0.11539983004331589
1788861361660270000,0.27527001953125,-0.27683451771736145,-0.7151650190353394,0.023783093318343163
1788861361670275800,0.28527587890625,-0.26185211539268494,-0.5924654603004456,-0.03265541419386864
1788861361680282000,0.2952822265625,-0.2488580197095871,-0.6289473176002502,-0.04717336967587471
1788861361690288000,0.3052880859375,-0.271900475025177,-0.8748223185539246,-0.026204971596598625
1788861361700294100,0.315294189453125,-0.2977249026298523,-1.2588720321655273,0.045411691069602966
1788861361710300000,0.3252998046875,-0.26048004627227783,-1.6756612062454224,0.10158068686723709
1788861361720306000,0.335305908203125,-0.18457144498825073,-1.9496346712112427,0.08818711340427399
1788861361730312200,0.345312255859375,-0.016039153560996056,-1.9677929878234863,0.05201233550906181
1788861361740318000,0.35531787109375,0.25105753540992737,-1.94692862033844,0.022966835647821426
1788861361750324000,0.365323974609375,0.550005316734314,-1.7342028617858887,-0.10789131373167038
1788861361760330000,0.375330078125,0.8733093738555908,-1.4814389944076538,-0.2168809175491333
1788861361770336000,0.3853359375,1.176275372505188,-1.3323230743408203,-0.17410175502300262
1788861361780342000,0.395342041015625,1.4400767087936401,-1.4981309175491333,-0.11617480963468552
1788861361790348000,0.40534814453125,1.6318402290344238,-1.5876727104187012,-0.1583949625492096
1788861361800354000,0.41535400390625,1.710721492767334,-1.2983647584915161,-0.1963290274143219
1788861361810360000,0.425360107421875,1.7414029836654663,-1.0514394044876099,-0.3264460265636444
1788861361820365800,0.43536572265625,1.63876473903656,-1.2952982187271118,-0.584376871585846
1788861361830372000,0.4453720703125,1.5398041009902954,-1.8493461608886719,-0.7790315747261047
1788861361840378000,0.455378173828125,1.6447123289108276,-2.411774158477783,-0.8544368743896484
1788861361850384000,0.4653837890625,1.881529450416565,-2.923340082168579,-0.8386214375495911
1788861361860390000,0.475389892578125,2.1284825801849365,-3.404411554336548,-0.8051843643188477
1788861361870396200,0.485396240234375,2.319960594177246,-3.798393487930298,-0.7774600982666016
1788861361880401200,0.495401123046875,2.387953281402588,-3.7381131649017334,-0.7361754775047302
1788861361890407200,0.5054072265625,2.340822219848633,-3.3873443603515625,-0.5682786107063293
1788861361900413000,0.515412841796875,2.1311230659484863,-3.0564208030700684,-0.27980926632881165
1788861361910419000,0.5254189453125,1.8365907669067383,-2.7847657203674316,-0.004497013986110687
1788861361920425000,0.535425048828125,1.7219133377075195,-2.7288265228271484,0.11754047870635986
1788861361930431200,0.54543115234375,1.813778281211853,-2.841439962387085,0.08140964061021805
1788861361940437000,0.55543701171875,1.9184839725494385,-2.6741297245025635,-0.06788131594657898
1788861361950443000,0.565443115234375,2.0119824409484863,-2.2997634410858154,-0.3567653000354767
1788861361960449000,0.575448974609375,2.106801986694336,-2.0738120079040527,-0.7195411324501038
1788861361970455000,0.585455078125,2.1935882568359375,-2.170457124710083,-0.9682492017745972
1788861361980461000,0.5954609375,2.34464955329895,-2.5399322509765625,-1.0239579677581787
1788861361990467000,0.605467041015625,2.4630672931671143,-3.160081624984741,-0.9085357785224915
1788861362000473000,0.61547314453125,2.4305317401885986,-3.7093772888183594,-0.6434090733528137
1788861362010478800,0.625478759765625,2.285996913909912,-4.143773078918457,-0.30204880237579346
1788861362020484900,0.63548486328125,2.1605613231658936,-4.3167853355407715,-0.030246585607528687
1788861362030491100,0.6454912109375,2.1493754386901855,-4.085878372192383,0.018430938944220543
1788861362040497200,0.6554970703125,2.3295581340789795,-3.6654183864593506,-0.23719896376132965
1788861362050503000,0.6655029296875,2.663869619369507,-3.327366590499878,-0.6346451044082642
1788861362060509000,0.675509033203125,3.1075899600982666,-2.9990689754486084,-0.9708992838859558
1788861362070515000,0.685514892578125,3.4713001251220703,-3.1838040351867676,-1.1301374435424805
1788861362080521200,0.695521240234375,3.5240347385406494,-3.9115233421325684,-1.1030060052871704
1788861362090527000,0.70552685546875,3.2903292179107666,-4.793582916259766,-0.8972269296646118
1788861362100533000,0.715532958984375,3.060593605041504,-5.513172149658203,-0.6140575408935547
1788861362110539000,0.7255390625,2.9259042739868164,-5.689823150634766,-0.33833518624305725
1788861362120545000,0.735544921875,2.949388027191162,-5.2043843269348145,-0.09929276257753372
1788861362130551000,0.745551025390625,3.077521562576294,-4.05155611038208,0.05434047058224678
1788861362140557000,0.75555712890625,3.1501152515411377,-2.8334531784057617,0.12090937793254852
1788861362150563000,0.76556298828125,3.1291983127593994,-1.8277103900909424,0.12104813009500504
1788861362160568800,0.77556884765625,2.950305938720703,-1.1550145149230957,0.15849830210208893
1788861362170574800,0.785574951171875,2.5826992988586426,-0.4981674551963806,0.2865481376647949
1788861362180581000,0.7955810546875,2.100324869155884,-0.04857232794165611,0.44052597880363464
1788861362190587100,0.805587158203125,1.3696578741073608,-0.6879909038543701,0.22759588062763214
1788861362200593000,0.815593017578125,0.2871902287006378,-2.048552989959717,-0.5997265577316284
1788861362210599000,0.825598876953125,-0.3026168644428253,-3.2983357906341553,-1.3347119092941284
1788861362220605200,0.835605224609375,-0.2574440538883209,-3.874429941177368,-1.454376459121704
1788861362230611200,0.845611083984375,0.13137799501419067,-3.7857604026794434,-0.8337329626083374
1788861362240617000,0.855616943359375,0.3997892141342163,-3.7144219875335693,0.054666176438331604
1788861362250623000,0.865623046875,0.37067872285842896,-3.9061667919158936,0.8037185668945312
1788861362260628000,0.8756279296875,0.22467651963233948,-4.033384323120117,1.3082104921340942
1788861362270634000,0.885634033203125,0.1759534478187561,-3.9412152767181396,1.6060000658035278
1788861362280640000,0.895639892578125,0.23321141302585602,-3.351738452911377,1.7350009679794312
1788861362290646000,0.90564599609375,0.40745726227760315,-2.595139980316162,1.615220546722412
1788861362300652000,0.915652099609375,0.7470017671585083,-2.16507625579834,1.24514901638031
1788861362310658000,0.925657958984375,1.0325299501419067,-1.6561477184295654,0.7897598743438721
1788861362320663800,0.935663818359375,1.2792384624481201,-0.8712283968925476,-0.31926748156547546
1788861362330670000,0.945670166015625,1.6543532609939575,-0.47618305683135986,-0.33969178795814514
1788861362340676000,0.955676025390625,1.6315622329711914,-0.3927936255931854,-0.020007796585559845
1788861362350682000,0.96568212890625,1.615975022315979,-0.35197269916534424,0.30509626865386963
1788861362360687900,0.97568798828125,1.9880406856536865,-0.41633516550064087,0.7029587030410767
1788861362370694000,0.98569384765625,2.6560251712799072,-0.41466349363327026,1.1697280406951904
1788861362380700200,0.9957001953125,3.532337188720703,-0.46733176708221436,1.822828769683838
1788861362390706200,1.0057060546875,4.0933027267456055,-0.716912031173706,1.9729194641113281
1788861362400712000,1.0157119140625,4.630032062530518,-0.36307939887046814,1.1898844242095947
1788861362410718000,1.025718017578125,4.421108722686768,0.5674237608909607,0.3759067952632904
1788861362420724000,1.035723876953125,3.8882789611816406,0.8735709190368652,-0.03317473083734512
1788861362430730000,1.04572998046875,3.1631126403808594,0.4372870624065399,-0.0309283547103405
1788861362440736000,1.055736083984375,2.4397521018981934,-0.023095466196537018,0.21206192672252655
1788861362450742000,1.065741943359375,2.0257797241210938,-0.10176897048950195,0.2776302695274353
1788861362460748000,1.075748046875,2.1424007415771484,0.2653312683105469,0.09190941601991653
1788861362470753800,1.08575390625,2.300288677215576,0.41888514161109924,-0.052800364792346954
1788861362480760000,1.095760009765625,2.2634549140930176,0.2162332385778427,-0.11318754404783249
1788861362490766000,1.10576611328125,2.0790598392486572,-0.3737855851650238,-0.1585470288991928
1788861362500772000,1.115772216796875,1.908288836479187,-0.8367303013801575,-0.23534967005252838
1788861362510777900,1.12577783203125,1.9020013809204102,-0.9147148728370667,-0.29177406430244446
1788861362520784000,1.135783935546875,1.9348198175430298,-0.7774049639701843,-0.43041637539863586
1788861362530790100,1.1457900390625,1.8695683479309082,-0.7028915882110596,-0.6568500399589539
1788861362540796200,1.155796142578125,1.646392822265625,-0.6161326766014099,-0.8786897659301758
1788861362550802000,1.165802001953125,1.4311885833740234,-0.8374219536781311,-1.055681824684143
1788861362560808000,1.175807861328125,1.4304306507110596,-1.4808509349822998,-1.2424205541610718
1788861362570814200,1.185814208984375,1.7299628257751465,-2.090383768081665,-1.1783963441848755
1788861362580820000,1.195820068359375,2.4496545791625977,-2.2102231979370117,-0.7214210629463196
1788861362590826000,1.205825927734375,3.0598456859588623,-1.753231406211853,-0.31564265489578247
1788861362600832000,1.21583203125,3.411674737930298,-1.7378106117248535,0.05103974789381027
1788861362610838500,1.225838623046875,3.2801923751831055,-2.1120407581329346,0.3737110197544098
1788861362620844500,1.235844482421875,2.82098388671875,-2.648693084716797,0.7195320725440979
1788861362630850800,1.245850830078125,2.4412755966186523,-3.207442283630371,1.0452390909194946
1788861362640856800,1.25585693359375,2.196246385574341,-3.330132484436035,1.169777512550354
1788861362650862600,1.265862548828125,1.9172152280807495,-2.892672538757324,1.121201515197754
1788861362660868600,1.27586865234375,1.5839616060256958,-2.241452217102051,1.0507233142852783
1788861362670874600,1.28587451171875,1.2516489028930664,-1.6729536056518555,1.005486011505127
1788861362680881000,1.295880859375,0.8595221638679504,-1.352013111114502,0.9312615990638733
1788861362690886700,1.30588671875,0.5262187719345093,-1.1775680780410767,0.8193071484565735
1788861362700892700,1.315892578125,0.30762121081352234,-0.7546074986457825,0.6074084639549255
1788861362710898700,1.325898681640625,0.040706150233745575,-0.3423032760620117,0.21690382063388824
1788861362720904700,1.33590478515625,-0.2911982834339142,-0.047080427408218384,-0.4265214800834656
1788861362730910700,1.34591064453125,-0.6215407848358154,0.2666412889957428,-1.1459139585494995
1788861362740916700,1.355916748046875,-0.8711037635803223,0.5965246558189392,-1.4517858028411865
1788861362750922800,1.3659228515625,-0.960492730140686,0.6880210041999817,-1.4465795755386353
1788861362760928500,1.375928466796875,-0.6738678812980652,0.3748774826526642,-1.7778863906860352
1788861362770934500,1.3859345703125,-0.4679325819015503,0.5069300532341003,-1.9373353719711304
1788861362780940800,1.39594091796875,-0.5754478573799133,0.9917750358581543,-1.5579694509506226
1788861362790946800,1.40594677734375,-0.39488738775253296,0.6511031985282898,-1.194726824760437
1788861362800952600,1.41595263671875,-0.10406035929918289,0.13707582652568817,-0.7813988924026489
1788861362810958600,1.42595849609375,0.19411514699459076,0.11643499881029129,-0.5004399418830872
1788861362820964600,1.435964599609375,0.36876925826072693,0.24298468232154846,-0.1542886346578598
1788861362830971000,1.445970947265625,0.5049800872802734,0.257361501455307,0.3524395525455475
1788861362840976600,1.4559765625,0.6016243100166321,0.1742146760225296,0.6742449998855591
1788861362850982700,1.465982666015625,0.7042564153671265,0.00953624676913023,0.7213366031646729
1788861362860988700,1.47598876953125,0.7535834908485413,0.009659817442297935,0.6321297883987427
1788861362870994700,1.48599462890625,0.7930904030799866,-0.0024857944808900356,0.39636677503585815
1788861362881000700,1.496000732421875,0.444084495306015,0.17792019248008728,-0.01733930967748165
1788861362891006700,1.5060068359375,-0.13450054824352264,0.37074902653694153,-0.5193776488304138
1788861362901012700,1.5160126953125,-0.44956183433532715,0.31900274753570557,-0.38737407326698303
1788861362911018500,1.5260185546875,-0.6864630579948425,0.19569359719753265,0.09468762576580048
1788861362921024800,1.536024658203125,-0.3258918225765228,-0.3592577576637268,1.1239112615585327
1788861362931030800,1.54603076171875,-0.20783761143684387,-1.1116769313812256,1.735312581062317
1788861362941036800,1.556036865234375,-0.6767199039459229,-1.5562224388122559,1.3297432661056519
1788861362951042600,1.56604248046875,-0.7825472354888916,-1.3833590745925903,0.4853171706199646
1788861362961048600,1.576048583984375,-0.4750373661518097,-0.5061236619949341,-0.4116000533103943
1788861362971054800,1.586054931640625,-0.3737051486968994,0.34742480516433716,-0.8573887348175049
1788861362981060900,1.596060791015625,-0.1248529851436615,0.7468571662902832,-0.6415690779685974
1788861362991066600,1.606066650390625,0.20244312286376953,0.9557943940162659,-0.3613313138484955
1788861363001072600,1.61607275390625,0.3360174298286438,0.8253461122512817,-0.3541506230831146
1788861363011078700,1.62607861328125,0.7046697735786438,-0.21614748239517212,-0.8156407475471497
1788861363021084700,1.636084716796875,1.4598759412765503,-0.768986701965332,-1.0692155361175537
1788861363031090700,1.646090576171875,1.1735986471176147,-0.44244906306266785,-0.7175261378288269
1788861363041096700,1.6560966796875,0.35942474007606506,-0.040580183267593384,-0.1658851057291031
1788861363051102700,1.666102783203125,0.07321376353502274,-0.08218009024858475,0.04372590780258179
1788861363061108500,1.6761083984375,-0.3139350116252899,0.11283440887928009,0.26078179478645325
1788861363071114800,1.68611474609375,-0.4059690833091736,-0.15932334959506989,0.37321752309799194
1788861363081120800,1.696120849609375,-0.4656350612640381,-1.029909372329712,0.6269728541374207
1788861363091126800,1.706126708984375,-0.43893688917160034,-1.9683034420013428,0.7541859149932861
1788861363101132500,1.716132568359375,-0.3098369538784027,-2.165834665298462,0.7798776626586914
1788861363111138600,1.726138671875,-0.2440318465232849,-1.6178948879241943,0.8140367269515991
1788861363121144800,1.736144775390625,-0.2535984516143799,-1.2640318870544434,0.7522700428962708
1788861363131150800,1.74615087890625,-0.26210644841194153,-1.3316189050674438,0.5839028358459473
1788861363141156600,1.756156494140625,-0.0724496990442276,-1.5127968788146973,0.2204330414533615
1788861363151162600,1.76616259765625,0.23352673649787903,-1.3232868909835815,0.12247425317764282
1788861363161168600,1.776168701171875,0.5164481997489929,-1.0514154434204102,0.1483396738767624
1788861363171174700,1.786174560546875,0.5923711657524109,-1.0943104028701782,0.35292184352874756
1788861363181180700,1.7961806640625,0.6379165649414062,-1.1149762868881226,0.645186722278595
1788861363191186700,1.806186767578125,0.6848100423812866,-0.9448778033256531,0.6849759221076965
1788861363201192700,1.816192626953125,0.8149991631507874,-0.6966443061828613,0.5064411163330078
1788861363211198500,1.826198486328125,0.9285995364189148,-0.42636701464653015,0.22598066926002502
1788861363221204700,1.836204833984375,0.9915145635604858,-0.26677682995796204,-0.05877969413995743
1788861363231210800,1.846210693359375,1.0099936723709106,-0.1511961817741394,-0.3916383385658264
1788861363241216800,1.856216796875,0.991123616695404,-0.01673663593828678,-0.7373408675193787
1788861363251222500,1.866222412109375,1.0179486274719238,0.04809482395648956,-0.9218718409538269
1788861363261228800,1.876228759765625,0.8542784452438354,0.2349613755941391,-0.995523989200592
1788861363271234800,1.88623486328125,0.4782129228115082,0.5836458802223206,-0.9102926850318909
1788861363281240600,1.896240478515625,0.10504119843244553,0.9186520576477051,-0.5990599989891052
1788861363291246600,1.90624658203125,-0.3235844671726227,0.9855911731719971,-0.2664377987384796
1788861363301252600,1.916252685546875,-0.6715799570083618,0.9148685336112976,0.037215013056993484
1788861363311259000,1.9262587890625,-0.68561190366745,0.7732394933700562,0.20037411153316498
1788861363321264600,1.9362646484375,-0.38703134655952454,0.3696233332157135,-0.048953428864479065
1788861363331270700,1.946270751953125,-0.0690096914768219,0.02407710626721382,-0.2887931764125824
1788861363341276700,1.956276611328125,0.09401251375675201,-0.07533682882785797,-0.29553577303886414
1788861363351282700,1.96628271484375,-0.02093191258609295,-0.040648892521858215,-0.20381517708301544
1788861363361288700,1.976288818359375,-0.0573333315551281,-0.010692858137190342,-0.15504178404808044
1788861363371294700,1.986294677734375,-0.000010918960470007733,-0.017793377861380577,-0.0094520915299654
1788861363381300700,1.99630078125,0.026922160759568214,0.020480507984757423,0.1297028660774231
1788861363391306800,2.006306640625,-0.025794578716158867,0.10610033571720123,0.14838413894176483
1788861363401312500,2.0163125,-0.052507150918245316,0.03498381748795509,0.03579634800553322
1788861363411318800,2.02631884765625,-0.03322533145546913,0.007733819540590048,-0.02624651789665222
1788861363421324800,2.03632470703125,-0.029856432229280472,-0.0339164212346077,-0.04592887684702873
1788861363431330600,2.04633056640625,-0.0371958389878273,-0.05645768344402313,-0.022939138114452362
1788861363441336600,2.056336669921875,-0.04216023534536362,-0.08714475482702255,0.0020061591640114784
1788861363451342600,2.066342529296875,-0.037342045456171036,-0.12620720267295837,0.017114538699388504
1788861363461348900,2.076348876953125,-0.03164314851164818,-0.15796273946762085,0.013585849665105343
1788861363471354600,2.086354736328125,-0.03548475727438927,-0.15294960141181946,0.003955593332648277
1788861363481360600,2.096360595703125,-0.03810876980423927,-0.14378619194030762,-0.0003352919884491712
1788861363491366700,2.10636669921875,-0.03226925805211067,-0.10960159450769424,0.002132392954081297
1788861363501372700,2.11637255859375,-0.010804710909724236,-0.047382161021232605,-0.0137815922498703
1788861363511378700,2.126378662109375,0.026489930227398872,-0.012055330909788609,-0.04797045513987541
1788861363521384700,2.136384765625,0.068142831325531,-0.021638981997966766,-0.07048242539167404
1788861363531390700,2.146390625,0.10441109538078308,-0.06133659556508064,-0.08283576369285583
1788861363541396700,2.156396728515625,0.13747955858707428,-0.13065467774868011,-0.0896337479352951
1788861363551402500,2.166402587890625,0.16161446273326874,-0.18655763566493988,-0.08837593346834183
1788861363561408800,2.17640869140625,0.16397109627723694,-0.21285021305084229,-0.06729648262262344
1788861363571414800,2.186414794921875,0.15807485580444336,-0.2101321965456009,-0.04717736691236496
1788861363581420500,2.196420654296875,0.144409641623497,-0.1658717840909958,-0.0329800546169281
1788861363591426600,2.206426513671875,0.13662868738174438,-0.12195227295160294,-0.0330897755920887
1788861363601432800,2.216432861328125,0.12423673272132874,-0.06407298892736435,-0.07128483057022095
1788861363611438000,2.22643798828125,0.09371983259916306,0.04186888784170151,-0.123263880610466
1788861363621444400,2.2364443359375,0.028324581682682037,0.18358421325683594,-0.22868724167346954
1788861363631450000,2.2464501953125,-0.04060601443052292,0.41823241114616394,-0.2886403203010559
1788861363641456000,2.2564560546875,-0.05487336963415146,0.5337462425231934,-0.2990191876888275
1788861363651462100,2.266462158203125,-0.07247579842805862,0.4895547926425934,-0.33059683442115784
1788861363661468000,2.276468017578125,-0.11159390211105347,0.39744749665260315,-0.36835432052612305
1788861363671474200,2.28647412109375,-0.1192193329334259,0.3516312837600708,-0.37999287247657776
1788861363681480200,2.296480224609375,-0.1601654291152954,0.32779011130332947,-0.36672818660736084
1788861363691486200,2.306486328125,-0.24907134473323822,0.3886481523513794,-0.33614233136177063
1788861363701492000,2.316491943359375,-0.29095008969306946,0.46696266531944275,-0.35903698205947876
1788861363711498200,2.326498291015625,-0.3036986291408539,0.3196967840194702,-0.4332025647163391
1788861363721504300,2.336504150390625,-0.39124178886413574,0.15952999889850616,-0.5756691694259644
1788861363731510300,2.34651025390625,-0.5385268330574036,0.2867364287376404,-0.7067206501960754
1788861363741516000,2.35651611328125,-0.667225182056427,0.5684900879859924,-0.8218019604682922
1788861363751522000,2.36652197265625,-0.7313538193702698,0.6676400899887085,-0.977600634098053
1788861363761528300,2.3765283203125,-0.7149633765220642,0.4734772741794586,-1.1958160400390625
1788861363771534000,2.3865341796875,-0.6657209992408752,0.11450634151697159,-1.3744430541992188
1788861363781540000,2.3965400390625,-0.6562625169754028,-0.1362326741218567,-1.4422415494918823
1788861363791546000,2.406546142578125,-0.6989290714263916,-0.1749393194913864,-1.41545569896698
1788861363801552100,2.41655224609375,-0.7683225274085999,-0.060681454837322235,-1.3911458253860474
1788861363811558100,2.42655810546875,-0.8348474502563477,0.04597894474864006,-1.4934663772583008
1788861363821564200,2.436564208984375,-0.875983476638794,0.058948270976543427,-1.6765592098236084
1788861363831570200,2.446570068359375,-0.8914204835891724,0.06760434061288834,-1.8051843643188477
1788861363841576200,2.456576171875,-0.8887026906013489,0.1364894062280655,-1.8110398054122925
1788861363851582000,2.46658203125,-0.9253438115119934,0.28514811396598816,-1.7311655282974243
1788861363861589200,2.47658935546875,-1.0122044086456299,0.39083006978034973,-1.6470905542373657
1788861363871595300,2.48659521484375,-1.1274350881576538,0.3205074369907379,-1.529464840888977
1788861363881601000,2.49660107421875,-1.1788493394851685,-0.0700744241476059,-1.4033889770507812
1788861363891607000,2.50660693359375,-1.153704047203064,-0.6368824243545532,-1.2908493280410767
1788861363901613300,2.51661328125,-1.0985653400421143,-1.1412394046783447,-1.2186779975891113
1788861363911619000,2.526619140625,-1.0815446376800537,-1.40657377243042,-1.173806071281433
1788861363921625000,2.536625,-1.1141555309295654,-1.4482778310775757,-1.143107295036316
1788861363931631000,2.546631103515625,-1.1692768335342407,-1.326310634613037,-1.137114405632019
1788861363941637000,2.55663720703125,-1.2391268014907837,-1.1002471446990967,-1.1682642698287964
1788861363951643100,2.56664306640625,-1.2538306713104248,-0.8265588879585266,-1.2244125604629517
1788861363961649200,2.576649169921875,-1.1644256114959717,-0.6309366822242737,-1.2378032207489014
1788861363971655200,2.5866552734375,-1.0219042301177979,-0.6129390597343445,-1.1825037002563477
1788861363981661200,2.5966611328125,-0.9124817848205566,-0.6480075716972351,-1.1619006395339966
1788861363991667000,2.6066669921875,-0.8580231070518494,-0.7061110734939575,-1.1523929834365845
1788861364001673200,2.616673095703125,-0.759427011013031,-0.6536521315574646,-1.1399120092391968
1788861364011679200,2.62667919921875,-0.5893096327781677,-0.5153477787971497,-1.1193535327911377
1788861364021685200,2.636685302734375,-0.4204907715320587,-0.4199903607368469,-1.0792087316513062
1788861364031691000,2.64669091796875,-0.31169503927230835,-0.3929169178009033,-1.006510853767395
1788861364041697000,2.656697021484375,-0.264945387840271,-0.40615522861480713,-0.946439802646637
1788861364051703300,2.666703369140625,-0.2864757180213928,-0.4343045651912689,-0.9147257804870605
1788861364061709000,2.676708984375,-0.3450298309326172,-0.4216234087944031,-0.8767304420471191
1788861364071715000,2.686715087890625,-0.41367867588996887,-0.3746444582939148,-0.7828274369239807
1788861364081721000,2.69672119140625,-0.49931687116622925,-0.35664787888526917,-0.6482341885566711
1788861364091727400,2.706727294921875,-0.6151744723320007,-0.3931845724582672,-0.5111828446388245
1788861364101733000,2.716733154296875,-0.7181597352027893,-0.41431543231010437,-0.4061312675476074
1788861364111739100,2.7267392578125,-0.7597936987876892,-0.3813404440879822,-0.34310171008110046
1788861364121745200,2.7367451171875,-0.7302765846252441,-0.31131207942962646,-0.32792648673057556
1788861364131751200,2.746751220703125,-0.6603760719299316,-0.31477656960487366,-0.30966436862945557
1788861364141757200,2.756757080078125,-0.5790979862213135,-0.3840041160583496,-0.25542911887168884
1788861364151763200,2.76676318359375,-0.5099455714225769,-0.43619194626808167,-0.14028386771678925
1788861364161769200,2.776769287109375,-0.4602706730365753,-0.45201459527015686,-0.022167885676026344
1788861364171775000,2.78677490234375,-0.42605677247047424,-0.47752848267555237,0.06283435225486755
1788861364181781000,2.796781005859375,-0.4254482388496399,-0.42782270908355713,0.06495635956525803
1788861364191787300,2.806787353515625,-0.4441409707069397,-0.40274131298065186,0.04162467643618584
1788861364201793300,2.816793212890625,-0.46620285511016846,-0.4140573740005493,0.018396850675344467
1788861364211799000,2.826799072265625,-0.49855920672416687,-0.5063976645469666,-0.00011105381418019533
1788861364221805000,2.83680517578125,-0.5238456726074219,-0.5729308724403381,-0.008734636008739471
1788861364231811000,2.84681103515625,-0.4880887269973755,-0.5043928623199463,0.04176502302289009
1788861364241817300,2.8568173828125,-0.4673469364643097,-0.32289043068885803,0.10725241899490356
1788861364251823000,2.866822998046875,-0.4860580563545227,-0.2386767566204071,0.06759954988956451
1788861364261829000,2.8768291015625,-0.44855648279190063,-0.43695467710494995,-0.11251801997423172
1788861364271835100,2.886835205078125,-0.4256192147731781,-0.8844397664070129,-0.2584959864616394
1788861364281841200,2.896841064453125,-0.44517213106155396,-1.0417135953903198,-0.2220173478126526
1788861364291847200,2.90684716796875,-0.4818776845932007,-0.804108738899231,-0.1302562803030014
1788861364301853200,2.916853271484375,-0.5191989541053772,-0.5225023627281189,-0.11245943605899811
1788861364311859200,2.926859130859375,-0.5456641316413879,-0.3674166202545166,-0.13080169260501862
1788861364321865000,2.936864990234375,-0.49074867367744446,-0.4058316648006439,-0.05805877596139908
1788861364331872300,2.946872314453125,-0.45224231481552124,-0.5334793925285339,0.03455584496259689
1788861364341878300,2.956878173828125,-0.49555647373199463,-0.5244802832603455,0.022723421454429626
1788861364351884000,2.966884033203125,-0.5967904329299927,-0.4275404214859009,-0.05258810892701149
1788861364361890000,2.97689013671875,-0.6571552157402039,-0.4504225552082062,-0.06327564269304276
1788861364371896000,2.98689599609375,-0.6507013440132141,-0.5716054439544678,0.00487225316464901
1788861364381902300,2.99690234375,-0.6219330430030823,-0.621196448802948,0.05738925561308861
1788861364391908000,3.006908203125,-0.5771504044532776,-0.6070966124534607,0.037390515208244324
1788861364401914000,3.0169140625,-0.512784481048584,-0.5907620787620544,0.019702598452568054
1788861364411920100,3.026920166015625,-0.4577427804470062,-0.5773653388023376,0.050461843609809875
1788861364421926100,3.036926025390625,-0.4467066526412964,-0.49276041984558105,0.061834871768951416
1788861364431932200,3.04693212890625,-0.5012716054916382,-0.3774207830429077,-0.01347825862467289
1788861364441938200,3.056938232421875,-0.5676810145378113,-0.3116796016693115,-0.11105834692716599
1788861364451944200,3.066944091796875,-0.5743815302848816,-0.35986843705177307,-0.18791957199573517
1788861364461950000,3.076949951171875,-0.48704794049263,-0.5067252516746521,-0.2322273850440979
1788861364471956200,3.086956298828125,-0.3784136176109314,-0.638835072517395,-0.24115003645420074
1788861364481962200,3.096962158203125,-0.2962803840637207,-0.6275856494903564,-0.23234029114246368
1788861364491968300,3.10696826171875,-0.2372618168592453,-0.5564038753509521,-0.2505693733692169
1788861364501974000,3.11697412109375,-0.21649156510829926,-0.4491732716560364,-0.296814888715744
1788861364511980000,3.12697998046875,-0.19314149022102356,-0.3688288927078247,-0.3990461826324463
1788861364521986300,3.136986328125,-0.15406839549541473,-0.41933736205101013,-0.47045886516571045
1788861364531992300,3.146992431640625,-0.08062347024679184,-0.46696266531944275,-0.4968952536582947
1788861364541998000,3.156998046875,-0.03189108893275261,-0.5142430663108826,-0.5018223524093628
1788861364552004000,3.167004150390625,0.008887767791748047,-0.4772038459777832,-0.49692243337631226
1788861364562010000,3.177010009765625,0.024572188034653664,-0.3821825087070465,-0.48572197556495667
1788861364572016000,3.18701611328125,0.03284157067537308,-0.3574761152267456,-0.5285799503326416
1788861364582022100,3.197022216796875,0.04699547216296196,-0.40205395221710205,-0.6034699082374573
1788861364592028200,3.207028076171875,0.06047452986240387,-0.42257601022720337,-0.6662419438362122
1788861364602034200,3.2170341796875,0.08591863512992859,-0.4007231891155243,-0.7152150869369507
1788861364612040200,3.227040283203125,0.12448014318943024,-0.41909846663475037,-0.7535533905029297
1788861364622046200,3.237046142578125,0.17312172055244446,-0.35842180252075195,-0.778559148311615
1788861364632052200,3.24705224609375,0.23310862481594086,-0.28630152344703674,-0.7806656956672668
1788861364642059300,3.257059326171875,0.2875811755657196,-0.22213266789913177,-0.7690335512161255
1788861364652065300,3.267065185546875,0.3230816423892975,-0.16570933163166046,-0.8119876980781555
1788861364662071300,3.2770712890625,0.3544774055480957,-0.17476488649845123,-0.8371502757072449
1788861364672077000,3.2870771484375,0.347137987613678,-0.16343659162521362,-0.8856152892112732
1788861364682083300,3.297083251953125,0.3195159435272217,-0.11285384744405746,-0.9359919428825378
1788861364692089300,3.30708935546875,0.31723228096961975,-0.045822083950042725,-0.9432727694511414
1788861364702095400,3.317095458984375,0.33714473247528076,0.0015451660146936774,-0.9582343697547913
1788861364712101000,3.32710107421875,0.3330647647380829,0.015178952366113663,-0.9728953242301941
1788861364722107100,3.337107177734375,0.3122497797012329,0.0411120168864727,-0.9339175820350647
1788861364732113400,3.347113525390625,0.3276937007904053,0.10024218261241913,-0.8762342929840088
1788861364742119400,3.357119384765625,0.32673949003219604,0.12310142815113068,-0.8649550080299377
1788861364752125200,3.367125244140625,0.29300710558891296,0.13379508256912231,-0.8351060748100281
1788861364762131200,3.377131103515625,0.2850876748561859,0.1816060096025467,-0.7890133857727051
1788861364772137200,3.38713720703125,0.28710606694221497,0.11504776030778885,-0.6769465208053589
1788861364782143200,3.397143310546875,0.3011054992675781,0.0819433331489563,-0.6018400192260742
1788861364792149200,3.407149169921875,0.28699982166290283,0.14861904084682465,-0.6051431894302368
1788861364802155300,3.4171552734375,0.25478753447532654,0.17026548087596893,-0.5537154078483582
1788861364812161300,3.427161376953125,0.24681751430034637,0.13674266636371613,-0.5142220258712769
1788861364822167000,3.4371669921875,0.2632100582122803,0.1430239975452423,-0.5733460783958435
1788861364832173300,3.44717333984375,0.287776380777359,0.18450991809368134,-0.6727837324142456
1788861364842179300,3.457179443359375,0.29893529415130615,0.21593016386032104,-0.7225086688995361
1788861364852185300,3.467185302734375,0.2766212224960327,0.2851340174674988,-0.7373704314231873
1788861364862191000,3.477191162109375,0.22906513512134552,0.3694342374801636,-0.7484822273254395
1788861364872197000,3.487197021484375,0.18319831788539886,0.39275500178337097,-0.6899030804634094
1788861364882203400,3.497203369140625,0.12811322510242462,0.40572965145111084,-0.6349953413009644
1788861364892209400,3.50720947265625,0.08898260444402695,0.34874626994132996,-0.5716462135314941
1788861364902215200,3.517215087890625,0.030051110312342644,0.3680936098098755,-0.4887624979019165
1788861364912222500,3.527222412109375,-0.04109150916337967,0.4844156801700592,-0.3781648874282837
1788861364922228200,3.537228271484375,-0.057916030287742615,0.6077740788459778,-0.26467934250831604
1788861364932234200,3.547234130859375,-0.05074520409107208,0.6940991282463074,-0.18523696064949036
1788861364942240300,3.557240234375,-0.06389030069112778,0.6673578023910522,-0.08838073164224625
1788861364952246300,3.567246337890625,-0.09473290294408798,0.6014794707298279,0.056600961834192276
1788861364962252300,3.577252197265625,-0.10871689021587372,0.6982566118240356,0.15036846697330475
1788861364972258300,3.58725830078125,-0.0822376161813736,0.8215841054916382,0.17708423733711243
1788861364982264300,3.597264404296875,-0.0646575540304184,0.9501069188117981,0.20229238271713257
1788861364992270300,3.607270263671875,-0.029943784698843956,1.0893471240997314,0.22103118896484375
1788861365002276000,3.617276123046875,0.005817941855639219,1.135190486907959,0.2769003212451935
1788861365012282400,3.627282470703125,0.016770191490650177,1.0716480016708374,0.31645703315734863
1788861365022288400,3.637288330078125,0.020715398713946342,0.9627153873443604,0.39225754141807556
1788861365032294400,3.64729443359375,0.007494135294109583,0.9211887717247009,0.4765588343143463
1788861365042300200,3.657300048828125,0.014228470623493195,0.9500619173049927,0.5193188190460205
1788861365052306200,3.66730615234375,0.08256065845489502,0.836312472820282,0.5745418667793274
1788861365062312400,3.6773125,0.18577119708061218,0.7099601030349731,0.639503538608551
1788861365072318200,3.687318115234375,0.26594939827919006,0.6490099430084229,0.7264123558998108
1788861365082324200,3.69732421875,0.2946265637874603,0.7114309668540955,0.7947053909301758
1788861365092330200,3.707330322265625,0.2883833348751068,0.8556142449378967,0.8029829859733582
1788861365102336300,3.717336181640625,0.30864837765693665,0.9362710118293762,0.7880498766899109
1788861365112342300,3.72734228515625,0.3653140664100647,0.9282559752464294,0.7552631497383118
1788861365122348300,3.737348388671875,0.42283275723457336,0.8846248984336853,0.7612483501434326
1788861365132354300,3.747354248046875,0.4648353159427643,0.7978668212890625,0.7921900153160095
1788861365142361000,3.757361083984375,0.48005208373069763,0.7242069840431213,0.8231468796730042
1788861365152367400,3.767367431640625,0.4623420834541321,0.7356870770454407,0.8211074471473694
1788861365162373400,3.777373291015625,0.46931156516075134,0.7148462533950806,0.7997525930404663
1788861365172379100,3.787379150390625,0.5260792374610901,0.6630357503890991,0.8012154698371887
1788861365182385200,3.79738525390625,0.5997156500816345,0.5890768766403198,0.8232421875
1788861365192391200,3.80739111328125,0.6679911017417908,0.5012633800506592,0.8484492897987366
1788861365202397400,3.8173974609375,0.731336772441864,0.4892219007015228,0.868297278881073
1788861365212403200,3.8274033203125,0.7573220729827881,0.5547603964805603,0.836910605430603
1788861365222409200,3.8374091796875,0.7605287432670593,0.6276838779449463,0.8057015538215637
1788861365232415200,3.847415283203125,0.7788994908332825,0.6787806153297424,0.8326660990715027
1788861365242421200,3.857421142578125,0.8178352117538452,0.6737033128738403,0.8758106231689453
1788861365252427300,3.86742724609375,0.8627347350120544,0.6210328936576843,0.8971526622772217
1788861365262433300,3.877433349609375,0.9087568521499634,0.557388424873352,0.8778404593467712
1788861365272439300,3.887439208984375,0.9701674580574036,0.4980963468551636,0.8262994885444641
1788861365282445300,3.8974453125,1.0614981651306152,0.4398825764656067,0.8117461204528809
1788861365292451300,3.907451416015625,1.1603355407714844,0.43619170784950256,0.8666970133781433
1788861365302457300,3.917457275390625,1.2218018770217896,0.4353693127632141,0.8961489200592041
1788861365312463400,3.92746337890625,1.235090732574463,0.33737456798553467,0.9038092494010925
1788861365322469000,3.93746923828125,1.2175838947296143,0.26732492446899414,0.9443851709365845
1788861365332475100,3.94747509765625,1.1896108388900757,0.2979094386100769,0.9809125065803528
1788861365342482400,3.957482421875,1.1524618864059448,0.3277760148048401,0.9656646251678467
1788861365352488200,3.96748828125,1.131062626838684,0.28879398107528687,0.9595968723297119
1788861365362494200,3.977494140625,1.1402937173843384,0.20411904156208038,0.9886375665664673
1788861365372500200,3.987500244140625,1.1821039915084839,0.1517021805047989,1.0409252643585205
1788861365382506500,3.997506591796875,1.2165663242340088,0.13402517139911652,1.067713975906372
1788861365392512300,4.00751220703125,1.2065781354904175,0.09530414640903473,1.0983991622924805
1788861365402518300,4.017518310546875,1.1663912534713745,0.1092415377497673,1.1394672393798828
1788861365412524300,4.027524169921875,1.1056965589523315,0.15819363296031952,1.1990864276885986
1788861365422530000,4.037530029296875,1.031684398651123,0.11447437852621078,1.2446736097335815
1788861365432536300,4.047536376953125,0.9968345165252686,0.06216616928577423,1.2685067653656006
1788861365442542300,4.057542236328125,1.0228642225265503,0.09482131898403168,1.3206051588058472
1788861365452548400,4.06754833984375,1.0621421337127686,0.18301482498645782,1.3534679412841797
1788861365462554000,4.07755419921875,1.0608707666397095,0.21575333178043365,1.377844214439392
1788861365472560000,4.08756005859375,1.0297996997833252,0.22739773988723755,1.40021812915802
1788861365482566400,4.09756640625,0.985223114490509,0.269322007894516,1.417842984199524
1788861365492572400,4.107572509765625,0.9418524503707886,0.30872347950935364,1.4118298292160034
1788861365502578200,4.117578125,0.9036108255386353,0.2999925911426544,1.373378038406372
1788861365512584200,4.127584228515625,0.8462601900100708,0.21633149683475494,1.304062843322754
1788861365522590200,4.137590087890625,0.7801938056945801,0.09788874536752701,1.2431803941726685
1788861365532597200,4.14759716796875,0.7348045110702515,0.06216936558485031,1.2208603620529175
1788861365542603300,4.157603271484375,0.7165056467056274,-0.011480354703962803,1.2188174724578857
1788861365552609300,4.167609375,0.6943497657775879,-0.15206755697727203,1.1861631870269775
1788861365562615000,4.177614990234375,0.6271675229072571,-0.24893897771835327,1.1235325336456299
1788861365572621300,4.187621337890625,0.5051036477088928,-0.1796422004699707,1.050959825515747
1788861365582627300,4.19762744140625,0.34131285548210144,-0.04144890606403351,0.9656915068626404
1788861365592633300,4.20763330078125,0.16574901342391968,0.04900083318352699,0.857751727104187
1788861365602639000,4.21763916015625,0.01985280029475689,0.014407701790332794,0.7436363101005554
1788861365612645000,4.22764501953125,-0.07559489458799362,-0.1539432257413864,0.6304828524589539
1788861365622651100,4.237651123046875,-0.12543675303459167,-0.29730597138404846,0.4995347261428833
1788861365632657200,4.2476572265625,-0.17047959566116333,-0.2832798957824707,0.3569357693195343
1788861365642663200,4.2576630859375,-0.23165932297706604,-0.16684064269065857,0.23499493300914764
1788861365652669200,4.267669189453125,-0.29367634654045105,-0.07348673045635223,0.16941486299037933
1788861365662675200,4.27767529296875,-0.3498360216617584,0.002234924817457795,0.1214180439710617
1788861365672681200,4.28768115234375,-0.448040634393692,-0.016024772077798843,0.0353260338306427
1788861365682688300,4.297688232421875,-0.5749125480651855,-0.1284908652305603,-0.09461412578821182
1788861365692694300,4.3076943359375,-0.6994537115097046,-0.19877834618091583,-0.25081250071525574
1788861365702700000,4.317699951171875,-0.7847003936767578,-0.32021769881248474,-0.36712953448295593
1788861365712706000,4.3277060546875,-0.7853632569313049,-0.5004902482032776,-0.4313892126083374
1788861365722712000,4.337712158203125,-0.7330153584480286,-0.46269574761390686,-0.4337325394153595
1788861365732718300,4.34771826171875,-0.686351478099823,-0.18844953179359436,-0.3947931230068207
1788861365742724000,4.35772412109375,-0.6718774437904358,0.07857497036457062,-0.366903156042099
1788861365752730000,4.367730224609375,-0.6726590991020203,0.19097794592380524,-0.3737916946411133
1788861365762736000,4.377736083984375,-0.6507689952850342,0.16004905104637146,-0.4260282814502716
1788861365772742100,4.3877421875,-0.638229489326477,-0.023501597344875336,-0.5198511481285095
1788861365782748200,4.397748046875,-0.7698330283164978,-1.3209446668624878,-1.124481439590454
1788861365792754200,4.407754150390625,-0.7829411029815674,-1.1995497941970825,-0.995245635509491
1788861365802760200,4.41776025390625,-0.6684571504592896,-0.9371019601821899,-0.8240824341773987
1788861365812766000,4.427765869140625,-0.5486149191856384,-0.5357377529144287,-0.5499659180641174
1788861365822772000,4.43777197265625,-0.4338419735431671,0.08779563009738922,-0.26362738013267517
1788861365832778200,4.4477783203125,-0.18828415870666504,0.5418499708175659,0.0009755159262567759
1788861365842785000,4.457784912109375,-0.1894650012254715,0.29442098736763,0.018604576587677002
1788861365852791000,4.467791015625,-0.6003409624099731,-0.07949215918779373,-0.41687285900115967
1788861365862797300,4.47779736328125,-0.6423453688621521,-0.07185821235179901,-0.946371853351593
1788861365872803300,4.48780322265625,-0.3981359302997589,0.200392484664917,-1.1074776649475098
1788861365882809000,4.49780908203125,-0.2688008248806,0.20542480051517487,-0.9221519827842712
1788861365892815000,4.507815185546875,-0.30206185579299927,-0.1749851256608963,-0.5531878471374512
1788861365902821000,4.517821044921875,-0.31210944056510925,-0.2034740298986435,-0.34238556027412415
1788861365912827100,4.5278271484375,-0.36561524868011475,-0.002960103563964367,-0.3108481466770172
1788861365922833200,4.537833251953125,-0.49240756034851074,0.09010113030672073,-0.338620662689209
1788861365932839200,4.547839111328125,-0.5674461126327515,0.09304685145616531,-0.38370105624198914
1788861365942845200,4.55784521484375,-0.5822213292121887,0.25030598044395447,-0.4763905107975006
1788861365952851000,4.567850830078125,-0.5785581469535828,0.6256684064865112,-0.6685410737991333
1788861365962857200,4.577857177734375,-0.5209832787513733,0.9676409363746643,-0.917824387550354
1788861365972863200,4.58786328125,-0.28077226877212524,0.7520612478256226,-1.1616562604904175
1788861365982870000,4.5978701171875,-0.25087296962738037,0.45853134989738464,-1.2273108959197998
1788861365992876000,4.6078759765625,-0.36819079518318176,0.21833978593349457,-1.1141436100006104
1788861366002882300,4.61788232421875,-0.43641966581344604,0.10654455423355103,-0.9628528356552124
1788861366012888300,4.627888427734375,-0.4212990403175354,0.04776139557361603,-0.8662980794906616
1788861366022894000,4.63789404296875,-0.4243036210536957,0.0009174589649774134,-0.8551005125045776
1788861366032900000,4.647900146484375,-0.47666189074516296,-0.03471856564283371,-0.9238489866256714
1788861366042906000,4.657906005859375,-0.52362459897995,-0.11247754096984863,-1.0328673124313354
1788861366052912000,4.667912109375,-0.5557686686515808,-0.2275303602218628,-1.0765037536621094
1788861366062918100,4.677918212890625,-0.5681403875350952,-0.27019527554512024,-1.0716525316238403
1788861366072924200,4.687924072265625,-0.5696746706962585,-0.2922965884208679,-1.0854191780090332
1788861366082930200,4.69793017578125,-0.5917325615882874,-0.26450061798095703,-1.0909663438796997
1788861366092936000,4.70793603515625,-0.631438136100769,-0.11776231974363327,-1.060153841972351
1788861366102942200,4.717942138671875,-0.6573384404182434,-0.02509363554418087,-1.0299125909805298
1788861366112949200,4.72794921875,-0.6753584742546082,-0.056406550109386444,-1.002014398574829
1788861366122955000,4.737955078125,-0.6964741349220276,-0.14305248856544495,-1.029296875
1788861366132961000,4.7479609375,-0.7212660312652588,-0.2234669178724289,-1.079965353012085
1788861366142967300,4.75796728515625,-0.7299844622612,-0.366865336894989,-1.113822102546692
1788861366152973000,4.76797314453125,-0.7181424498558044,-0.6285454034805298,-1.125750184059143
1788861366162979000,4.77797900390625,-0.6839545965194702,-0.8993934392929077,-1.151026964187622
1788861366172985000,4.787985107421875,-0.6261246204376221,-1.0852786302566528,-1.1949526071548462
1788861366182991000,4.7979912109375,-0.5489632487297058,-1.1977630853652954,-1.2229853868484497
1788861366192997000,4.8079970703125,-0.5135746598243713,-1.1834837198257446,-1.2263052463531494
1788861366203003100,4.818003173828125,-0.5039478540420532,-1.0805422067642212,-1.2504843473434448
1788861366213009200,4.828009033203125,-0.4821583926677704,-1.0058386325836182,-1.2820258140563965
1788861366223015200,4.83801513671875,-0.42239120602607727,-0.9785550832748413,-1.2894493341445923
1788861366233021200,4.848021240234375,-0.34050217270851135,-0.9791138172149658,-1.284484624862671
1788861366243028200,4.8580283203125,-0.26548734307289124,-1.0386312007904053,-1.2801858186721802
1788861366253034200,4.8680341796875,-0.1997634470462799,-1.0975807905197144,-1.2851587533950806
1788861366263040000,4.8780400390625,-0.1406513899564743,-1.0937256813049316,-1.3114970922470093
1788861366273046300,4.88804638671875,-0.06510629504919052,-1.0694514513015747,-1.3256046772003174
1788861366283052300,4.89805224609375,0.013034841977059841,-0.9810539484024048,-1.2769588232040405
1788861366293058000,4.90805810546875,0.000636761833447963,-0.8632367849349976,-1.2162302732467651
1788861366303064000,4.91806396484375,-0.05850512161850929,-0.7132062315940857,-1.2027772665023804
1788861366313070000,4.928070068359375,-0.09231794625520706,-0.5555423498153687,-1.2732831239700317
1788861366323076400,4.938076416015625,-0.058949071913957596,-0.766893744468689,-1.3620601892471313
1788861366333082000,4.94808203125,-0.029199963435530663,-1.1585307121276855,-1.4598809480667114
1788861366343088000,4.958088134765625,-0.05077023804187775,-1.3426289558410645,-1.4972022771835327
1788861366353094100,4.96809423828125,-0.101540207862854,-1.124183177947998,-1.5212258100509644
1788861366363101200,4.97810107421875,-0.10813632607460022,-0.7582538723945618,-1.5319287776947021
1788861366373107200,4.988107177734375,-0.07992545515298843,-0.5418440699577332,-1.344228744506836
1788861366383113200,4.99811328125,-0.07187578827142715,-0.4801519513130188,-1.0798945426940918
1788861366393119000,5.008118896484375,-0.0813736841082573,-0.3813313841819763,-0.947499692440033
1788861366403125000,5.018125,-0.12494859099388123,-0.2310238927602768,-0.8609656095504761
1788861366413131300,5.02813134765625,-0.21606625616550446,-0.15115197002887726,-0.7606714963912964
1788861366423137300,5.03813720703125,-0.32395970821380615,-0.0711604654788971,-0.6929295063018799
1788861366433143000,5.04814306640625,-0.3735235333442688,-0.04005900397896767,-0.5649241209030151
1788861366443149000,5.058149169921875,-0.356999933719635,0.027965588495135307,-0.39023351669311523
1788861366453155000,5.068155029296875,-0.3208184838294983,0.180442214012146,-0.3116215467453003
1788861366463161300,5.078161376953125,-0.2634814381599426,0.33728376030921936,-0.30301952362060547
1788861366473168100,5.088168212890625,-0.20421625673770905,0.41233348846435547,-0.21410323679447174
1788861366483174100,5.098174072265625,-0.16632452607154846,0.4188803434371948,-0.09185109287500381
1788861366493180200,5.10818017578125,-0.12780563533306122,0.2784063220024109,-0.04144331440329552
1788861366503186200,5.118186279296875,-0.09369426965713501,0.1816110759973526,-0.009004946798086166
1788861366513192200,5.128192138671875,-0.04086514189839363,0.1859232634305954,-0.007497863844037056
1788861366523198200,5.1381982421875,0.03706108033657074,0.261248916387558,0.014757107943296432
1788861366533204000,5.148203857421875,0.03518035635352135,0.35349708795547485,0.004911135416477919
1788861366543210000,5.1582099609375,0.07194476574659348,0.3831154406070709,0.014250041916966438
1788861366553216300,5.16821630859375,0.1373107135295868,0.31088677048683167,0.02810353972017765
1788861366563222300,5.17822216796875,0.23414485156536102,0.3302335739135742,0.058640409260988235
1788861366573228000,5.18822802734375,0.32193464040756226,0.3597120940685272,0.12416668981313705
1788861366583235000,5.198235107421875,0.4068239629268646,0.33959484100341797,0.21688143908977509
1788861366593241000,5.208240966796875,0.48644793033599854,0.2876474857330322,0.3386973738670349
1788861366603247000,5.2182470703125,0.5446798205375671,0.24795041978359222,0.45470091700553894
1788861366613254000,5.22825390625,0.5834839344024658,0.2872626781463623,0.5804335474967957
1788861366623260000,5.238260009765625,0.6042017340660095,0.3711514472961426,0.7060617804527283
1788861366633265700,5.248265625,0.6109949350357056,0.48140791058540344,0.7834596633911133
1788861366643271700,5.258271728515625,0.6117153167724609,0.5069832801818848,0.8720134496688843
1788861366653278000,5.26827783203125,0.6124039888381958,0.5700392127037048,0.9992534518241882
1788861366663283700,5.27828369140625,0.6269720196723938,0.6400539875030518,1.1306679248809814
1788861366673289700,5.288289794921875,0.6544936895370483,0.6169108748435974,1.2282229661941528
1788861366683295700,5.298295654296875,0.6862058043479919,0.5429868698120117,1.3082836866378784
1788861366693302800,5.308302734375,0.7092431783676147,0.4205898344516754,1.3689478635787964
1788861366703308800,5.318308837890625,0.7230772376060486,0.3217058479785919,1.4247429370880127
1788861366713314800,5.328314697265625,0.7471998929977417,0.30616044998168945,1.4561954736709595
1788861366723320800,5.33832080078125,0.7950134873390198,0.29316848516464233,1.464995265007019
1788861366733326600,5.34832666015625,0.8417442440986633,0.23092935979366302,1.4548803567886353
1788861366743332900,5.358332763671875,0.8816083073616028,0.19357213377952576,1.4400396347045898
1788861366753339000,5.3683388671875,0.8984379172325134,0.16179023683071136,1.3931056261062622
1788861366763344600,5.3783447265625,0.8737291097640991,0.0720859095454216,1.3566997051239014
1788861366773350700,5.3883505859375,0.8308852314949036,-0.009652627632021904,1.3520525693893433
1788861366783356700,5.398356689453125,0.7942041754722595,-0.016877250745892525,1.3703638315200806
1788861366793363000,5.408363037109375,0.7570525407791138,-0.024506408721208572,1.3960248231887817
1788861366803369700,5.41836962890625,0.7047392725944519,-0.03424398973584175,1.4310051202774048
1788861366813375700,5.428375732421875,0.6435614228248596,-0.010215885937213898,1.4941627979278564
1788861366823381800,5.4383818359375,0.5981329083442688,0.04872599244117737,1.6011539697647095
1788861366833387800,5.4483876953125,0.5936055779457092,0.07672460377216339,1.686530351638794
1788861366843393800,5.458393798828125,0.6239043474197388,0.012220446951687336,1.7144336700439453
1788861366853399800,5.46839990234375,0.639654815196991,-0.13836133480072021,1.7023029327392578
1788861366863405800,5.47840576171875,0.6350576281547546,-0.1858646720647812,1.7402468919754028
1788861366873411600,5.48841162109375,0.6230851411819458,-0.09455420076847076,1.8241989612579346
1788861366883417900,5.49841796875,0.5987340211868286,-0.027638286352157593,1.8853845596313477
1788861366893424600,5.508424560546875,0.5533263087272644,-0.05848834291100502,1.9454522132873535
1788861366903430700,5.5184306640625,0.5260342359542847,-0.10456742346286774,1.9995918273925781
1788861366913436700,5.528436767578125,0.5300513505935669,-0.08396494388580322,2.049811363220215
1788861366923443000,5.53844287109375,0.5623083710670471,-0.03596492484211922,2.07436466217041
1788861366933448700,5.54844873046875,0.6188331246376038,0.0610915832221508,2.03941011428833
1788861366943454700,5.558454833984375,0.6595273017883301,0.22593779861927032,2.0073723793029785
1788861366953460700,5.568460693359375,0.6900143623352051,0.38126665353775024,2.0314528942108154
1788861366963467000,5.578467041015625,0.700691819190979,0.4148813486099243,2.06008243560791
1788861366973472800,5.58847265625,0.6659111976623535,0.31643015146255493,2.041166305541992
1788861366983478800,5.598478759765625,0.565389096736908,0.22226183116436005,1.9622503519058228
1788861366993485600,5.608485595703125,0.43723300099372864,0.2520918846130371,1.8186132907867432
1788861367003491800,5.618491943359375,0.33914902806282043,0.3277014493942261,1.6160287857055664
1788861367013497900,5.628497802734375,0.28232118487358093,0.36293691396713257,1.387492060661316
1788861367023504000,5.63850390625,0.25363439321517944,0.40190643072128296,1.1816658973693848
1788861367033509600,5.648509521484375,0.24697250127792358,0.45227426290512085,1.0042718648910522
1788861367043515600,5.658515625,0.25473853945732117,0.41553354263305664,0.8086233139038086
1788861367053522000,5.66852197265625,0.23346441984176636,0.23815877735614777,0.5869055986404419
1788861367063528000,5.67852783203125,0.14961080253124237,0.021857628598809242,0.39103540778160095
1788861367073533700,5.68853369140625,0.03705016151070595,-0.10835044085979462,0.22148951888084412
1788861367083539700,5.698539794921875,-0.1108199879527092,-0.10345874726772308,0.03098481334745884
1788861367093546800,5.708546630859375,-0.255085825920105,0.010565824806690216,-0.18449634313583374
1788861367103552800,5.718552734375,-0.3369596600532532,0.08662650734186172,-0.38602733612060547
1788861367113558800,5.728558837890625,-0.392682820558548,0.049306031316518784,-0.5736582279205322
1788861367123564800,5.738564697265625,-0.47124049067497253,-0.0011113371001556516,-0.7364702820777893
1788861367133570600,5.748570556640625,-0.5439581274986267,0.013442039489746094,-0.8726073503494263
1788861367143576800,5.758576904296875,-0.5652657747268677,0.0876515582203865,-0.9822763204574585
1788861367153582800,5.768582763671875,-0.5778811573982239,0.1757664978504181,-1.0453016757965088
1788861367163588900,5.7785888671875,-0.6112955808639526,0.17240266501903534,-1.0529576539993286
1788861367173594600,5.7885947265625,-0.6727911829948425,0.1853456199169159,-1.0372860431671143
1788861367183602000,5.798601806640625,-0.7432640194892883,0.31646716594696045,-1.0630347728729248
1788861367193607700,5.808607666015625,-0.7881537079811096,0.467547208070755,-1.1812916994094849
1788861367203613700,5.81861376953125,-0.8123389482498169,0.5106760263442993,-1.3523659706115723
1788861367213619700,5.82861962890625,-0.8342570662498474,0.4261193573474884,-1.503250002861023
1788861367223625700,5.838625732421875,-0.8222251534461975,0.29444175958633423,-1.5274394750595093
1788861367233631700,5.8486318359375,-0.7742379307746887,0.1416759043931961,-1.3661869764328003
1788861367243637800,5.8586376953125,-0.7381054759025574,-0.0019441075855866075,-1.0971659421920776
1788861367253643800,5.868643798828125,-0.7355006337165833,-0.05740523710846901,-0.8180176019668579
1788861367263649800,5.87864990234375,-0.7491021752357483,-0.03988376632332802,-0.6562715768814087
1788861367273656800,5.88865673828125,-0.7789226770401001,-0.029144836589694023,-0.683435320854187
1788861367283662800,5.898662841796875,-0.8313890695571899,-0.0874779149889946,-0.8410055041313171
1788861367293668900,5.9086689453125,-0.8749147057533264,-0.1815229207277298,-1.038881540298462
1788861367303674600,5.918674560546875,-0.8794727325439453,-0.18615283071994781,-1.1993529796600342
1788861367313681000,5.928680908203125,-0.8616197109222412,-0.08529732376337051,-1.1880654096603394
1788861367323687000,5.93868701171875,-0.8317469954490662,0.011623633094131947,-1.0196290016174316
1788861367333692700,5.948692626953125,-0.8013361096382141,0.06346152722835541,-0.8891852498054504
1788861367343698700,5.95869873046875,-0.7579822540283203,0.06326258927583694,-0.8902486562728882
1788861367353706000,5.9687060546875,-0.6965228915214539,0.019767045974731445,-0.9666616916656494
1788861367363711700,5.978711669921875,-0.646310031414032,-0.041434258222579956,-1.0395771265029907
1788861367373717800,5.9887177734375,-0.6253032684326172,-0.12730975449085236,-1.0588339567184448
1788861367383723800,5.998723876953125,-0.6506587266921997,-0.22456306219100952,-1.0440174341201782
1788861367393729800,6.008729736328125,-0.6963524222373962,-0.35696718096733093,-0.9980416893959045
1788861367403735800,6.01873583984375,-0.7127207517623901,-0.4858468770980835,-0.949510395526886
1788861367413741800,6.028741943359375,-0.7079832553863525,-0.4866151809692383,-0.9460717439651489
1788861367423747800,6.038747802734375,-0.7189107537269592,-0.3764769732952118,-0.9805013537406921
1788861367433753900,6.04875390625,-0.7644215226173401,-0.3020695745944977,-0.9873470067977905
1788861367443761000,6.058760986328125,-0.8141688108444214,-0.33921322226524353,-0.9564087986946106
1788861367453767000,6.068766845703125,-0.8520373702049255,-0.4191650450229645,-0.9429134726524353
1788861367463772700,6.078772705078125,-0.8746896982192993,-0.4747084677219391,-0.9598527550697327
1788861367473778700,6.08877880859375,-0.8532856106758118,-0.522574782371521,-0.9942933320999146
1788861367483784700,6.09878466796875,-0.7956387996673584,-0.573835551738739,-1.0433088541030884
1788861367493791000,6.108791015625,-0.7316491603851318,-0.6530547738075256,-1.0622574090957642
1788861367503796700,6.118796630859375,-0.6795180439949036,-0.6971908211708069,-1.0352224111557007
1788861367513802800,6.128802734375,-0.6261177062988281,-0.6589632630348206,-1.0101522207260132
1788861367523808800,6.138808837890625,-0.5685361623764038,-0.6681810021400452,-1.0053057670593262
1788861367533815800,6.14881591796875,-0.5185414552688599,-0.7510697245597839,-1.0283654928207397
1788861367543821800,6.15882177734375,-0.4987618625164032,-0.8754369616508484,-1.0762829780578613
1788861367553827800,6.168827880859375,-0.47921720147132874,-0.9648236036300659,-1.1224504709243774
1788861367563833600,6.17883349609375,-0.4391520619392395,-0.9705991744995117,-1.137027621269226
1788861367573839600,6.188839599609375,-0.3957955241203308,-0.9036422371864319,-1.1343404054641724
1788861367583846000,6.198845947265625,-0.33376598358154297,-0.8680847883224487,-1.1417925357818604
1788861367593852000,6.208851806640625,-0.247839093208313,-0.9767351150512695,-1.1939294338226318
1788861367603857700,6.218857666015625,-0.17961716651916504,-1.1811788082122803,-1.1877142190933228
1788861367613865000,6.228864990234375,-0.11512552201747894,-1.2913726568222046,-1.0947784185409546
1788861367623871000,6.23887109375,-0.04093864560127258,-1.2282216548919678,-1.0621557235717773
1788861367633876700,6.248876708984375,0.021401960402727127,-1.3237903118133545,-1.1505206823349
1788861367643883000,6.258883056640625,0.037030722945928574,-1.4499900341033936,-1.2425202131271362
1788861367653889000,6.268888916015625,0.00401737866923213,-1.307387351989746,-1.238747000694275
1788861367663894800,6.278894775390625,-0.06217043101787567,-0.9058138132095337,-1.2667820453643799
1788861367673900800,6.28890087890625,-0.10650353878736496,-0.5914422869682312,-1.3094244003295898
1788861367683906800,6.29890673828125,-0.12703678011894226,-0.4283026158809662,-1.2863142490386963
1788861367693913000,6.3089130859375,-0.1757558435201645,-0.33325812220573425,-1.2048680782318115
1788861367703919900,6.318919921875,-0.20814041793346405,-0.2985613942146301,-1.0493032932281494
1788861367713926000,6.32892578125,-0.17222262918949127,-0.1529695689678192,-0.8230640292167664
1788861367723932000,6.338931884765625,-0.12529586255550385,0.07208377867937088,-0.682465136051178
1788861367733938000,6.34893798828125,-0.1373986005783081,0.18091759085655212,-0.6667588353157043
1788861367743944000,6.35894384765625,-0.16258704662322998,0.15636856853961945,-0.505021333694458
1788861367753950000,6.368949951171875,-0.15120576322078705,0.11527359485626221,-0.29993078112602234
1788861367763955700,6.378955810546875,-0.1042555645108223,0.1349349170923233,-0.20064468681812286
1788861367773963000,6.388962890625,-0.02563771978020668,0.23799924552440643,-0.07318633049726486
1788861367783969000,6.398968994140625,0.037039242684841156,0.25354331731796265,0.02328401803970337
1788861367793974800,6.408974853515625,0.05643877387046814,0.40573978424072266,0.006629673298448324
1788861367803980800,6.418980712890625,0.042520031332969666,0.5751519799232483,-0.0026732811238616705
1788861367813986800,6.42898681640625,0.02148505114018917,0.5899498462677002,0.04760373756289482
1788861367823993000,6.4389931640625,0.006333529483526945,0.560455322265625,0.14787361025810242
1788861367833998800,6.448998779296875,0.01500877644866705,0.5403042435646057,0.2540711462497711
1788861367844004900,6.4590048828125,0.06827332824468613,0.5444907546043396,0.3609808385372162
1788861367854012000,6.469011962890625,0.15901495516300201,0.48075491189956665,0.46747663617134094
1788861367864018000,6.479017822265625,0.2566738724708557,0.42481812834739685,0.5759314894676208
1788861367874024000,6.48902392578125,0.3226901590824127,0.38357722759246826,0.6887451410293579
1788861367884030000,6.499030029296875,0.38163310289382935,0.3968876898288727,0.8080605864524841
1788861367894035700,6.50903564453125,0.4717547595500946,0.4814252257347107,0.9377802610397339
1788861367904042000,6.5190419921875,0.5762524008750916,0.5818799138069153,1.048889398574829
1788861367914048000,6.529048095703125,0.6528526544570923,0.6632189750671387,1.1773885488510132
1788861367924054000,6.539053955078125,0.7099718451499939,0.7205474972724915,1.3123418092727661
1788861367934060800,6.549060791015625,0.7480470538139343,0.7840647101402283,1.429876685142517
1788861367944067000,6.559067138671875,0.7596307396888733,0.7581068873405457,1.5330244302749634
1788861367954072800,6.56907275390625,0.7457985281944275,0.7106757164001465,1.5830687284469604
1788861367964078800,6.579078857421875,0.7355954647064209,0.7029567956924438,1.6065164804458618
1788861367974084900,6.5890849609375,0.7512404322624207,0.7067126631736755,1.6127206087112427
1788861367984091000,6.5990908203125,0.7919585704803467,0.6431925296783447,1.5776067972183228
1788861367994097000,6.609096923828125,0.8338253498077393,0.5475499033927917,1.5438246726989746
1788861368004103000,6.61910302734375,0.883838415145874,0.5436768531799316,1.5687965154647827
1788861368014110000,6.62910986328125,0.9549038410186768,0.5958575010299683,1.6304333209991455
1788861368024115700,6.63911572265625,1.0419024229049683,0.5864885449409485,1.7421473264694214
1788861368034122000,6.6491220703125,1.1168104410171509,0.5506815314292908,1.841339349746704
1788861368044128000,6.6591279296875,1.1435091495513916,0.5086653828620911,1.8504889011383057
1788861368054134000,6.669134033203125,1.1062432527542114,0.49416792392730713,1.8160841464996338
1788861368064139800,6.679139892578125,1.0429141521453857,0.472103089094162,1.8032023906707764
1788861368074145800,6.689145751953125,1.0131522417068481,0.4459969103336334,1.8291947841644287
1788861368084152000,6.699152099609375,1.0052578449249268,0.4427547752857208,1.885955810546875
1788861368094158800,6.709158935546875,1.0087835788726807,0.41087037324905396,1.9389317035675049
1788861368104164900,6.719164794921875,1.0077558755874634,0.3454822897911072,1.9928964376449585
1788861368114171000,6.7291708984375,1.0046354532241821,0.382625937461853,2.04925274848938
1788861368124177000,6.739177001953125,0.9809852242469788,0.49573493003845215,2.081418514251709
1788861368134183000,6.749182861328125,0.9270461201667786,0.5610619783401489,2.080899953842163
1788861368144189000,6.75918896484375,0.852898120880127,0.5534306764602661,2.074276924133301
1788861368154195000,6.76919482421875,0.7918027639389038,0.5443570613861084,2.065786123275757
1788861368164202000,6.779201904296875,0.778408944606781,0.6096804141998291,2.0822813510894775
1788861368174208000,6.7892080078125,0.8109967112541199,0.6376063227653503,2.096412181854248
1788861368184213800,6.7992138671875,0.8298271298408508,0.5655584931373596,2.0673699378967285
1788861368194219800,6.8092197265625,0.7882972955703735,0.5229175090789795,1.9906904697418213
1788861368204225800,6.819225830078125,0.6770343780517578,0.5091180801391602,1.8571934700012207
1788861368214232000,6.829232177734375,0.5521041750907898,0.46039503812789917,1.682658076286316
1788861368224237800,6.83923779296875,0.4798339903354645,0.4260556995868683,1.4636362791061401
1788861368234244900,6.849244873046875,0.46111541986465454,0.49422863125801086,1.2086130380630493
1788861368244251100,6.859251220703125,0.4351205825805664,0.6626032590866089,0.9528958201408386
1788861368254257000,6.8692568359375,0.3731437623500824,0.7246677279472351,0.7353752255439758
1788861368264263000,6.879262939453125,0.3013680875301361,0.5364599823951721,0.5510495901107788
1788861368274269000,6.88926904296875,0.23606473207473755,0.30353617668151855,0.3913792073726654
1788861368284275000,6.89927490234375,0.1637524515390396,0.25825896859169006,0.21919439733028412
1788861368294281000,6.909281005859375,0.07633232325315475,0.18870359659194946,0.019940419122576714
1788861368304287000,6.919286865234375,0.0065135592594742775,-0.006754841655492783,-0.18099534511566162
1788861368314293800,6.929293701171875,-0.0458601675927639,-0.11141867190599442,-0.35028478503227234
1788861368324299800,6.9392998046875,-0.08828805387020111,-0.10032261162996292,-0.4869118630886078
1788861368334306000,6.94930615234375,-0.13026612997055054,-0.07972545176744461,-0.5855407118797302
1788861368344312000,6.95931201171875,-0.16143177449703217,-0.10125498473644257,-0.6321635842323303
1788861368354317800,6.96931787109375,-0.17414410412311554,-0.07056152075529099,-0.634876012802124
1788861368364323800,6.97932373046875,-0.19214467704296112,0.04050614684820175,-0.6349668502807617
1788861368374329900,6.989329833984375,-0.23039112985134125,0.14082342386245728,-0.6635146141052246
1788861368384337000,6.9993369140625,-0.29486146569252014,0.11914769560098648,-0.6947726607322693
1788861368394343000,7.009343017578125,-0.3591831922531128,0.059114452451467514,-0.7408791780471802
1788861368404349000,7.019348876953125,-0.4144480526447296,0.09988957643508911,-0.823231041431427
1788861368414354700,7.029354736328125,-0.44959166646003723,0.20259518921375275,-0.9283952713012695
1788861368424361000,7.03936083984375,-0.46502041816711426,0.20914043486118317,-0.991725742816925
1788861368434367000,7.049366943359375,-0.4688100814819336,0.11765419691801071,-1.0099519491195679
1788861368444373000,7.059373046875,-0.4726104140281677,0.01648549921810627,-0.9970467686653137
1788861368454379800,7.0693798828125,-0.4882250726222992,-0.010988202877342701,-0.9686044454574585
1788861368464386000,7.079385986328125,-0.5079149007797241,0.016437295824289322,-0.9478632211685181
1788861368474392000,7.08939208984375,-0.530876100063324,0.033189110457897186,-0.931945264339447
1788861368484397800,7.099397705078125,-0.5665246844291687,0.016145946457982063,-0.9222438931465149
1788861368494403800,7.10940380859375,-0.6069450378417969,-0.0009859022684395313,-0.934873104095459
1788861368504409900,7.119409912109375,-0.6261075735092163,0.025921078398823738,-0.9576559662818909
1788861368514415900,7.129415771484375,-0.61881023645401,0.05481771007180214,-0.97215336561203
1788861368524423000,7.1394228515625,-0.5942835807800293,0.014721687883138657,-0.9822092056274414
1788861368534429000,7.149428955078125,-0.5634644031524658,-0.107031911611557,-0.9978952407836914
1788861368544434700,7.1594345703125,-0.5490426421165466,-0.26562049984931946,-1.026788353919983
1788861368554441000,7.16944091796875,-0.5513057708740234,-0.3615912199020386,-1.0081148147583008
1788861368564447000,7.179447021484375,-0.5737836360931396,-0.344486266374588,-0.9607273936271667
1788861368574453000,7.189452880859375,-0.6131584644317627,-0.21038253605365753,-0.956004798412323
1788861368584458800,7.199458740234375,-0.661109209060669,-0.06411373615264893,-1.0045568943023682
1788861368594466000,7.209466064453125,-0.690235435962677,-0.08509465306997299,-1.085566520690918
1788861368604471800,7.219471923828125,-0.6926884651184082,-0.261660099029541,-1.175524353981018
1788861368614477800,7.229477783203125,-0.702119767665863,-0.4577883183956146,-1.243597149848938
1788861368624483600,7.239483642578125,-0.7234410643577576,-0.5414488911628723,-1.2584810256958008
1788861368634489600,7.249489501953125,-0.7278275489807129,-0.5183728337287903,-1.2545329332351685
1788861368644495400,7.259495361328125,-0.7082887291908264,-0.4834348261356354,-1.2926123142242432
1788861368654501400,7.26950146484375,-0.6809319257736206,-0.4767223298549652,-1.3507581949234009
1788861368664508700,7.2795087890625,-0.6593725681304932,-0.536178469657898,-1.419095754623413
1788861368674514400,7.289514404296875,-0.6490216851234436,-0.6129206418991089,-1.4879027605056763
1788861368684520400,7.2995205078125,-0.6438673734664917,-0.6628967523574829,-1.5479943752288818
1788861368694526500,7.3095263671875,-0.6456660628318787,-0.711681604385376,-1.5565558671951294
1788861368704532700,7.31953271484375,-0.6424407362937927,-0.7521044015884399,-1.4921536445617676
1788861368714538500,7.32953857421875,-0.6015950441360474,-0.8165696859359741,-1.43784761428833
1788861368724544500,7.33954443359375,-0.5287876725196838,-0.9055650234222412,-1.4725784063339233
1788861368734551600,7.349551513671875,-0.449195921421051,-1.0057766437530518,-1.5701481103897095
1788861368744557600,7.3595576171875,-0.4369480311870575,-1.1151357889175415,-1.5789014101028442
1788861368754563600,7.3695634765625,-0.4960739314556122,-1.216156244277954,-1.5801613330841064
1788861368764569600,7.379569580078125,-0.5342013239860535,-1.2996852397918701,-1.5865938663482666
1788861368774575400,7.389575439453125,-0.5251993536949158,-1.3919833898544312,-1.5744459629058838
1788861368784581400,7.399581298828125,-0.48779258131980896,-1.4979218244552612,-1.5165021419525146
1788861368794587600,7.409587646484375,-0.4420170783996582,-1.565317153930664,-1.4499516487121582
1788861368804594400,7.419594482421875,-0.4134983718395233,-1.4957966804504395,-1.4325274229049683
1788861368814600400,7.429600341796875,-0.410571813583374,-1.3912323713302612,-1.4586902856826782
1788861368824606500,7.4396064453125,-0.381315141916275,-1.3171569108963013,-1.5006870031356812
1788861368834612500,7.449612548828125,-0.3109256625175476,-1.3966830968856812,-1.490989089012146
1788861368844618500,7.459618408203125,-0.2802468240261078,-1.4523247480392456,-1.5281734466552734
1788861368854624500,7.46962451171875,-0.2993137240409851,-1.135089635848999,-1.5574328899383545
1788861368864631300,7.47963134765625,-0.3080132305622101,-0.6724348664283752,-1.4929076433181763
1788861368874637600,7.489637451171875,-0.2950398921966553,-0.38490453362464905,-1.4148064851760864
1788861368884643600,7.4996435546875,-0.2751314342021942,-0.31156614422798157,-1.331778645515442
1788861368894649600,7.509649658203125,-0.2576512396335602,-0.36325302720069885,-1.2232143878936768
1788861368904655400,7.5196552734375,-0.25918203592300415,-0.395295649766922,-1.0703305006027222
1788861368914661400,7.529661376953125,-0.24788783490657806,-0.27438095211982727,-0.9115209579467773
1788861368924667600,7.539667724609375,-0.20472757518291473,-0.11298327893018723,-0.7846599221229553
1788861368934674400,7.54967431640625,-0.15482287108898163,0.00983452145010233,-0.6765813827514648
1788861368944680400,7.559680419921875,-0.10167922079563141,0.1024044007062912,-0.547239363193512
1788861368954686500,7.5696865234375,-0.060752030462026596,0.21763138473033905,-0.3941057622432709
1788861368964692500,7.5796923828125,-0.02785187028348446,0.2912432849407196,-0.19873572885990143
1788861368974698500,7.589698486328125,0.004670385736972094,0.2755540907382965,-0.0016263924771919847
1788861368984704500,7.59970458984375,0.007484281435608864,0.2795610725879669,0.12143614888191223
1788861368994710500,7.60971044921875,0.006266151554882526,0.3233301341533661,0.2022729367017746
1788861369004717600,7.619717529296875,0.018925221636891365,0.3445422053337097,0.27549228072166443
1788861369014723600,7.6297236328125,0.04803410544991493,0.41076624393463135,0.32532671093940735
1788861369024729600,7.6397294921875,0.09482850879430771,0.4504358768463135,0.3745459020137787
1788861369034735400,7.6497353515625,0.1692470759153366,0.4995877146720886,0.4510404169559479
1788861369044741600,7.65974169921875,0.2520191967487335,0.5392549633979797,0.56963711977005
1788861369054747600,7.66974755859375,0.32720208168029785,0.542073130607605,0.7233587503433228
1788861369064753400,7.67975341796875,0.3976919651031494,0.5448470711708069,0.8987407088279724
1788861369074760400,7.689760498046875,0.45499706268310547,0.5458606481552124,1.0687952041625977
1788861369084766700,7.6997666015625,0.4870026707649231,0.5558467507362366,1.233748197555542
1788861369094772500,7.7097724609375,0.5044338703155518,0.6288881897926331,1.4000269174575806
1788861369104778500,7.719778564453125,0.5563039779663086,0.707568883895874,1.5325403213500977
1788861369114784500,7.729784423828125,0.6459129452705383,0.7229291796684265,1.5807517766952515
1788861369124790500,7.73979052734375,0.7189951539039612,0.7156236171722412,1.5648449659347534
1788861369134797600,7.749797607421875,0.7646713256835938,0.7526942491531372,1.570124626159668
1788861369144803600,7.759803466796875,0.8158908486366272,0.8003398180007935,1.5967568159103394
1788861369154809600,7.7698095703125,0.849017322063446,0.8244401216506958,1.6205934286117554
1788861369164815400,7.7798154296875,0.8608627915382385,0.8015459775924683,1.7074252367019653
1788861369174821600,7.789821533203125,0.8912689089775085,0.7047576308250427,1.8512423038482666
1788861369184827600,7.79982763671875,0.9171996116638184,0.601246178150177,1.9993178844451904
1788861369194833400,7.80983349609375,0.9161231517791748,0.5621932744979858,2.132329225540161
1788861369204840400,7.81984033203125,0.9013838768005371,0.5663387775421143,2.2589573860168457
1788861369214846700,7.8298466796875,0.8969326615333557,0.542901337146759,2.293417453765869
1788861369224852500,7.8398525390625,0.8837974071502686,0.40760505199432373,2.198514938354492
1788861369234858500,7.8498583984375,0.8417676687240601,0.2469903528690338,2.07832670211792
1788861369244864500,7.859864501953125,0.7993366122245789,0.1939564198255539,2.0420010089874268
1788861369254870500,7.86987060546875,0.7777594327926636,0.2288752645254135,2.0822346210479736
1788861369264877600,7.879877685546875,0.7769836187362671,0.2845403850078583,2.172231674194336
1788861369274883600,7.889883544921875,0.7991669774055481,0.3809646666049957,2.289494276046753
1788861369284889300,7.899889404296875,0.8406076431274414,0.4788009524345398,2.3811583518981934
1788861369294895400,7.909895263671875,0.8605690598487854,0.5234256386756897,2.432767629623413
1788861369304901600,7.919901611328125,0.8422768712043762,0.5680271983146667,2.4270191192626953
1788861369314907600,7.92990771484375,0.8002351522445679,0.6388065814971924,2.3791637420654297
1788861369324914400,7.93991455078125,0.7549654245376587,0.6575616598129272,2.310457229614258
1788861369334920400,7.94992041015625,0.73671555519104,0.6195844411849976,2.22798490524292
1788861369344926700,7.9599267578125,0.7451460957527161,0.6350555419921875,2.143752098083496
1788861369354932500,7.969932373046875,0.7595665454864502,0.7042553424835205,2.048288583755493
1788861369364938500,7.9799384765625,0.7554234862327576,0.718778133392334,1.9354994297027588
1788861369374944500,7.989944580078125,0.726852536201477,0.6368454098701477,1.8208460807800293
1788861369384950500,7.999950439453125,0.6714907884597778,0.5232594609260559,1.6949044466018677
1788861369394957600,8.00995751953125,0.597969651222229,0.45548683404922485,1.5432770252227783
1788861369404963600,8.019963623046875,0.5397993326187134,0.4615953266620636,1.362458348274231
1788861369414969300,8.02996923828125,0.5184876322746277,0.47096166014671326,1.183536171913147
1788861369424975600,8.0399755859375,0.4927079677581787,0.412405401468277,1.0210192203521729
1788861369434981600,8.049981689453125,0.4166336953639984,0.40703675150871277,0.8492184281349182
1788861369444987600,8.059987548828126,0.3024061918258667,0.4500603675842285,0.6232694387435913
1788861369454994400,8.069994384765625,0.1793183535337448,0.3879179060459137,0.36134302616119385
1788861369465000700,8.080000732421874,0.07483695447444916,0.22829602658748627,0.10238762199878693
1788861369475006500,8.09000634765625,0.027338946238160133,0.06451854109764099,-0.12032587826251984
1788861369485012500,8.100012451171875,0.010677145794034004,-0.032043419778347015,-0.3046126365661621
1788861369495018500,8.1100185546875,-0.04603247344493866,-0.14000797271728516,-0.45089101791381836
1788861369505024500,8.1200244140625,-0.10513760149478912,-0.2176516354084015,-0.555738091468811
1788861369515031600,8.130031494140624,-0.1672971099615097,-0.162736713886261,-0.6149103045463562
1788861369525037600,8.14003759765625,-0.24673202633857727,-0.04532433673739433,-0.6696036458015442
1788861369535043600,8.150043701171874,-0.32592564821243286,0.0008586031035520136,-0.74275803565979
1788861369545049300,8.16004931640625,-0.4047890305519104,-0.043167177587747574,-0.8256414532661438
1788861369555055600,8.1700556640625,-0.47676602005958557,-0.03900252655148506,-0.9096956253051758
1788861369565061600,8.1800615234375,-0.5389540195465088,0.03286899998784065,-0.9601656794548035
1788861369575068400,8.190068359375,-0.5763520002365112,0.05901085585355759,-0.9551088809967041
1788861369585074400,8.200074462890624,-0.5925754308700562,0.02833523415029049,-0.9365570545196533
1788861369595080700,8.210080810546875,-0.5778814554214478,-0.03831303492188454,-0.9555405974388123
1788861369605086500,8.22008642578125,-0.5244730710983276,-0.08486242592334747,-1.0134752988815308
1788861369615092500,8.230092529296876,-0.4636344909667969,-0.09329292923212051,-1.0283527374267578
1788861369625098200,8.24009814453125,-0.42740485072135925,-0.060627128928899765,-0.9701746702194214
1788861369635104300,8.250104248046876,-0.44885051250457764,-0.02816133014857769,-0.8719823360443115
1788861369645111300,8.260111328125,-0.5288076400756836,-0.007878162898123264,-0.7985919713973999
1788861369655117300,8.270117431640625,-0.6268740296363831,0.02468244358897209,-0.8002090454101562
1788861369665123300,8.280123291015625,-0.7047690749168396,0.03490418940782547,-0.8881103992462158
1788861369675129000,8.290129150390625,-0.7499554753303528,0.025530127808451653,-1.0197405815124512
1788861369685135400,8.30013525390625,-0.783701479434967,0.0020762004423886538,-1.0999454259872437
1788861369695142100,8.31014208984375,-0.7977962493896484,-0.003620567498728633,-1.097213625907898
1788861369705148200,8.320148193359374,-0.789315938949585,0.02797490917146206,-1.0570487976074219
1788861369715154200,8.330154296875,-0.7770121097564697,0.011228153482079506,-1.0157653093338013
1788861369725160400,8.340160400390625,-0.7723497152328491,-0.05119394510984421,-0.9677373170852661
1788861369735166200,8.350166259765626,-0.7633490562438965,-0.1514555662870407,-0.9625652432441711
1788861369745172200,8.360172119140625,-0.7685182690620422,-0.2779615819454193,-1.0385793447494507
1788861369755178200,8.37017822265625,-0.7708978056907654,-0.3571637272834778,-1.1246109008789062
1788861369765185300,8.380185302734375,-0.7565121650695801,-0.3075074851512909,-1.1614998579025269
1788861369775191300,8.39019140625,-0.7550612688064575,-0.19888167083263397,-1.1968762874603271
1788861369785197300,8.400197265625,-0.7697526216506958,-0.18339592218399048,-1.2302520275115967
1788861369795203300,8.410203369140625,-0.801121175289154,-0.25196486711502075,-1.2142488956451416
1788861369805209000,8.420208984375,-0.8069553971290588,-0.35484009981155396,-1.1954594850540161
1788861369815215400,8.43021533203125,-0.7854998707771301,-0.48486095666885376,-1.176125168800354
1788861369825222100,8.44022216796875,-0.7636220455169678,-0.6222744584083557,-1.1645188331604004
1788861369835228200,8.450228271484375,-0.7454070448875427,-0.7074090838432312,-1.1975878477096558
1788861369845234200,8.460234130859375,-0.7279068827629089,-0.7153237462043762,-1.2448315620422363
1788861369855240400,8.470240478515626,-0.7183072566986084,-0.7074796557426453,-1.266401767730713
1788861369865246200,8.48024609375,-0.6990827322006226,-0.8130417466163635,-1.3114153146743774
1788861369875252200,8.490252197265624,-0.6567080616950989,-0.9468360543251038,-1.3856728076934814
1788861369885259300,8.50025927734375,-0.6252361536026001,-0.9348419904708862,-1.42133629322052
1788861369895265300,8.510265380859375,-0.6210083961486816,-0.8528512120246887,-1.4346747398376465
1788861369905271300,8.520271240234376,-0.5942503213882446,-0.8718811273574829,-1.4307547807693481
1788861369915277300,8.53027734375,-0.5271106958389282,-0.9896407723426819,-1.4363300800323486
1788861369925283000,8.540282958984376,-0.45774757862091064,-1.065403699874878,-1.4428253173828125
1788861369935289300,8.550289306640625,-0.40681222081184387,-1.0747718811035156,-1.4327551126480103
1788861369945296400,8.56029638671875,-0.3541349172592163,-1.071165680885315,-1.434199333190918
1788861369955302100,8.57030224609375,-0.3286391496658325,-1.178289532661438,-1.457968831062317
1788861369965308200,8.58030810546875,-0.3100481331348419,-1.4210113286972046,-1.5153024196624756
1788861369975314400,8.590314453125,-0.2770984470844269,-1.5771863460540771,-1.5692408084869385
1788861369985320400,8.600320556640625,-0.24175935983657837,-1.5787849426269531,-1.540750503540039
1788861369995326200,8.610326171875,-0.24771472811698914,-1.5557372570037842,-1.5082061290740967
1788861370005333200,8.620333251953125,-0.2576459050178528,-1.3919256925582886,-1.5291378498077393
1788861370015339300,8.63033935546875,-0.24142301082611084,-1.1106747388839722,-1.5249465703964233
1788861370025345300,8.64034521484375,-0.22957007586956024,-0.8760103583335876,-1.5036015510559082
1788861370035351300,8.650351318359375,-0.23605461418628693,-0.7502068877220154,-1.4824613332748413
1788861370045357300,8.660357421875,-0.2252427041530609,-0.6958658695220947,-1.435484528541565
1788861370055363000,8.670363037109375,-0.1837458610534668,-0.616203248500824,-1.3433266878128052
1788861370065370400,8.680370361328125,-0.09794387221336365,-0.4626280963420868,-1.226348638534546
1788861370075376400,8.69037646484375,-0.011934690177440643,-0.2716706693172455,-1.1343092918395996
1788861370085382100,8.700382080078125,0.03507596254348755,-0.057309895753860474,-1.0293277502059937
1788861370095388200,8.71038818359375,0.06906002759933472,0.08454897254705429,-0.8333409428596497
1788861370105394400,8.72039453125,0.09392143785953522,0.09212753176689148,-0.5908752679824829
1788861370115400200,8.730400146484374,0.08266345411539078,0.04892919212579727,-0.4017713963985443
1788861370125407200,8.7404072265625,0.039928507059812546,-0.012257198803126812,-0.2789466679096222
1788861370135413200,8.750413330078125,-0.0026011094450950623,0.01756567694246769,-0.1794658899307251
1788861370145419300,8.760419189453126,-0.002569684060290456,0.14526185393333435,-0.06566369533538818
1788861370155425300,8.77042529296875,0.039616119116544724,0.18674485385417938,0.025556491687893867
1788861370165431300,8.780431396484374,0.09171846508979797,0.27149489521980286,0.09373767673969269
1788861370175437300,8.790437255859375,0.15038470923900604,0.33802279829978943,0.205606147646904
1788861370185444400,8.8004443359375,0.21022488176822662,0.3807348310947418,0.32784897089004517
1788861370195450400,8.810450439453126,0.26773345470428467,0.437734991312027,0.4496835470199585
1788861370205456400,8.820456298828125,0.32954514026641846,0.46137240529060364,0.5725993514060974
1788861370215462100,8.830462158203124,0.3737861216068268,0.4899928867816925,0.7230040431022644
1788861370225468200,8.84046826171875,0.41579586267471313,0.505465567111969,0.905942976474762
1788861370235474400,8.850474365234374,0.4802986979484558,0.5031313300132751,1.0492713451385498
1788861370245481200,8.860481201171876,0.5464897155761719,0.5375577211380005,1.1713346242904663
1788861370255487200,8.8704873046875,0.5833971500396729,0.6169886589050293,1.3010224103927612
1788861370265493200,8.8804931640625,0.6166770458221436,0.6922248005867004,1.4340158700942993
1788861370275499300,8.890499267578125,0.6688348054885864,0.7687605619430542,1.5527899265289307
1788861370285505300,8.90050537109375,0.7099800705909729,0.8506954312324524,1.6663329601287842
1788861370295511300,8.91051123046875,0.7438512444496155,0.8642128109931946,1.762953281402588
1788861370305518000,8.92051806640625,0.7812721133232117,0.8414137363433838,1.8046972751617432
1788861370315524400,8.9305244140625,0.8141406178474426,0.7932336926460266,1.7890421152114868
1788861370325530400,8.9405302734375,0.8319084048271179,0.7051560282707214,1.7736189365386963
1788861370335536000,8.9505361328125,0.8419839143753052,0.6509695053100586,1.8125056028366089
1788861370345542100,8.960542236328125,0.8440865278244019,0.5975400805473328,1.8616366386413574
1788861370355549400,8.970549560546875,0.8267333507537842,0.5158620476722717,1.897088646888733
1788861370365555200,8.98055517578125,0.7771553993225098,0.4659125804901123,1.9565192461013794
1788861370375561200,8.990561279296875,0.7535448670387268,0.4796837866306305,2.0259506702423096
1788861370385567200,9.000567138671874,0.7567721009254456,0.526833176612854,2.0869357585906982
1788861370395573500,9.010573486328125,0.7706988453865051,0.5482341051101685,2.1399619579315186
1788861370405579300,9.020579345703124,0.775718092918396,0.5362038016319275,2.1742794513702393
1788861370415586300,9.03058642578125,0.7812691926956177,0.5615424513816833,2.222445011138916
1788861370425592000,9.040592041015625,0.7939743399620056,0.5676290988922119,2.2747299671173096
1788861370435598300,9.050598388671874,0.8268369436264038,0.45711323618888855,2.3112361431121826
1788861370445604400,9.060604248046875,0.844680905342102,0.38498789072036743,2.3557169437408447
1788861370455610400,9.0706103515625,0.8466843962669373,0.35887452960014343,2.386706829071045
1788861370465616100,9.0806162109375,0.839820384979248,0.32363104820251465,2.3840572834014893
1788861370475623400,9.09062353515625,0.8132209777832031,0.3082694113254547,2.3640971183776855
1788861370485629400,9.10062939453125,0.7590293884277344,0.3198342025279999,2.3558695316314697
1788861370495635200,9.11063525390625,0.6855703592300415,0.3190932869911194,2.353861093521118
1788861370505641200,9.12064111328125,0.6307465434074402,0.3715437352657318,2.3526101112365723
1788861370515647200,9.130647216796875,0.5900315642356873,0.5022692680358887,2.3234469890594482
1788861370525653200,9.1406533203125,0.552681028842926,0.5982903242111206,2.261606216430664
1788861370535660300,9.150660400390626,0.5279114842414856,0.5754010081291199,2.1498546600341797
1788861370545666300,9.160666259765625,0.5332311391830444,0.4681831896305084,1.979262113571167
1788861370555672000,9.170672119140624,0.5493219494819641,0.3770447373390198,1.7732617855072021
1788861370565678300,9.18067822265625,0.5546818375587463,0.35531628131866455,1.54708993434906
1788861370575684400,9.190684326171874,0.5311669707298279,0.43781355023384094,1.32744300365448
1788861370585690400,9.2006904296875,0.4566892385482788,0.5538762211799622,1.1045745611190796
1788861370595697200,9.210697265625,0.3406079113483429,0.6113009452819824,0.8467051982879639
1788861370605703400,9.220703369140624,0.23596139252185822,0.568816065788269,0.573012113571167
1788861370615709200,9.230709228515625,0.17563973367214203,0.4373517632484436,0.3222094774246216
1788861370625716200,9.24071630859375,0.14608237147331238,0.1863216757774353,0.12501543760299683
1788861370635722200,9.25072216796875,0.1072968989610672,-0.0903962105512619,-0.03218137100338936
1788861370645729300,9.260729248046875,0.01588069647550583,-0.33501341938972473,-0.17875216901302338
1788861370655735300,9.2707353515625,-0.11115315556526184,-0.46006107330322266,-0.3140586018562317
1788861370665741300,9.2807412109375,-0.2174212634563446,-0.3682296872138977,-0.4338071048259735
1788861370675747000,9.2907470703125,-0.2987632751464844,-0.22122879326343536,-0.5618793368339539
1788861370685753000,9.300753173828125,-0.37273281812667847,-0.03248151019215584,-0.7120733261108398
1788861370695759400,9.31075927734375,-0.4311695098876953,0.20487059652805328,-0.8634389042854309
1788861370705766100,9.32076611328125,-0.47438836097717285,0.3570084571838379,-0.9964579343795776
1788861370715772200,9.330772216796875,-0.5067095160484314,0.311760812997818,-1.0980466604232788
1788861370725778200,9.340778076171874,-0.5094171762466431,0.22143146395683289,-1.1636240482330322
1788861370735784200,9.3507841796875,-0.4682321846485138,0.16462835669517517,-1.191152572631836
1788861370745790200,9.360790283203125,-0.42539072036743164,0.06443145126104355,-1.2057757377624512
1788861370755797200,9.37079736328125,-0.43534162640571594,-0.08177262544631958,-1.2182273864746094
1788861370765803000,9.380802978515625,-0.49392902851104736,-0.14175286889076233,-1.2097662687301636
1788861370775809300,9.390809326171874,-0.5528687834739685,-0.08258195966482162,-1.1549018621444702
1788861370785815300,9.400815185546875,-0.6100308895111084,0.008007858879864216,-1.0374834537506104
1788861370795821300,9.4108212890625,-0.6870787739753723,0.10417966544628143,-0.9059410691261292
1788861370805827000,9.4208271484375,-0.7711340188980103,0.20330651104450226,-0.85835200548172
1788861370815834400,9.43083447265625,-0.8378938436508179,0.21829691529273987,-0.9356340169906616
1788861370825840000,9.440840087890624,-0.8605895638465881,0.12561865150928497,-1.0785943269729614
1788861370835846100,9.45084619140625,-0.8384342193603516,-0.01612304337322712,-1.2155060768127441
1788861370845852200,9.46085205078125,-0.8184208273887634,-0.09094748646020889,-1.2122671604156494
1788861370855858200,9.470858154296875,-0.8223266005516052,-0.06214885786175728,-1.0457253456115723
1788861370865864200,9.4808642578125,-0.8499302864074707,0.060504090040922165,-0.8746268153190613
1788861370875871200,9.490871337890624,-0.8911957144737244,0.1941729336977005,-0.8414260149002075
1788861370885877200,9.500877197265625,-0.9401254057884216,0.1957995891571045,-0.9304738640785217
1788861370895883000,9.510883056640624,-0.9713765382766724,0.04581009969115257,-1.0655856132507324
1788861370905889300,9.52088916015625,-0.9676542282104492,-0.1476573646068573,-1.1726864576339722
1788861370915895300,9.530895263671875,-0.9240724444389343,-0.2637714445590973,-1.1997721195220947
1788861370925902000,9.540902099609376,-0.8345241546630859,-0.30695274472236633,-1.17217218875885
1788861370935908000,9.550908203125,-0.7209158539772034,-0.32279083132743835,-1.1558468341827393
1788861370945914400,9.560914306640624,-0.6469244360923767,-0.3132021129131317,-1.175969123840332
1788861370955920100,9.570920166015625,-0.6499325037002563,-0.3322354555130005,-1.2202508449554443
1788861370965926100,9.580926025390625,-0.7078961730003357,-0.4247955083847046,-1.269391417503357
1788861370975932200,9.59093212890625,-0.7667871713638306,-0.5307328701019287,-1.287073016166687
1788861370985939200,9.600939208984375,-0.7602621912956238,-0.5469847917556763,-1.2777260541915894
1788861370995945200,9.6109453125,-0.6868380308151245,-0.5531476140022278,-1.2632144689559937
1788861371005951200,9.620951171875,-0.5858057141304016,-0.6499178409576416,-1.2383345365524292
1788861371015957000,9.63095703125,-0.49175187945365906,-0.8205076456069946,-1.2185423374176025
1788861371025963000,9.640962890625,-0.4304259419441223,-0.9584213495254517,-1.2490659952163696
1788861371035969300,9.65096923828125,-0.42650604248046875,-1.100965142250061,-1.3026186227798462
1788861371045976000,9.66097607421875,-0.42781710624694824,-1.1770317554473877,-1.3548834323883057
1788861371055982000,9.670982177734375,-0.4071485996246338,-1.1073859930038452,-1.3879833221435547
1788861371065988400,9.68098828125,-0.3966975510120392,-0.9842097759246826,-1.4250590801239014
1788861371075994400,9.690994384765625,-0.3823785185813904,-0.9885683059692383,-1.4050379991531372
1788861371086000000,9.701000244140625,-0.33448129892349243,-1.1020323038101196,-1.3952580690383911
1788861371096007200,9.711007080078126,-0.2810247540473938,-1.2660622596740723,-1.4435789585113525
1788861371106013200,9.72101318359375,-0.23302792012691498,-1.4096745252609253,-1.5123114585876465
1788861371116019200,9.731019287109374,-0.18024300038814545,-1.44002366065979,-1.5588243007659912
1788861371126025200,9.741025146484375,-0.12308517843484879,-1.3439961671829224,-1.5374886989593506
1788861371136031200,9.75103125,-0.10896296799182892,-1.2722508907318115,-1.5545870065689087
1788861371146037000,9.761037109375,-0.11475028097629547,-1.1812349557876587,-1.6562350988388062
1788861371156044300,9.771044189453125,-0.09516726434230804,-1.0180455446243286,-1.6897730827331543
1788861371166050300,9.78105029296875,-0.11804221570491791,-0.7849158644676208,-1.6762449741363525
1788861371176056000,9.79105615234375,-0.1691024750471115,-0.5892539620399475,-1.6856284141540527
1788861371186062000,9.80106201171875,-0.19447679817676544,-0.48554858565330505,-1.629947304725647
1788861371196068400,9.811068359375,-0.19493034482002258,-0.4188563823699951,-1.506309151649475
1788861371206075100,9.8210751953125,-0.18398074805736542,-0.30354976654052734,-1.3907970190048218
1788861371216081200,9.8310810546875,-0.14565573632717133,-0.07577092945575714,-1.2443751096725464
1788861371226087200,9.841087158203125,-0.06364236027002335,0.03965526819229126,-1.0078929662704468
1788861371236093200,9.85109326171875,0.03213449940085411,0.04434802383184433,-0.7862178683280945
1788861371246099200,9.86109912109375,0.05192205309867859,0.0343443900346756,-0.5814476609230042
1788861371256105200,9.871105224609375,-0.013709953054785728,0.10375009477138519,-0.3838760256767273
1788861371266112000,9.881112060546876,-0.045955508947372437,0.21316739916801453,-0.15078791975975037
1788861371276118300,9.8911181640625,-0.009466738440096378,0.2142326682806015,-0.009910421445965767
1788861371286124300,9.901124267578124,0.0611773356795311,0.31387564539909363,0.03507915884256363
1788861371296130300,9.91113037109375,0.1456884890794754,0.556427538394928,0.0933440625667572
1788861371306136000,9.921135986328125,0.22738735377788544,0.6695035099983215,0.20001670718193054
1788861371316142000,9.93114208984375,0.2692945897579193,0.661104679107666,0.3442945182323456
1788861371326149000,9.941149169921875,0.2796449661254883,0.6403951644897461,0.5468465685844421
1788861371336155100,9.951155029296874,0.30511704087257385,0.6002916693687439,0.779456615447998
1788861371346161200,9.9611611328125,0.37287449836730957,0.5490702986717224,0.9477556347846985
1788861371356167200,9.971167236328125,0.4638310372829437,0.5159491300582886,1.045898675918579
1788861371366173200,9.981173095703125,0.5535327196121216,0.509724497795105,1.0979305505752563
1788861371376180200,9.99118017578125,0.6295821666717529,0.581744909286499,1.144682765007019
1788861371386186200,10.001186279296874,0.7088235020637512,0.663110613822937,1.2457438707351685
1788861371396192000,10.01119189453125,0.7973693609237671,0.7046865224838257,1.3601269721984863
1788861371406198300,10.0211982421875,0.8717130422592163,0.7813419103622437,1.4566612243652344
1788861371416204300,10.031204345703125,0.9129723906517029,0.8515380024909973,1.554491400718689
1788861371426211000,10.041211181640625,0.9416136145591736,0.8483853936195374,1.6178090572357178
1788861371436217000,10.051217041015626,0.9799546003341675,0.7879566550254822,1.6664544343948364
1788861371446223400,10.061223388671875,1.0100728273391724,0.7056452631950378,1.6786370277404785
1788861371456229000,10.07122900390625,1.0208722352981567,0.5711790919303894,1.6895309686660767
1788861371466235100,10.081235107421875,1.0240086317062378,0.4156544506549835,1.6872845888137817
1788861371476241200,10.0912412109375,1.0135959386825562,0.4059443175792694,1.658524513244629
1788861371486248200,10.101248291015626,0.9871059656143188,0.5078610777854919,1.6652636528015137
1788861371496254200,10.111254150390625,0.9718034267425537,0.5484932065010071,1.7363299131393433
1788861371506260200,10.12126025390625,0.9854870438575745,0.5610132813453674,1.8284523487091064
1788861371516266000,10.131265869140625,1.0017496347427368,0.5922026038169861,1.918314814567566
1788861371526272300,10.141272216796875,1.0216761827468872,0.5570390224456787,1.98345148563385
1788861371536278300,10.1512783203125,1.0529030561447144,0.4831072688102722,2.020413875579834
1788861371546285000,10.16128515625,1.0786912441253662,0.45919662714004517,2.0716054439544678
1788861371556291000,10.171291015625,1.0811302661895752,0.42295923829078674,2.0875015258789062
1788861371566297300,10.18129736328125,1.056280255317688,0.3814070224761963,2.069077491760254
1788861371576303400,10.191303466796874,0.9984617233276367,0.4103960394859314,2.0521039962768555
1788861371586309000,10.20130908203125,0.9251582026481628,0.45079299807548523,2.0462419986724854
1788861371596316200,10.211316162109375,0.88600093126297,0.43324172496795654,2.062610626220703
1788861371606322200,10.221322265625,0.892126739025116,0.4255441129207611,2.0840163230895996
1788861371616328200,10.231328125,0.881669819355011,0.4992620050907135,2.1088011264801025
1788861371626333400,10.24133349609375,0.8332884311676025,0.6320352554321289,2.1199121475219727
1788861371636339500,10.25133935546875,0.7599977254867554,0.7235441207885742,2.086566209793091
1788861371646346200,10.26134619140625,0.68597811460495,0.6517271995544434,2.011676549911499
1788861371656352300,10.271352294921876,0.6377437114715576,0.47218137979507446,1.9163169860839844
1788861371666358500,10.281358642578125,0.6105858683586121,0.31733188033103943,1.8078235387802124
1788861371676364500,10.291364501953124,0.5825651288032532,0.2058277279138565,1.697290301322937
1788861371686370300,10.301370361328125,0.5380792021751404,0.15159910917282104,1.5746477842330933
1788861371696376300,10.311376220703124,0.4909060597419739,0.15340261161327362,1.4163377285003662
1788861371706383400,10.32138330078125,0.4322952330112457,0.21778106689453125,1.226032018661499
1788861371716389400,10.331389404296875,0.3264516294002533,0.36131319403648376,1.0070551633834839
1788861371726395400,10.3413955078125,0.2049076110124588,0.4541805386543274,0.7491637468338013
1788861371736401400,10.3514013671875,0.10586677491664886,0.30509600043296814,0.4607769250869751
1788861371746407400,10.361407470703124,0.0229167677462101,-0.009005745872855186,0.18575814366340637
1788861371756414500,10.37141455078125,-0.04273654520511627,-0.17410121858119965,-0.03483627736568451
1788861371766420500,10.38142041015625,-0.1078801304101944,-0.16952484846115112,-0.2013608068227768
1788861371776426200,10.39142626953125,-0.17657849192619324,-0.15245984494686127,-0.34278690814971924
1788861371786432500,10.4014326171875,-0.24230025708675385,-0.1697821170091629,-0.4701848030090332
1788861371796438500,10.4114384765625,-0.29737523198127747,-0.24431094527244568,-0.5855833292007446
1788861371806444300,10.4214443359375,-0.34608256816864014,-0.3741280436515808,-0.6735946536064148
1788861371816451300,10.431451416015625,-0.38639163970947266,-0.49088743329048157,-0.7270469665527344
1788861371826457600,10.44145751953125,-0.4243917465209961,-0.459808886051178,-0.7474886178970337
1788861371836463400,10.45146337890625,-0.47647014260292053,-0.27253246307373047,-0.7682729959487915
1788861371846469400,10.461469482421874,-0.5453160405158997,-0.06575904041528702,-0.835567831993103
1788861371856475400,10.471475341796875,-0.6262479424476624,0.01335628516972065,-0.9246247410774231
1788861371866482400,10.481482421875,-0.7172688841819763,-0.014012754894793034,-1.0122624635696411
1788861371876488400,10.491488525390626,-0.7852287888526917,-0.01637338101863861,-1.10065758228302
1788861371886494500,10.501494384765625,-0.785723865032196,0.13581189513206482,-1.180601716041565
1788861371896500200,10.511500244140626,-0.7262616157531738,0.27900421619415283,-1.1990246772766113
1788861371906506200,10.52150634765625,-0.6496238112449646,0.21312958002090454,-1.1232526302337646
1788861371916513500,10.531513427734374,-0.6007377505302429,-0.008359395898878574,-1.0152363777160645
1788861371926519300,10.541519287109375,-0.5917487740516663,-0.14615267515182495,-0.9505264163017273
1788861371936525300,10.551525390625,-0.6118474006652832,-0.16993896663188934,-0.913489043712616
1788861371946531300,10.56153125,-0.6575488448143005,-0.1515202820301056,-0.9176861643791199
1788861371956537600,10.57153759765625,-0.7376125454902649,-0.10110664367675781,-0.9681498408317566
1788861371966543400,10.58154345703125,-0.8342626094818115,-0.06519898027181625,-1.0349807739257812
1788861371976550400,10.59155029296875,-0.9082487225532532,-0.07428142428398132,-1.120529294013977
1788861371986556400,10.601556396484375,-0.9428287744522095,-0.08014144003391266,-1.1654757261276245
1788861371996562400,10.6115625,-0.9131689071655273,0.0400046743452549,-1.1604093313217163
1788861372006568400,10.621568359375,-0.8371681571006775,0.18418794870376587,-1.1686030626296997
1788861372016574500,10.631574462890624,-0.7743446826934814,0.13291651010513306,-1.1736348867416382
1788861372026581200,10.641581298828125,-0.7430874705314636,-0.12328118830919266,-1.185160517692566
1788861372036587500,10.65158740234375,-0.7409926056861877,-0.3945145606994629,-1.204224705696106
1788861372046593500,10.661593505859376,-0.7626510262489319,-0.5191595554351807,-1.1910724639892578
1788861372056599300,10.671599365234375,-0.7660537362098694,-0.522800624370575,-1.1630605459213257
1788861372066605300,10.681605224609376,-0.7510985136032104,-0.5171011686325073,-1.1854870319366455
1788861372076611300,10.691611328125,-0.7406666278839111,-0.562029242515564,-1.2503615617752075
1788861372086618400,10.701618408203124,-0.7439356446266174,-0.6825801730155945,-1.348577618598938
1788861372096624400,10.711624267578125,-0.7460254430770874,-0.8022218942642212,-1.4240089654922485
1788861372106630400,10.72163037109375,-0.7372287511825562,-0.8144087791442871,-1.4103834629058838
1788861372116636200,10.73163623046875,-0.6932490468025208,-0.7428850531578064,-1.3469691276550293
1788861372126642400,10.741642333984375,-0.5835188031196594,-0.7337666749954224,-1.344388484954834
1788861372136649500,10.7516494140625,-0.46073564887046814,-0.863287627696991,-1.470362901687622
1788861372146655200,10.7616552734375,-0.37990525364875793,-1.0772864818572998,-1.5821453332901
1788861372156661500,10.77166162109375,-0.34174323081970215,-1.2820963859558105,-1.620638132095337
1788861372166667500,10.78166748046875,-0.31604692339897156,-1.3117247819900513,-1.6128630638122559
1788861372176673500,10.791673583984375,-0.30309170484542847,-1.1893945932388306,-1.5992833375930786
1788861372186680300,10.801680419921874,-0.2841470241546631,-1.0960897207260132,-1.6280356645584106
1788861372196686600,10.8116865234375,-0.2572304606437683,-1.1952773332595825,-1.6856275796890259
1788861372206692400,10.8216923828125,-0.26367291808128357,-1.336986780166626,-1.7029972076416016
1788861372216698400,10.831698486328126,-0.298229843378067,-1.3687433004379272,-1.6827473640441895
1788861372226704400,10.841704345703125,-0.3382025361061096,-1.3480430841445923,-1.6694427728652954
1788861372236710400,10.85171044921875,-0.37272828817367554,-1.325047492980957,-1.6631715297698975
1788861372246717400,10.861717529296875,-0.39686906337738037,-1.3579593896865845,-1.6850022077560425
1788861372256723500,10.871723388671874,-0.4234583079814911,-1.214678168296814,-1.7704668045043945
1788861372266729500,10.8817294921875,-0.4152637720108032,-0.9456482529640198,-1.7922815084457397
1788861372276735200,10.8917353515625,-0.3673684298992157,-0.7249622344970703,-1.7505942583084106
1788861372286741500,10.901741455078126,-0.3279304802417755,-0.5250523090362549,-1.6701843738555908
1788861372296748300,10.911748291015625,-0.2928001880645752,-0.3779108226299286,-1.5084764957427979
1788861372306754300,10.92175439453125,-0.20893749594688416,-0.25597426295280457,-1.2774512767791748
1788861372316760300,10.93176025390625,-0.11910508573055267,-0.13017211854457855,-1.0054572820663452
1788861372326766600,10.9417666015625,-0.09418348968029022,0.033061545342206955,-0.7423350811004639
1788861372336772400,10.9517724609375,-0.09973298758268356,0.16355431079864502,-0.5714312791824341
1788861372346779400,10.961779296875,-0.10324756056070328,0.19461049139499664,-0.4773426055908203
1788861372356785400,10.971785400390624,-0.10532402247190475,0.25960439443588257,-0.34871405363082886
1788861372366791400,10.98179150390625,-0.08529891818761826,0.33163172006607056,-0.16800817847251892
1788861372376797400,10.99179736328125,-0.018608838319778442,0.34263724088668823,-0.0029883331153541803
1788861372386803500,11.001803466796876,0.04758802428841591,0.3977758586406708,0.13764254748821259
1788861372396809200,11.011809326171875,0.08043678849935532,0.47184449434280396,0.2961517572402954
1788861372406816500,11.02181640625,0.09535607695579529,0.5450921058654785,0.4506305456161499
1788861372416822500,11.031822509765625,0.14714737236499786,0.6779990196228027,0.6305678486824036
1788861372426828300,11.041828369140624,0.24790620803833008,0.6811026334762573,0.7677653431892395
1788861372436834300,11.051834228515625,0.340931236743927,0.6127688884735107,0.8540568351745605
1788861372446840300,11.06184033203125,0.3971646726131439,0.6123488545417786,0.9795172810554504
1788861372456847400,11.071847412109374,0.46132928133010864,0.703010082244873,1.1583424806594849
1788861372466853400,11.081853271484375,0.5585961937904358,0.8118915557861328,1.3183685541152954
1788861372476859400,11.091859375,0.6683908700942993,0.8100078701972961,1.4336984157562256
1788861372486865400,11.101865478515625,0.754940927028656,0.6755555272102356,1.561812400817871
1788861372496871400,11.111871337890625,0.7910618782043457,0.6085234880447388,1.6963965892791748
1788861372506878500,11.12187841796875,0.7718927264213562,0.7301167845726013,1.7871205806732178
1788861372516884200,11.13188427734375,0.7234967350959778,0.8144436478614807,1.8065121173858643
1788861372526890200,11.14189013671875,0.7035996913909912,0.7793943285942078,1.7718607187271118
1788861372536896500,11.151896484375,0.736411452293396,0.7528167963027954,1.7133899927139282
1788861372546902500,11.161902587890625,0.7902405858039856,0.7615562081336975,1.71067214012146
1788861372556908300,11.171908203125,0.8621882796287537,0.7642704844474792,1.7690478563308716
1788861372566915600,11.18191552734375,0.943611741065979,0.7208127975463867,1.84684419631958
1788861372576921300,11.19192138671875,1.0007342100143433,0.6948413848876953,1.9464192390441895
1788861372586927400,11.20192724609375,1.032374382019043,0.669700562953949,2.0095813274383545
1788861372596933400,11.211933349609374,1.036319375038147,0.6202774047851562,2.019989252090454
1788861372606939400,11.221939453125,0.9979620575904846,0.5570003986358643,2.0196876525878906
1788861372616946400,11.231946533203125,0.9436527490615845,0.49835705757141113,2.0135350227355957
1788861372626952400,11.241952392578124,0.9188954830169678,0.49878478050231934,2.0098729133605957
1788861372636958500,11.25195849609375,0.9467511177062988,0.54632568359375,2.0494472980499268
1788861372646964200,11.261964111328124,0.9960222244262695,0.5419918894767761,2.0811970233917236
1788861372656970500,11.271970458984375,1.0122337341308594,0.4781703054904938,2.1052405834198
1788861372666977300,11.281977294921875,0.9820142984390259,0.44941800832748413,2.1774652004241943
1788861372676983300,11.2919833984375,0.9465100765228271,0.46875202655792236,2.271491765975952
1788861372686989300,11.3019892578125,0.9141470789909363,0.5033922791481018,2.3190298080444336
1788861372696995600,11.31199560546875,0.8567793965339661,0.5571178197860718,2.2848401069641113
1788861372707001300,11.32200146484375,0.7504702806472778,0.6157039403915405,2.1850264072418213
1788861372717008400,11.33200830078125,0.6229349374771118,0.6676150560379028,2.058255434036255
1788861372727014400,11.342014404296876,0.5411575436592102,0.6975114345550537,1.9565472602844238
1788861372737020400,11.3520205078125,0.5520820617675781,0.6370587348937988,1.8857792615890503
1788861372747026400,11.3620263671875,0.6511274576187134,0.515783965587616,1.8073757886886597
1788861372757032400,11.372032470703125,0.7598432898521423,0.45354270935058594,1.69243323802948
1788861372767038500,11.38203857421875,0.7999877333641052,0.43828973174095154,1.5466347932815552
1788861372777045500,11.39204541015625,0.7442288994789124,0.38251808285713196,1.3866914510726929
1788861372787051500,11.402051513671875,0.615070641040802,0.2826383411884308,1.2040324211120605
1788861372797057300,11.412057373046874,0.4481293261051178,0.29141294956207275,0.985667884349823
1788861372807063300,11.422063232421875,0.2783844769001007,0.37181031703948975,0.7569894194602966
1788861372817069300,11.4320693359375,0.1590501070022583,0.32862740755081177,0.5245516300201416
1788861372827076400,11.442076416015626,0.08960817754268646,0.14471323788166046,0.2748832404613495
1788861372837082400,11.452082275390625,0.055274441838264465,0.01878034509718418,0.03721101954579353
1788861372847088400,11.46208837890625,0.0164218507707119,-0.03482828661799431,-0.13651683926582336
1788861372857094400,11.472094482421875,-0.03206499293446541,-0.09777449816465378,-0.2564813196659088
1788861372867100400,11.482100341796874,-0.0659494549036026,-0.08038059622049332,-0.36138856410980225
1788861372877107500,11.492107421875,-0.10670673847198486,-0.0014317154418677092,-0.453045517206192
1788861372887113200,11.50211328125,-0.1758626401424408,0.037216342985630035,-0.5387870669364929
1788861372897119200,11.512119140625,-0.2516593933105469,0.0736670270562172,-0.6174672245979309
1788861372907125500,11.52212548828125,-0.3218938708305359,0.0929400622844696,-0.7047512531280518
1788861372917131500,11.532131591796874,-0.38444486260414124,0.06398644298315048,-0.8312852382659912
1788861372927138300,11.54213818359375,-0.4437635838985443,0.020779579877853394,-0.9710804224014282
1788861372937144300,11.552144287109375,-0.4883718192577362,-0.05891897529363632,-1.0622260570526123
1788861372947150600,11.562150634765626,-0.5055129528045654,-0.19458653032779694,-1.096691370010376
1788861372957156400,11.57215625,-0.48993080854415894,-0.30090123414993286,-1.0691473484039307
1788861372967162400,11.582162353515624,-0.47248339653015137,-0.28589433431625366,-0.9780083298683167
1788861372977168400,11.59216845703125,-0.5004154443740845,-0.1677200198173523,-0.8598918318748474
1788861372987175400,11.602175537109375,-0.610734760761261,-0.002840793924406171,-0.8106822371482849
1788861372997181400,11.612181396484376,-0.785507321357727,0.11110495030879974,-0.8670719861984253
1788861373007187500,11.6221875,-0.9513943195343018,0.14954873919487,-0.973419189453125
1788861373017193200,11.632193115234376,-1.0436161756515503,0.12730282545089722,-1.0891766548156738
1788861373027199500,11.642199462890625,-1.056801438331604,0.09027956426143646,-1.171573281288147
1788861373037206500,11.65220654296875,-0.9947292804718018,0.013736052438616753,-1.171509861946106
1788861373047212300,11.66221240234375,-0.8834480047225952,-0.14165620505809784,-1.1193841695785522
1788861373057218300,11.67221826171875,-0.7736578583717346,-0.32117775082588196,-1.1124897003173828
1788861373067224600,11.682224609375,-0.7200982570648193,-0.4246860444545746,-1.1216051578521729
1788861373077230300,11.692230224609375,-0.699350118637085,-0.3573746383190155,-1.116185188293457
1788861373087237400,11.7022373046875,-0.683133065700531,-0.24051859974861145,-1.157956600189209
1788861373097243400,11.712243408203125,-0.6826318502426147,-0.19436068832874298,-1.2488582134246826
1788861373107249400,11.72224951171875,-0.6922003030776978,-0.2597980201244354,-1.3276939392089844
1788861373117255400,11.73225537109375,-0.6995927095413208,-0.3933672606945038,-1.3722081184387207
1788861373127261400,11.742261474609375,-0.6901028156280518,-0.5336900353431702,-1.4174262285232544
1788861373137267500,11.752267333984374,-0.6595557928085327,-0.6463475823402405,-1.4645832777023315
1788861373147274500,11.7622744140625,-0.6069828867912292,-0.6387245655059814,-1.511992335319519
1788861373157280500,11.772280517578125,-0.5628936886787415,-0.5359108448028564,-1.5158329010009766
1788861373167286300,11.782286376953126,-0.5405117273330688,-0.5551660060882568,-1.4293886423110962
1788861373177292300,11.792292236328125,-0.5472875833511353,-0.6180150508880615,-1.3672394752502441
1788861373187298300,11.80229833984375,-0.5773096680641174,-0.644661545753479,-1.423295497894287
1788861373197305300,11.812305419921875,-0.5988237261772156,-0.7294030785560608,-1.5498182773590088
1788861373207311400,11.822311279296875,-0.5906379818916321,-0.8257812857627869,-1.61614990234375
1788861373217317400,11.8323173828125,-0.5577974915504456,-0.9246407151222229,-1.6099804639816284
1788861373227323400,11.842323486328125,-0.5255628824234009,-1.0235114097595215,-1.5991933345794678
1788861373237329400,11.852329345703126,-0.5029361248016357,-1.0844604969024658,-1.601570725440979
1788861373247336400,11.86233642578125,-0.478977233171463,-1.107081651687622,-1.6358094215393066
1788861373257342500,11.872342529296875,-0.45250940322875977,-1.151830792427063,-1.6753439903259277
1788861373267348200,11.88234814453125,-0.43353039026260376,-1.2519464492797852,-1.7243512868881226
1788861373277354500,11.8923544921875,-0.395926296710968,-1.371522307395935,-1.7690047025680542
1788861373287360500,11.902360595703126,-0.3429637551307678,-1.423222303390503,-1.7354921102523804
1788861373297367300,11.9123671875,-0.32811370491981506,-1.4863202571868896,-1.6928309202194214
1788861373307373300,11.922373291015624,-0.34693560004234314,-1.3696056604385376,-1.724704623222351
1788861373317379600,11.932379638671875,-0.3369111716747284,-1.0365992784500122,-1.7377456426620483
1788861373327385300,11.94238525390625,-0.3062933385372162,-0.768244206905365,-1.7385616302490234
1788861373337391400,11.952391357421876,-0.28693777322769165,-0.6478073000907898,-1.7013663053512573
1788861373347397400,11.9623974609375,-0.26691877841949463,-0.5818977355957031,-1.6237066984176636
1788861373357404400,11.972404296875,-0.2672964036464691,-0.5319019556045532,-1.4878982305526733
1788861373367410400,11.982410400390625,-0.27661561965942383,-0.4520505666732788,-1.2852636575698853
1788861373377416400,11.99241650390625,-0.2645711898803711,-0.3208824098110199,-1.0769463777542114
1788861373387422200,12.002422119140626,-0.21787160634994507,-0.16995814442634583,-0.9382750391960144
1788861373397428500,12.012428466796875,-0.17115657031536102,-0.04993027448654175,-0.8239966630935669
1788861373407435500,12.022435546875,-0.13130609691143036,0.04181748628616333,-0.6574457883834839
1788861373417441300,12.032441162109375,-0.09661069512367249,0.077023945748806,-0.4852393865585327
1788861373427447300,12.042447265625,-0.08884278684854507,0.061707571148872375,-0.3327827453613281
1788861373437453600,12.05245361328125,-0.054898668080568314,0.14410950243473053,-0.17467540502548218
1788861373447459600,12.06245947265625,0.02273513935506344,0.2607154846191406,-0.02786838263273239
1788861373457466400,12.07246630859375,0.0967976525425911,0.3200770616531372,0.09703201055526733
1788861373467472400,12.082472412109375,0.1418522149324417,0.40283241868019104,0.20755372941493988
1788861373477478400,12.092478515625,0.1875256896018982,0.4903457462787628,0.3101504147052765
1788861373487484400,12.102484375,0.24830062687397003,0.5223401784896851,0.4270802140235901
1788861373497490400,12.112490478515625,0.31735825538635254,0.5407846570014954,0.5584651231765747
1788861373507497200,12.122497314453126,0.3874976634979248,0.6032118201255798,0.6750905513763428
1788861373517503500,12.13250341796875,0.45284152030944824,0.6155974268913269,0.7911628484725952
1788861373527509500,12.142509521484374,0.5141706466674805,0.6289504766464233,0.9589664936065674
1788861373537515500,12.152515625,0.6103781461715698,0.6128181219100952,1.1480075120925903
1788861373547521300,12.162521240234375,0.7060593962669373,0.5401039719581604,1.3178210258483887
1788861373557527300,12.17252734375,0.7676873207092285,0.6026735901832581,1.4775505065917969
1788861373567534300,12.182534423828125,0.8120009899139404,0.7821059823036194,1.5925040245056152
1788861373577540400,12.192540283203124,0.8645254373550415,0.8500200510025024,1.6368554830551147
1788861373587546400,12.20254638671875,0.8972000479698181,0.8552417159080505,1.6581515073776245
1788861373597552400,12.212552490234375,0.9247483015060425,0.9169564247131348,1.6909937858581543
1788861373607558400,12.222558349609375,0.9640238285064697,0.9142277836799622,1.7274717092514038
1788861373617565400,12.2325654296875,1.0089020729064941,0.8356682658195496,1.7806528806686401
1788861373627571200,12.2425712890625,1.0620126724243164,0.8364933133125305,1.863661527633667
1788861373637577000,12.252576904296875,1.108047604560852,0.8395034670829773,1.9328587055206299
1788861373647583200,12.262583251953124,1.1093610525131226,0.7665392756462097,1.9872121810913086
1788861373657589200,12.27258935546875,1.0616267919540405,0.6364603638648987,2.0629210472106934
1788861373667596000,12.282595947265625,0.9779473543167114,0.5124641060829163,2.1198246479034424
1788861373677602000,12.29260205078125,0.8996160626411438,0.4849722981452942,2.152127742767334
1788861373687608300,12.3026083984375,0.8854256868362427,0.5184077620506287,2.1832680702209473
1788861373697614000,12.312614013671874,0.94972825050354,0.4901508092880249,2.2030889987945557
1788861373707620000,12.3226201171875,1.020782232284546,0.43817147612571716,2.225475788116455
1788861373717627100,12.332627197265625,1.0530972480773926,0.5064941048622131,2.2637956142425537
1788861373727633200,12.342633056640626,1.056113839149475,0.6319289803504944,2.2971160411834717
1788861373737639200,12.35263916015625,1.0312575101852417,0.6440610289573669,2.3004510402679443
1788861373747645200,12.362645263671874,0.9895097613334656,0.5273346304893494,2.2762908935546875
1788861373757651200,12.372651123046875,0.9445018172264099,0.41683316230773926,2.2477500438690186
1788861373767658200,12.382658203125,0.8813347816467285,0.3969622552394867,2.245107650756836
1788861373777664300,12.392664306640626,0.7986199259757996,0.4263063073158264,2.2499890327453613
1788861373787670000,12.402669921875,0.7218612432479858,0.4669424295425415,2.2191457748413086
1788861373797676000,12.412676025390626,0.6843767166137695,0.5112177133560181,2.132845640182495
1788861373807682000,12.42268212890625,0.6739003658294678,0.5138111114501953,2.0115842819213867
1788861373817688300,12.432688232421874,0.670443058013916,0.47955355048179626,1.884070634841919
1788861373827695000,12.442695068359376,0.6717213988304138,0.43345555663108826,1.7302448749542236
1788861373837701000,12.452701171875,0.6613382697105408,0.3935385048389435,1.5549832582473755
1788861373847707100,12.46270703125,0.6204632520675659,0.36938655376434326,1.3662590980529785
1788861373857713200,12.472713134765625,0.5639957189559937,0.3268417716026306,1.1684030294418335
