time,seconds_elapsed,z,y,x
1788862385106811100,0.05981103515625,0.22771170735359192,0.07373456656932831,1.6271344423294067
1788862385116853000,0.06985302734375,0.2810406982898712,-0.021121378988027573,1.7200779914855957
1788862385126894000,0.07989404296875,0.2435627281665802,-0.23346680402755737,1.7836766242980957
1788862385136936200,0.089936279296875,0.13047531247138977,-0.48032718896865845,1.8221862316131592
1788862385146977300,0.099977294921875,-0.05332110822200775,-0.7598248720169067,1.8276411294937134
1788862385157019100,0.11001904296875,-0.2999386191368103,-1.0883393287658691,1.7845392227172852
1788862385167060200,0.120060302734375,-0.5201084613800049,-1.3540090322494507,1.7260394096374512
1788862385177102000,0.13010205078125,-0.6693195104598999,-1.5837873220443726,1.6302415132522583
1788862385187143200,0.14014306640625,-0.745522677898407,-1.7436517477035522,1.4578096866607666
1788862385197185000,0.15018505859375,-0.7600459456443787,-1.8213441371917725,1.2522016763687134
1788862385207226000,0.16022607421875,-0.728655993938446,-1.8681631088256836,1.0037018060684204
1788862385217268000,0.17026806640625,-0.680921733379364,-1.9302674531936646,0.7211302518844604
1788862385227309000,0.18030908203125,-0.6180951595306396,-2.027508497238159,0.4532776176929474
1788862385237350000,0.190349853515625,-0.5448316335678101,-2.112201452255249,0.24175390601158142
1788862385247392300,0.200392333984375,-0.4766339361667633,-2.1668341159820557,0.10215979069471359
1788862385257433000,0.21043310546875,-0.43208351731300354,-2.1899492740631104,0.014163626357913017
1788862385267475200,0.22047509765625,-0.4361860156059265,-2.2773873805999756,-0.05061296373605728
1788862385277516000,0.23051611328125,-0.48514875769615173,-2.4284985065460205,-0.08948206156492233
1788862385287558100,0.24055810546875,-0.5797789692878723,-2.581817388534546,-0.14989595115184784
1788862385297599000,0.250598876953125,-0.7020188570022583,-2.6749610900878906,-0.2578916549682617
1788862385307641000,0.26064111328125,-0.8200134634971619,-2.6797935962677,-0.40292611718177795
1788862385317682000,0.270681884765625,-0.7525784969329834,-2.7096216678619385,-0.5627173781394958
1788862385327724000,0.28072412109375,0.021826352924108505,-2.842233180999756,-0.623116135597229
1788862385337764900,0.290764892578125,0.8712929487228394,-2.548152208328247,-0.5148940682411194
1788862385347807200,0.30080712890625,1.3882993459701538,-2.05586576461792,-0.3998938798904419
1788862385357848000,0.31084814453125,1.4959688186645508,-1.7513413429260254,-0.3567107319831848
1788862385367890200,0.32089013671875,1.3362654447555542,-1.706119179725647,-0.3655279278755188
1788862385377931000,0.330930908203125,1.0181076526641846,-1.6640682220458984,-0.3952365517616272
1788862385387972000,0.34097216796875,0.6724485158920288,-1.4295672178268433,-0.40787217020988464
1788862385398014200,0.35101416015625,0.46660298109054565,-1.1565120220184326,-0.3880806267261505
1788862385408055300,0.36105517578125,0.42856305837631226,-1.0132514238357544,-0.3370223641395569
1788862385418097200,0.37109716796875,0.4950595498085022,-1.0371413230895996,-0.28520309925079346
1788862385428138200,0.38113818359375,0.617285966873169,-1.1906248331069946,-0.22638395428657532
1788862385438180000,0.39118017578125,0.7673042416572571,-1.4344710111618042,-0.16638614237308502
1788862385448221200,0.40122119140625,0.8904650211334229,-1.6125178337097168,-0.10579206049442291
1788862385458263000,0.411262939453125,0.9758560657501221,-1.7596327066421509,-0.031212899833917618
1788862385468304100,0.42130419921875,1.0356343984603882,-1.9613525867462158,0.05378919467329979
1788862385478346000,0.431345947265625,1.1338633298873901,-2.242903470993042,0.13104137778282166
1788862385488387000,0.441386962890625,1.310355544090271,-2.6110262870788574,0.2001335620880127
1788862385498429200,0.45142919921875,1.535991907119751,-2.9651427268981934,0.300606369972229
1788862385508470300,0.46147021484375,1.7639960050582886,-3.2296550273895264,0.42394062876701355
1788862385518511400,0.471511474609375,1.9665541648864746,-3.411349296569824,0.5238254070281982
1788862385528553200,0.48155322265625,2.159036874771118,-3.564382553100586,0.5977222919464111
1788862385538594300,0.49159423828125,2.3983492851257324,-3.698089122772217,0.6790099740028381
1788862385548636200,0.50163623046875,2.7121198177337646,-3.871377468109131,0.7771806120872498
1788862385558677200,0.51167724609375,2.9929256439208984,-3.9345543384552,0.9104111194610596
1788862385568719000,0.521718994140625,3.1446382999420166,-3.872110605239868,1.0403780937194824
1788862385578760200,0.53176025390625,3.188446521759033,-3.801203489303589,1.1547821760177612
1788862385588802000,0.541802001953125,3.187093734741211,-3.746173620223999,1.2549115419387817
1788862385598843100,0.551843017578125,3.1936070919036865,-3.680982828140259,1.3667347431182861
1788862385608885200,0.56188525390625,3.237689256668091,-3.597137212753296,1.5222522020339966
1788862385618926300,0.57192626953125,3.3443291187286377,-3.474571466445923,1.7077716588974
1788862385628968200,0.58196826171875,3.454691171646118,-3.3007259368896484,1.877444863319397
1788862385639009300,0.59200927734375,3.532020330429077,-3.115006923675537,2.0072760581970215
1788862385649050000,0.602050048828125,3.5533533096313477,-2.9167091846466064,2.0664288997650146
1788862385659092200,0.61209228515625,3.5052332878112793,-2.758490800857544,2.067070960998535
1788862385669133300,0.62213330078125,3.439466714859009,-2.6352572441101074,2.0591413974761963
1788862385679175200,0.632175048828125,3.3915505409240723,-2.430863618850708,2.1066625118255615
1788862385689216300,0.64221630859375,3.3627305030822754,-2.1180100440979004,2.210808038711548
1788862385699258400,0.65225830078125,3.3167858123779297,-1.7874665260314941,2.3730647563934326
1788862385709299200,0.66229931640625,3.206214189529419,-1.5304985046386719,2.5438735485076904
1788862385719341300,0.67234130859375,2.988101005554199,-1.4156848192214966,2.6975886821746826
1788862385729382400,0.68238232421875,2.690383195877075,-1.3613775968551636,2.85284423828125
1788862385739424300,0.69242431640625,2.3548309803009033,-1.2288872003555298,3.0089943408966064
1788862385749465300,0.70246533203125,2.04170560836792,-0.981903076171875,3.169085741043091
1788862385759507200,0.712507080078125,1.7484848499298096,-0.6917649507522583,3.3048150539398193
1788862385769548300,0.72254833984375,1.4971559047698975,-0.49000850319862366,3.3717730045318604
1788862385779589000,0.732589111328125,1.3121771812438965,-0.41897374391555786,3.3782572746276855
1788862385789631200,0.74263134765625,1.0818949937820435,-0.4282376170158386,3.3903560638427734
1788862385799672000,0.752672119140625,0.8147170543670654,-0.5002068877220154,3.4145755767822266
1788862385809714400,0.76271435546875,0.5574532151222229,-0.6071881651878357,3.395814895629883
1788862385819755300,0.77275537109375,0.44375941157341003,-0.747929036617279,3.316713333129883
1788862385829797400,0.78279736328125,0.32644766569137573,-1.0416133403778076,3.1407830715179443
1788862385839838200,0.792838134765625,0.20828747749328613,-1.3967194557189941,2.8692755699157715
1788862385849880300,0.80288037109375,0.1266956925392151,-1.7478206157684326,2.5557849407196045
1788862385859921200,0.812921142578125,0.12717506289482117,-2.0389466285705566,2.2953336238861084
1788862385869963300,0.82296337890625,0.23553907871246338,-2.2465999126434326,2.140054941177368
1788862385880004000,0.833004150390625,0.34543469548225403,-2.554807186126709,2.0400943756103516
1788862385890046200,0.843046142578125,0.43749138712882996,-3.0266458988189697,1.997410774230957
1788862385900087000,0.853087158203125,0.6749371886253357,-3.5010907649993896,1.961560606956482
1788862385910128000,0.863128173828125,1.1725407838821411,-3.8241584300994873,2.0849592685699463
1788862385920170200,0.873170166015625,1.804883599281311,-4.369167327880859,2.2642831802368164
1788862385930211300,0.88321142578125,2.3955957889556885,-4.741498947143555,2.3386473655700684
1788862385940253200,0.893253173828125,2.7046468257904053,-5.283510208129883,1.3670737743377686
1788862385950294300,0.903294189453125,3.39884352684021,-3.8777577877044678,0.3770196735858917
1788862385960336100,0.913336181640625,4.692909240722656,-1.3134044408798218,-0.2756737172603607
1788862385970377200,0.923377197265625,5.8358283042907715,0.761309802532196,-0.8325871229171753
1788862385980419000,0.933419189453125,6.460965156555176,1.332017183303833,-1.58390474319458
1788862385990460200,0.943460205078125,6.793271064758301,0.8753777146339417,-1.999294638633728
1788862386000502000,0.953501953125,6.807060718536377,0.24402903020381927,-1.7843940258026123
1788862386010543000,0.963543212890625,6.227333068847656,0.41968438029289246,-0.9049932956695557
1788862386020585200,0.973585205078125,5.257863521575928,1.463721752166748,-0.7010098099708557
1788862386030626300,0.983626220703125,4.624076843261719,2.708832263946533,-0.9756998419761658
1788862386040667400,0.99366748046875,4.373270034790039,2.781170129776001,-0.7474043369293213
1788862386050709200,1.003709228515625,3.043562650680542,0.9878359436988831,0.1709059774875641
1788862386060750300,1.013750244140625,1.8108189105987549,-0.5853340029716492,0.85260009765625
1788862386070792200,1.023792236328125,1.277775764465332,-0.9529075622558594,1.0150387287139893
1788862386080833300,1.033833251953125,1.391333818435669,-0.9055073261260986,0.7094992995262146
1788862386090875100,1.043875244140625,1.4443374872207642,-0.82267165184021,0.40841495990753174
1788862386100916200,1.053916259765625,1.5609033107757568,-0.806829571723938,0.4023224711418152
1788862386110958000,1.0639580078125,1.5747370719909668,-0.8997011780738831,0.4292352795600891
1788862386120999200,1.073999267578125,1.526686191558838,-0.9501870274543762,0.44226109981536865
1788862386131041300,1.084041259765625,1.4124455451965332,-1.0904057025909424,0.43789035081863403
1788862386141082400,1.094082275390625,1.3544379472732544,-1.5391660928726196,0.4964122474193573
1788862386151123200,1.104123291015625,1.035237193107605,-2.289332151412964,0.7135571837425232
1788862386161165300,1.114165283203125,0.9818674325942993,-2.6437723636627197,0.8350053429603577
1788862386171206100,1.1242060546875,1.1436693668365479,-1.6369059085845947,0.5758280754089355
1788862386181248300,1.134248291015625,1.4924060106277466,-0.13283586502075195,-0.19771739840507507
1788862386191289000,1.1442890625,2.2354025840759277,0.7736380696296692,-0.9833347797393799
1788862386201331200,1.154331298828125,2.9399924278259277,1.0190882682800293,-1.2315222024917603
1788862386211372000,1.1643720703125,3.4069793224334717,1.2411434650421143,-1.328518033027649
1788862386221414400,1.174414306640625,3.783738136291504,1.2114806175231934,-1.221301555633545
1788862386231455200,1.184455322265625,3.6880462169647217,1.710508942604065,-0.7347296476364136
1788862386241497300,1.194497314453125,3.5948288440704346,0.4174238443374634,0.14089694619178772
1788862386251538200,1.2045380859375,3.26965069770813,-0.8981637954711914,1.1416101455688477
1788862386261580300,1.214580322265625,2.8466999530792236,-1.0662938356399536,1.4708311557769775
1788862386271621000,1.22462109375,2.196622133255005,-1.225541114807129,1.3164883852005005
1788862386281662200,1.234662109375,1.3308391571044922,-1.1332676410675049,0.8990920782089233
1788862386291704000,1.2447041015625,0.44009798765182495,-0.8618114590644836,0.42559313774108887
1788862386301745200,1.2547451171875,-0.02776535041630268,-0.665055513381958,0.09786106646060944
1788862386311787000,1.264787109375,-0.10160521417856216,-0.20763124525547028,-0.20961685478687286
1788862386321828000,1.274828125,-0.045841559767723083,0.05114305019378662,-0.5011480450630188
1788862386331870200,1.2848701171875,-0.02151436172425747,0.11234080791473389,-0.6239434480667114
1788862386341911300,1.294911376953125,-0.1184970960021019,0.14233465492725372,-0.5932270884513855
1788862386351953200,1.304953125,-0.21238510310649872,0.19534838199615479,-0.5504588484764099
1788862386361994200,1.314994140625,-0.17778079211711884,0.3366304337978363,-0.6451576352119446
1788862386372036000,1.3250361328125,-0.1211879774928093,0.513931393623352,-0.8989002704620361
1788862386382077000,1.335076904296875,-0.14507360756397247,0.5538806915283203,-1.2381653785705566
1788862386392119000,1.345119140625,-0.31713172793388367,0.7558695673942566,-1.5044490098953247
1788862386402159900,1.355159912109375,-0.4832916855812073,0.47893226146698,-0.311473548412323
1788862386412201000,1.365200927734375,-0.4264027774333954,0.08528319001197815,0.16204263269901276
1788862386422243000,1.3752431640625,-0.21593821048736572,-0.13152262568473816,-0.10346575081348419
1788862386432284200,1.3852841796875,-0.16639494895935059,-0.18125048279762268,-0.05040387064218521
1788862386442326000,1.395325927734375,-0.27490997314453125,-0.0190594382584095,-0.1426890641450882
1788862386452367000,1.4053671875,-0.2986900210380554,-0.01947138085961342,-0.1758699268102646
1788862386462409000,1.415408935546875,-0.3543095886707306,-0.04344968497753143,-0.1435905545949936
1788862386472450000,1.425449951171875,-0.3443465530872345,-0.386435866355896,0.038142599165439606
1788862386482492000,1.435491943359375,-0.40128493309020996,-0.6800277829170227,0.11792531609535217
1788862386492533000,1.445532958984375,-0.3538439869880676,-0.7090606689453125,0.13707110285758972
1788862386502574800,1.455574951171875,-0.36346492171287537,-0.4843921363353729,-0.009520203806459904
1788862386512616000,1.465615966796875,-0.47299155592918396,-0.5698114037513733,-0.10605404525995255
1788862386522658000,1.475657958984375,-0.4533986747264862,-0.6398051381111145,0.00818864069879055
1788862386532699100,1.48569921875,-0.3158775568008423,-0.6227885484695435,-0.00001948862336575985
1788862386542741000,1.495740966796875,-0.2549484372138977,-0.5505931973457336,-0.031016552820801735
1788862386552782000,1.505781982421875,-0.6431961059570312,-0.4500153660774231,-0.06922433525323868
1788862386562823200,1.5158232421875,-0.9374817609786987,-1.365842580795288,0.06717691570520401
1788862386572865000,1.525864990234375,-0.6303130984306335,-1.2612324953079224,-0.16579928994178772
1788862386582906000,1.535906005859375,-0.16413024067878723,-0.5150640606880188,-0.1472644954919815
1788862386592948000,1.545947998046875,0.054713647812604904,-0.8821855187416077,-0.0748131051659584
1788862386602989000,1.555989013671875,0.04645811393857002,-1.2990751266479492,0.005239915568381548
1788862386613031000,1.566031005859375,0.052797891199588776,-1.3693859577178955,-0.05921528488397598
1788862386623072000,1.576072021484375,0.06619066745042801,-2.1830687522888184,-0.2429499626159668
1788862386633114000,1.586114013671875,0.7221245169639587,-3.6224777698516846,-0.26404690742492676
1788862386643155200,1.5961552734375,0.900675892829895,-3.3178508281707764,-0.5841943025588989
1788862386653197000,1.606197021484375,0.7428325414657593,-0.5690428018569946,-0.26641327142715454
1788862386663238100,1.616238037109375,0.7188912630081177,0.2258942872285843,-0.269967257976532
1788862386673280000,1.626280029296875,0.5586767196655273,-0.7092625498771667,-0.3363056182861328
1788862386683321000,1.636321044921875,0.060307104140520096,-1.4016929864883423,-0.020305566489696503
1788862386693363000,1.646363037109375,0.08282075077295303,-2.0874180793762207,-0.28057485818862915
1788862386703404000,1.656404052734375,0.012160432524979115,-1.9220279455184937,0.024931522086262703
1788862386713444900,1.66644482421875,-0.024903088808059692,-1.2715057134628296,0.17696315050125122
1788862386723487000,1.676487060546875,-0.10746374726295471,-0.8938695192337036,0.14423689246177673
1788862386733527800,1.68652783203125,-0.13934952020645142,-0.6362956762313843,0.02098497562110424
1788862386743570200,1.696570068359375,-0.21903955936431885,-0.5240434408187866,-0.09720451384782791
1788862386753611000,1.706611083984375,-0.13521844148635864,-0.48240578174591064,-0.25657880306243896
1788862386763653000,1.716653076171875,0.03151009604334831,-0.5317450761795044,-0.21582069993019104
1788862386773694000,1.72669384765625,0.22000718116760254,-0.6976137757301331,-0.06559354811906815
1788862386783736000,1.736736083984375,0.43028852343559265,-0.7299419045448303,0.005360787734389305
1788862386793777000,1.74677685546875,0.48704469203948975,-0.7094957232475281,0.022229531779885292
1788862386803819000,1.756819091796875,0.5650973916053772,-0.614155113697052,-0.005268936976790428
1788862386813859800,1.76685986328125,0.6099942326545715,-0.22799532115459442,-0.17217150330543518
1788862386823902000,1.77690185546875,0.5216784477233887,0.6360424757003784,-0.5614180564880371
1788862386833942800,1.78694287109375,0.8425955772399902,0.6022294163703918,-0.9782410860061646
1788862386843985200,1.796985107421875,0.9996400475502014,0.12727805972099304,-1.0786049365997314
1788862386854026000,1.80702587890625,1.1789171695709229,0.012727940455079079,-0.8690736293792725
1788862386864067000,1.817067138671875,1.3336942195892334,-0.038991447538137436,-0.6557754874229431
1788862386874109000,1.82710888671875,1.5278425216674805,-0.21735136210918427,-0.6518792510032654
1788862386884150000,1.83714990234375,1.3036530017852783,-0.6309828758239746,-0.3740338385105133
1788862386894191900,1.84719189453125,0.9411206841468811,-0.8282288312911987,-0.1059349924325943
1788862386904233000,1.85723291015625,0.6602670550346375,-0.6754794120788574,0.046800270676612854
1788862386914274800,1.86727490234375,0.49672549962997437,-0.6495352983474731,0.04496745765209198
1788862386924316000,1.87731591796875,0.37020325660705566,-0.6634388566017151,0.11268338561058044
1788862386934357800,1.887357666015625,0.4151397943496704,-0.8992056250572205,0.2752457559108734
1788862386944399000,1.897399169921875,0.3400149345397949,-0.7526784539222717,0.34428900480270386
1788862386954441000,1.90744091796875,0.15180940926074982,-0.2773645222187042,0.33504217863082886
1788862386964482000,1.91748193359375,0.005088406149297953,0.2035376876592636,0.23933562636375427
1788862386974524000,1.92752392578125,-0.07827748358249664,0.440728098154068,0.14449985325336456
1788862386984565000,1.93756494140625,-0.12601572275161743,0.4516824781894684,0.12216339260339737
1788862386994606800,1.94760693359375,-0.22289961576461792,0.4155057370662689,0.26312118768692017
1788862387004648000,1.95764794921875,-0.37214395403862,0.10432200878858566,0.478773832321167
1788862387014690000,1.96768994140625,0.04998911917209625,-0.27199292182922363,0.9305458664894104
1788862387024731000,1.97773095703125,0.297786146402359,-0.47248101234436035,1.4927690029144287
1788862387034772000,1.98777197265625,0.23980650305747986,-0.7716116905212402,1.7126564979553223
1788862387044814000,1.99781396484375,0.11334098875522614,-1.0949920415878296,1.4064174890518188
1788862387054855200,2.007855224609375,-0.03361418843269348,-0.675504744052887,0.6790400743484497
1788862387064897000,2.01789697265625,-0.19838236272335052,-0.02123793587088585,-0.22065699100494385
1788862387074938000,2.027938232421875,-0.14874477684497833,0.7206966876983643,-0.798606276512146
1788862387084980000,2.03797998046875,-0.11850377917289734,0.9490057826042175,-0.6637608408927917
1788862387095021000,2.04802099609375,-0.09305589646100998,0.950191855430603,-0.19412586092948914
1788862387105063000,2.05806298828125,0.057992469519376755,0.8915943503379822,0.08706266433000565
1788862387115104000,2.06810400390625,0.3900608718395233,0.6024847626686096,0.07689666002988815
1788862387125145900,2.078145751953125,0.6540765166282654,0.33349645137786865,-0.12841655313968658
1788862387135187000,2.08818701171875,0.42195382714271545,0.619459867477417,-0.2916295528411865
1788862387145229000,2.09822900390625,0.21203947067260742,0.8882625699043274,-0.16507986187934875
1788862387155270100,2.108270263671875,0.0736941397190094,1.233538031578064,0.03640739992260933
1788862387165312000,2.11831201171875,-0.05725748836994171,1.5026555061340332,0.14176978170871735
1788862387175353000,2.12835302734375,-0.26245465874671936,1.4205598831176758,-0.02445598505437374
1788862387185395000,2.13839501953125,0.2609124183654785,0.68274986743927,-0.2713291645050049
1788862387195436000,2.14843603515625,0.7538959383964539,-0.06665366142988205,-0.2306191474199295
1788862387205477000,2.15847705078125,0.24503885209560394,0.08347964286804199,0.04392559081315994
1788862387215519000,2.16851904296875,0.31061142683029175,0.21144536137580872,-0.07530014216899872
1788862387225560000,2.17856005859375,0.29031598567962646,0.2302648425102234,-0.1320214867591858
1788862387235602000,2.188601806640625,0.4085843563079834,-0.1297440230846405,-0.12809985876083374
1788862387245643000,2.19864306640625,0.1899619996547699,-0.5266906023025513,0.09500087052583694
1788862387255685000,2.20868505859375,-0.02645091712474823,-0.9406014680862427,0.3625810146331787
1788862387265726200,2.218726318359375,0.7001888155937195,-1.4639140367507935,0.3082554340362549
1788862387275768000,2.22876806640625,1.0824997425079346,-1.576284408569336,0.11905738711357117
1788862387285809200,2.23880908203125,0.7779467701911926,-1.4190189838409424,0.014652151614427567
1788862387295851000,2.24885107421875,0.6752997636795044,-1.4381247758865356,0.009965346194803715
1788862387305892000,2.25889208984375,0.4233867824077606,-1.3251705169677734,0.07408414781093597
1788862387315934000,2.268933837890625,0.18267618119716644,-1.0946557521820068,0.024108396843075752
1788862387325975000,2.27897509765625,0.0901569053530693,-0.7651712894439697,-0.0660121738910675
1788862387336017000,2.289016845703125,0.1482233703136444,-0.6214486956596375,-0.24823719263076782
1788862387346058000,2.29905810546875,0.2144402116537094,-0.7965632677078247,-0.29466062784194946
1788862387356100000,2.30910009765625,0.23105180263519287,-0.9388822913169861,-0.10242471843957901
1788862387366141200,2.31914111328125,0.34757015109062195,-0.8612478971481323,-0.006783410906791687
1788862387376182000,2.32918212890625,0.5315673351287842,-0.6020311117172241,-0.15572848916053772
1788862387386224000,2.33922412109375,0.5805162191390991,-0.37890586256980896,-0.3680436611175537
1788862387396265000,2.349264892578125,0.6733290553092957,-0.28925544023513794,-0.5415040850639343
1788862387406307000,2.35930712890625,0.8574424386024475,-0.27449142932891846,-0.591974675655365
1788862387416348000,2.369347900390625,0.9584484696388245,-0.2936430871486664,-0.6036031246185303
1788862387426390000,2.37939013671875,1.0181591510772705,-0.32505878806114197,-0.5322834253311157
1788862387436430800,2.389430908203125,0.9730217456817627,-0.35655179619789124,-0.36554792523384094
1788862387446473000,2.399472900390625,0.8935274481773376,-0.36259186267852783,-0.2684517502784729
1788862387456513800,2.409513671875,0.794585645198822,-0.2987349331378937,-0.2652638852596283
1788862387466556200,2.41955615234375,0.5902490615844727,-0.2954517900943756,-0.2737106382846832
1788862387476597000,2.429596923828125,0.27363622188568115,-0.16598407924175262,-0.15988165140151978
1788862387486639000,2.43963916015625,0.18040692806243896,-0.12402012199163437,0.014451533555984497
1788862387496680000,2.449679931640625,0.1868496835231781,-0.2742173373699188,0.12153875082731247
1788862387506722000,2.45972216796875,0.287282258272171,-0.3839483857154846,0.20503658056259155
1788862387516763000,2.469762939453125,0.44380059838294983,-0.4019359350204468,0.2094988226890564
1788862387526805000,2.479804931640625,0.48173972964286804,-0.3421085774898529,0.16090518236160278
1788862387536845800,2.489845703125,0.3954264521598816,-0.26959532499313354,0.09540573507547379
1788862387546888000,2.499887939453125,0.31917643547058105,-0.21419304609298706,0.015957249328494072
1788862387556928800,2.5099287109375,0.18017473816871643,-0.13915061950683594,-0.036473777145147324
1788862387566971100,2.51997119140625,0.07148980349302292,-0.03634727746248245,-0.0567830465734005
1788862387577012000,2.530011962890625,0.05816027149558067,0.06228382885456085,-0.06393927335739136
1788862387587053000,2.540052978515625,0.054076313972473145,0.190131276845932,-0.07430429756641388
1788862387597095000,2.550094970703125,0.006924841087311506,0.2642938196659088,-0.08802948147058487
1788862387607136000,2.560135986328125,-0.0464281290769577,0.31845077872276306,-0.05847638472914696
1788862387617177900,2.570177734375,-0.050242308527231216,0.29185354709625244,-0.014139815233647823
1788862387627219000,2.580218994140625,-0.15904387831687927,0.1408720165491104,0.06350597739219666
1788862387637260800,2.5902607421875,-0.24300868809223175,-0.06972523033618927,0.13641251623630524
1788862387647302000,2.600302001953125,-0.2825196087360382,-0.4436383545398712,0.23035472631454468
1788862387657343700,2.61034375,-0.3138672709465027,-0.609860360622406,0.2484964281320572
1788862387667384800,2.620384765625,-0.7520411014556885,-0.4935872256755829,0.22383688390254974
1788862387677427000,2.630427001953125,-0.423330157995224,-0.5027130246162415,0.04416980221867561
1788862387687468000,2.640468017578125,-0.4360014796257019,-0.44064509868621826,-0.010944578796625137
1788862387697510000,2.650510009765625,-0.4302661418914795,-0.4802190363407135,-0.08063331991434097
1788862387707551000,2.660551025390625,-0.4632613956928253,-0.368332177400589,-0.0905594527721405
1788862387717592800,2.6705927734375,-0.5181183218955994,-0.015059839002788067,-0.025002921000123024
1788862387727634000,2.680634033203125,-0.5265525579452515,0.6791929602622986,0.1909293681383133
1788862387737676000,2.690676025390625,0.16405045986175537,1.1072653532028198,0.2136235386133194
1788862387747716900,2.700716796875,0.6759845614433289,0.7982771992683411,0.019294537603855133
1788862387757758000,2.710758056640625,0.46731242537498474,0.3731015920639038,-0.2442357987165451
1788862387767799800,2.7207998046875,0.14662787318229675,0.11119302362203598,-0.5531164407730103
1788862387777841000,2.7308408203125,0.12206287682056427,-0.31452226638793945,-0.6949579119682312
1788862387787883000,2.740883056640625,0.1876291036605835,-0.7039129137992859,-0.566674530506134
1788862387797924000,2.750924072265625,0.26087498664855957,-0.872788667678833,-0.22410012781620026
1788862387807966000,2.760966064453125,0.2597154378890991,-0.715584933757782,0.007553077302873135
1788862387818007000,2.771007080078125,0.22380989789962769,-0.3882983922958374,0.043497227132320404
1788862387828049000,2.781048828125,0.11279815435409546,-0.22420082986354828,0.03751283884048462
1788862387838090000,2.791090087890625,0.052359577268362045,-0.2550501525402069,0.10840345174074173
1788862387848131800,2.8011318359375,-0.04238211363554001,-0.30116865038871765,0.27912089228630066
1788862387858173000,2.8111728515625,-0.11946253478527069,-0.329092800617218,0.39516255259513855
1788862387868214800,2.82121484375,-0.2026628702878952,-0.5217986106872559,0.5549631118774414
1788862387878255900,2.831255859375,-0.1548921912908554,-0.5468707084655762,0.6093716621398926
1788862387888298000,2.841298095703125,-0.020085100084543228,-0.42808443307876587,0.3965485692024231
1788862387898339000,2.851339111328125,-0.0038376874290406704,-0.33027133345603943,0.22310063242912292
1788862387908381000,2.861380859375,-0.05233890935778618,-0.43627846240997314,0.25685086846351624
1788862387918422000,2.871422119140625,-0.06888574361801147,-0.2676650881767273,0.25928255915641785
1788862387928464000,2.8814638671875,-0.12523344159126282,0.044939957559108734,0.22340285778045654
1788862387938505000,2.8915048828125,-0.18139231204986572,0.26837271451950073,0.24127578735351562
1788862387948546800,2.901546875,-0.16132086515426636,0.34109485149383545,0.2417016327381134
1788862387958588000,2.911587890625,-0.15139086544513702,0.3063144385814667,0.2403363585472107
1788862387968629000,2.92162890625,-0.11756952106952667,0.2422478199005127,0.23604387044906616
1788862387978671000,2.931671142578125,-0.0958370789885521,0.2244235724210739,0.2321728765964508
1788862387988712200,2.941712158203125,-0.0816592127084732,0.20511698722839355,0.23268206417560577
1788862387998754000,2.951754150390625,-0.08814547955989838,0.14364995062351227,0.250870019197464
1788862388008795100,2.961795166015625,-0.10759428143501282,0.05984161049127579,0.25751379132270813
1788862388018837000,2.9718369140625,-0.1222366914153099,-0.027145110070705414,0.2463095784187317
1788862388028878000,2.981878173828125,-0.1366150975227356,-0.0821409821510315,0.22291050851345062
1788862388038920000,2.991919921875,-0.15730372071266174,-0.1005994901061058,0.20998463034629822
1788862388048961000,3.0019609375,-0.18178163468837738,-0.0657951682806015,0.22350311279296875
1788862388059003000,3.0120029296875,-0.20453087985515594,0.020353905856609344,0.2618117034435272
1788862388069044000,3.0220439453125,-0.22888362407684326,0.12799566984176636,0.2989808917045593
1788862388079086000,3.032086181640625,-0.24720649421215057,0.21120058000087738,0.325059175491333
1788862388089127200,3.042127197265625,-0.2525820732116699,0.23777173459529877,0.34521904587745667
1788862388099169000,3.0521689453125,-0.247039332985878,0.20670199394226074,0.3640684485435486
1788862388109210000,3.062210205078125,-0.23777979612350464,0.14993566274642944,0.3705231249332428
1788862388119252000,3.072251953125,-0.22947478294372559,0.06889862567186356,0.35475826263427734
1788862388129293000,3.08229296875,-0.20186366140842438,-0.01096584927290678,0.27628183364868164
1788862388139335000,3.0923349609375,-0.18163056671619415,-0.09467850625514984,0.17881794273853302
1788862388149376000,3.1023759765625,-0.18370595574378967,-0.19148893654346466,0.12046195566654205
1788862388159417900,3.11241796875,-0.20180422067642212,-0.18796266615390778,0.14765337109565735
1788862388169459000,3.122458984375,-0.21122169494628906,-0.1271563172340393,0.24687103927135468
1788862388179499800,3.132499755859375,-0.19303801655769348,-0.09921270608901978,0.3515338599681854
1788862388189542100,3.142542236328125,-0.16199859976768494,-0.11932169646024704,0.38717707991600037
1788862388199583000,3.1525830078125,-0.12963660061359406,-0.21445037424564362,0.3498382270336151
1788862388209625000,3.162625,-0.10280632227659225,-0.35068783164024353,0.2970772683620453
1788862388219666000,3.172666015625,-0.093332439661026,-0.45163342356681824,0.27318236231803894
1788862388229708000,3.1827080078125,-0.13109391927719116,-0.42675283551216125,0.2815055251121521
1788862388239748900,3.192748779296875,-0.1906018704175949,-0.23696298897266388,0.31051135063171387
1788862388249791000,3.202791015625,-0.21324805915355682,0.05278947204351425,0.32268521189689636
1788862388259831800,3.212831787109375,-0.17067760229110718,0.29970672726631165,0.3008146286010742
1788862388269874000,3.2228740234375,-0.08728896826505661,0.46361738443374634,0.23494988679885864
1788862388279914800,3.232914794921875,-0.011501179076731205,0.4610164165496826,0.12271498888731003
1788862388289957000,3.24295703125,0.023143351078033447,0.3339913487434387,0.0304268766194582
1788862388299998000,3.252998046875,0.03565078601241112,0.14889219403266907,-0.024126509204506874
1788862388310040000,3.2630400390625,0.01682756096124649,-0.008442836813628674,-0.043020837008953094
1788862388320081000,3.273080810546875,-0.03716501593589783,-0.08463439345359802,-0.039578668773174286
1788862388330123000,3.283123046875,-0.0956626832485199,-0.08594173938035965,-0.026685506105422974
1788862388340163800,3.293163818359375,-0.13818101584911346,-0.04076559096574783,-0.003092167666181922
1788862388350206000,3.3032060546875,-0.16892027854919434,-0.02888203039765358,0.045411985367536545
1788862388360246800,3.313246826171875,-0.158468559384346,-0.10983774065971375,0.1367321014404297
1788862388370289000,3.323288818359375,-0.13433127105236053,-0.201048344373703,0.2500874102115631
1788862388380330500,3.33333056640625,-0.12830930948257446,-0.21074756979942322,0.36637070775032043
1788862388390371600,3.34337158203125,-0.1501741260290146,-0.16900385916233063,0.4548627436161041
1788862388400413400,3.353413330078125,-0.16966015100479126,-0.1248425543308258,0.5107986927032471
1788862388410454500,3.36345458984375,-0.18160362541675568,-0.10498948395252228,0.539336085319519
1788862388420496600,3.37349658203125,-0.17848803102970123,-0.12706832587718964,0.5398150682449341
1788862388430537700,3.383537841796875,-0.166081964969635,-0.18003727495670319,0.5131195783615112
1788862388440579600,3.39357958984375,-0.15354450047016144,-0.158121258020401,0.4699247181415558
1788862388450620700,3.40362060546875,-0.12084487825632095,0.008013393729925156,0.41087260842323303
1788862388460662500,3.41366259765625,-0.09463345259428024,0.22827675938606262,0.34782761335372925
1788862388470703600,3.42370361328125,-0.10894448310136795,0.3412691056728363,0.3008744716644287
1788862388480745500,3.433745361328125,-0.12450133264064789,0.3234948217868805,0.2737378776073456
1788862388490786600,3.44378662109375,-0.12430240213871002,0.22393839061260223,0.26745226979255676
1788862388500828400,3.453828369140625,-0.11348570138216019,0.06152160093188286,0.3069603443145752
1788862388510869500,3.463869384765625,-0.11138633638620377,-0.11725293844938278,0.3669387102127075
1788862388520911600,3.47391162109375,-0.1027599647641182,-0.23933270573616028,0.40237197279930115
1788862388530952700,3.48395263671875,-0.10680291056632996,-0.28083568811416626,0.3960901200771332
1788862388540994600,3.49399462890625,-0.13509710133075714,-0.2612478733062744,0.35604938864707947
1788862388551035600,3.50403564453125,-0.16793574392795563,-0.21533739566802979,0.3513939082622528
1788862388561077500,3.514077392578125,-0.16875457763671875,-0.18871113657951355,0.3685764670372009
1788862388571118600,3.52411865234375,-0.14248596131801605,-0.1835044026374817,0.36207568645477295
1788862388581159700,3.53415966796875,-0.09342392534017563,-0.19541561603546143,0.30768832564353943
1788862388591201500,3.544201416015625,-0.043389253318309784,-0.20947657525539398,0.2074538767337799
1788862388601242600,3.55424267578125,-0.014671999961137772,-0.19872358441352844,0.1009325236082077
1788862388611284500,3.564284423828125,-0.003042241558432579,-0.18026867508888245,0.023692332208156586
1788862388621325600,3.57432568359375,-0.008206336759030819,-0.19002525508403778,-0.01540648564696312
1788862388631367700,3.58436767578125,-0.025370676070451736,-0.17605936527252197,-0.039270274341106415
1788862388641408800,3.59440869140625,-0.055971648544073105,-0.16059425473213196,-0.03781908005475998
1788862388651450600,3.60445068359375,-0.04482738673686981,-0.17109109461307526,-0.012668454088270664
1788862388661491700,3.61449169921875,-0.03200215473771095,-0.21582500636577606,0.010682848282158375
1788862388671533600,3.624533447265625,-0.004656282719224691,-0.10512538999319077,-0.05472651869058609
1788862388681574700,3.63457470703125,0.10387840867042542,0.08356526494026184,-0.1524859517812729
1788862388691616500,3.644616455078125,0.13765369355678558,0.1882448047399521,-0.23114053905010223
1788862388701657600,3.65465771484375,0.1183420792222023,0.26753100752830505,-0.2816038727760315
1788862388711699500,3.664699462890625,0.20168250799179077,0.2593194246292114,-0.27852553129196167
1788862388721740500,3.674740478515625,0.22478905320167542,0.1743878722190857,-0.24820584058761597
1788862388731782700,3.68478271484375,0.06701061129570007,0.2601661682128906,-0.23012270033359528
1788862388741823700,3.69482373046875,0.016826312988996506,0.40027326345443726,-0.17649491131305695
1788862388751865600,3.704865478515625,-0.028738509863615036,0.3877532184123993,-0.08387895673513412
1788862388761906700,3.71490673828125,-0.10434139519929886,0.32455578446388245,0.032754383981227875
1788862388771947500,3.724947509765625,-0.15120850503444672,0.27246060967445374,0.17841172218322754
1788862388781989600,3.73498974609375,-0.1392604112625122,0.3041159212589264,0.3081585764884949
1788862388792030500,3.745030517578125,-0.10557728260755539,0.40057453513145447,0.4056291878223419
1788862388802072600,3.755072509765625,-0.058208148926496506,0.4164232611656189,0.4441196918487549
1788862388812113400,3.765113525390625,-0.002197078661993146,0.30726322531700134,0.42176005244255066
1788862388822155500,3.775155517578125,0.05556055158376694,0.15898071229457855,0.3684440553188324
1788862388832196400,3.7851962890625,0.131924569606781,0.09226452559232712,0.3020831346511841
1788862388842238700,3.79523876953125,0.18801718950271606,0.057956866919994354,0.2640817165374756
1788862388852279600,3.805279541015625,0.20145763456821442,-0.04673066735267639,0.2528564929962158
1788862388862321700,3.81532177734375,0.17712604999542236,-0.2517097592353821,0.2523040771484375
1788862388872362500,3.825362548828125,0.11590211093425751,-0.46196579933166504,0.2601209878921509
1788862388882404600,3.835404541015625,0.03798895701766014,-0.5760194063186646,0.2681925892829895
1788862388892445400,3.845445556640625,-0.05565976724028587,-0.5633292198181152,0.2859441637992859
1788862388902487600,3.855487548828125,-0.15212641656398773,-0.4778134822845459,0.3262976109981537
1788862388912528600,3.865528564453125,-0.23657232522964478,-0.4305841624736786,0.3887213170528412
1788862388922570500,3.875570556640625,-0.27515947818756104,-0.4780683219432831,0.4867064356803894
1788862388932611600,3.885611572265625,-0.25464433431625366,-0.618439257144928,0.5989691019058228
1788862388942652700,3.895652587890625,-0.17867612838745117,-0.8353450894355774,0.6739463806152344
1788862388952694500,3.905694580078125,-0.10678890347480774,-0.9422116279602051,0.7064228057861328
1788862388962735600,3.915735595703125,-0.04283778369426727,-0.7596345543861389,0.7113521099090576
1788862388972777700,3.92577783203125,-0.018933245912194252,-0.35093390941619873,0.6867234706878662
1788862388982818600,3.935818603515625,0.0005482304841279984,0.054465994238853455,0.6467670202255249
1788862388992860700,3.945860595703125,0.05275444686412811,0.27397891879081726,0.6031854152679443
1788862389002901500,3.955901611328125,0.1699044555425644,0.3133425712585449,0.4367334544658661
1788862389012943600,3.965943603515625,0.26212120056152344,0.11824924498796463,0.16511312127113342
1788862389022984400,3.975984375,0.2774676978588104,-0.33169475197792053,-0.03464836999773979
1788862389033026800,3.98602685546875,0.20162726938724518,-0.7071934938430786,-0.14704148471355438
1788862389043067600,3.996067626953125,0.065309077501297,-0.7359588742256165,-0.222956582903862
1788862389053109800,4.00610986328125,-0.03897285461425781,-0.3906669616699219,-0.29035133123397827
1788862389063150600,4.016150634765625,-0.1215200126171112,0.025092441588640213,-0.3018166124820709
1788862389073192700,4.026192626953125,-0.15373361110687256,0.24249640107154846,-0.29257410764694214
1788862389083233500,4.036233642578125,-0.14357417821884155,0.20621711015701294,-0.3180588483810425
1788862389093275600,4.046275634765625,-0.05665605887770653,-0.05389063060283661,-0.38896551728248596
1788862389103316500,4.05631640625,0.09251187741756439,-0.3320499062538147,-0.44724956154823303
1788862389113357600,4.066357666015625,0.22848568856716156,-0.43328091502189636,-0.5150280594825745
1788862389123399400,4.0763994140625,0.2618144154548645,-0.36073729395866394,-0.5737929344177246
1788862389133440500,4.0864404296875,0.17199131846427917,-0.21336650848388672,-0.598425030708313
1788862389143482600,4.096482666015625,0.02716437540948391,-0.08318134397268295,-0.609973669052124
1788862389153523700,4.106523681640625,-0.10513880848884583,-0.060396138578653336,-0.6651576161384583
1788862389163565600,4.116565673828125,-0.2289556860923767,-0.10678534209728241,-0.7714419364929199
1788862389173606700,4.126606689453125,-0.3744204640388489,-0.09009717404842377,-0.8953981995582581
1788862389183648500,4.1366484375,-0.5236717462539673,-0.005589750595390797,-0.9747492671012878
1788862389193689600,4.146689697265625,-0.6735259890556335,0.04828306660056114,-0.9869630336761475
1788862389203731500,4.1567314453125,-0.8079081177711487,0.11133106797933578,-0.9619645476341248
1788862389213772500,4.1667724609375,-0.9218840003013611,0.2945096790790558,-0.9148247241973877
1788862389223814400,4.176814453125,-0.9611698389053345,0.6880719065666199,-0.8664766550064087
1788862389233855500,4.18685546875,-0.8888593912124634,1.206874966621399,-0.9176005721092224
1788862389243897600,4.196897705078125,-0.7290974855422974,1.4852608442306519,-1.1036041975021362
1788862389253938700,4.206938720703125,-0.5694265961647034,1.2965532541275024,-1.3380521535873413
1788862389263979800,4.216979736328125,-0.43772444128990173,0.6962212324142456,-1.5160504579544067
1788862389274021600,4.227021728515625,-0.2926703095436096,0.04218827933073044,-1.645733118057251
1788862389284062700,4.237062744140625,-0.15189848840236664,-0.3544875383377075,-1.7663540840148926
1788862389294104600,4.2471044921875,-0.10514748841524124,-0.4703022837638855,-1.8154067993164062
1788862389304145700,4.257145751953125,-0.1418505162000656,-0.3848447799682617,-1.7509160041809082
1788862389314187500,4.2671875,-0.2628592550754547,-0.13928641378879547,-1.6966685056686401
1788862389324228600,4.277228515625,-0.4129416048526764,0.2641899287700653,-1.7140014171600342
1788862389334270500,4.2872705078125,-0.5541046261787415,0.6477255821228027,-1.7728010416030884
1788862389344311600,4.2973115234375,-0.6400949358940125,0.8132253885269165,-1.8012750148773193
1788862389354353700,4.307353759765625,-0.620256781578064,0.7228038907051086,-1.8155007362365723
1788862389364394800,4.317394775390625,-0.46878647804260254,0.3818449079990387,-1.8768606185913086
1788862389374436600,4.3274365234375,-0.2072390615940094,-0.07310821115970612,-2.0368094444274902
1788862389384477400,4.3374775390625,0.06973713636398315,-0.4434455335140228,-2.2459635734558105
1788862389394519300,4.347519287109375,0.3101244568824768,-0.5702569484710693,-2.4066405296325684
1788862389404560400,4.357560302734375,0.4891240894794464,-0.4487111568450928,-2.4908833503723145
1788862389414602200,4.367602294921875,0.6404622197151184,-0.29677969217300415,-2.50453782081604
1788862389424643300,4.377643310546875,0.7682183980941772,-0.18662574887275696,-2.4709970951080322
1788862389434684200,4.38768408203125,0.8773965239524841,-0.0256496574729681,-2.4051151275634766
1788862389444726500,4.3977265625,0.8915936350822449,0.11017677932977676,-2.3118088245391846
1788862389454767400,4.407767333984375,0.7766268253326416,-0.0340842604637146,-2.1965365409851074
1788862389464809500,4.4178095703125,0.5750361680984497,-0.3641263544559479,-2.059035062789917
1788862389474850300,4.427850341796875,0.33405429124832153,-0.48105016350746155,-2.027268171310425
1788862389484892400,4.437892333984375,0.061681296676397324,-0.5098083019256592,-2.121645927429199
1788862389494933200,4.447933349609375,-0.10525815933942795,-0.6101204752922058,-2.224562406539917
1788862389504975400,4.457975341796875,-0.182297945022583,-0.8880159258842468,-2.2560689449310303
1788862389515016200,4.46801611328125,-0.21357303857803345,-1.2119841575622559,-2.2185862064361572
1788862389525058300,4.478058349609375,-0.19596177339553833,-1.4243792295455933,-2.1645092964172363
1788862389535099400,4.488099365234375,-0.11703100800514221,-1.471816062927246,-2.1089751720428467
1788862389545141500,4.4981416015625,-0.012216300703585148,-1.355883240699768,-2.051943778991699
1788862389555182300,4.508182373046875,0.08049392700195312,-1.1787075996398926,-1.978062629699707
1788862389565224400,4.518224365234375,0.15613403916358948,-1.0445475578308105,-1.9158271551132202
1788862389575265300,4.528265380859375,0.2218608558177948,-0.9969241619110107,-1.8919003009796143
1788862389585306400,4.538306396484375,0.29220351576805115,-1.0051805973052979,-1.9022456407546997
1788862389595348500,4.548348388671875,0.33875423669815063,-1.0192663669586182,-1.8625494241714478
1788862389605389300,4.558389404296875,0.3754083514213562,-1.0031721591949463,-1.7601234912872314
1788862389615431400,4.568431396484375,0.3864378333091736,-0.9962138533592224,-1.7537590265274048
1788862389625472300,4.57847216796875,0.35507750511169434,-1.1124101877212524,-1.8184469938278198
1788862389635514400,4.588514404296875,0.28265151381492615,-1.266277551651001,-1.8188364505767822
1788862389645555200,4.59855517578125,0.192402645945549,-1.2456340789794922,-1.7791672945022583
1788862389655597600,4.60859765625,0.10535961389541626,-1.133110761642456,-1.7357447147369385
1788862389665638400,4.618638427734375,0.051761019974946976,-0.9830836653709412,-1.685158610343933
1788862389675680500,4.628680419921875,0.03716636449098587,-0.8339487910270691,-1.6888371706008911
1788862389685721300,4.638721435546875,0.05356992408633232,-0.8157266974449158,-1.7502152919769287
1788862389695763500,4.648763427734375,0.09177589416503906,-0.9171217679977417,-1.7258363962173462
1788862389705804300,4.65880419921875,0.13713575899600983,-0.9198276400566101,-1.610115885734558
1788862389715846400,4.668846435546875,0.17002898454666138,-0.7904384732246399,-1.4265623092651367
1788862389725887200,4.67888720703125,0.20004157721996307,-0.6425482034683228,-1.2982354164123535
1788862389735929600,4.6889296875,0.2586723864078522,-0.5552932024002075,-1.2651299238204956
1788862389745970400,4.698970458984375,0.344477117061615,-0.534927248954773,-1.2469819784164429
1788862389756011500,4.709011474609375,0.45275619626045227,-0.46948352456092834,-1.2233972549438477
1788862389766053400,4.719053466796875,0.5029509663581848,-0.42031553387641907,-1.1756945848464966
1788862389776094500,4.729094482421875,0.49580490589141846,-0.44382351636886597,-1.0009582042694092
1788862389786136300,4.73913623046875,0.4416605830192566,-0.36373016238212585,-0.8445340394973755
1788862389796177400,4.749177490234375,0.37691381573677063,-0.22288595139980316,-0.717033863067627
1788862389806219300,4.75921923828125,0.33154526352882385,-0.20939572155475616,-0.6631431579589844
1788862389816260400,4.76926025390625,0.30983278155326843,-0.2835248112678528,-0.6233664155006409
1788862389826302200,4.77930224609375,0.27552714943885803,-0.3827204406261444,-0.6373592615127563
1788862389836343300,4.78934326171875,0.2153485268354416,-0.4202483892440796,-0.6979256868362427
1788862389846385400,4.799385498046875,0.11655665189027786,-0.4456043839454651,-0.6222029328346252
1788862389856426500,4.809426513671875,-0.008210578933358192,-0.3608785569667816,-0.3737241327762604
1788862389866468400,4.81946826171875,-0.10063990950584412,-0.11451397091150284,-0.32951825857162476
1788862389876509400,4.829509521484375,-0.06064295768737793,-0.06784500926733017,-0.5627896189689636
1788862389886551300,4.83955126953125,0.016059299930930138,-0.2610520124435425,-0.7626736164093018
1788862389896592400,4.84959228515625,0.053416259586811066,-0.19027931988239288,-0.6784524321556091
1788862389906634200,4.85963427734375,0.04130522534251213,-0.06393254548311234,-0.43263116478919983
1788862389916675300,4.86967529296875,0.022633804008364677,0.030639760196208954,-0.3467503488063812
1788862389926716400,4.87971630859375,0.0409562923014164,-0.04799182713031769,-0.5281847715377808
1788862389936758300,4.88975830078125,0.09445547312498093,-0.17488320171833038,-0.7332298159599304
1788862389946799400,4.89979931640625,0.1431962251663208,-0.1643366664648056,-0.7635331153869629
1788862389956841500,4.909841552734375,0.19051021337509155,-0.06138792261481285,-0.6688183546066284
1788862389966882600,4.919882568359375,0.28175902366638184,-0.11377642303705215,-0.7005705237388611
1788862389976924400,4.92992431640625,0.3416607081890106,-0.15856119990348816,-0.8194015622138977
1788862389986965500,4.939965576171875,0.34063974022865295,-0.0712336003780365,-0.9053571224212646
1788862389997007400,4.95000732421875,0.288634330034256,0.032086923718452454,-0.8902881741523743
1788862390007048400,4.96004833984375,0.22145317494869232,0.024689452722668648,-0.6398588418960571
1788862390017090300,4.97009033203125,0.18594738841056824,0.13259142637252808,-0.48736435174942017
1788862390027131400,4.98013134765625,0.21706707775592804,-0.02543376199901104,-0.4896629750728607
1788862390037173200,4.99017333984375,0.32295411825180054,-0.16018225252628326,-0.4923650026321411
1788862390047214300,5.00021435546875,0.3851136863231659,-0.08735395967960358,-0.44725272059440613
1788862390057256400,5.01025634765625,0.3390074372291565,0.08780320733785629,-0.35873669385910034
1788862390067297500,5.020297607421875,0.24454693496227264,0.2090650051832199,-0.26476311683654785
1788862390077339400,5.03033935546875,0.1603124886751175,0.17934173345565796,-0.156494140625
1788862390087380500,5.04038037109375,0.10123413056135178,0.10277038812637329,-0.1175600215792656
1788862390097421300,5.05042138671875,0.0632832944393158,0.08302571624517441,-0.1311035305261612
1788862390107463400,5.06046337890625,0.03012870065867901,0.05313558131456375,0.017896482720971107
1788862390117504300,5.070504150390625,-0.0027568128425627947,0.09132824093103409,0.250510036945343
1788862390127546400,5.08054638671875,0.013473985716700554,0.06563623249530792,0.34304162859916687
1788862390137587200,5.090587158203125,0.042609233409166336,-0.011041766032576561,0.4365934133529663
1788862390147629300,5.10062939453125,0.07957898825407028,0.025395594537258148,0.5110592246055603
1788862390157670100,5.110670166015625,0.10806123167276382,0.2388889640569687,0.4662001430988312
1788862390167712500,5.12071240234375,0.030910171568393707,0.25097715854644775,0.44442421197891235
1788862390177753300,5.13075341796875,-0.08443213254213333,0.43817606568336487,0.40895065665245056
1788862390187795500,5.14079541015625,-0.18640628457069397,0.5986790657043457,0.20497705042362213
1788862390197836300,5.150836181640625,-0.22756171226501465,0.561662495136261,-0.07107768952846527
1788862390207878400,5.16087841796875,-0.22156579792499542,0.45878976583480835,-0.20242077112197876
1788862390217919200,5.170919189453125,-0.15804967284202576,0.41455334424972534,-0.2401239424943924
1788862390227961300,5.18096142578125,-0.07843025028705597,0.3746839761734009,-0.24916662275791168
1788862390238002200,5.191002197265625,-0.053605593740940094,0.3820265829563141,-0.31164225935935974
1788862390248044500,5.20104443359375,-0.11304300278425217,0.5127309560775757,-0.40658071637153625
1788862390258085400,5.21108544921875,-0.25879648327827454,0.5033382177352905,-0.3853188157081604
1788862390268126500,5.22112646484375,-0.3815534710884094,0.4566763937473297,-0.25717106461524963
1788862390278168300,5.231168212890625,-0.45954015851020813,0.4104575216770172,-0.11803819239139557
1788862390288209400,5.24120947265625,-0.49904653429985046,0.4411744475364685,-0.044843968003988266
1788862390298251300,5.251251220703125,-0.48151734471321106,0.6217588782310486,0.013970613479614258
1788862390308292400,5.261292236328125,-0.4360905587673187,0.7902100682258606,0.02719397097826004
1788862390318334500,5.27133447265625,-0.4029616415500641,0.8744540810585022,-0.012625080533325672
1788862390328375300,5.281375244140625,-0.37392163276672363,0.8529316186904907,-0.040074244141578674
1788862390338417400,5.29141748046875,-0.32886841893196106,0.797844648361206,-0.06104424223303795
1788862390348458200,5.301458251953125,-0.2724376320838928,0.7785252928733826,-0.06045807898044586
1788862390358500600,5.31150048828125,-0.20690789818763733,0.8070927858352661,-0.027023958042263985
1788862390368541400,5.32154150390625,-0.13897790014743805,0.8534970879554749,0.07981573045253754
1788862390378583600,5.33158349609375,-0.06504163891077042,0.8114932179450989,0.17390574514865875
1788862390388624100,5.3416240234375,-0.02882268838584423,0.6967812776565552,0.2431916892528534
1788862390398666200,5.351666259765625,-0.06899833679199219,0.5948919057846069,0.3065491020679474
1788862390408707000,5.36170703125,-0.133078470826149,0.44940105080604553,0.4014054834842682
1788862390418749200,5.371749267578125,-0.1658092588186264,0.3011263608932495,0.5203539729118347
1788862390428790000,5.3817900390625,-0.13969120383262634,0.22068347036838531,0.6391677856445312
1788862390438831000,5.3918310546875,-0.15352660417556763,0.24054665863513947,0.7633011937141418
1788862390448873000,5.401873046875,-0.12605123221874237,0.31515243649482727,0.8005934357643127
1788862390458914000,5.4119140625,-0.049654729664325714,0.3407856523990631,0.7598758339881897
1788862390468956200,5.4219560546875,0.07857434451580048,0.3205379545688629,0.725906491279602
1788862390478997200,5.431997314453125,0.18043625354766846,0.30072057247161865,0.6872240900993347
1788862390489039000,5.4420390625,0.17836637794971466,0.24366924166679382,0.6359886527061462
1788862390499080200,5.452080078125,0.086217001080513,0.23464004695415497,0.5814979672431946
1788862390509122000,5.4621220703125,-0.03138745203614235,0.29217278957366943,0.5653806924819946
1788862390519163100,5.4721630859375,-0.14553585648536682,0.3601289391517639,0.5911774039268494
1788862390529205000,5.482205078125,-0.229744091629982,0.36025041341781616,0.646316647529602
1788862390539246000,5.49224609375,-0.28708142042160034,0.3440304398536682,0.7031280398368835
1788862390549288000,5.502287841796875,-0.31319138407707214,0.29397428035736084,0.7356885075569153
1788862390559329000,5.5123291015625,-0.33019351959228516,0.2318829447031021,0.7294088006019592
1788862390569371100,5.52237109375,-0.3640984296798706,0.21367907524108887,0.7003645896911621
1788862390579412200,5.532412109375,-0.42102909088134766,0.27869775891304016,0.6922078132629395
1788862390589454000,5.5424541015625,-0.4810238480567932,0.29568246006965637,0.7010437250137329
1788862390599495200,5.5524951171875,-0.5175512433052063,0.193215474486351,0.7110683917999268
1788862390609536300,5.562536376953125,-0.5254661440849304,0.0410921685397625,0.751495897769928
1788862390619578000,5.572578125,-0.5180175304412842,-0.019765585660934448,0.8229237198829651
1788862390629619200,5.582619140625,-0.48565882444381714,-0.004144453443586826,0.8536179065704346
1788862390639661000,5.5926611328125,-0.4346901774406433,-0.0016522672958672047,0.839767575263977
1788862390649702100,5.6027021484375,-0.38175246119499207,-0.027250375598669052,0.839827835559845
1788862390659744000,5.612743896484375,-0.3527575433254242,-0.031133532524108887,0.8808522820472717
1788862390669785000,5.62278515625,-0.33353328704833984,-0.013393773697316647,0.9260154366493225
1788862390679827200,5.6328271484375,-0.3246007561683655,-0.006630143150687218,0.935320258140564
1788862390689868300,5.642868408203125,-0.32858240604400635,-0.023203890770673752,0.9308358430862427
1788862390699910100,5.65291015625,-0.33822065591812134,0.0022221077233552933,0.9380692839622498
1788862390709951200,5.662951171875,-0.34427914023399353,0.04204951226711273,0.9483695030212402
1788862390719993000,5.6729931640625,-0.33754825592041016,0.01982330158352852,0.9092298150062561
1788862390730034200,5.6830341796875,-0.33319032192230225,-0.05399897322058678,0.8563554883003235
1788862390740076000,5.693075927734375,-0.33877310156822205,-0.04620230197906494,0.8820233345031738
1788862390750117000,5.7031171875,-0.3412230610847473,0.057699188590049744,0.9726935625076294
1788862390760159000,5.713158935546875,-0.33204901218414307,0.1636732965707779,1.036594271659851
1788862390770200000,5.723199951171875,-0.3201248049736023,0.25321048498153687,1.0474748611450195
1788862390780241000,5.733240966796875,-0.32216399908065796,0.3367583751678467,1.0166102647781372
1788862390790283300,5.743283203125,-0.34708353877067566,0.3886714279651642,1.0122723579406738
1788862390800324000,5.753323974609375,-0.37891072034835815,0.390969455242157,1.018698811531067
1788862390810366200,5.7633662109375,-0.3907417058944702,0.3419157564640045,0.9911734461784363
1788862390820407000,5.773406982421875,-0.3734165132045746,0.25987574458122253,0.9668936729431152
1788862390830449200,5.78344921875,-0.3387347161769867,0.19728563725948334,0.9971520900726318
1788862390840490000,5.793489990234375,-0.297617644071579,0.17788104712963104,1.044827938079834
1788862390850532000,5.803531982421875,-0.2651314437389374,0.1704113483428955,1.0757733583450317
1788862390860573000,5.813572998046875,-0.25077885389328003,0.16165032982826233,1.0544384717941284
1788862390870615300,5.823615234375,-0.2696162462234497,0.13536469638347626,1.0138721466064453
1788862390880656100,5.83365625,-0.3008474111557007,0.11829143762588501,0.9999473094940186
1788862390890698200,5.8436982421875,-0.31371891498565674,0.11983922123908997,1.0208330154418945
1788862390900739000,5.853739013671875,-0.29848775267601013,0.12483185529708862,1.0582228899002075
1788862390910781200,5.86378125,-0.25741931796073914,0.126366525888443,1.0705209970474243
1788862390920822000,5.873822021484375,-0.19590510427951813,0.14442169666290283,1.0427567958831787
1788862390930864000,5.883864013671875,-0.11521835625171661,0.17127206921577454,0.9964362382888794
1788862390940905200,5.8939052734375,-0.03624018281698227,0.16539207100868225,0.943568766117096
1788862390950947000,5.903947021484375,0.011081134900450706,0.12483245134353638,0.9018540382385254
1788862390960988200,5.91398828125,0.0004937378689646721,0.08234064280986786,0.8937976956367493
1788862390971029000,5.924029052734375,-0.0444532111287117,0.08925873041152954,0.9253972768783569
1788862390981071400,5.9340712890625,-0.07292532920837402,0.12416131794452667,0.9533335566520691
1788862390991112200,5.9441123046875,-0.07674457132816315,0.14254352450370789,0.9648227095603943
1788862391001154300,5.954154296875,-0.07513441890478134,0.118532195687294,0.9664632081985474
1788862391011195100,5.964195068359375,-0.05868889391422272,0.07174339890480042,0.9715127348899841
1788862391021237200,5.9742373046875,-0.03410179167985916,0.04239988699555397,0.9820446968078613
1788862391031278000,5.984278076171875,-0.01245108712464571,0.06650343537330627,0.98855060338974
1788862391041320200,5.9943203125,0.000158980255946517,0.11342061311006546,0.9808418154716492
1788862391051361000,6.004361083984375,0.00892612524330616,0.1445624679327011,0.9551026821136475
1788862391061403100,6.014403076171875,0.016181107610464096,0.15081849694252014,0.9267823696136475
1788862391071444000,6.02444384765625,0.04163277521729469,0.1385129690170288,0.8989626169204712
1788862391081486300,6.034486328125,0.08712568879127502,0.12141921371221542,0.8793563842773438
1788862391091527200,6.044527099609375,0.13862304389476776,0.09673753380775452,0.8681680560112
1788862391101569300,6.0545693359375,0.1777515411376953,0.08334369212388992,0.8672854900360107
1788862391111610000,6.064610107421875,0.2065112441778183,0.05930743366479874,0.8519338369369507
1788862391121652200,6.07465234375,0.22697098553180695,0.0368679016828537,0.8092425465583801
1788862391131693000,6.084693115234375,0.24948248267173767,0.038942404091358185,0.7625165581703186
1788862391141734100,6.094734130859375,0.25184309482574463,0.10441488772630692,0.7115140557289124
1788862391151776000,6.10477587890625,0.2477390319108963,0.18629810214042664,0.6596624851226807
1788862391161817000,6.114817138671875,0.246567502617836,0.23005037009716034,0.6161261796951294
1788862391171859000,6.12485888671875,0.2610818147659302,0.23788553476333618,0.5915279388427734
1788862391181900000,6.134900146484375,0.28224408626556396,0.23498588800430298,0.5748006105422974
1788862391191942100,6.144942138671875,0.3006790578365326,0.24767832458019257,0.5482566356658936
1788862391201983200,6.154983154296875,0.29340916872024536,0.2378520518541336,0.49823418259620667
1788862391212025000,6.165025146484375,0.25432947278022766,0.17950588464736938,0.44052669405937195
1788862391222066200,6.175066162109375,0.19288556277751923,0.09016269445419312,0.420126348733902
1788862391232108000,6.18510791015625,0.12460677325725555,0.04038426652550697,0.43277207016944885
1788862391242149000,6.195149169921875,0.0631902888417244,0.07698488980531693,0.4456647038459778
1788862391252191000,6.20519091796875,0.004607420414686203,0.16180869936943054,0.4376146197319031
1788862391262232000,6.215232177734375,-0.053447358310222626,0.22818371653556824,0.41417160630226135
1788862391272274000,6.22527392578125,-0.10073274374008179,0.19786670804023743,0.3646944463253021
1788862391282315000,6.23531494140625,-0.12636859714984894,0.10261129587888718,0.2866521179676056
1788862391292357000,6.245357177734375,-0.1396540403366089,0.03133160248398781,0.2158920019865036
1788862391302398200,6.255398193359375,-0.14073023200035095,0.03448665142059326,0.177048459649086
1788862391312439300,6.265439208984375,-0.12634006142616272,0.04967349395155907,0.16589871048927307
1788862391322481200,6.275481201171875,-0.10300864279270172,0.04254874214529991,0.16190530359745026
1788862391332522200,6.285522216796875,-0.07458292692899704,0.04501653090119362,0.1427370011806488
1788862391342564000,6.295564208984375,-0.04175573214888573,0.08158625662326813,0.10711321979761124
1788862391352605200,6.305605224609375,-0.011938062496483326,0.1366724669933319,0.05735940486192703
1788862391362647000,6.31564697265625,0.014885029755532742,0.16865064203739166,0.003766747424378991
1788862391372688100,6.325688232421875,0.025790512561798096,0.16511639952659607,-0.050053343176841736
1788862391382731300,6.335731201171875,0.03146863728761673,0.1436779499053955,-0.11190233379602432
1788862391392772000,6.345772216796875,0.032152432948350906,0.10255950689315796,-0.18985411524772644
1788862391402814200,6.355814208984375,0.020868618041276932,0.10092965513467789,-0.2615219056606293
1788862391412855000,6.36585498046875,0.009203585796058178,0.13078036904335022,-0.2994617819786072
1788862391422897400,6.3758974609375,-0.0037284584250301123,0.16697272658348083,-0.30100908875465393
1788862391432938200,6.385938232421875,-0.005183691158890724,0.18289268016815186,-0.2759847044944763
1788862391442980400,6.39598046875,-0.0013612559996545315,0.19978085160255432,-0.2590009272098541
1788862391453021200,6.406021240234375,0.007317595183849335,0.2169841080904007,-0.2509100139141083
1788862391463063300,6.416063232421875,0.023256348446011543,0.2120242416858673,-0.23505355417728424
1788862391473104100,6.426104248046875,0.03361155837774277,0.19313868880271912,-0.22645802795886993
1788862391483146200,6.436146240234375,0.0307297520339489,0.21307538449764252,-0.21935032308101654
1788862391493187000,6.44618701171875,0.020826153457164764,0.2549062967300415,-0.20325589179992676
1788862391503228200,6.456228271484375,-0.004334327764809132,0.31769245862960815,-0.1828795224428177
1788862391513270000,6.46627001953125,-0.021448863670229912,0.3629353940486908,-0.14690972864627838
1788862391523311000,6.47631103515625,-0.047831203788518906,0.37750688195228577,-0.09765510261058807
1788862391533353200,6.486353271484375,-0.07419098913669586,0.3247472941875458,-0.07726205140352249
1788862391543394300,6.496394287109375,-0.07584001868963242,0.2066776305437088,-0.10750384628772736
1788862391553436200,6.506436279296875,-0.03002575971186161,0.041052572429180145,-0.17585718631744385
1788862391563477200,6.516477294921875,0.03504778444766998,-0.08818051218986511,-0.23043547570705414
1788862391573519000,6.52651904296875,0.0771641954779625,-0.08893006294965744,-0.28358423709869385
1788862391583560200,6.536560302734375,0.09786202013492584,0.04058478772640228,-0.34630247950553894
1788862391593602300,6.546602294921875,0.10558455437421799,0.23747479915618896,-0.42796948552131653
1788862391603643100,6.55664306640625,0.10308464616537094,0.4378198981285095,-0.5113714337348938
1788862391613685200,6.566685302734375,0.10673778504133224,0.5844590067863464,-0.5577296018600464
1788862391623726300,6.576726318359375,0.12186826765537262,0.5862374901771545,-0.5620830655097961
1788862391633768400,6.5867685546875,0.1480860412120819,0.4350997805595398,-0.5297014117240906
1788862391643809300,6.596809326171875,0.13691622018814087,0.21723538637161255,-0.4520164430141449
1788862391653851400,6.606851318359375,0.0933213084936142,0.02253095991909504,-0.3559993803501129
1788862391663892200,6.616892333984375,0.03126592934131622,-0.04991661012172699,-0.28633081912994385
1788862391673933300,6.626933349609375,0.0014587860787287354,0.007779969833791256,-0.25973376631736755
1788862391683975200,6.63697509765625,-0.007428182289004326,0.13562501966953278,-0.2258026897907257
1788862391694016300,6.647016357421875,-0.0003561789635568857,0.2727932631969452,-0.22852027416229248
1788862391704058000,6.65705810546875,0.03871931880712509,0.3728492856025696,-0.2788553535938263
1788862391714099200,6.66709912109375,0.09713223576545715,0.39098238945007324,-0.3646867871284485
1788862391724141300,6.677141357421875,0.18129770457744598,0.2883061170578003,-0.5030705332756042
1788862391734182400,6.687182373046875,0.2881809175014496,0.11606664955615997,-0.6515039205551147
1788862391744224300,6.697224365234375,0.38422462344169617,-0.0022602584213018417,-0.7488054633140564
1788862391754265300,6.707265380859375,0.42991289496421814,-0.015912558883428574,-0.7665337324142456
1788862391764307200,6.71730712890625,0.42785269021987915,0.011673263274133205,-0.7341984510421753
1788862391774348300,6.727348388671875,0.3914857804775238,0.023126566782593727,-0.6811259984970093
1788862391784390100,6.73739013671875,0.31492310762405396,0.019547808915376663,-0.6295003294944763
1788862391794431200,6.74743115234375,0.22254785895347595,-0.0019681178964674473,-0.5758252739906311
1788862391804473000,6.75747314453125,0.12927968800067902,0.008483991026878357,-0.5373119711875916
1788862391814514200,6.76751416015625,0.059825997799634933,0.02186701074242592,-0.5342003107070923
1788862391824556300,6.777556396484375,0.008099419996142387,0.014738794416189194,-0.5581524968147278
1788862391834597400,6.787597412109375,-0.027893614023923874,-0.007751010358333588,-0.5953313708305359
1788862391844638500,6.797638427734375,-0.040778253227472305,-0.023992031812667847,-0.6174649000167847
1788862391854680300,6.807680419921875,-0.04151596501469612,-0.0364249125123024,-0.6219547986984253
1788862391864721400,6.817721435546875,-0.0274981539696455,-0.03461023420095444,-0.6167392730712891
1788862391874763300,6.82776318359375,-0.005937282927334309,-0.02675485983490944,-0.6297703981399536
1788862391884804400,6.837804443359375,0.022297019138932228,-0.017465222626924515,-0.6645478010177612
1788862391894846200,6.84784619140625,0.04999006167054176,-0.04439613223075867,-0.6778573989868164
1788862391904887300,6.85788720703125,0.0744413435459137,-0.0895891785621643,-0.6759716272354126
1788862391914929200,6.86792919921875,0.09656524658203125,-0.11271863430738449,-0.7207461595535278
1788862391924970200,6.87797021484375,0.14285017549991608,-0.1164712905883789,-0.8328812122344971
1788862391935012400,6.888012451171875,0.20332926511764526,-0.11682690680027008,-0.9220139980316162
1788862391945053400,6.898053466796875,0.2379295825958252,-0.16380108892917633,-0.8956242203712463
1788862391955095300,6.90809521484375,0.20819801092147827,-0.21494440734386444,-0.8075307607650757
1788862391965136400,6.918136474609375,0.1673685610294342,-0.19315974414348602,-0.8147034049034119
1788862391975178200,6.92817822265625,0.1543811410665512,-0.14561967551708221,-0.9016004800796509
1788862391985219300,6.93821923828125,0.15090864896774292,-0.22009922564029694,-0.9241347908973694
1788862391995261200,6.94826123046875,0.12500178813934326,-0.386570006608963,-0.9048537611961365
1788862392005302300,6.95830224609375,0.09807881712913513,-0.5238237380981445,-0.8818424940109253
1788862392015344000,6.96834423828125,0.0776575356721878,-0.5437698364257812,-0.8842476606369019
1788862392025385200,6.97838525390625,0.04497815668582916,-0.4917854070663452,-0.8957424163818359
1788862392035426000,6.988426025390625,0.04654436185956001,-0.4927992820739746,-0.9150007963180542
1788862392045468400,6.998468505859375,0.09138074517250061,-0.5237321853637695,-0.9166072010993958
1788862392055509200,7.00850927734375,0.13240383565425873,-0.5250353217124939,-0.9008394479751587
1788862392065551400,7.01855126953125,0.15143665671348572,-0.4530295729637146,-0.9106518626213074
1788862392075592200,7.02859228515625,0.16268736124038696,-0.34840449690818787,-0.9210914373397827
1788862392085634300,7.03863427734375,0.1924993246793747,-0.2821522355079651,-0.9215005040168762
1788862392095675100,7.048675048828125,0.24084441363811493,-0.23576901853084564,-0.90559321641922
1788862392105717200,7.05871728515625,0.2872598469257355,-0.23071540892124176,-0.9408729076385498
1788862392115758000,7.068758056640625,0.30016887187957764,-0.29698610305786133,-0.9737712740898132
1788862392125800200,7.07880029296875,0.27580174803733826,-0.35817673802375793,-0.9658627510070801
1788862392135841000,7.088841064453125,0.24411877989768982,-0.34031105041503906,-0.952336847782135
1788862392145883400,7.09888330078125,0.19579999148845673,-0.2517172694206238,-0.9298224449157715
1788862392155924200,7.10892431640625,0.1567188948392868,-0.2148444950580597,-0.9047485589981079
1788862392165966300,7.11896630859375,0.15374495089054108,-0.2708835005760193,-0.9305087924003601
1788862392176007200,7.129007080078125,0.1726953089237213,-0.35734111070632935,-0.9652669429779053
1788862392186049300,7.13904931640625,0.18357378244400024,-0.4174177646636963,-0.9787742495536804
1788862392196090000,7.149090087890625,0.1759958416223526,-0.38904500007629395,-0.9860720038414001
1788862392206131200,7.159131103515625,0.1754205971956253,-0.32058021426200867,-1.0122743844985962
1788862392216173000,7.169173095703125,0.1799539029598236,-0.2990461587905884,-1.0281531810760498
1788862392226214100,7.179214111328125,0.18245913088321686,-0.3385256826877594,-1.0633339881896973
1788862392236256300,7.18925634765625,0.16265670955181122,-0.39479464292526245,-1.0986820459365845
1788862392246297300,7.19929736328125,0.13705255091190338,-0.4269869327545166,-1.113394856452942
1788862392256339200,7.209339111328125,0.12281514704227448,-0.43691185116767883,-1.1174856424331665
1788862392266380300,7.21938037109375,0.11620251834392548,-0.5012788772583008,-1.124688982963562
1788862392276422100,7.229422119140625,0.1264335662126541,-0.5835016965866089,-1.1143157482147217
1788862392286463200,7.239463134765625,0.15824343264102936,-0.6272484064102173,-1.1177387237548828
1788862392296505000,7.249505126953125,0.20330844819545746,-0.5663204789161682,-1.1104274988174438
1788862392306546200,7.259546142578125,0.24398770928382874,-0.3907696604728699,-1.078666090965271
1788862392316588300,7.26958837890625,0.2831031084060669,-0.24753688275814056,-1.0850210189819336
1788862392326629000,7.279629150390625,0.3281361162662506,-0.16667212545871735,-1.091267466545105
1788862392336671200,7.289671142578125,0.3712007403373718,-0.13625404238700867,-1.0549362897872925
1788862392346712300,7.29971240234375,0.4046441912651062,-0.13927645981311798,-1.0462632179260254
1788862392356754200,7.309754150390625,0.4127221703529358,-0.1606651395559311,-1.0704888105392456
1788862392366795300,7.319795166015625,0.40931493043899536,-0.1444864422082901,-1.0611214637756348
1788862392376837400,7.32983740234375,0.3913642466068268,-0.05798520892858505,-1.0872540473937988
1788862392386877400,7.33987744140625,0.3823728859424591,-0.019435953348875046,-1.1471821069717407
1788862392396918500,7.34991845703125,0.37875545024871826,-0.04630163311958313,-1.15641450881958
1788862392406960400,7.35996044921875,0.37040138244628906,-0.1156359612941742,-1.124499797821045
1788862392417001500,7.37000146484375,0.33830150961875916,-0.13298299908638,-1.076537013053894
1788862392427043600,7.380043701171875,0.3161834180355072,-0.09044326841831207,-1.0292607545852661
1788862392437084700,7.390084716796875,0.32841944694519043,-0.09391269832849503,-0.9639012813568115
1788862392447126500,7.40012646484375,0.3455672562122345,-0.10261910408735275,-0.8960034251213074
1788862392457167600,7.410167724609375,0.33801230788230896,-0.07803159952163696,-0.7971557974815369
1788862392467209500,7.42020947265625,0.31464892625808716,-0.0287772323936224,-0.7186362147331238
1788862392477250600,7.43025048828125,0.29504063725471497,0.052457597106695175,-0.6851411461830139
1788862392487292400,7.44029248046875,0.2870892286300659,0.08928272873163223,-0.6245984435081482
1788862392497333500,7.45033349609375,0.2622198462486267,0.04564601927995682,-0.56852787733078
1788862392507375400,7.460375244140625,0.22962117195129395,0.0335286408662796,-0.5126792192459106
1788862392517416400,7.47041650390625,0.2025192826986313,0.0822245180606842,-0.5103448033332825
1788862392527458600,7.48045849609375,0.18709425628185272,0.14603571593761444,-0.44671016931533813
1788862392537499600,7.490499755859375,0.19816498458385468,0.20355796813964844,-0.3835667371749878
1788862392547541500,7.50054150390625,0.18409469723701477,0.25759032368659973,-0.3783421516418457
1788862392557582600,7.51058251953125,0.1465778350830078,0.22207319736480713,-0.3413907587528229
1788862392567624400,7.52062451171875,0.06353168189525604,0.1624319702386856,-0.24375741183757782
1788862392577665500,7.53066552734375,-0.02846566215157509,0.2179574817419052,-0.11600954830646515
1788862392587706600,7.54070654296875,-0.09904661774635315,0.248420849442482,-0.07415690273046494
1788862392597748500,7.55074853515625,-0.12484408915042877,0.12002591788768768,-0.06786173582077026
1788862392607789600,7.56078955078125,-0.1532120704650879,0.02746376395225525,-0.008666060864925385
1788862392617831400,7.57083154296875,-0.24556061625480652,0.06837541610002518,0.09828793257474899
1788862392627872500,7.58087255859375,-0.3031519949436188,0.0751987025141716,0.20001749694347382
1788862392637914600,7.59091455078125,-0.32469722628593445,0.0719086229801178,0.27328649163246155
1788862392647955700,7.600955810546875,-0.32042044401168823,0.13238555192947388,0.33811765909194946
1788862392657997600,7.61099755859375,-0.33081066608428955,0.1898615062236786,0.42482125759124756
1788862392668038700,7.62103857421875,-0.3483893871307373,0.1998739242553711,0.48706281185150146
1788862392678080500,7.63108056640625,-0.3785961866378784,0.2041497677564621,0.5669692158699036
1788862392688121600,7.64112158203125,-0.42103686928749084,0.22451655566692352,0.670425534248352
1788862392698163500,7.65116357421875,-0.4636302888393402,0.24635764956474304,0.7727015018463135
1788862392708204500,7.66120458984375,-0.4655879735946655,0.27970442175865173,0.8460484147071838
1788862392718246700,7.67124658203125,-0.41074809432029724,0.2985216975212097,0.8771485090255737
1788862392728287700,7.681287841796875,-0.342026025056839,0.2788023054599762,0.9155867099761963
1788862392738329600,7.69132958984375,-0.296208918094635,0.22649581730365753,0.9765114784240723
1788862392748370700,7.70137060546875,-0.28182199597358704,0.21181674301624298,1.0281105041503906
1788862392758411500,7.71141162109375,-0.28226497769355774,0.262755423784256,1.0629148483276367
1788862392768453600,7.72145361328125,-0.27949902415275574,0.320882648229599,1.0650050640106201
1788862392778494700,7.73149462890625,-0.28326091170310974,0.3276536166667938,1.0683164596557617
1788862392788536600,7.74153662109375,-0.2747736871242523,0.2950005829334259,1.0832701921463013
1788862392798577700,7.75157763671875,-0.27896448969841003,0.2917814552783966,1.0753568410873413
1788862392808619500,7.76161962890625,-0.28115493059158325,0.3021544814109802,1.0880707502365112
1788862392818660600,7.77166064453125,-0.26657959818840027,0.27519863843917847,1.086381435394287
1788862392828702700,7.78170263671875,-0.2530360817909241,0.2836134135723114,1.0808236598968506
1788862392838743800,7.791743896484375,-0.24438394606113434,0.32157638669013977,1.1037876605987549
1788862392848785700,7.80178564453125,-0.24825751781463623,0.35872721672058105,1.1353434324264526
1788862392858826800,7.81182666015625,-0.2448672354221344,0.3613930344581604,1.159148097038269
1788862392868868600,7.82186865234375,-0.23269924521446228,0.3480548560619354,1.1826236248016357
1788862392878909700,7.83190966796875,-0.2223808318376541,0.36459869146347046,1.2286611795425415
1788862392888951600,7.84195166015625,-0.2158033549785614,0.38493722677230835,1.2978050708770752
1788862392898992600,7.85199267578125,-0.21925556659698486,0.3919210731983185,1.3565056324005127
1788862392909034500,7.862034423828125,-0.22468441724777222,0.38914021849632263,1.3958998918533325
1788862392919075600,7.87207568359375,-0.22947734594345093,0.401008278131485,1.424640417098999
1788862392929116400,7.882116455078125,-0.22982516884803772,0.42515382170677185,1.4669733047485352
1788862392939158800,7.89215869140625,-0.22082087397575378,0.45455852150917053,1.5199137926101685
1788862392949199600,7.90219970703125,-0.19492721557617188,0.46420130133628845,1.5661427974700928
1788862392959241700,7.91224169921875,-0.16791173815727234,0.44272661209106445,1.5742284059524536
1788862392969282600,7.922282470703125,-0.13374684751033783,0.3923441171646118,1.5343945026397705
1788862392979324700,7.93232470703125,-0.08879559487104416,0.3365590572357178,1.502846121788025
1788862392989365500,7.942365478515625,-0.05187832564115524,0.2791503667831421,1.5093705654144287
1788862392999407600,7.95240771484375,-0.03374435007572174,0.2151506096124649,1.5267572402954102
1788862393009448400,7.962448486328125,-0.026006538420915604,0.14695557951927185,1.5265716314315796
1788862393019490600,7.972490478515625,-0.02302074432373047,0.10486285388469696,1.4831711053848267
1788862393029531400,7.982531494140625,-0.009131561033427715,0.08749105781316757,1.4550989866256714
1788862393039573800,7.99257373046875,0.03052837774157524,0.09257914870977402,1.4598528146743774
1788862393049614600,8.002614501953126,0.08433754742145538,0.0748685970902443,1.4787015914916992
1788862393059656700,8.01265673828125,0.1429911106824875,0.050075776875019073,1.4798742532730103
1788862393069697500,8.022697509765624,0.19312112033367157,0.016026467084884644,1.4660894870758057
1788862393079739600,8.03273974609375,0.23572517931461334,-0.004674422554671764,1.4632843732833862
1788862393089780500,8.042780517578125,0.25941455364227295,-0.012753387913107872,1.4768822193145752
1788862393099821600,8.052821533203126,0.26048919558525085,-0.02734096348285675,1.474615216255188
1788862393109863400,8.062863525390625,0.23949870467185974,-0.04545392096042633,1.4681929349899292
1788862393119904500,8.072904541015625,0.20018082857131958,-0.07473057508468628,1.4584770202636719
1788862393129946400,8.0829462890625,0.15572042763233185,-0.0878506451845169,1.4530903100967407
1788862393139987500,8.092987548828125,0.1151185855269432,-0.05585363134741783,1.460139513015747
1788862393150029600,8.103029541015625,0.06997853517532349,-0.004976337309926748,1.4591412544250488
1788862393160070700,8.113070556640626,0.038395967334508896,-0.0041757323779165745,1.4131945371627808
1788862393170112500,8.123112548828125,0.016544466838240623,-0.08335310965776443,1.322697639465332
1788862393180153600,8.133153564453124,-0.0073394798673689365,-0.1696614772081375,1.2376940250396729
1788862393190195500,8.143195556640626,-0.038852397352457047,-0.19344297051429749,1.2065281867980957
1788862393200236500,8.153236572265625,-0.041802916675806046,-0.18980403244495392,1.2205901145935059
1788862393210278400,8.1632783203125,-0.009124597534537315,-0.21588675677776337,1.2487273216247559
1788862393220319500,8.173319580078125,0.02265099063515663,-0.2359258234500885,1.2493010759353638
1788862393230361600,8.183361572265625,0.028736047446727753,-0.19342976808547974,1.2298386096954346
1788862393240402700,8.193402587890626,0.01612059213221073,-0.08715968579053879,1.186606764793396
1788862393250444500,8.203444580078125,0.0050088195130229,0.00666907150298357,1.1313278675079346
1788862393260485600,8.213485595703125,0.012861949391663074,0.02648565173149109,1.0575861930847168
1788862393270526700,8.223526611328126,0.026928499341011047,-0.026109647005796432,0.9502661228179932
1788862393280568600,8.233568603515625,0.015276307240128517,-0.10674108564853668,0.8263827562332153
1788862393290609700,8.243609619140624,-0.024162976071238518,-0.20001430809497833,0.6970769762992859
1788862393300651500,8.253651611328126,-0.060306698083877563,-0.2466212958097458,0.6009208559989929
1788862393310692600,8.263692626953125,-0.08456197381019592,-0.19470162689685822,0.5582007765769958
1788862393320734500,8.273734375,-0.09091440588235855,-0.08512400835752487,0.5508486032485962
1788862393330775600,8.283775634765625,-0.08209268748760223,0.02477080188691616,0.539279580116272
1788862393340817700,8.293817626953125,-0.06139923259615898,0.07706627249717712,0.5068202614784241
1788862393350858800,8.303858642578126,-0.03883853182196617,0.03630339354276657,0.46453216671943665
1788862393360900600,8.313900634765625,-0.03874245285987854,-0.01820208691060543,0.4066804051399231
1788862393370941700,8.323941650390625,-0.060739099979400635,-0.017940297722816467,0.3266015350818634
1788862393380983600,8.333983642578126,-0.09273597598075867,0.004831352271139622,0.23215997219085693
1788862393391024600,8.344024658203125,-0.1286899745464325,0.0023913634940981865,0.14980864524841309
1788862393401066500,8.35406640625,-0.16922715306282043,0.013556795194745064,0.09248866885900497
1788862393411107600,8.364107666015625,-0.20074911415576935,0.045576512813568115,0.04149606078863144
1788862393421149400,8.3741494140625,-0.2123083472251892,0.0419539213180542,0.01606426201760769
1788862393431190500,8.3841904296875,-0.17031829059123993,-0.026610493659973145,-0.007050110958516598
1788862393441231600,8.394231689453125,-0.10245640575885773,-0.1278284639120102,-0.042460471391677856
1788862393451273500,8.4042734375,-0.07305511087179184,-0.17816539108753204,-0.09811361879110336
1788862393461314600,8.414314453125,-0.06748104840517044,-0.13395170867443085,-0.15676259994506836
1788862393471356400,8.4243564453125,-0.0526091642677784,-0.05682070553302765,-0.21690742671489716
1788862393481397500,8.4343974609375,-0.05561469867825508,0.034616757184267044,-0.25684186816215515
1788862393491439600,8.444439697265626,-0.05966456979513168,0.11543703824281693,-0.2923596501350403
1788862393501480700,8.454480712890625,-0.05584115535020828,0.1737653613090515,-0.32914918661117554
1788862393511522600,8.4645224609375,-0.04059375822544098,0.2036670595407486,-0.37762778997421265
1788862393521563600,8.474563720703125,-0.03010999597609043,0.1927044540643692,-0.42758166790008545
1788862393531605500,8.48460546875,-0.02445131354033947,0.1405501663684845,-0.47552523016929626
1788862393541646600,8.494646484375,-0.021276168525218964,0.04906006529927254,-0.5218203663825989
1788862393551688400,8.5046884765625,-0.019281994551420212,-0.05358029156923294,-0.5505337715148926
1788862393561729500,8.5147294921875,-0.02044800855219364,-0.13275516033172607,-0.5494083166122437
1788862393571771400,8.524771484375,-0.01054371241480112,-0.14743131399154663,-0.5354024767875671
1788862393581812500,8.5348125,-0.012075727805495262,-0.11406680941581726,-0.5399731397628784
1788862393591854600,8.5448544921875,-0.013425418175756931,-0.013751661404967308,-0.5675885677337646
1788862393601895700,8.554895751953126,-0.013524465262889862,0.15164075791835785,-0.6025059223175049
1788862393611936500,8.5649365234375,-0.021292107179760933,0.31595805287361145,-0.6161229610443115
1788862393621978600,8.574978515625,-0.04613925889134407,0.4285835325717926,-0.6281108856201172
1788862393632019500,8.58501953125,-0.06264659017324448,0.4768061935901642,-0.6440623998641968
1788862393642061600,8.5950615234375,-0.05656426027417183,0.44556954503059387,-0.6594991087913513
1788862393652102400,8.605102294921876,-0.042992524802684784,0.37060847878456116,-0.6743022799491882
1788862393662144500,8.61514453125,-0.023536495864391327,0.28604185581207275,-0.6926990151405334
1788862393672185300,8.625185302734375,0.009943165816366673,0.22783632576465607,-0.7244239449501038
1788862393682227700,8.635227783203124,0.043055109679698944,0.22748689353466034,-0.7642842531204224
1788862393692268500,8.6452685546875,0.06603765487670898,0.2746514678001404,-0.7926011085510254
1788862393702310700,8.655310546875,0.07395806163549423,0.3204430639743805,-0.7994354367256165
1788862393712351500,8.6653515625,0.061400193721055984,0.32075145840644836,-0.7922009229660034
1788862393722393600,8.6753935546875,0.04948537051677704,0.3032355308532715,-0.7787823677062988
1788862393732434400,8.685434326171874,0.0378689244389534,0.27402251958847046,-0.7704693078994751
1788862393742476500,8.6954765625,0.026750478893518448,0.22801756858825684,-0.7684096693992615
1788862393752517400,8.705517333984375,0.014544145204126835,0.18743018805980682,-0.7615634799003601
1788862393762558500,8.715558349609376,0.0070955706760287285,0.13471104204654694,-0.7847315073013306
1788862393772600300,8.725600341796875,0.010646895505487919,0.04561206325888634,-0.8424819111824036
1788862393782641400,8.735641357421875,0.03173808380961418,-0.061550430953502655,-0.8655698299407959
1788862393792683500,8.74568359375,0.0585196316242218,-0.11335130780935287,-0.8131399154663086
1788862393802724600,8.755724609375,0.05060379579663277,-0.09966706484556198,-0.7593163847923279
1788862393812766500,8.765766357421874,0.014876157976686954,-0.0614648163318634,-0.7829263210296631
1788862393822807600,8.7758076171875,0.004245025105774403,-0.10314664244651794,-0.8644731044769287
1788862393832849400,8.785849365234375,0.038944415748119354,-0.21814300119876862,-0.9479695558547974
1788862393842890500,8.795890380859374,0.09284870326519012,-0.33278703689575195,-1.014021635055542
1788862393852932400,8.805932373046875,0.12628015875816345,-0.3775361478328705,-1.0440304279327393
1788862393862973400,8.815973388671875,0.1425086259841919,-0.36417317390441895,-1.0338207483291626
1788862393873015300,8.826015380859374,0.135422483086586,-0.35737597942352295,-0.9970763921737671
1788862393883056400,8.836056396484375,0.11783208698034286,-0.39227086305618286,-0.9685918688774109
1788862393893098500,8.846098388671875,0.1085837259888649,-0.4165807366371155,-0.9895908832550049
1788862393903139600,8.8561396484375,0.11375852674245834,-0.4394339621067047,-1.0546510219573975
1788862393913181400,8.866181396484375,0.12321913987398148,-0.47416451573371887,-1.1214350461959839
1788862393923222500,8.876222412109374,0.12342557311058044,-0.5050048232078552,-1.156263828277588
1788862393933263600,8.886263671875,0.13435307145118713,-0.5262850522994995,-1.163049578666687
1788862393943305500,8.896305419921875,0.14521440863609314,-0.5656766295433044,-1.1996475458145142
1788862393953346600,8.9063466796875,0.15939094126224518,-0.6737871170043945,-1.250472068786621
1788862393963388400,8.916388427734375,0.18240691721439362,-0.8158246874809265,-1.2582639455795288
1788862393973429500,8.926429443359375,0.1858605146408081,-0.8701534271240234,-1.2582248449325562
1788862393983471400,8.936471435546874,0.1453021764755249,-0.8674891591072083,-1.1933774948120117
1788862393993512400,8.946512451171875,0.10307510197162628,-0.8311865329742432,-1.1580603122711182
1788862394003554600,8.956554443359375,0.09507358819246292,-0.8437095284461975,-1.188037633895874
1788862394013595600,8.966595703125,0.1341879665851593,-0.8816792964935303,-1.2060917615890503
1788862394023637500,8.976637451171875,0.16323696076869965,-0.8786749839782715,-1.2218843698501587
1788862394033678600,8.9866787109375,0.1947895586490631,-0.8440815806388855,-1.2732394933700562
1788862394043720400,8.996720458984376,0.2648261487483978,-0.7925621867179871,-1.310705542564392
1788862394053761500,9.006761474609375,0.35746341943740845,-0.7863215804100037,-1.3176380395889282
1788862394063803400,9.016803466796874,0.41672492027282715,-0.8696483373641968,-1.3247325420379639
1788862394073844500,9.026844482421875,0.4224536418914795,-0.8417884707450867,-1.3548043966293335
1788862394083885300,9.03688525390625,0.3817022442817688,-0.7784389853477478,-1.356974720954895
1788862394093927400,9.046927490234374,0.3260728120803833,-0.6487047076225281,-1.315786600112915
1788862394103968300,9.05696826171875,0.30903592705726624,-0.5546793341636658,-1.2991421222686768
1788862394114010600,9.0670107421875,0.3144988715648651,-0.6388131380081177,-1.3642723560333252
1788862394124051500,9.077051513671876,0.3219941258430481,-0.7406851053237915,-1.4170639514923096
1788862394134093600,9.087093505859375,0.321627676486969,-0.6906461715698242,-1.385215163230896
1788862394144134400,9.097134521484374,0.3318503499031067,-0.5818772912025452,-1.373852014541626
1788862394154176500,9.107176513671876,0.32524171471595764,-0.4988340735435486,-1.353277325630188
1788862394164217600,9.117217529296875,0.302349716424942,-0.3901520073413849,-1.2876150608062744
1788862394174259500,9.127259521484374,0.30930936336517334,-0.26116418838500977,-1.2887990474700928
1788862394184300500,9.137300537109375,0.31086447834968567,-0.24771441519260406,-1.3197717666625977
1788862394194342700,9.1473427734375,0.3006752133369446,-0.28767460584640503,-1.3248107433319092
1788862394204383500,9.157383544921874,0.275211900472641,-0.27924421429634094,-1.3440717458724976
1788862394214425600,9.167425537109375,0.23541469871997833,-0.21163320541381836,-1.3081637620925903
1788862394224466700,9.177466796875,0.19071705639362335,-0.11304983496665955,-1.2602638006210327
1788862394234507500,9.187507568359376,0.14855842292308807,-0.08164157718420029,-1.1753754615783691
1788862394244549600,9.197549560546875,0.11784961819648743,-0.12542212009429932,-1.113718032836914
1788862394254590500,9.207590576171874,0.08446503430604935,-0.11572608351707458,-1.0426403284072876
1788862394264632600,9.217632568359376,0.07425113022327423,-0.00927274115383625,-1.021801233291626
1788862394274673400,9.22767333984375,0.038016427308321,0.05155891925096512,-0.9953160881996155
1788862394284715500,9.237715576171874,0.04278884828090668,-0.08410526812076569,-0.9059014320373535
1788862394294756400,9.24775634765625,0.0506715402007103,-0.09505672007799149,-0.8543851971626282
1788862394304798700,9.257798828125,0.06559630483388901,0.020987458527088165,-0.8372312188148499
1788862394314839600,9.267839599609376,0.06955110281705856,0.17059212923049927,-0.8277490735054016
1788862394324881700,9.277881591796875,0.07764309644699097,0.3313617408275604,-0.774328887462616
1788862394334922500,9.287922607421875,0.0708693414926529,0.4032956063747406,-0.6514522433280945
1788862394344964600,9.297964599609376,0.02809801511466503,0.33671554923057556,-0.5767387747764587
1788862394355005400,9.30800537109375,-0.005784583278000355,0.26429834961891174,-0.4683159291744232
1788862394365047600,9.318047607421875,-0.05235446244478226,0.2843908369541168,-0.32419994473457336
1788862394375088400,9.32808837890625,-0.06998671591281891,0.3405313193798065,-0.2394954413175583
1788862394385130500,9.338130615234375,-0.09121551364660263,0.39401763677597046,-0.1599452793598175
1788862394395171300,9.34817138671875,-0.0778893232345581,0.5150668025016785,-0.07350838929414749
1788862394405212400,9.35821240234375,-0.03970358520746231,0.5382539629936218,0.026717614382505417
1788862394415254300,9.368254150390625,-0.03658289462327957,0.46538349986076355,0.10447978228330612
1788862394425295400,9.37829541015625,-0.07467035949230194,0.4559888541698456,0.21952641010284424
1788862394435337500,9.38833740234375,-0.12671305239200592,0.49741512537002563,0.34472694993019104
1788862394445378600,9.398378662109375,-0.1679505854845047,0.49253013730049133,0.4465070068836212
1788862394455420400,9.40842041015625,-0.18338067829608917,0.45549166202545166,0.5411959886550903
1788862394465461500,9.41846142578125,-0.2104761004447937,0.42725369334220886,0.6374692320823669
1788862394475503400,9.42850341796875,-0.2604750990867615,0.45464056730270386,0.725559413433075
1788862394485544400,9.43854443359375,-0.31455519795417786,0.44053277373313904,0.8050815463066101
1788862394495586300,9.44858642578125,-0.3432760536670685,0.44803833961486816,0.9249738454818726
1788862394505627400,9.45862744140625,-0.34980839490890503,0.4858010411262512,1.0684504508972168
1788862394515669200,9.468669189453125,-0.34349325299263,0.552847146987915,1.186257004737854
1788862394525710300,9.47871044921875,-0.29765620827674866,0.5899441242218018,1.3011664152145386
1788862394535752400,9.48875244140625,-0.2153933197259903,0.5806611776351929,1.3533179759979248
1788862394545793500,9.49879345703125,-0.17687098681926727,0.5730584859848022,1.3824265003204346
1788862394555834600,9.508834716796875,-0.26363515853881836,0.5701718330383301,1.3966938257217407
1788862394565876500,9.51887646484375,-0.34413212537765503,0.5208802223205566,1.3803329467773438
1788862394575917600,9.52891748046875,-0.34120532870292664,0.4565131962299347,1.369695782661438
1788862394585959400,9.53895947265625,-0.3071727752685547,0.42010271549224854,1.4037096500396729
1788862394596000500,9.54900048828125,-0.2782455086708069,0.41530928015708923,1.5032572746276855
1788862394606042400,9.55904248046875,-0.23775240778923035,0.4392939805984497,1.6294082403182983
1788862394616083500,9.56908349609375,-0.18905922770500183,0.4762432277202606,1.702365756034851
1788862394626125600,9.57912548828125,-0.14419862627983093,0.5149710178375244,1.7179820537567139
1788862394636166700,9.589166748046875,-0.09229016304016113,0.542425274848938,1.731887698173523
1788862394646208500,9.59920849609375,-0.03811943531036377,0.5778625011444092,1.777885913848877
1788862394656249600,9.60924951171875,-0.007530632894486189,0.5885300636291504,1.831687092781067
1788862394666291500,9.61929150390625,0.00035633938387036324,0.5703582763671875,1.871118426322937
1788862394676332500,9.62933251953125,-0.0002551223151385784,0.5096019506454468,1.8996667861938477
1788862394686374400,9.63937451171875,0.0010748603381216526,0.46147066354751587,1.941841959953308
1788862394696415500,9.64941552734375,-0.0005808270070701838,0.45514777302742004,1.9928054809570312
1788862394706456300,9.659456298828125,-0.016693115234375,0.4321914613246918,2.046670436859131
1788862394716498400,9.66949853515625,-0.042003266513347626,0.3609452545642853,2.105985403060913
1788862394726539300,9.679539306640624,-0.054365452378988266,0.2796028256416321,2.144901990890503
1788862394736581600,9.68958154296875,-0.07926174998283386,0.245682954788208,2.1317903995513916
1788862394746622500,9.69962255859375,-0.09746144711971283,0.22402681410312653,2.060880661010742
1788862394756664600,9.70966455078125,-0.09873417019844055,0.1660388708114624,1.9456419944763184
1788862394766705400,9.719705322265625,-0.1024777963757515,0.12017782777547836,1.847391128540039
1788862394776747500,9.72974755859375,-0.11371713876724243,0.06531670689582825,1.8117929697036743
1788862394786788400,9.739788330078126,-0.14284172654151917,0.03198466822504997,1.7991914749145508
1788862394796830500,9.74983056640625,-0.1614452451467514,-0.0026827645488083363,1.7748256921768188
1788862394806871300,9.759871337890624,-0.15159684419631958,0.005792923271656036,1.7567156553268433
1788862394816913400,9.769913330078126,-0.12886303663253784,0.04011973738670349,1.7475497722625732
1788862394826954200,9.779954345703125,-0.09941976517438889,0.07863856852054596,1.7456773519515991
1788862394836996600,9.78999658203125,-0.07697091996669769,0.09501780569553375,1.7535654306411743
1788862394847037400,9.800037353515625,-0.05992525815963745,0.034852880984544754,1.7321383953094482
1788862394857078500,9.81007861328125,-0.0575137622654438,-0.09475011378526688,1.6736793518066406
1788862394867120400,9.820120361328126,-0.0652860701084137,-0.2516876757144928,1.6120761632919312
1788862394877161500,9.830161376953125,-0.09588579088449478,-0.35384225845336914,1.580991268157959
1788862394887203300,9.840203369140625,-0.15399911999702454,-0.3508923649787903,1.5842615365982056
1788862394897244400,9.850244384765626,-0.22503706812858582,-0.2710318863391876,1.5984735488891602
1788862394907286500,9.86028662109375,-0.2886240780353546,-0.2037944346666336,1.5812910795211792
1788862394917327400,9.870327392578124,-0.32473868131637573,-0.19695250689983368,1.5366392135620117
1788862394927369500,9.880369384765626,-0.3252588212490082,-0.24410802125930786,1.4692566394805908
1788862394937410300,9.890410400390625,-0.2965768575668335,-0.3440024256706238,1.3748319149017334
1788862394947452700,9.90045263671875,-0.26995229721069336,-0.43333107233047485,1.2705062627792358
1788862394957493500,9.910493408203125,-0.25201937556266785,-0.418638676404953,1.171200156211853
1788862394967535600,9.92053564453125,-0.24949760735034943,-0.29968708753585815,1.0528162717819214
1788862394977576400,9.930576416015626,-0.2545863687992096,-0.1985892355442047,0.9268471598625183
1788862394987618600,9.94061865234375,-0.2511322498321533,-0.17564396560192108,0.8197550773620605
1788862394997659400,9.950659423828125,-0.21005591750144958,-0.12785647809505463,0.7347844839096069
1788862395007700500,9.960700439453126,-0.1685943454504013,0.0451364666223526,0.6423923969268799
1788862395017742300,9.970742431640625,-0.11735005676746368,0.30530357360839844,0.5278048515319824
1788862395027783400,9.980783447265624,-0.048536840826272964,0.537919819355011,0.4102763533592224
1788862395037825300,9.9908251953125,0.01624002493917942,0.6439106464385986,0.32686588168144226
1788862395047866400,10.000866455078125,0.03154506906867027,0.6144919395446777,0.2642306685447693
1788862395057908500,10.010908447265624,-0.009111814200878143,0.45252591371536255,0.22313012182712555
1788862395067949600,10.020949462890625,-0.07605145126581192,0.21768872439861298,0.17600706219673157
1788862395077991400,10.030991455078125,-0.10577339679002762,0.019850216805934906,0.10929647088050842
1788862395088032500,10.041032470703126,-0.09860054403543472,-0.07524563372135162,0.029348179697990417
1788862395098074400,10.051074462890625,-0.1013055145740509,-0.0563073605298996,-0.0640973448753357
1788862395108115500,10.061115478515624,-0.10728465765714645,0.05916387215256691,-0.16501900553703308
1788862395118157300,10.0711572265625,-0.09359574317932129,0.18065088987350464,-0.24823398888111115
1788862395128198400,10.081198486328125,-0.08120391517877579,0.27793416380882263,-0.30915191769599915
1788862395138240500,10.091240478515624,-0.07172652333974838,0.3662547171115875,-0.37238946557044983
1788862395148281600,10.101281494140625,-0.042752351611852646,0.4466339349746704,-0.4442996680736542
1788862395158322700,10.11132275390625,-0.029954534024000168,0.478680282831192,-0.5135205388069153
1788862395168364500,10.121364501953124,-0.023761020973324776,0.47969838976860046,-0.5711593627929688
1788862395178405600,10.131405517578125,0.0030559443403035402,0.4815141260623932,-0.6215178370475769
1788862395188447500,10.141447509765625,0.038528140634298325,0.4532744586467743,-0.6400331854820251
1788862395198488600,10.151488525390626,0.08893246203660965,0.3877069056034088,-0.6348522901535034
1788862395208530400,10.161530517578125,0.12310542166233063,0.30362120270729065,-0.6168290376663208
1788862395218571500,10.171571533203124,0.12491317838430405,0.22755944728851318,-0.6104638576507568
1788862395228613400,10.18161328125,0.1145409643650055,0.1602337658405304,-0.622892439365387
1788862395238654500,10.191654541015625,0.13274818658828735,0.07331616431474686,-0.6499952077865601
1788862395248696600,10.201696533203124,0.17535518109798431,-0.006062936969101429,-0.6740672588348389
1788862395258737700,10.211737548828125,0.2233743667602539,-0.010517606511712074,-0.6865348815917969
1788862395268779500,10.221779541015625,0.2625625729560852,0.09359784424304962,-0.705679178237915
1788862395278820600,10.231820556640624,0.28971484303474426,0.24656955897808075,-0.7383082509040833
1788862395288861400,10.241861328125,0.31452491879463196,0.3938748240470886,-0.7713060975074768
1788862395298903600,10.251903564453125,0.32626280188560486,0.4868748188018799,-0.7931216359138489
1788862395308944400,10.2619443359375,0.3318793773651123,0.4726071059703827,-0.8227007985115051
1788862395318986500,10.271986572265625,0.34572434425354004,0.32281896471977234,-0.866629958152771
1788862395329027300,10.28202734375,0.3373369574546814,0.11788207292556763,-0.9476122260093689
1788862395339069400,10.2920693359375,0.30680355429649353,-0.010248206555843353,-1.0399022102355957
1788862395349110300,10.3021103515625,0.2555834650993347,-0.00006684567779302597,-1.1124367713928223
1788862395359152600,10.312152587890624,0.22261381149291992,0.10678982734680176,-1.136535406112671
1788862395369193500,10.322193359375,0.20955942571163177,0.22648119926452637,-1.0981048345565796
1788862395379235600,10.332235595703125,0.19434131681919098,0.331225723028183,-1.0430413484573364
1788862395389276000,10.34227587890625,0.18275630474090576,0.37555748224258423,-1.0285465717315674
1788862395399318000,10.352318115234375,0.1805778294801712,0.3093414604663849,-1.0511226654052734
1788862395409359000,10.362359130859375,0.20515470206737518,0.13459640741348267,-1.109453797340393
1788862395419401200,10.372401123046876,0.24655407667160034,-0.03230602666735649,-1.2161256074905396
1788862395429442000,10.382442138671875,0.2867007255554199,-0.09515158087015152,-1.336581826210022
1788862395439483100,10.392483154296874,0.3124263286590576,-0.0654623955488205,-1.3727926015853882
1788862395449525000,10.40252490234375,0.32711341977119446,-0.04745898395776749,-1.285066843032837
1788862395459566000,10.412566162109375,0.284483402967453,-0.040606141090393066,-1.1974438428878784
1788862395469608200,10.422608154296874,0.20439760386943817,0.0295296311378479,-1.1745210886001587
1788862395479649000,10.43264892578125,0.12454111874103546,0.13720177114009857,-1.1465575695037842
1788862395489691100,10.442691162109375,0.07102212309837341,0.09309905767440796,-1.0671422481536865
1788862395499732000,10.45273193359375,0.039818137884140015,-0.08583180606365204,-0.9849539995193481
1788862395509774000,10.462774169921875,0.019780248403549194,-0.3441160023212433,-1.0327712297439575
1788862395519815000,10.47281494140625,0.0250445194542408,-0.656638503074646,-1.20072603225708
1788862395529857300,10.482857177734376,0.05548913776874542,-0.8866599798202515,-1.376076579093933
1788862395539898000,10.492898193359375,0.07565619051456451,-0.9011403322219849,-1.4927393198013306
1788862395549940200,10.502940185546874,0.10744833201169968,-0.8312706351280212,-1.562548279762268
1788862395559981000,10.51298095703125,0.14003317058086395,-0.729215681552887,-1.5874792337417603
1788862395570023200,10.523023193359375,0.15354864299297333,-0.6413666605949402,-1.6147630214691162
1788862395580064000,10.53306396484375,0.135848730802536,-0.6084286570549011,-1.63059663772583
1788862395590105000,10.54310498046875,0.12644243240356445,-0.5504220724105835,-1.647912859916687
1788862395600147000,10.55314697265625,0.14259982109069824,-0.40206006169319153,-1.6714917421340942
1788862395610188000,10.56318798828125,0.15633781254291534,-0.33773088455200195,-1.688335657119751
1788862395620230100,10.573230224609375,0.15957407653331757,-0.40353092551231384,-1.6935336589813232
1788862395630271200,10.583271240234374,0.17804183065891266,-0.5929107666015625,-1.6619423627853394
1788862395640313000,10.59331298828125,0.2345927208662033,-0.8285456895828247,-1.6205297708511353
1788862395650354200,10.603354248046875,0.32012566924095154,-0.9789068698883057,-1.6222659349441528
1788862395660396000,10.61339599609375,0.42426565289497375,-1.0569689273834229,-1.6411889791488647
1788862395670437000,10.62343701171875,0.5150216817855835,-1.0326874256134033,-1.7091420888900757
1788862395680479000,10.63347900390625,0.5730754137039185,-0.983293890953064,-1.685438632965088
1788862395690520000,10.64352001953125,0.5968307256698608,-0.9125784635543823,-1.6288487911224365
1788862395700562000,10.65356201171875,0.5512589812278748,-0.8843151330947876,-1.6404391527175903
1788862395710603000,10.66360302734375,0.4587220549583435,-0.9164021611213684,-1.6725711822509766
1788862395720644000,10.67364404296875,0.35346007347106934,-0.8759868741035461,-1.6889605522155762
1788862395730686200,10.683686279296875,0.2522512376308441,-0.7714418172836304,-1.6698421239852905
1788862395740727300,10.693727294921874,0.20101094245910645,-0.6794647574424744,-1.6636724472045898
1788862395750769200,10.70376904296875,0.1942504197359085,-0.6104010939598083,-1.6661025285720825
1788862395760810200,10.713810302734375,0.23389796912670135,-0.4781341254711151,-1.5907254219055176
1788862395770852000,10.72385205078125,0.26842477917671204,-0.380432665348053,-1.4840632677078247
1788862395780893200,10.73389306640625,0.30355584621429443,-0.29329562187194824,-1.3996442556381226
1788862395790935000,10.74393505859375,0.29643189907073975,-0.16405579447746277,-1.313675045967102
1788862395800976100,10.75397607421875,0.24568483233451843,-0.07700905948877335,-1.2196201086044312
1788862395811018000,10.76401806640625,0.18623876571655273,-0.08788637071847916,-1.2026389837265015
1788862395821059000,10.77405908203125,0.1288452446460724,-0.07758872210979462,-1.2397903203964233
1788862395831101200,10.78410107421875,0.080384761095047,0.05865124613046646,-1.1531445980072021
1788862395841142300,10.794142333984375,0.09414637833833694,0.16423413157463074,-1.0560238361358643
1788862395851183000,10.80418310546875,0.17411795258522034,0.19912205636501312,-1.00528883934021
1788862395861225200,10.81422509765625,0.26251810789108276,0.25098177790641785,-0.9051750302314758
1788862395871266000,10.82426611328125,0.31080153584480286,0.3283143937587738,-0.792608916759491
1788862395881308200,10.83430810546875,0.3081221282482147,0.4192914366722107,-0.6429474949836731
1788862395891349000,10.844348876953125,0.26928049325942993,0.33572879433631897,-0.45909205079078674
1788862395901391000,10.85439111328125,0.1958361119031906,0.20499473810195923,-0.24002520740032196
1788862395911432000,10.864431884765626,0.10238801687955856,0.1772024929523468,0.014669581316411495
1788862395921474000,10.87447412109375,-0.020275581628084183,0.1761702448129654,0.1645517498254776
1788862395931515000,10.884514892578125,-0.1286003291606903,0.060895636677742004,0.19258442521095276
1788862395941557200,10.89455712890625,-0.2081340253353119,-0.09719226509332657,0.16704285144805908
1788862395951598000,10.90459814453125,-0.2521679401397705,-0.17599551379680634,0.2105695754289627
1788862395961640200,10.91464013671875,-0.2725440561771393,-0.09300156682729721,0.2619512677192688
1788862395971681000,10.924680908203126,-0.286512166261673,0.06941241025924683,0.28216084837913513
1788862395981723100,10.93472314453125,-0.2740621268749237,0.21306492388248444,0.3195401728153229
1788862395991764000,10.944763916015624,-0.24823017418384552,0.30486565828323364,0.4080307185649872
1788862396001805000,10.95480517578125,-0.23843933641910553,0.42184287309646606,0.5306764841079712
1788862396011847000,10.964846923828125,-0.2325630635023117,0.5110915303230286,0.6706674695014954
1788862396021888000,10.974887939453126,-0.23048073053359985,0.5709660649299622,0.8019722104072571
1788862396031929900,10.984929931640625,-0.2227984070777893,0.5776431560516357,0.9217519760131836
1788862396041971000,10.994970947265625,-0.221907839179039,0.5754851698875427,1.0398839712142944
1788862396052013000,11.005012939453126,-0.2427380234003067,0.5920287370681763,1.1650629043579102
1788862396062054100,11.01505419921875,-0.2678835988044739,0.6517578363418579,1.277677297592163
1788862396072096000,11.025095947265624,-0.27612975239753723,0.6930709481239319,1.3630963563919067
1788862396082137000,11.03513720703125,-0.2651705741882324,0.7077987194061279,1.4497352838516235
1788862396092179000,11.045178955078125,-0.22916916012763977,0.726010799407959,1.5272818803787231
1788862396102220000,11.055219970703124,-0.17809638381004333,0.7074637413024902,1.5520440340042114
1788862396112262000,11.065261962890625,-0.1357107311487198,0.5997999310493469,1.5473750829696655
1788862396122303000,11.075302978515625,-0.13115805387496948,0.4606418013572693,1.560025691986084
1788862396132345000,11.085344970703124,-0.1604422777891159,0.3749150335788727,1.6073298454284668
1788862396142386200,11.09538623046875,-0.18681874871253967,0.33767765760421753,1.640618085861206
1788862396152427300,11.10542724609375,-0.19660227000713348,0.27018335461616516,1.6360596418380737
1788862396162469000,11.11546923828125,-0.18433895707130432,0.13832758367061615,1.5804897546768188
1788862396172510200,11.12551025390625,-0.16908128559589386,0.00510395597666502,1.5526175498962402
1788862396182552000,11.135552001953124,-0.15977168083190918,0.026092329993844032,1.6119623184204102
1788862396192593200,11.14559326171875,-0.17335239052772522,0.15437045693397522,1.7072961330413818
1788862396202635000,11.155635009765625,-0.16374610364437103,0.32800668478012085,1.8076409101486206
1788862396212676000,11.165676025390624,-0.13855889439582825,0.5074020028114319,1.9158159494400024
1788862396222718000,11.175718017578125,-0.10062216967344284,0.6739920377731323,1.9847934246063232
1788862396232759000,11.185759033203125,-0.04008486866950989,0.7937438488006592,2.0218100547790527
1788862396242801200,11.19580126953125,0.005905790254473686,0.8240024447441101,2.0255587100982666
1788862396252842200,11.20584228515625,0.021286077797412872,0.7754822969436646,2.0052266120910645
1788862396262884000,11.215884033203125,0.004257027059793472,0.6931933164596558,1.964780330657959
1788862396272925200,11.22592529296875,-0.02306116744875908,0.5792603492736816,1.9052908420562744
1788862396282966000,11.235966064453125,-0.06954264640808105,0.4950037896633148,1.8754115104675293
1788862396293008100,11.246008056640624,-0.14460745453834534,0.3915444612503052,1.9214537143707275
1788862396303049000,11.256049072265625,-0.23958483338356018,0.245657816529274,2.0558135509490967
1788862396313091000,11.266091064453125,-0.35014012455940247,0.07272058725357056,2.211305618286133
1788862396323132200,11.276132080078124,-0.43040701746940613,-0.019637834280729294,2.302898645401001
1788862396333174000,11.286174072265625,-0.46506473422050476,-0.05333147943019867,2.3063454627990723
1788862396343215000,11.296215087890625,-0.43118852376937866,-0.06796155124902725,2.249596118927002
1788862396353257200,11.30625732421875,-0.3485402762889862,-0.11935088038444519,2.1530323028564453
1788862396363298300,11.31629833984375,-0.25526759028434753,-0.12519225478172302,2.053556442260742
1788862396373340200,11.326340087890625,-0.18704792857170105,-0.04652998223900795,1.971624732017517
1788862396383381200,11.33638134765625,-0.12614835798740387,0.10924549400806427,1.9321991205215454
1788862396393423000,11.346423095703125,-0.05450928211212158,0.2647692859172821,1.9337977170944214
1788862396403464200,11.356464111328124,0.026356268674135208,0.34558209776878357,1.9203959703445435
1788862396413505000,11.366505126953125,0.10159796476364136,0.28315410017967224,1.8599697351455688
1788862396423547100,11.376547119140625,0.1583901345729828,0.13120052218437195,1.7431880235671997
1788862396433588000,11.386587890625,0.18099096417427063,-0.04490301012992859,1.5866382122039795
1788862396443630000,11.396630126953125,0.1763242930173874,-0.166922926902771,1.4248708486557007
1788862396453671000,11.4066708984375,0.14396320283412933,-0.2198200523853302,1.2922879457473755
1788862396463713300,11.41671337890625,0.09537889063358307,-0.24518746137619019,1.206390380859375
1788862396473754000,11.426754150390625,0.04318379610776901,-0.2659381926059723,1.1403440237045288
1788862396483796200,11.436796142578125,-0.010109251365065575,-0.2819589674472809,1.0784345865249634
1788862396493837000,11.446837158203126,-0.037252187728881836,-0.2871129810810089,1.0063579082489014
1788862396503879200,11.456879150390625,-0.02626185677945614,-0.2758358418941498,0.9374462962150574
1788862396513920000,11.466919921875,0.010465633124113083,-0.26763129234313965,0.860034167766571
1788862396523962000,11.476962158203126,0.03536059707403183,-0.32926881313323975,0.7669178247451782
1788862396534003000,11.4870029296875,0.028129851445555687,-0.4128781259059906,0.6239489912986755
1788862396544044000,11.4970439453125,-0.01521069835871458,-0.4216012954711914,0.39331284165382385
1788862396554086000,11.5070859375,-0.042305637151002884,-0.21780328452587128,0.1263311803340912
1788862396564127000,11.517126953125,-0.043347202241420746,0.1970309317111969,-0.08107288181781769
1788862396574169000,11.527169189453126,-0.032747697085142136,0.6258738040924072,-0.17769986391067505
1788862396584210200,11.537210205078125,0.004914193879812956,0.8750675916671753,-0.19834469258785248
1788862396594252000,11.547251953125,0.08278838545084,0.9501185417175293,-0.1959381103515625
1788862396604293000,11.557293212890626,0.1907891482114792,0.8077557682991028,-0.19130846858024597
1788862396614335000,11.5673349609375,0.2672266960144043,0.4956497251987457,-0.19201409816741943
1788862396624376000,11.5773759765625,0.27238577604293823,0.19340331852436066,-0.22949568927288055
1788862396634418000,11.58741796875,0.23465964198112488,-0.05007873475551605,-0.2961745262145996
1788862396644459000,11.597458984375,0.17084497213363647,-0.26661983132362366,-0.3704274594783783
1788862396654501000,11.607501220703124,0.09579315036535263,-0.4365202784538269,-0.43275541067123413
1788862396664542200,11.617542236328125,0.008249452337622643,-0.43349120020866394,-0.4856628477573395
1788862396674583300,11.627583251953125,-0.065381720662117,-0.2970919609069824,-0.5208824872970581
1788862396684625200,11.637625244140626,-0.11576580256223679,-0.1274653822183609,-0.503108561038971
1788862396694666200,11.647666259765625,-0.13103485107421875,-0.018602963536977768,-0.4546710252761841
1788862396704708000,11.6577080078125,-0.11055994033813477,0.028776802122592926,-0.4022384583950043
1788862396714749200,11.667749267578126,-0.07345806807279587,0.02512737736105919,-0.37393343448638916
1788862396724791000,11.677791015625,-0.022526446729898453,0.009401409886777401,-0.3841916620731354
1788862396734832000,11.68783203125,0.02475953847169876,-0.03714841604232788,-0.4277677834033966
1788862396744874000,11.6978740234375,0.07145033776760101,-0.09573529660701752,-0.4918982982635498
1788862396754915000,11.7079150390625,0.11663608998060226,-0.13591544330120087,-0.5703450441360474
1788862396764957200,11.717957275390624,0.15076956152915955,-0.13378624618053436,-0.6554263830184937
1788862396774998300,11.727998291015625,0.197632297873497,-0.1464373767375946,-0.7250678539276123
1788862396785040100,11.7380400390625,0.2597460150718689,-0.21158336102962494,-0.7910159826278687
1788862396795081200,11.748081298828126,0.2898138165473938,-0.24448880553245544,-0.8681116700172424
1788862396805122000,11.7581220703125,0.2946200370788574,-0.17288626730442047,-0.987604022026062
1788862396815164200,11.7681640625,0.2998085916042328,-0.02124212309718132,-1.1254087686538696
1788862396825205000,11.778205078125,0.30436739325523376,0.19544118642807007,-1.2202404737472534
1788862396835247000,11.7882470703125,0.26489755511283875,0.45942139625549316,-1.2304613590240479
1788862396845288000,11.798287841796874,0.20057395100593567,0.7182923555374146,-1.1684653759002686
1788862396855330000,11.808330078125,0.15590012073516846,0.9053641557693481,-1.0912734270095825
1788862396865371000,11.818370849609375,0.15546521544456482,0.9584574699401855,-1.0242632627487183
1788862396875413200,11.828413330078124,0.16030409932136536,0.815090537071228,-1.0354663133621216
1788862396885454000,11.8384541015625,0.168309286236763,0.5428432822227478,-1.1019073724746704
1788862396895496200,11.84849609375,0.1849260777235031,0.26121607422828674,-1.118047833442688
1788862396905537000,11.858537109375,0.1650700867176056,0.052830375730991364,-1.0752044916152954
1788862396915579100,11.8685791015625,0.09469949454069138,-0.04931880533695221,-1.0218595266342163
1788862396925620000,11.878619873046874,0.010888749733567238,-0.14909812808036804,-1.0507766008377075
1788862396935661000,11.8886611328125,-0.01874762773513794,-0.3046160042285919,-1.1261318922042847
1788862396945703000,11.898702880859375,-0.010458539240062237,-0.45199400186538696,-1.1361671686172485
1788862396955744000,11.908743896484374,-0.003373626386746764,-0.5061851143836975,-1.063905954360962
1788862396965785900,11.918785888671875,-0.01183901634067297,-0.42970579862594604,-1.0790611505508423
1788862396975827000,11.928826904296875,0.00016175839118659496,-0.359824538230896,-1.2390389442443848
1788862396985869000,11.938869140625,0.051972225308418274,-0.37652787566185,-1.3942553997039795
1788862396995910100,11.94891015625,0.13585366308689117,-0.5331149101257324,-1.4140053987503052
1788862397005952000,11.958951904296875,0.20514805614948273,-0.7004218697547913,-1.3265624046325684
1788862397015993000,11.9689931640625,0.24969233572483063,-0.6881635785102844,-1.296920895576477
1788862397026035000,11.979034912109375,0.29381850361824036,-0.5894880890846252,-1.3640989065170288
1788862397036076000,11.989075927734374,0.3178548514842987,-0.5352705121040344,-1.414697289466858
1788862397046118100,11.9991181640625,0.32382726669311523,-0.5658145546913147,-1.4375134706497192
1788862397056159000,12.009158935546875,0.3057376742362976,-0.6979818344116211,-1.443300485610962
1788862397066200000,12.019199951171874,0.29431405663490295,-0.7780945301055908,-1.4459023475646973
1788862397076242000,12.029241943359375,0.2959544062614441,-0.8023769855499268,-1.4878811836242676
1788862397086283000,12.039282958984375,0.3059636354446411,-0.7946460843086243,-1.5692071914672852
1788862397096325000,12.0493251953125,0.31946811079978943,-0.7903691530227661,-1.61469566822052
1788862397106366200,12.0593662109375,0.32465726137161255,-0.8116558194160461,-1.6658097505569458
1788862397116408000,12.069407958984375,0.33498162031173706,-0.8293240666389465,-1.70648992061615
1788862397126449200,12.07944921875,0.35721954703330994,-0.8026682138442993,-1.690933346748352
1788862397136491000,12.089490966796875,0.37048399448394775,-0.713598906993866,-1.6890285015106201
1788862397146532000,12.099531982421874,0.3717767000198364,-0.6634938716888428,-1.6812472343444824
1788862397156574000,12.109573974609376,0.366318941116333,-0.6525154113769531,-1.6663262844085693
1788862397166615000,12.119614990234375,0.3700422942638397,-0.6828610897064209,-1.6516567468643188
1788862397176657200,12.1296572265625,0.37742137908935547,-0.7058268189430237,-1.6620042324066162
1788862397186698200,12.1396982421875,0.39535075426101685,-0.6654796004295349,-1.653400182723999
1788862397196739000,12.149739013671875,0.3647101819515228,-0.5510085225105286,-1.6642143726348877
1788862397206781200,12.15978125,0.33795127272605896,-0.5627623796463013,-1.6525018215179443
1788862397216822300,12.169822265625,0.3190400004386902,-0.5094479322433472,-1.6558126211166382
1788862397226864000,12.179864013671875,0.3055412471294403,-0.43135708570480347,-1.6835981607437134
1788862397236905200,12.1899052734375,0.2958858907222748,-0.4203304648399353,-1.7200134992599487
1788862397246947000,12.199947021484375,0.30365273356437683,-0.4720865786075592,-1.718493938446045
1788862397256988200,12.20998828125,0.3012597858905792,-0.47224438190460205,-1.6926164627075195
1788862397267030000,12.220030029296876,0.27430540323257446,-0.34713974595069885,-1.6311405897140503
1788862397277071000,12.230071044921875,0.24646645784378052,-0.22733232378959656,-1.5677590370178223
1788862397287113200,12.24011328125,0.21475699543952942,-0.2395983189344406,-1.526610016822815
1788862397297154300,12.250154296875,0.2087678164243698,-0.31763166189193726,-1.4395593404769897
1788862397307196200,12.260196044921875,0.21449467539787292,-0.23732192814350128,-1.3056347370147705
1788862397317237200,12.2702373046875,0.2312989979982376,-0.12895232439041138,-1.1546319723129272
1788862397327278000,12.280278076171875,0.2591213285923004,-0.030842268839478493,-1.0676286220550537
1788862397337320200,12.2903203125,0.2827979326248169,0.03024449571967125,-1.004271388053894
1788862397347361000,12.300361083984376,0.28626564145088196,0.11886917054653168,-0.9119027256965637
1788862397357403100,12.310403076171875,0.24644462764263153,0.16339947283267975,-0.7739540338516235
1788862397367444000,12.32044384765625,0.17007048428058624,0.19741283357143402,-0.6243928074836731
1788862397377486000,12.330486083984376,0.09036517143249512,0.18338415026664734,-0.5145658254623413
1788862397387527700,12.340527587890625,-0.00404867809265852,0.14572519063949585,-0.36125242710113525
1788862397397569500,12.350569580078124,-0.10163464397192001,0.14498305320739746,-0.20883551239967346
1788862397407610600,12.360610595703125,-0.14803090691566467,0.22038619220256805,-0.07775232195854187
1788862397417652500,12.370652587890625,-0.13144831359386444,0.32499295473098755,0.033409733325242996
1788862397427693600,12.380693603515626,-0.11359581351280212,0.3522277772426605,0.11486251652240753
1788862397437735700,12.390735595703125,-0.08340247720479965,0.33294686675071716,0.20920228958129883
1788862397447776800,12.40077685546875,-0.08738789707422256,0.36141178011894226,0.3289393484592438
1788862397457817900,12.41081787109375,-0.13132892549037933,0.43060335516929626,0.4804231524467468
1788862397467859700,12.420859619140625,-0.23377221822738647,0.42089107632637024,0.6126751899719238
1788862397477900800,12.43090087890625,-0.32811838388442993,0.39997434616088867,0.7290610671043396
1788862397487942700,12.440942626953126,-0.3977997303009033,0.39225757122039795,0.8602720499038696
