time,seconds_elapsed,z,y,x
1788862385096770000,0.04977001953125,0.12171817570924759,0.08824730664491653,1.4913421869277954
1788862385106811100,0.05981103515625,0.22453643381595612,0.08277025073766708,1.628615140914917
1788862385116853000,0.06985302734375,0.2778654396533966,-0.012085691094398499,1.721558690071106
1788862385126894000,0.07989404296875,0.24038757383823395,-0.22443124651908875,1.785157561302185
1788862385136936200,0.089936279296875,0.12730015814304352,-0.4712916314601898,1.8236671686172485
1788862385146977300,0.099977294921875,-0.05649576708674431,-0.7507898211479187,1.8291229009628296
1788862385157019100,0.11001904296875,-0.30311328172683716,-1.0793043375015259,1.7860209941864014
1788862385167060200,0.120060302734375,-0.5232837200164795,-1.3449733257293701,1.7275201082229614
1788862385177102000,0.13010205078125,-0.6724947690963745,-1.574751615524292,1.6317222118377686
1788862385187143200,0.14014306640625,-0.7486963272094727,-1.7346177101135254,1.459293246269226
1788862385197185000,0.15018505859375,-0.7632195949554443,-1.8123100996017456,1.2536852359771729
1788862385207226000,0.16022607421875,-0.7318305373191833,-1.8591282367706299,1.0051838159561157
1788862385217268000,0.17026806640625,-0.6840962767601013,-1.9212325811386108,0.7226122617721558
1788862385227309000,0.18030908203125,-0.6212701797485352,-2.0184731483459473,0.45475873351097107
1788862385237350000,0.190349853515625,-0.5480066537857056,-2.103166103363037,0.2432350218296051
1788862385247392300,0.200392333984375,-0.4798089563846588,-2.1577987670898438,0.10364090651273727
1788862385257433000,0.21043310546875,-0.43525853753089905,-2.1809139251708984,0.01564474031329155
1788862385267475200,0.22047509765625,-0.4393603205680847,-2.268352746963501,-0.049130529165267944
1788862385277516000,0.23051611328125,-0.48832306265830994,-2.419463872909546,-0.087999626994133
1788862385287558100,0.24055810546875,-0.5829555988311768,-2.5727803707122803,-0.14841769635677338
1788862385297599000,0.250598876953125,-0.7051954865455627,-2.665924072265625,-0.25641340017318726
1788862385307641000,0.26064111328125,-0.8231894969940186,-2.6707570552825928,-0.40144675970077515
1788862385317682000,0.270681884765625,-0.7557545304298401,-2.700585126876831,-0.5612380504608154
1788862385327724000,0.28072412109375,0.01865144819021225,-2.833197832107544,-0.6216347813606262
1788862385337764900,0.290764892578125,0.8681180477142334,-2.539116859436035,-0.5134127140045166
1788862385347807200,0.30080712890625,1.3851239681243896,-2.04682993888855,-0.39841341972351074
1788862385357848000,0.31084814453125,1.4927934408187866,-1.7423055171966553,-0.35523027181625366
1788862385367890200,0.32089013671875,1.33309006690979,-1.6970833539962769,-0.36404746770858765
1788862385377931000,0.330930908203125,1.0149322748184204,-1.6550323963165283,-0.39375609159469604
1788862385387972000,0.34097216796875,0.6692731380462646,-1.4205313920974731,-0.4063917100429535
1788862385398014200,0.35101416015625,0.4634275734424591,-1.1474761962890625,-0.38660016655921936
1788862385408055300,0.36105517578125,0.42538803815841675,-1.004215955734253,-0.3355412483215332
1788862385418097200,0.37109716796875,0.4918845295906067,-1.0281058549880981,-0.2837219834327698
1788862385428138200,0.38113818359375,0.614111065864563,-1.1815894842147827,-0.22490261495113373
1788862385438180000,0.39118017578125,0.7641293406486511,-1.4254356622695923,-0.16490480303764343
1788862385448221200,0.40122119140625,0.8872907161712646,-1.6034832000732422,-0.10430962592363358
1788862385458263000,0.411262939453125,0.9726817607879639,-1.7505980730056763,-0.02973046526312828
1788862385468304100,0.42130419921875,1.032459020614624,-1.9523167610168457,0.055269647389650345
1788862385478346000,0.431345947265625,1.130687952041626,-2.233867645263672,0.1325218230485916
1788862385488387000,0.441386962890625,1.3071784973144531,-2.6019887924194336,0.20161114633083344
1788862385498429200,0.45142919921875,1.532814860343933,-2.9561052322387695,0.30208396911621094
1788862385508470300,0.46147021484375,1.7608213424682617,-3.2206199169158936,0.42542240023612976
1788862385518511400,0.471511474609375,1.9633795022964478,-3.4023141860961914,0.5253071784973145
1788862385528553200,0.48155322265625,2.1558616161346436,-3.555346965789795,0.5992029905319214
1788862385538594300,0.49159423828125,2.395174026489258,-3.689053535461426,0.6804906725883484
1788862385548636200,0.50163623046875,2.7089462280273438,-3.8623435497283936,0.7786643505096436
1788862385558677200,0.51167724609375,2.9897520542144775,-3.925520420074463,0.9118948578834534
1788862385568719000,0.521718994140625,3.141461133956909,-3.8630728721618652,1.0418552160263062
1788862385578760200,0.53176025390625,3.185269355773926,-3.792165756225586,1.156259298324585
1788862385588802000,0.541802001953125,3.183917760848999,-3.7371370792388916,1.256390929222107
1788862385598843100,0.551843017578125,3.1904311180114746,-3.6719462871551514,1.3682141304016113
1788862385608885200,0.56188525390625,3.2345130443573,-3.5881006717681885,1.5237313508987427
1788862385618926300,0.57192626953125,3.3411529064178467,-3.4655349254608154,1.709250807762146
1788862385628968200,0.58196826171875,3.4515156745910645,-3.291689872741699,1.878925085067749
1788862385639009300,0.59200927734375,3.5288448333740234,-3.105971097946167,2.008756399154663
1788862385649050000,0.602050048828125,3.5501785278320312,-2.9076740741729736,2.0679104328155518
1788862385659092200,0.61209228515625,3.502058506011963,-2.749455690383911,2.0685524940490723
1788862385669133300,0.62213330078125,3.436291456222534,-2.6262216567993164,2.060622215270996
1788862385679175200,0.632175048828125,3.3883752822875977,-2.421828031539917,2.1081433296203613
1788862385689216300,0.64221630859375,3.3595542907714844,-2.108973503112793,2.212287187576294
1788862385699258400,0.65225830078125,3.3136096000671387,-1.7784299850463867,2.3745439052581787
1788862385709299200,0.66229931640625,3.203040361404419,-1.521464228630066,2.5453567504882812
1788862385719341300,0.67234130859375,2.984927177429199,-1.4066505432128906,2.6990718841552734
1788862385729382400,0.68238232421875,2.6872081756591797,-1.3523422479629517,2.854325532913208
1788862385739424300,0.69242431640625,2.351655960083008,-1.2198518514633179,3.0104756355285645
1788862385749465300,0.70246533203125,2.0385305881500244,-0.9728676676750183,3.1705667972564697
1788862385759507200,0.712507080078125,1.745309829711914,-0.6827295422554016,3.3062961101531982
1788862385769548300,0.72254833984375,1.4939782619476318,-0.4809703528881073,3.3732495307922363
1788862385779589000,0.732589111328125,1.3089995384216309,-0.4099355936050415,3.3797338008880615
1788862385789631200,0.74263134765625,1.0787200927734375,-0.4192023277282715,3.3918373584747314
1788862385799672000,0.752672119140625,0.8115421533584595,-0.49117159843444824,3.4160568714141846
1788862385809714400,0.76271435546875,0.5542773008346558,-0.5981518626213074,3.397294521331787
1788862385819755300,0.77275537109375,0.4405835270881653,-0.7388927340507507,3.318192958831787
1788862385829797400,0.78279736328125,0.3232715427875519,-1.0325767993927002,3.1422622203826904
1788862385839838200,0.792838134765625,0.2051113396883011,-1.3876829147338867,2.8707547187805176
1788862385849880300,0.80288037109375,0.12351980805397034,-1.7387843132019043,2.557264566421509
1788862385859921200,0.812921142578125,0.12399917840957642,-2.0299103260040283,2.2968132495880127
1788862385869963300,0.82296337890625,0.23236319422721863,-2.2375636100769043,2.1415345668792725
1788862385880004000,0.833004150390625,0.3422588109970093,-2.5457708835601807,2.041574001312256
1788862385890046200,0.843046142578125,0.43431684374809265,-3.017611026763916,1.9988927841186523
1788862385900087000,0.853087158203125,0.6717626452445984,-3.492055892944336,1.9630426168441772
1788862385910128000,0.863128173828125,1.1693663597106934,-3.8151235580444336,2.0864415168762207
1788862385920170200,0.873170166015625,1.8017091751098633,-4.360132694244385,2.265765428543091
1788862385930211300,0.88321142578125,2.3924195766448975,-4.732462406158447,2.3401265144348145
1788862385940253200,0.893253173828125,2.7014706134796143,-5.274473667144775,1.3685529232025146
1788862385950294300,0.903294189453125,3.395667314529419,-3.8687210083007812,0.3784985840320587
1788862385960336100,0.913336181640625,4.689733028411865,-1.3043677806854248,-0.2741948068141937
1788862385970377200,0.923377197265625,5.832652568817139,0.7703459858894348,-0.8311073184013367
1788862385980419000,0.933419189453125,6.457789421081543,1.3410533666610718,-1.5824249982833862
1788862385990460200,0.943460205078125,6.790096759796143,0.8844126462936401,-1.9978126287460327
1788862386000502000,0.953501953125,6.803886413574219,0.25306394696235657,-1.782912015914917
1788862386010543000,0.963543212890625,6.224157810211182,0.4287202060222626,-0.9035128355026245
1788862386020585200,0.973585205078125,5.254688262939453,1.4727575778961182,-0.6995293498039246
1788862386030626300,0.983626220703125,4.620903015136719,2.7178661823272705,-0.9742162823677063
1788862386040667400,0.99366748046875,4.370096206665039,2.7902040481567383,-0.7459207773208618
1788862386050709200,1.003709228515625,3.0403871536254883,0.9968717694282532,0.17238642275333405
1788862386060750300,1.013750244140625,1.8076435327529907,-0.576298177242279,0.8540805578231812
1788862386070792200,1.023792236328125,1.2745987176895142,-0.9438700675964355,1.0165163278579712
1788862386080833300,1.033833251953125,1.388156771659851,-0.8964698314666748,0.7109768986701965
1788862386090875100,1.043875244140625,1.4411629438400269,-0.8136367201805115,0.40989696979522705
1788862386100916200,1.053916259765625,1.5577287673950195,-0.7977946400642395,0.4038044512271881
1788862386110958000,1.0639580078125,1.5715625286102295,-0.8906662464141846,0.4307172894477844
1788862386120999200,1.073999267578125,1.5235116481781006,-0.9411520957946777,0.4437430799007416
1788862386131041300,1.084041259765625,1.4092696905136108,-1.081369400024414,0.43936991691589355
1788862386141082400,1.094082275390625,1.351262092590332,-1.5301297903060913,0.4978918135166168
1788862386151123200,1.104123291015625,1.032060980796814,-2.2802953720092773,0.7150360941886902
1788862386161165300,1.114165283203125,0.9786911606788635,-2.634735584259033,0.8364842534065247
1788862386171206100,1.1242060546875,1.14049232006073,-1.627868413925171,0.5773056745529175
1788862386181248300,1.134248291015625,1.4892289638519287,-0.12379837036132812,-0.19623981416225433
1788862386191289000,1.1442890625,2.2322275638580322,0.7826734781265259,-0.9818536639213562
1788862386201331200,1.154331298828125,2.9368174076080322,1.0281237363815308,-1.2300411462783813
1788862386211372000,1.1643720703125,3.4038050174713135,1.2501780986785889,-1.3270355463027954
1788862386221414400,1.174414306640625,3.7805638313293457,1.220515251159668,-1.2198190689086914
1788862386231455200,1.184455322265625,3.6848716735839844,1.7195439338684082,-0.7332478761672974
1788862386241497300,1.194497314453125,3.5916543006896973,0.4264588952064514,0.14237871766090393
1788862386251538200,1.2045380859375,3.266477584838867,-0.8891304135322571,1.143094778060913
1788862386261580300,1.214580322265625,2.843526840209961,-1.057260513305664,1.472315788269043
1788862386271621000,1.22462109375,2.1934471130371094,-1.2165056467056274,1.3179694414138794
1788862386281662200,1.234662109375,1.3276641368865967,-1.1242321729660034,0.900573194026947
1788862386291704000,1.2447041015625,0.4369240701198578,-0.8527771830558777,0.42707622051239014
1788862386301745200,1.2547451171875,-0.030939273536205292,-0.656021237373352,0.0993441641330719
1788862386311787000,1.264787109375,-0.10477913916110992,-0.1985969841480255,-0.2081337571144104
1788862386321828000,1.274828125,-0.049015481024980545,0.06017731875181198,-0.49966493248939514
1788862386331870200,1.2848701171875,-0.024689633399248123,0.12137649208307266,-0.6224627494812012
1788862386341911300,1.294911376953125,-0.1216723695397377,0.1513703465461731,-0.5917463898658752
1788862386351953200,1.304953125,-0.2155618518590927,0.20438562333583832,-0.5489808320999146
1788862386361994200,1.314994140625,-0.18095754086971283,0.34566766023635864,-0.6436796188354492
1788862386372036000,1.3250361328125,-0.1243634968996048,0.5229673385620117,-0.8974200487136841
1788862386382077000,1.335076904296875,-0.14824911952018738,0.56291663646698,-1.2366851568222046
1788862386392119000,1.345119140625,-0.3203066289424896,0.7649048566818237,-1.5029677152633667
1788862386402159900,1.355159912109375,-0.48646658658981323,0.4879675507545471,-0.3099922239780426
1788862386412201000,1.365200927734375,-0.42957693338394165,0.0943177118897438,0.1635252833366394
1788862386422243000,1.3752431640625,-0.21911238133907318,-0.1224880963563919,-0.10198309272527695
1788862386432284200,1.3852841796875,-0.16956984996795654,-0.17221517860889435,-0.04892253503203392
1788862386442326000,1.395325927734375,-0.2780848741531372,-0.01002413872629404,-0.1412077248096466
1788862386452367000,1.4053671875,-0.3018663823604584,-0.010434531606733799,-0.1743912398815155
1788862386462409000,1.415408935546875,-0.35748594999313354,-0.03441283479332924,-0.1421118676662445
1788862386472450000,1.425449951171875,-0.34752121567726135,-0.37740081548690796,0.039624374359846115
1788862386482492000,1.435491943359375,-0.4044595956802368,-0.6709927320480347,0.11940708756446838
1788862386492533000,1.445532958984375,-0.35701778531074524,-0.7000265121459961,0.1385544240474701
1788862386502574800,1.455574951171875,-0.366638720035553,-0.4753580093383789,-0.008036887273192406
1788862386512616000,1.465615966796875,-0.47616708278656006,-0.5607754588127136,-0.1045738160610199
1788862386522658000,1.475657958984375,-0.4565742015838623,-0.6307691931724548,0.009668872691690922
1788862386532699100,1.48569921875,-0.3190530836582184,-0.6137526035308838,0.001460743835195899
1788862386542741000,1.495740966796875,-0.2581239640712738,-0.541557252407074,-0.02953631989657879
1788862386552782000,1.505781982421875,-0.6463707685470581,-0.44098031520843506,-0.06774256378412247
1788862386562823200,1.5158232421875,-0.9406564235687256,-1.3568075895309448,0.06865868717432022
1788862386572865000,1.525864990234375,-0.6334869265556335,-1.252198338508606,-0.16431596875190735
1788862386582906000,1.535906005859375,-0.16730403900146484,-0.5060299038887024,-0.14578117430210114
1788862386592948000,1.545947998046875,0.051539357751607895,-0.8731508851051331,-0.07333067059516907
1788862386602989000,1.555989013671875,0.04328382387757301,-1.2900404930114746,0.00672235107049346
1788862386613031000,1.566031005859375,0.04962347820401192,-1.3603512048721313,-0.057733070105314255
1788862386623072000,1.576072021484375,0.06301625072956085,-2.1740338802337646,-0.24146774411201477
1788862386633114000,1.586114013671875,0.7189496159553528,-3.6134424209594727,-0.26256558299064636
1788862386643155200,1.5961552734375,0.8975009918212891,-3.3088154792785645,-0.5827129483222961
1788862386653197000,1.606197021484375,0.7396565079689026,-0.560006320476532,-0.26493391394615173
1788862386663238100,1.616238037109375,0.715715229511261,0.23493075370788574,-0.2684879004955292
1788862386673280000,1.626280029296875,0.5555026531219482,-0.7002281546592712,-0.33482274413108826
1788862386683321000,1.636321044921875,0.057133059948682785,-1.3926585912704468,-0.018822690472006798
1788862386693363000,1.646363037109375,0.07964769005775452,-2.0783846378326416,-0.2790902256965637
1788862386703404000,1.656404052734375,0.008987369947135448,-1.912994623184204,0.02641616016626358
1788862386713444900,1.66644482421875,-0.028078239411115646,-1.2624701261520386,0.178444042801857
1788862386723487000,1.676487060546875,-0.11063889414072037,-0.8848339319229126,0.1457177847623825
1788862386733527800,1.68652783203125,-0.14252331852912903,-0.6272615194320679,0.022468291223049164
1788862386743570200,1.696570068359375,-0.22221335768699646,-0.5150092840194702,-0.09572120010852814
1788862386753611000,1.706611083984375,-0.138393834233284,-0.4733699560165405,-0.2550983428955078
1788862386763653000,1.716653076171875,0.02833470143377781,-0.5227092504501343,-0.21434025466442108
1788862386773694000,1.72669384765625,0.21683350205421448,-0.6885797381401062,-0.06411001086235046
1788862386783736000,1.736736083984375,0.4271148443222046,-0.7209078669548035,0.006844324059784412
1788862386793777000,1.74677685546875,0.48386892676353455,-0.7004595398902893,0.02370932325720787
1788862386803819000,1.756819091796875,0.5619216561317444,-0.6051189303398132,-0.0037891454994678497
1788862386813859800,1.76685986328125,0.6068188548088074,-0.2189595103263855,-0.17069104313850403
1788862386823902000,1.77690185546875,0.5185030698776245,0.6450783014297485,-0.559937596321106
1788862386833942800,1.78694287109375,0.8394209146499634,0.6112644672393799,-0.9767593145370483
1788862386843985200,1.796985107421875,0.9964653849601746,0.13631309568881989,-1.0771231651306152
1788862386854026000,1.80702587890625,1.1757416725158691,0.021763885393738747,-0.8675934076309204
1788862386864067000,1.817067138671875,1.3305187225341797,-0.029955502599477768,-0.6542952656745911
1788862386874109000,1.82710888671875,1.524667739868164,-0.20831619203090668,-0.6503977179527283
1788862386884150000,1.83714990234375,1.300478219985962,-0.621947705745697,-0.3725522756576538
1788862386894191900,1.84719189453125,0.9379459023475647,-0.8191936612129211,-0.1044534370303154
1788862386904233000,1.85723291015625,0.6570923924446106,-0.6664443612098694,0.04828204587101936
1788862386914274800,1.86727490234375,0.49355217814445496,-0.6405016779899597,0.04645165428519249
1788862386924316000,1.87731591796875,0.36702993512153625,-0.6544052362442017,0.11416758596897125
1788862386934357800,1.887357666015625,0.4119659960269928,-0.890171468257904,0.2767290771007538
1788862386944399000,1.897399169921875,0.3368411362171173,-0.7436442971229553,0.34577232599258423
1788862386954441000,1.90744091796875,0.14863474667072296,-0.2683294713497162,0.33652395009994507
1788862386964482000,1.91748193359375,0.0019137475173920393,0.21257272362709045,0.24081739783287048
1788862386974524000,1.92752392578125,-0.081450916826725,0.44976183772087097,0.14598383009433746
1788862386984565000,1.93756494140625,-0.1291891485452652,0.46071621775627136,0.12364736944437027
1788862386994606800,1.94760693359375,-0.22607414424419403,0.424540638923645,0.2646031677722931
1788862387004648000,1.95764794921875,-0.3753184974193573,0.11335691809654236,0.4802558124065399
1788862387014690000,1.96768994140625,0.04681544378399849,-0.26295891404151917,0.9320294260978699
1788862387024731000,1.97773095703125,0.29461246728897095,-0.4634470045566559,1.4942525625228882
1788862387034772000,1.98777197265625,0.23663197457790375,-0.7625767588615417,1.7141385078430176
1788862387044814000,1.99781396484375,0.11016645282506943,-1.0859571695327759,1.4078994989395142
1788862387054855200,2.007855224609375,-0.03678810968995094,-0.666470468044281,0.680523157119751
1788862387064897000,2.01789697265625,-0.2015562802553177,-0.012203669175505638,-0.21917389333248138
1788862387074938000,2.027938232421875,-0.15191709995269775,0.7297292947769165,-0.7971203327178955
1788862387084980000,2.03797998046875,-0.12167610228061676,0.9580383896827698,-0.6622748970985413
1788862387095021000,2.04802099609375,-0.09622932970523834,0.959225594997406,-0.19264188408851624
1788862387105063000,2.05806298828125,0.05481904000043869,0.9006280899047852,0.08854664117097855
1788862387115104000,2.06810400390625,0.38688620924949646,0.6115198135375977,0.07837843149900436
1788862387125145900,2.078145751953125,0.6509018540382385,0.3425315022468567,-0.12693478167057037
1788862387135187000,2.08818701171875,0.41878101229667664,0.6284929513931274,-0.2901444733142853
1788862387145229000,2.09822900390625,0.2088666558265686,0.8972956538200378,-0.1635947823524475
1788862387155270100,2.108270263671875,0.0705183744430542,1.2425742149353027,0.03788719326257706
1788862387165312000,2.11831201171875,-0.06043324992060661,1.511691689491272,0.14324957132339478
1788862387175353000,2.12835302734375,-0.2656297981739044,1.4295954704284668,-0.022975090891122818
1788862387185395000,2.13839501953125,0.25773727893829346,0.6917853951454163,-0.2698482573032379
1788862387195436000,2.14843603515625,0.7507232427597046,-0.057620685547590256,-0.22913384437561035
1788862387205477000,2.15847705078125,0.24186615645885468,0.09251262247562408,0.0454108901321888
1788862387215519000,2.16851904296875,0.3074379861354828,0.2204791158437729,-0.07381616532802582
1788862387225560000,2.17856005859375,0.2871425449848175,0.23929859697818756,-0.1305375099182129
1788862387235602000,2.188601806640625,0.4054098129272461,-0.12070910632610321,-0.12661786377429962
1788862387245643000,2.19864306640625,0.1867874562740326,-0.5176556706428528,0.09648286551237106
1788862387255685000,2.20868505859375,-0.029624471440911293,-0.9315676093101501,0.3640647828578949
1788862387265726200,2.218726318359375,0.6970152854919434,-1.4548801183700562,0.30973920226097107
1788862387275768000,2.22876806640625,1.0793256759643555,-1.5672500133514404,0.12054026126861572
1788862387285809200,2.23880908203125,0.7747727036476135,-1.4099845886230469,0.01613502763211727
1788862387295851000,2.24885107421875,0.6721259355545044,-1.4290906190872192,0.011448662728071213
1788862387305892000,2.25889208984375,0.420212984085083,-1.316136360168457,0.07556746155023575
1788862387315934000,2.268933837890625,0.17950397729873657,-1.0856232643127441,0.025594575330615044
1788862387325975000,2.27897509765625,0.08698470145463943,-0.756138801574707,-0.06452599912881851
1788862387336017000,2.289016845703125,0.14505092799663544,-0.6124159693717957,-0.24675145745277405
1788862387346058000,2.29905810546875,0.21126776933670044,-0.7875305414199829,-0.2931748926639557
1788862387356100000,2.30910009765625,0.2278776317834854,-0.929847776889801,-0.10094206035137177
1788862387366141200,2.31914111328125,0.3443959951400757,-0.8522133827209473,-0.005300755612552166
1788862387376182000,2.32918212890625,0.5283951163291931,-0.5929986238479614,-0.15424230694770813
1788862387386224000,2.33922412109375,0.5773440003395081,-0.36987340450286865,-0.3665574789047241
1788862387396265000,2.349264892578125,0.6701562404632568,-0.2802223265171051,-0.5400190353393555
1788862387406307000,2.35930712890625,0.8542696237564087,-0.2654583156108856,-0.5904896259307861
1788862387416348000,2.369347900390625,0.9552742838859558,-0.2846085727214813,-0.6021204590797424
1788862387426390000,2.37939013671875,1.0149849653244019,-0.3160242736339569,-0.5308007597923279
1788862387436430800,2.389430908203125,0.9698497653007507,-0.3475196063518524,-0.36406129598617554
1788862387446473000,2.399472900390625,0.8903554677963257,-0.353559672832489,-0.2669651210308075
1788862387456513800,2.409513671875,0.791412353515625,-0.28970131278038025,-0.2637796998023987
1788862387466556200,2.41955615234375,0.5870757699012756,-0.2864181697368622,-0.2722264528274536
1788862387476597000,2.429596923828125,0.27046266198158264,-0.1569502055644989,-0.15839789807796478
1788862387486639000,2.43963916015625,0.17723336815834045,-0.11498624086380005,0.015935290604829788
1788862387496680000,2.449679931640625,0.183676615357399,-0.2651839852333069,0.1230233907699585
1788862387506722000,2.45972216796875,0.2841092050075531,-0.3749150335788727,0.20652121305465698
1788862387516763000,2.469762939453125,0.4406285285949707,-0.392903596162796,0.2109852135181427
1788862387526805000,2.479804931640625,0.4785676598548889,-0.33307623863220215,0.1623915731906891
1788862387536845800,2.489845703125,0.3922535181045532,-0.26056209206581116,0.09689059108495712
1788862387546888000,2.499887939453125,0.3160035014152527,-0.20515981316566467,0.01744210720062256
1788862387556928800,2.5099287109375,0.17700167000293732,-0.1301172524690628,-0.034989140927791595
1788862387566971100,2.51997119140625,0.0683167427778244,-0.02731391228735447,-0.05529841035604477
1788862387577012000,2.530011962890625,0.05498708412051201,0.07131732255220413,-0.06245485693216324
1788862387587053000,2.540052978515625,0.05090312659740448,0.1991647630929947,-0.07281988114118576
1788862387597095000,2.550094970703125,0.003750795964151621,0.2733282148838043,-0.08654660731554031
1788862387607136000,2.560135986328125,-0.04960217326879501,0.32748517394065857,-0.0569935105741024
1788862387617177900,2.570177734375,-0.05341635271906853,0.30088794231414795,-0.012656939215958118
1788862387627219000,2.580218994140625,-0.16221792995929718,0.14990641176700592,0.06498885154724121
1788862387637260800,2.5902607421875,-0.24618101119995117,-0.060692641884088516,0.13789847493171692
1788862387647302000,2.600302001953125,-0.2856919467449188,-0.43460577726364136,0.23184068500995636
1788862387657343700,2.61034375,-0.3170410692691803,-0.6008262038230896,0.24997974932193756
1788862387667384800,2.620384765625,-0.7552149295806885,-0.48455309867858887,0.22532020509243011
1788862387677427000,2.630427001953125,-0.42650285363197327,-0.49368003010749817,0.04565510153770447
1788862387687468000,2.640468017578125,-0.43917417526245117,-0.43161213397979736,-0.009459281340241432
1788862387697510000,2.650510009765625,-0.4334379732608795,-0.47118696570396423,-0.07914648205041885
1788862387707551000,2.660551025390625,-0.46643322706222534,-0.3593001067638397,-0.08907261490821838
1788862387717592800,2.6705927734375,-0.5212911367416382,-0.0060267336666584015,-0.023517843335866928
1788862387727634000,2.680634033203125,-0.5297253727912903,0.688226044178009,0.19241444766521454
1788862387737676000,2.690676025390625,0.1608770340681076,1.1162991523742676,0.2151075154542923
1788862387747716900,2.700716796875,0.6728111505508423,0.807310938835144,0.020778514444828033
1788862387757758000,2.710758056640625,0.4641399681568146,0.3821343183517456,-0.24275006353855133
1788862387767799800,2.7207998046875,0.14345543086528778,0.12022574245929718,-0.5516306757926941
1788862387777841000,2.7308408203125,0.11889202892780304,-0.30549120903015137,-0.6934692859649658
1788862387787883000,2.740883056640625,0.18445825576782227,-0.6948818564414978,-0.5651859045028687
1788862387797924000,2.750924072265625,0.25770264863967896,-0.8637560606002808,-0.22261416912078857
1788862387807966000,2.760966064453125,0.2565430998802185,-0.7065523266792297,0.009039035066962242
1788862387818007000,2.771007080078125,0.22063757479190826,-0.37926581501960754,0.044983185827732086
1788862387828049000,2.781048828125,0.10962583124637604,-0.21516823768615723,0.0389987975358963
1788862387838090000,2.791090087890625,0.049185656011104584,-0.24601589143276215,0.1098865494132042
1788862387848131800,2.8011318359375,-0.04555603489279747,-0.2921343743801117,0.28060397505760193
1788862387858173000,2.8111728515625,-0.12263350933790207,-0.3200616240501404,0.39665094017982483
1788862387868214800,2.82121484375,-0.20583385229110718,-0.5127674341201782,0.5564514994621277
1788862387878255900,2.831255859375,-0.15806500613689423,-0.5378376245498657,0.6108567118644714
1788862387888298000,2.841298095703125,-0.023257918655872345,-0.41905131936073303,0.39803364872932434
1788862387898339000,2.851339111328125,-0.007010505069047213,-0.3212382197380066,0.22458571195602417
1788862387908381000,2.861380859375,-0.055511727929115295,-0.4272453486919403,0.2583359479904175
1788862387918422000,2.871422119140625,-0.07205794751644135,-0.258632630109787,0.26076874136924744
1788862387928464000,2.8814638671875,-0.1284056454896927,0.05397241935133934,0.22488903999328613
1788862387938505000,2.8915048828125,-0.18456611037254333,0.27740684151649475,0.242759108543396
1788862387948546800,2.901546875,-0.16449466347694397,0.35012897849082947,0.24318495392799377
1788862387958588000,2.911587890625,-0.15456295013427734,0.31534677743911743,0.241822749376297
1788862387968629000,2.92162890625,-0.1207415983080864,0.25128015875816345,0.23753026127815247
1788862387978671000,2.931671142578125,-0.09900940209627151,0.23345616459846497,0.2336588352918625
1788862387988712200,2.941712158203125,-0.08483153581619263,0.2141495794057846,0.23416802287101746
1788862387998754000,2.951754150390625,-0.09131952375173569,0.15268434584140778,0.25235289335250854
1788862388008795100,2.961795166015625,-0.11076832562685013,0.0688760057091713,0.2589966654777527
1788862388018837000,2.9718369140625,-0.12541012465953827,-0.01811135932803154,0.2477935552597046
1788862388028878000,2.981878173828125,-0.13978852331638336,-0.07310723513364792,0.22439448535442352
1788862388038920000,2.991919921875,-0.16047702729701996,-0.09156586974859238,0.21146883070468903
1788862388048961000,3.0019609375,-0.1849549412727356,-0.056761547923088074,0.22498731315135956
1788862388059003000,3.0120029296875,-0.20770259201526642,0.029385851696133614,0.26329874992370605
1788862388069044000,3.0220439453125,-0.23205533623695374,0.13702762126922607,0.30046793818473816
1788862388079086000,3.032086181640625,-0.25037869811058044,0.2202330380678177,0.3265453577041626
1788862388089127200,3.042127197265625,-0.2557542622089386,0.24680419266223907,0.34670522809028625
1788862388099169000,3.0521689453125,-0.25021275877952576,0.21573574841022491,0.3655524253845215
1788862388109210000,3.062210205078125,-0.2409532219171524,0.15896941721439362,0.3720071017742157
1788862388119252000,3.072251953125,-0.23264895379543304,0.07793314754962921,0.3562409281730652
1788862388129293000,3.08229296875,-0.20503783226013184,-0.0019313243683427572,0.2777644991874695
1788862388139335000,3.0923349609375,-0.18480314314365387,-0.0856456607580185,0.1803034543991089
1788862388149376000,3.1023759765625,-0.1868785321712494,-0.1824560910463333,0.12194747477769852
1788862388159417900,3.11241796875,-0.20497605204582214,-0.1789305955171585,0.14914020895957947
1788862388169459000,3.122458984375,-0.2143935263156891,-0.11812424659729004,0.2483578771352768
1788862388179499800,3.132499755859375,-0.19620972871780396,-0.09018076211214066,0.35302090644836426
1788862388189542100,3.142542236328125,-0.1651703119277954,-0.11028975248336792,0.3886641263961792
1788862388199583000,3.1525830078125,-0.13280758261680603,-0.20541919767856598,0.3513266146183014
1788862388209625000,3.162625,-0.10597729682922363,-0.3416566550731659,0.29856565594673157
1788862388219666000,3.172666015625,-0.09650550037622452,-0.4426000714302063,0.27466699481010437
1788862388229708000,3.1827080078125,-0.13426698744297028,-0.4177194833755493,0.28299015760421753
1788862388239748900,3.192748779296875,-0.19377346336841583,-0.2279311716556549,0.3119986355304718
1788862388249791000,3.202791015625,-0.21641965210437775,0.061821289360523224,0.3241724967956543
1788862388259831800,3.212831787109375,-0.17384955286979675,0.30873891711235046,0.3023012578487396
1788862388269874000,3.2228740234375,-0.09046092629432678,0.47264957427978516,0.23643650114536285
1788862388279914800,3.232914794921875,-0.014673750847578049,0.47004926204681396,0.12420050799846649
1788862388289957000,3.24295703125,0.01997077837586403,0.34302419424057007,0.03191239386796951
1788862388299998000,3.252998046875,0.03247858211398125,0.15792465209960938,-0.022640330716967583
1788862388310040000,3.2630400390625,0.013655357994139194,0.0005896238726563752,-0.0415346585214138
1788862388320081000,3.273080810546875,-0.040337834507226944,-0.07560128718614578,-0.03809358924627304
1788862388330123000,3.283123046875,-0.09883549809455872,-0.07690863311290741,-0.025200428441166878
1788862388340163800,3.293163818359375,-0.14135420322418213,-0.03173209726810455,-0.0016077503096312284
1788862388350206000,3.3032060546875,-0.172093465924263,-0.01984853856265545,0.046896401792764664
1788862388360246800,3.313246826171875,-0.16164162755012512,-0.10080437362194061,0.13821673393249512
1788862388370289000,3.323288818359375,-0.13750433921813965,-0.19201497733592987,0.25157204270362854
1788862388380330500,3.33333056640625,-0.13148212432861328,-0.20171447098255157,0.3678557872772217
1788862388390371600,3.34337158203125,-0.1533469408750534,-0.15997076034545898,0.45634782314300537
1788862388400413400,3.353413330078125,-0.17283223569393158,-0.11581022292375565,0.5122851133346558
1788862388410454500,3.36345458984375,-0.184775710105896,-0.09595715254545212,0.5408225059509277
1788862388420496600,3.37349658203125,-0.1816590130329132,-0.1180371567606926,0.5413034558296204
1788862388430537700,3.383537841796875,-0.16925294697284698,-0.17100609838962555,0.5146079659461975
1788862388440579600,3.39357958984375,-0.1567174345254898,-0.1490880250930786,0.4714095890522003
1788862388450620700,3.40362060546875,-0.12401781976222992,0.017046628519892693,0.41235747933387756
1788862388460662500,3.41366259765625,-0.09780565649271011,0.23730921745300293,0.34931379556655884
1788862388470703600,3.42370361328125,-0.11211668699979782,0.3503015637397766,0.3023606538772583
1788862388480745500,3.433745361328125,-0.1276751309633255,0.3325289487838745,0.27522119879722595
1788862388490786600,3.44378662109375,-0.12747620046138763,0.23297253251075745,0.26893559098243713
1788862388500828400,3.453828369140625,-0.11665790528059006,0.07055406272411346,0.3084465265274048
1788862388510869500,3.463869384765625,-0.11455854028463364,-0.10822048038244247,0.3684248924255371
1788862388520911600,3.47391162109375,-0.10593388974666595,-0.23029844462871552,0.4038550555706024
1788862388530952700,3.48395263671875,-0.10997683554887772,-0.2718014121055603,0.39757320284843445
1788862388540994600,3.49399462890625,-0.1382705271244049,-0.25221413373947144,0.35753336548805237
1788862388551035600,3.50403564453125,-0.1711091697216034,-0.2063036412000656,0.3528778851032257
1788862388561077500,3.514077392578125,-0.17192701995372772,-0.17967841029167175,0.3700622022151947
1788862388571118600,3.52411865234375,-0.14565840363502502,-0.1744716763496399,0.3635614216327667
1788862388581159700,3.53415966796875,-0.0965971127152443,-0.18638212978839874,0.30917274951934814
1788862388591201500,3.544201416015625,-0.04656244069337845,-0.2004430890083313,0.20893830060958862
1788862388601242600,3.55424267578125,-0.017843712121248245,-0.18969163298606873,0.10241958498954773
1788862388611284500,3.564284423828125,-0.006213953718543053,-0.17123672366142273,0.025179389864206314
1788862388621325600,3.57432568359375,-0.011379154399037361,-0.18099215626716614,-0.013921407982707024
1788862388631367700,3.58436767578125,-0.028543494641780853,-0.16702626645565033,-0.03778519481420517
1788862388641408800,3.59440869140625,-0.05914507806301117,-0.15156050026416779,-0.03633510321378708
1788862388651450600,3.60445068359375,-0.04800081625580788,-0.16205734014511108,-0.011184477247297764
1788862388661491700,3.61449169921875,-0.035175830125808716,-0.2067909985780716,0.012166384607553482
1788862388671533600,3.624533447265625,-0.007829959504306316,-0.0960913822054863,-0.05324298143386841
1788862388681574700,3.63457470703125,0.1007058396935463,0.09259811043739319,-0.15100044012069702
1788862388691616500,3.644616455078125,0.13448111712932587,0.19727765023708344,-0.22965502738952637
1788862388701657600,3.65465771484375,0.11516840010881424,0.2765650153160095,-0.2801203429698944
1788862388711699500,3.664699462890625,0.1985088288784027,0.2683534324169159,-0.2770420014858246
1788862388721740500,3.674740478515625,0.2216157466173172,0.18342149257659912,-0.24672164022922516
1788862388731782700,3.68478271484375,0.06383730471134186,0.26919978857040405,-0.22863849997520447
1788862388741823700,3.69482373046875,0.013655091635882854,0.409304678440094,-0.17500697076320648
1788862388751865600,3.704865478515625,-0.03190973028540611,0.39678463339805603,-0.08239101618528366
1788862388761906700,3.71490673828125,-0.10751421004533768,0.3335888981819153,0.03423946350812912
1788862388771947500,3.724947509765625,-0.15438131988048553,0.2814937233924866,0.17989680171012878
1788862388781989600,3.73498974609375,-0.14243383705615997,0.31314966082572937,0.3096425533294678
1788862388792030500,3.745030517578125,-0.10875071585178375,0.40960827469825745,0.4071131646633148
1788862388802072600,3.755072509765625,-0.06138133630156517,0.4254567623138428,0.4456041157245636
1788862388812113400,3.765113525390625,-0.005370264407247305,0.3162967264652252,0.4232444763183594
1788862388822155500,3.775155517578125,0.052386507391929626,0.16801510751247406,0.36992692947387695
1788862388832196400,3.7851962890625,0.1287505179643631,0.10129892081022263,0.30356600880622864
1788862388842238700,3.79523876953125,0.18484388291835785,0.06699048727750778,0.2655659019947052
1788862388852279600,3.805279541015625,0.1982843279838562,-0.037697043269872665,0.25434067845344543
1788862388862321700,3.81532177734375,0.1739526242017746,-0.2426760196685791,0.2537880539894104
1788862388872362500,3.825362548828125,0.11272867769002914,-0.45293205976486206,0.2616049647331238
1788862388882404600,3.835404541015625,0.034815769642591476,-0.5669859051704407,0.2696770131587982
1788862388892445400,3.845445556640625,-0.05883295461535454,-0.5542957186698914,0.2874285876750946
1788862388902487600,3.855487548828125,-0.1552998423576355,-0.4687797427177429,0.3277815878391266
1788862388912528600,3.865528564453125,-0.23974575102329254,-0.4215504229068756,0.3902052938938141
1788862388922570500,3.875570556640625,-0.2783336341381073,-0.469033807516098,0.48818910121917725
1788862388932611600,3.885611572265625,-0.2578184902667999,-0.6094047427177429,0.6004517674446106
1788862388942652700,3.895652587890625,-0.18184968829154968,-0.8263112306594849,0.6754301190376282
1788862388952694500,3.905694580078125,-0.10996245592832565,-0.9331777691841125,0.7079065442085266
1788862388962735600,3.915735595703125,-0.046013299375772476,-0.7505986094474792,0.7128323316574097
1788862388972777700,3.92577783203125,-0.022108763456344604,-0.34189796447753906,0.6882036924362183
1788862388982818600,3.935818603515625,-0.002625077962875366,0.06349961459636688,0.6482512354850769
1788862388992860700,3.945860595703125,0.0495811365544796,0.2830125391483307,0.6046696305274963
1788862389002901500,3.955901611328125,0.16673065721988678,0.32237669825553894,0.43821677565574646
1788862389012943600,3.965943603515625,0.2589474022388458,0.12728337943553925,0.1665964424610138
1788862389022984400,3.975984375,0.2742941379547119,-0.3226608633995056,-0.0331646129488945
1788862389033026800,3.98602685546875,0.19845370948314667,-0.6981596350669861,-0.1455577313899994
1788862389043067600,3.996067626953125,0.062135275453329086,-0.7269247174263,-0.22147326171398163
1788862389053109800,4.00610986328125,-0.042146652936935425,-0.38163283467292786,-0.2888680100440979
1788862389063150600,4.016150634765625,-0.12469479441642761,0.0341276116669178,-0.3003350496292114
1788862389073192700,4.026192626953125,-0.15690839290618896,0.25153157114982605,-0.29109254479408264
1788862389083233500,4.036233642578125,-0.14674577116966248,0.2152489274740219,-0.31657156348228455
1788862389093275600,4.046275634765625,-0.05982764810323715,-0.044858817011117935,-0.387478232383728
1788862389103316500,4.05631640625,0.08933893591165543,-0.3230166733264923,-0.4457646906375885
1788862389113357600,4.066357666015625,0.2253127545118332,-0.424247682094574,-0.5135431885719299
1788862389123399400,4.0763994140625,0.2586406171321869,-0.3517031669616699,-0.5723096132278442
1788862389133440500,4.0864404296875,0.16881752014160156,-0.2043323665857315,-0.5969417095184326
1788862389143482600,4.096482666015625,0.023990821093320847,-0.07414746284484863,-0.6084899306297302
1788862389153523700,4.106523681640625,-0.10831236094236374,-0.051362257450819016,-0.6636738777160645
1788862389163565600,4.116565673828125,-0.23212911188602448,-0.09775159507989883,-0.769957959651947
1788862389173606700,4.126606689453125,-0.37759390473365784,-0.08106342703104019,-0.8939142227172852
1788862389183648500,4.1366484375,-0.5268451571464539,0.0034439999144524336,-0.9732652902603149
1788862389193689600,4.146689697265625,-0.6766993999481201,0.057316817343235016,-0.9854790568351746
1788862389203731500,4.1567314453125,-0.8110832571983337,0.12036662548780441,-0.9604836702346802
1788862389213772500,4.1667724609375,-0.9250591397285461,0.3035452365875244,-0.9133438467979431
1788862389223814400,4.176814453125,-0.9643428921699524,0.6971052885055542,-0.8649920225143433
1788862389233855500,4.18685546875,-0.8920324444770813,1.2159082889556885,-0.916115939617157
1788862389243897600,4.196897705078125,-0.7322697043418884,1.4942933320999146,-1.1021180152893066
1788862389253938700,4.206938720703125,-0.5725988149642944,1.3055857419967651,-1.3365659713745117
1788862389263979800,4.216979736328125,-0.44089749455451965,0.7052546143531799,-1.5145658254623413
1788862389274021600,4.227021728515625,-0.29584336280822754,0.05122164264321327,-1.6442484855651855
1788862389284062700,4.237062744140625,-0.1550724059343338,-0.34545326232910156,-1.7648710012435913
1788862389294104600,4.2471044921875,-0.108321413397789,-0.46126800775527954,-1.813923716545105
1788862389304145700,4.257145751953125,-0.14502456784248352,-0.3758103847503662,-1.749433159828186
1788862389314187500,4.2671875,-0.2660332918167114,-0.13025201857089996,-1.695185661315918
1788862389324228600,4.277228515625,-0.4161149263381958,0.27322354912757874,-1.712517261505127
1788862389334270500,4.2872705078125,-0.5572779178619385,0.6567592024803162,-1.7713168859481812
1788862389344311600,4.2973115234375,-0.6432692408561707,0.8222600221633911,-1.7997925281524658
1788862389354353700,4.307353759765625,-0.6234310865402222,0.7318385243415833,-1.8140182495117188
1788862389364394800,4.317394775390625,-0.47195979952812195,0.3908785283565521,-1.8753764629364014
1788862389374436600,4.3274365234375,-0.21041236817836761,-0.06407459080219269,-2.035325288772583
1788862389384477400,4.3374775390625,0.06656358391046524,-0.4344116449356079,-2.2444798946380615
1788862389394519300,4.347519287109375,0.3069508969783783,-0.5612230896949768,-2.4051568508148193
1788862389404560400,4.357560302734375,0.4859512746334076,-0.43967804312705994,-2.489398241043091
1788862389414602200,4.367602294921875,0.6372894048690796,-0.2877465784549713,-2.5030527114868164
1788862389424643300,4.377643310546875,0.7650462985038757,-0.1775934249162674,-2.469510793685913
1788862389434684200,4.38768408203125,0.8742244243621826,-0.01661732606589794,-2.4036288261413574
1788862389444726500,4.3977265625,0.8884207010269165,0.11921001225709915,-2.31032395362854
1788862389454767400,4.407767333984375,0.7734538912773132,-0.025051023811101913,-2.195051670074463
1788862389464809500,4.4178095703125,0.5718632340431213,-0.3550931215286255,-2.0575501918792725
1788862389474850300,4.427850341796875,0.3308812379837036,-0.4720168113708496,-2.0257835388183594
1788862389484892400,4.437892333984375,0.05850725248456001,-0.5007739067077637,-2.1201629638671875
1788862389494933200,4.447933349609375,-0.10843220353126526,-0.6010860800743103,-2.2230794429779053
1788862389504975400,4.457975341796875,-0.18547186255455017,-0.8789816498756409,-2.2545857429504395
1788862389515016200,4.46801611328125,-0.2167469561100006,-1.20294988155365,-2.2171030044555664
1788862389525058300,4.478058349609375,-0.1991351991891861,-1.4153454303741455,-2.163025379180908
1788862389535099400,4.488099365234375,-0.12020444124937057,-1.4627822637557983,-2.1074912548065186
1788862389545141500,4.4981416015625,-0.015389609150588512,-1.3468495607376099,-2.050459623336792
1788862389555182300,4.508182373046875,0.07732062041759491,-1.1696739196777344,-1.9765784740447998
1788862389565224400,4.518224365234375,0.15295998752117157,-1.035513162612915,-1.914344310760498
1788862389575265300,4.528265380859375,0.2186868041753769,-0.9878897666931152,-1.890417456626892
1788862389585306400,4.538306396484375,0.28902727365493774,-0.9961439371109009,-1.9007667303085327
1788862389595348500,4.548348388671875,0.33557799458503723,-1.0102297067642212,-1.8610705137252808
1788862389605389300,4.558389404296875,0.3722361624240875,-0.9941396713256836,-1.7586373090744019
1788862389615431400,4.568431396484375,0.3832656443119049,-0.9871813654899597,-1.7522728443145752
1788862389625472300,4.57847216796875,0.35190504789352417,-1.1033774614334106,-1.8169612884521484
1788862389635514400,4.588514404296875,0.279479056596756,-1.2572448253631592,-1.8173507452011108
1788862389645555200,4.59855517578125,0.1892295777797699,-1.2366007566452026,-1.7776826620101929
1788862389655597600,4.60859765625,0.10218655318021774,-1.1240774393081665,-1.734260082244873
1788862389665638400,4.618638427734375,0.048586975783109665,-0.9740492701530457,-1.683675765991211
1788862389675680500,4.628680419921875,0.03399232029914856,-0.8249143958091736,-1.687354326248169
1788862389685721300,4.638721435546875,0.050396859645843506,-0.8066933155059814,-1.7487306594848633
1788862389695763500,4.648763427734375,0.08860283344984055,-0.9080883860588074,-1.7243517637252808
1788862389705804300,4.65880419921875,0.13396233320236206,-0.9107939004898071,-1.6086318492889404
1788862389715846400,4.668846435546875,0.1668555587530136,-0.7814047336578369,-1.425078272819519
1788862389725887200,4.67888720703125,0.19686752557754517,-0.6335138082504272,-1.2967525720596313
1788862389735929600,4.6889296875,0.25549834966659546,-0.546258807182312,-1.2636470794677734
1788862389745970400,4.698970458984375,0.34130406379699707,-0.5258938670158386,-1.2454973459243774
1788862389756011500,4.709011474609375,0.44958314299583435,-0.4604501724243164,-1.2219126224517822
1788862389766053400,4.719053466796875,0.49977681040763855,-0.411281019449234,-1.1742119789123535
1788862389776094500,4.729094482421875,0.4926307499408722,-0.4347890019416809,-0.9994755387306213
1788862389786136300,4.73913623046875,0.4384862780570984,-0.35469549894332886,-0.8430516123771667
1788862389796177400,4.749177490234375,0.3737395107746124,-0.21385130286216736,-0.7155514359474182
1788862389806219300,4.75921923828125,0.32837122678756714,-0.20036132633686066,-0.6616602540016174
1788862389816260400,4.76926025390625,0.3066587448120117,-0.2744904160499573,-0.6218835115432739
1788862389826302200,4.77930224609375,0.2723550796508789,-0.37368810176849365,-0.6358728408813477
1788862389836343300,4.78934326171875,0.21217644214630127,-0.41121605038642883,-0.696439266204834
1788862389846385400,4.799385498046875,0.1133824810385704,-0.43656986951828003,-0.6207202672958374
1788862389856426500,4.809426513671875,-0.011384746991097927,-0.35184404253959656,-0.37224146723747253
1788862389866468400,4.81946826171875,-0.10381321609020233,-0.10548035055398941,-0.32803407311439514
1788862389876509400,4.829509521484375,-0.06381626427173615,-0.058811385184526443,-0.5613054037094116
1788862389886551300,4.83955126953125,0.012886237353086472,-0.25201866030693054,-0.7611889839172363
1788862389896592400,4.84959228515625,0.05024319514632225,-0.18124595284461975,-0.6769677996635437
1788862389906634200,4.85963427734375,0.03813167288899422,-0.054898668080568314,-0.43114739656448364
1788862389916675300,4.86967529296875,0.019460249692201614,0.039673641324043274,-0.34526658058166504
1788862389926716400,4.87971630859375,0.03778359666466713,-0.038958851248025894,-0.5266994833946228
1788862389936758300,4.88975830078125,0.09128277748823166,-0.1658502221107483,-0.7317445278167725
1788862389946799400,4.89979931640625,0.14002341032028198,-0.15530356764793396,-0.762048065662384
1788862389956841500,4.909841552734375,0.18733739852905273,-0.05235481634736061,-0.6673333048820496
1788862389966882600,4.919882568359375,0.27858608961105347,-0.10474319010972977,-0.6990856528282166
1788862389976924400,4.92992431640625,0.33848777413368225,-0.14952796697616577,-0.8179166913032532
1788862389986965500,4.939965576171875,0.33746618032455444,-0.06219972297549248,-0.9038733839988708
1788862389997007400,4.95000732421875,0.28546077013015747,0.041120804846286774,-0.8888044357299805
1788862390007048400,4.96004833984375,0.2182798683643341,0.033723074942827225,-0.6383746266365051
1788862390017090300,4.97009033203125,0.18277408182621002,0.1416250467300415,-0.48588016629219055
1788862390027131400,4.98013134765625,0.21389365196228027,-0.016400011256337166,-0.4881789982318878
1788862390037173200,4.99017333984375,0.3197806775569916,-0.1511484980583191,-0.4908810257911682
1788862390047214300,5.00021435546875,0.3819393813610077,-0.07831930369138718,-0.4457702934741974
1788862390057256400,5.01025634765625,0.3358331322669983,0.09683786332607269,-0.3572542667388916
1788862390067297500,5.020297607421875,0.24137400090694427,0.2180982381105423,-0.2632782459259033
1788862390077339400,5.03033935546875,0.15713955461978912,0.18837496638298035,-0.15500928461551666
1788862390087380500,5.04038037109375,0.09806131571531296,0.11180349439382553,-0.11607494205236435
1788862390097421300,5.05042138671875,0.06011047586798668,0.09205882251262665,-0.12961845099925995
1788862390107463400,5.06046337890625,0.02695625089108944,0.06216830015182495,0.01938221976161003
1788862390117504300,5.070504150390625,-0.005929261911660433,0.10036095976829529,0.2519957721233368
1788862390127546400,5.08054638671875,0.010300308465957642,0.07467024028301239,0.34452515840530396
1788862390137587200,5.090587158203125,0.03943555802106857,-0.002007757080718875,0.4380769431591034
1788862390147629300,5.10062939453125,0.07640555500984192,0.03442934527993202,0.5125432014465332
1788862390157670100,5.110670166015625,0.10488779842853546,0.24792271852493286,0.4676841199398041
1788862390167712500,5.12071240234375,0.02773735485970974,0.2600102722644806,0.4459092915058136
1788862390177753300,5.13075341796875,-0.08760494738817215,0.4472091794013977,0.4104357361793518
1788862390187795500,5.14079541015625,-0.18957898020744324,0.6077120304107666,0.20646235346794128
1788862390197836300,5.150836181640625,-0.23073440790176392,0.5706954598426819,-0.06959239393472672
1788862390207878400,5.16087841796875,-0.22473910450935364,0.4678233861923218,-0.20093657076358795
1788862390217919200,5.170919189453125,-0.16122297942638397,0.42358696460723877,-0.2386397421360016
1788862390227961300,5.18096142578125,-0.08160404860973358,0.3837181031703949,-0.2476833015680313
1788862390238002200,5.191002197265625,-0.056779392063617706,0.3910607099533081,-0.31015893816947937
1788862390248044500,5.20104443359375,-0.11621741950511932,0.5217657089233398,-0.40509849786758423
1788862390258085400,5.21108544921875,-0.2619709074497223,0.5123730301856995,-0.3838365972042084
1788862390268126500,5.22112646484375,-0.3847266435623169,0.4657098948955536,-0.2556866407394409
1788862390278168300,5.231168212890625,-0.4627133309841156,0.4194910228252411,-0.11655377596616745
1788862390288209400,5.24120947265625,-0.5022199749946594,0.4502081871032715,-0.043359991163015366
1788862390298251300,5.251251220703125,-0.48469078540802,0.6307926177978516,0.015454590320587158
1788862390308292400,5.261292236328125,-0.43926337361335754,0.799243152141571,0.028679048642516136
1788862390318334500,5.27133447265625,-0.4061344563961029,0.8834871649742126,-0.011140002869069576
1788862390328375300,5.281375244140625,-0.3770950734615326,0.8619653582572937,-0.038590267300605774
1788862390338417400,5.29141748046875,-0.33204185962677,0.806878387928009,-0.05956026539206505
1788862390348458200,5.301458251953125,-0.2756110727787018,0.7875590324401855,-0.05897410213947296
1788862390358500600,5.31150048828125,-0.2100813239812851,0.8161265254020691,-0.025539981201291084
1788862390368541400,5.32154150390625,-0.14215047657489777,0.8625299334526062,0.081301249563694
1788862390378583600,5.33158349609375,-0.06821420788764954,0.8205260634422302,0.17539125680923462
1788862390388624100,5.3416240234375,-0.0319957509636879,0.7058146595954895,0.24467632174491882
1788862390398666200,5.351666259765625,-0.0721713975071907,0.6039252877235413,0.3080337345600128
1788862390408707000,5.36170703125,-0.1362510472536087,0.4584338963031769,0.40289101004600525
1788862390418749200,5.371749267578125,-0.16898183524608612,0.31015920639038086,0.5218394994735718
1788862390428790000,5.3817900390625,-0.14286500215530396,0.22971761226654053,0.6406511068344116
1788862390438831000,5.3918310546875,-0.15670040249824524,0.24958080053329468,0.7647845149040222
1788862390448873000,5.401873046875,-0.12922430038452148,0.3241857886314392,0.8020780682563782
1788862390458914000,5.4119140625,-0.05282779410481453,0.34981900453567505,0.7613604664802551
1788862390468956200,5.4219560546875,0.0754028782248497,0.32956963777542114,0.7273939847946167
1788862390478997200,5.431997314453125,0.17726479470729828,0.3097522556781769,0.6887115836143494
1788862390489039000,5.4420390625,0.17519232630729675,0.25270363688468933,0.6374715566635132
1788862390499080200,5.452080078125,0.08304295688867569,0.24367444217205048,0.5829808712005615
1788862390509122000,5.4621220703125,-0.034559041261672974,0.3012045919895172,0.5668679475784302
1788862390519163100,5.4721630859375,-0.14870744943618774,0.3691607415676117,0.5926646590232849
1788862390529205000,5.482205078125,-0.2329173982143402,0.3692840337753296,0.647800862789154
1788862390539246000,5.49224609375,-0.29025474190711975,0.35306406021118164,0.7046122550964355
1788862390549288000,5.502287841796875,-0.3163635730743408,0.30300673842430115,0.7371746897697449
1788862390559329000,5.5123291015625,-0.33336570858955383,0.24091540277004242,0.7308949828147888
1788862390569371100,5.52237109375,-0.3672714829444885,0.222712442278862,0.7018492221832275
1788862390579412200,5.532412109375,-0.4242021441459656,0.2877311110496521,0.6936924457550049
1788862390589454000,5.5424541015625,-0.4841967821121216,0.30471569299697876,0.7025285959243774
1788862390599495200,5.5524951171875,-0.5207241773605347,0.2022487074136734,0.7125532627105713
1788862390609536300,5.562536376953125,-0.5286406874656677,0.05012708157300949,0.7529779076576233
1788862390619578000,5.572578125,-0.5211920738220215,-0.010730674490332603,0.8244057297706604
1788862390629619200,5.582619140625,-0.4888322651386261,0.004889297299087048,0.8551018834114075
1788862390639661000,5.5926611328125,-0.43786361813545227,0.007381483446806669,0.84125155210495
1788862390649702100,5.6027021484375,-0.3849277198314667,-0.018214689567685127,0.8413085341453552
1788862390659744000,5.612743896484375,-0.3559328019618988,-0.022097844630479813,0.882332980632782
1788862390669785000,5.62278515625,-0.33670586347579956,-0.00436092633754015,0.9275009632110596
1788862390679827200,5.6328271484375,-0.3277733325958252,0.0024027039762586355,0.936805784702301
1788862390689868300,5.642868408203125,-0.3317560851573944,-0.014169881120324135,0.9323194026947021
1788862390699910100,5.65291015625,-0.3413943350315094,0.011256116442382336,0.9395528435707092
1788862390709951200,5.662951171875,-0.34745171666145325,0.05108235776424408,0.9498550295829773
1788862390719993000,5.6729931640625,-0.3407208323478699,0.028856148943305016,0.9107153415679932
1788862390730034200,5.6830341796875,-0.33636337518692017,-0.04496560990810394,0.8578401207923889
1788862390740076000,5.693075927734375,-0.34194615483283997,-0.03716893866658211,0.8835079669952393
1788862390750117000,5.7031171875,-0.3443959951400757,0.06673242151737213,0.9741784334182739
1788862390760159000,5.713158935546875,-0.33522194623947144,0.17270652949810028,1.0380791425704956
1788862390770200000,5.723199951171875,-0.3232976198196411,0.2622435986995697,1.0489599704742432
1788862390780241000,5.733240966796875,-0.3253368139266968,0.3457914888858795,1.0180953741073608
1788862390790283300,5.743283203125,-0.35025733709335327,0.3977055549621582,1.0137556791305542
1788862390800324000,5.753323974609375,-0.38208451867103577,0.400003582239151,1.0201821327209473
1788862390810366200,5.7633662109375,-0.3939156234264374,0.3509500324726105,0.9926565289497375
1788862390820407000,5.773406982421875,-0.37659043073654175,0.2689100205898285,0.9683767557144165
1788862390830449200,5.78344921875,-0.34190914034843445,0.20632041990756989,0.9986342787742615
1788862390840490000,5.793489990234375,-0.30079206824302673,0.1869158297777176,1.0463101863861084
1788862390850532000,5.803531982421875,-0.26830390095710754,0.1794440597295761,1.0772590637207031
1788862390860573000,5.813572998046875,-0.2539513111114502,0.17068305611610413,1.0559241771697998
1788862390870615300,5.823615234375,-0.2727891802787781,0.14439792931079865,1.0153570175170898
1788862390880656100,5.83365625,-0.30402034521102905,0.1273246705532074,1.001432180404663
1788862390890698200,5.8436982421875,-0.3168908655643463,0.12887142598628998,1.0223196744918823
1788862390900739000,5.853739013671875,-0.3016597032546997,0.13386406004428864,1.0597095489501953
1788862390910781200,5.86378125,-0.26059189438819885,0.13539937138557434,1.0720064640045166
1788862390920822000,5.873822021484375,-0.19907768070697784,0.15345454216003418,1.044242262840271
1788862390930864000,5.883864013671875,-0.11839056015014648,0.18030452728271484,0.997922420501709
1788862390940905200,5.8939052734375,-0.03941238671541214,0.17442452907562256,0.9450549483299255
1788862390950947000,5.903947021484375,0.007907457649707794,0.13386645913124084,0.9033375978469849
1788862390960988200,5.91398828125,-0.002679938916116953,0.09137465059757233,0.8952812552452087
1788862390971029000,5.924029052734375,-0.047626640647649765,0.09829248487949371,0.9268812537193298
1788862390981071400,5.9340712890625,-0.07609876245260239,0.13319507241249084,0.954817533493042
1788862390991112200,5.9441123046875,-0.07991800457239151,0.15157727897167206,0.9663066864013672
1788862391001154300,5.954154296875,-0.0783078521490097,0.12756595015525818,0.9679471850395203
1788862391011195100,5.964195068359375,-0.06186256930232048,0.08077740669250488,0.9729962944984436
1788862391021237200,5.9742373046875,-0.037275467067956924,0.05143389478325844,0.9835282564163208
1788862391031278000,5.984278076171875,-0.015623168088495731,0.07553576678037643,0.9900370240211487
1788862391041320200,5.9943203125,-0.0030131004750728607,0.12245294451713562,0.9823282361030579
1788862391051361000,6.004361083984375,0.0057526943273842335,0.15359622240066528,0.9565866589546204
1788862391061403100,6.014403076171875,0.013007677160203457,0.15985225141048431,0.9282663464546204
1788862391071444000,6.02444384765625,0.03845897689461708,0.14754711091518402,0.9004459381103516
1788862391081486300,6.034486328125,0.08395189046859741,0.13045334815979004,0.8808397054672241
1788862391091527200,6.044527099609375,0.13545022904872894,0.10577064007520676,0.8696531057357788
1788862391101569300,6.0545693359375,0.1745787262916565,0.09237679839134216,0.8687705397605896
1788862391111610000,6.064610107421875,0.20333953201770782,0.06833937764167786,0.8534209132194519
1788862391121652200,6.07465234375,0.22379927337169647,0.04589984565973282,0.8107296228408813
1788862391131693000,6.084693115234375,0.24630990624427795,0.04797524958848953,0.7640020847320557
1788862391141734100,6.094734130859375,0.2486705332994461,0.11344773322343826,0.7129995822906494
1788862391151776000,6.10477587890625,0.2445647418498993,0.19533275067806244,0.6611449122428894
1788862391161817000,6.114817138671875,0.243393212556839,0.23908501863479614,0.6176086068153381
1788862391171859000,6.12485888671875,0.2579069137573242,0.24692083895206451,0.5930092930793762
1788862391181900000,6.134900146484375,0.279069185256958,0.2440211921930313,0.5762819647789001
1788862391191942100,6.144942138671875,0.2975062429904938,0.2567114233970642,0.5497416853904724
1788862391201983200,6.154983154296875,0.29023635387420654,0.24688515067100525,0.4997192621231079
1788862391212025000,6.165025146484375,0.25115740299224854,0.18853822350502014,0.44201308488845825
1788862391222066200,6.175066162109375,0.1897134780883789,0.09919502586126328,0.4216127395629883
1788862391232108000,6.18510791015625,0.12143322080373764,0.04941814765334129,0.43425583839416504
1788862391242149000,6.195149169921875,0.060016732662916183,0.08601877093315125,0.44714847207069397
1788862391252191000,6.20519091796875,0.001434112200513482,0.17084231972694397,0.4390988051891327
1788862391262232000,6.215232177734375,-0.05662066861987114,0.23721733689308167,0.41565579175949097
1788862391272274000,6.22527392578125,-0.10390642285346985,0.2069007158279419,0.3661779761314392
1788862391282315000,6.23531494140625,-0.129542276263237,0.11164530366659164,0.2881356477737427
1788862391292357000,6.245357177734375,-0.1428261250257492,0.04036393389105797,0.2173783928155899
1788862391302398200,6.255398193359375,-0.14390231668949127,0.04351898282766342,0.1785348504781723
1788862391312439300,6.265439208984375,-0.12951324880123138,0.05870698764920235,0.1673831343650818
1788862391322481200,6.275481201171875,-0.10618183016777039,0.05158223584294319,0.16338972747325897
1788862391332522200,6.285522216796875,-0.07775525003671646,0.05404911935329437,0.14422295987606049
1788862391342564000,6.295564208984375,-0.04492805898189545,0.09061884880065918,0.10859917849302292
1788862391352605200,6.305605224609375,-0.015112107619643211,0.14570686221122742,0.05884227901697159
1788862391362647000,6.31564697265625,0.011710984632372856,0.17768503725528717,0.005249623209238052
1788862391372688100,6.325688232421875,0.02261929214000702,0.174147829413414,-0.04856540635228157
1788862391382731300,6.335731201171875,0.028297418728470802,0.15270937979221344,-0.11041439324617386
1788862391392772000,6.345772216796875,0.028978388756513596,0.11159390211105347,-0.18837124109268188
1788862391402814200,6.355814208984375,0.01769457384943962,0.1099640503525734,-0.2600390315055847
1788862391412855000,6.36585498046875,0.0060296631418168545,0.13981463015079498,-0.2979786992073059
1788862391422897400,6.3758974609375,-0.006902380846440792,0.1760069876909256,-0.29952600598335266
1788862391432938200,6.385938232421875,-0.008356999605894089,0.19192630052566528,-0.2745005190372467
1788862391442980400,6.39598046875,-0.004534564446657896,0.20881447196006775,-0.2575167417526245
1788862391453021200,6.406021240234375,0.0041428133845329285,0.22601927816867828,-0.24942846596240997
1788862391463063300,6.416063232421875,0.020081566646695137,0.2210594117641449,-0.23357200622558594
1788862391473104100,6.426104248046875,0.030437268316745758,0.20217333734035492,-0.2249755859375
1788862391483146200,6.436146240234375,0.02755546197295189,0.22211003303527832,-0.2178678810596466
1788862391493187000,6.44618701171875,0.017652230337262154,0.26394057273864746,-0.2017727941274643
1788862391503228200,6.456228271484375,-0.007508249953389168,0.3267267346382141,-0.18139642477035522
1788862391513270000,6.46627001953125,-0.02462119050323963,0.37196797132492065,-0.1454237699508667
1788862391523311000,6.47631103515625,-0.051003530621528625,0.3865394592285156,-0.09616914391517639
1788862391533353200,6.486353271484375,-0.07736429572105408,0.3337809145450592,-0.07577785104513168
1788862391543394300,6.496394287109375,-0.07901332527399063,0.21571125090122223,-0.10601964592933655
1788862391553436200,6.506436279296875,-0.03319869935512543,0.05008580535650253,-0.1743723303079605
1788862391563477200,6.516477294921875,0.03187484294176102,-0.07914727926254272,-0.2289506196975708
1788862391573519000,6.52651904296875,0.07399113476276398,-0.07989669591188431,-0.2820996046066284
1788862391583560200,6.536560302734375,0.09468895941972733,0.04961815103888512,-0.3448178470134735
1788862391593602300,6.546602294921875,0.10241185873746872,0.24650777876377106,-0.42648419737815857
1788862391603643100,6.55664306640625,0.09991195052862167,0.4468528628349304,-0.5098861455917358
1788862391613685200,6.566685302734375,0.10356447845697403,0.5934926271438599,-0.5562453866004944
1788862391623726300,6.576726318359375,0.1186949610710144,0.595271110534668,-0.5605988502502441
1788862391633768400,6.5867685546875,0.14491137862205505,0.44413483142852783,-0.5282196402549744
1788862391643809300,6.596809326171875,0.133741557598114,0.2262704223394394,-0.4505346715450287
1788862391653851400,6.606851318359375,0.09014800190925598,0.031564582139253616,-0.3545151948928833
1788862391663892200,6.616892333984375,0.02809262089431286,-0.040882986038923264,-0.28484663367271423
1788862391673933300,6.626933349609375,-0.0017142767319455743,0.016813334077596664,-0.2582491338253021
1788862391683975200,6.63697509765625,-0.010601244866847992,0.1446583867073059,-0.22431805729866028
1788862391694016300,6.647016357421875,-0.0035294874105602503,0.2818268835544586,-0.22703607380390167
1788862391704058000,6.65705810546875,0.03554600849747658,0.381882905960083,-0.2773711681365967
1788862391714099200,6.66709912109375,0.09396138042211533,0.40001344680786133,-0.3631981909275055
1788862391724141300,6.677141357421875,0.17812685668468475,0.297337144613266,-0.5015819072723389
1788862391734182400,6.687182373046875,0.2850072383880615,0.12510065734386444,-0.6500203609466553
1788862391744224300,6.697224365234375,0.3810509443283081,0.006773750297725201,-0.7473219037055969
1788862391754265300,6.707265380859375,0.42673933506011963,-0.006878678686916828,-0.7650499939918518
1788862391764307200,6.71730712890625,0.42467913031578064,0.02070714347064495,-0.7327147126197815
1788862391774348300,6.727348388671875,0.38831284642219543,0.032159801572561264,-0.6796411275863647
1788862391784390100,6.73739013671875,0.3117501735687256,0.0285810437053442,-0.6280154585838318
1788862391794431200,6.74743115234375,0.21937443315982819,0.007065632846206427,-0.5743412971496582
1788862391804473000,6.75747314453125,0.12610626220703125,0.01751774176955223,-0.5358279943466187
1788862391814514200,6.76751416015625,0.056653425097465515,0.030899858102202415,-0.5327147841453552
1788862391824556300,6.777556396484375,0.004926847759634256,0.02377164177596569,-0.5566669702529907
1788862391834597400,6.787597412109375,-0.031067904084920883,0.0012836436508223414,-0.5938489437103271
1788862391844638500,6.797638427734375,-0.043952543288469315,-0.014957377687096596,-0.6159824728965759
1788862391854680300,6.807680419921875,-0.04468890652060509,-0.027391677722334862,-0.6204699277877808
1788862391864721400,6.817721435546875,-0.030671093612909317,-0.0255769994109869,-0.6152544021606445
1788862391874763300,6.82776318359375,-0.009109608829021454,-0.017722271382808685,-0.6282844543457031
1788862391884804400,6.837804443359375,0.019124692305922508,-0.008432633243501186,-0.6630618572235107
1788862391894846200,6.84784619140625,0.04681650921702385,-0.03536225110292435,-0.6763736605644226
1788862391904887300,6.85788720703125,0.07126779109239578,-0.08055529743432999,-0.6744878888130188
1788862391914929200,6.86792919921875,0.09339279681444168,-0.10368591547012329,-0.7192603945732117
1788862391924970200,6.87797021484375,0.1396777331829071,-0.1074385717511177,-0.8313954472541809
1788862391935012400,6.888012451171875,0.20015546679496765,-0.10779277235269547,-0.9205306768417358
1788862391945053400,6.898053466796875,0.23475578427314758,-0.15476694703102112,-0.894140899181366
1788862391955095300,6.90809521484375,0.20502372086048126,-0.20590975880622864,-0.8060483336448669
1788862391965136400,6.918136474609375,0.1641942709684372,-0.18412509560585022,-0.8132209777832031
1788862391975178200,6.92817822265625,0.1512070894241333,-0.1365852802991867,-0.9001175761222839
1788862391985219300,6.93821923828125,0.147734597325325,-0.21106483042240143,-0.9226518869400024
1788862391995261200,6.94826123046875,0.12182896584272385,-0.3775368928909302,-0.9033687114715576
1788862392005302300,6.95830224609375,0.09490600228309631,-0.5147906541824341,-0.8803574442863464
1788862392015344000,6.96834423828125,0.07448595017194748,-0.5347380042076111,-0.8827604055404663
1788862392025385200,6.97838525390625,0.04180656746029854,-0.48275360465049744,-0.8942551612854004
1788862392035426000,6.988426025390625,0.04337277263402939,-0.48376747965812683,-0.9135135412216187
1788862392045468400,6.998468505859375,0.08820842206478119,-0.5146995782852173,-0.9151212573051453
1788862392055509200,7.00850927734375,0.12923015654087067,-0.516001284122467,-0.8993558883666992
1788862392065551400,7.01855126953125,0.14826297760009766,-0.44399556517601013,-0.9091683030128479
1788862392075592200,7.02859228515625,0.15951429307460785,-0.3393711447715759,-0.9196068048477173
1788862392085634300,7.03863427734375,0.18932625651359558,-0.27311888337135315,-0.9200158715248108
1788862392095675100,7.048675048828125,0.23767061531543732,-0.22673487663269043,-0.9041098952293396
1788862392105717200,7.05871728515625,0.28408604860305786,-0.22168126702308655,-0.9393895864486694
1788862392115758000,7.068758056640625,0.2969970405101776,-0.28795403242111206,-0.9722844362258911
1788862392125800200,7.07880029296875,0.27262991666793823,-0.34914466738700867,-0.964375913143158
1788862392135841000,7.088841064453125,0.24094682931900024,-0.33127886056900024,-0.950850248336792
1788862392145883400,7.09888330078125,0.19262804090976715,-0.24268507957458496,-0.9283358454704285
1788862392155924200,7.10892431640625,0.15354694426059723,-0.20581229031085968,-0.9032619595527649
1788862392165966300,7.11896630859375,0.1505730003118515,-0.26185131072998047,-0.9290221929550171
1788862392176007200,7.129007080078125,0.16952139139175415,-0.3483068346977234,-0.963783860206604
1788862392186049300,7.13904931640625,0.18039986491203308,-0.40838348865509033,-0.9772911667823792
1788862392196090000,7.149090087890625,0.17282290756702423,-0.38001176714897156,-0.9845871329307556
1788862392206131200,7.159131103515625,0.17224766314029694,-0.3115469813346863,-1.0107895135879517
1788862392216173000,7.169173095703125,0.17678169906139374,-0.29001370072364807,-1.0266669988632202
1788862392226214100,7.179214111328125,0.179286926984787,-0.3294932246208191,-1.0618478059768677
1788862392236256300,7.18925634765625,0.159483402967453,-0.385761022567749,-1.0971978902816772
1788862392246297300,7.19929736328125,0.13387924432754517,-0.4179533123970032,-1.1119107007980347
1788862392256339200,7.209339111328125,0.11964171379804611,-0.42787811160087585,-1.1160016059875488
1788862392266380300,7.21938037109375,0.11302908509969711,-0.4922451078891754,-1.1232049465179443
1788862392276422100,7.229422119140625,0.1232614815235138,-0.5744693875312805,-1.112829327583313
1788862392286463200,7.239463134765625,0.15507134795188904,-0.6182160973548889,-1.1162523031234741
1788862392296505000,7.249505126953125,0.2001357525587082,-0.5572875142097473,-1.1089421510696411
1788862392306546200,7.259546142578125,0.24081501364707947,-0.381736695766449,-1.0771807432174683
1788862392316588300,7.26958837890625,0.2799301743507385,-0.23850364983081818,-1.083536148071289
1788862392326629000,7.279629150390625,0.32496318221092224,-0.15763889253139496,-1.0897825956344604
1788862392336671200,7.289671142578125,0.36802780628204346,-0.12722080945968628,-1.053451418876648
1788862392346712300,7.29971240234375,0.40147125720977783,-0.1302432268857956,-1.0447783470153809
1788862392356754200,7.309754150390625,0.4095502197742462,-0.15163293480873108,-1.0690021514892578
1788862392366795300,7.319795166015625,0.4061429798603058,-0.1354542374610901,-1.059634804725647
1788862392376837400,7.32983740234375,0.38819167017936707,-0.048952363431453705,-1.0857685804367065
1788862392386877400,7.33987744140625,0.3792003095149994,-0.010403105989098549,-1.1456966400146484
1788862392396918500,7.34991845703125,0.37558212876319885,-0.037268009036779404,-1.1549303531646729
1788862392406960400,7.35996044921875,0.36722806096076965,-0.10660234093666077,-1.1230156421661377
1788862392417001500,7.37000146484375,0.33512845635414124,-0.12394963949918747,-1.0750523805618286
1788862392427043600,7.380043701171875,0.3130103647708893,-0.08140990138053894,-1.0277761220932007
1788862392437084700,7.390084716796875,0.32524627447128296,-0.08487920463085175,-0.9624168872833252
1788862392447126500,7.40012646484375,0.342394083738327,-0.09358561038970947,-0.894519031047821
1788862392457167600,7.410167724609375,0.33483898639678955,-0.06899797916412354,-0.7956715822219849
1788862392467209500,7.42020947265625,0.31147560477256775,-0.01974361017346382,-0.7171519994735718
1788862392477250600,7.43025048828125,0.2918664813041687,0.06149212270975113,-0.6836584806442261
1788862392487292400,7.44029248046875,0.28391507267951965,0.09831725060939789,-0.6231157779693604
1788862392497333500,7.45033349609375,0.25904592871665955,0.05468028783798218,-0.5670447945594788
1788862392507375400,7.460375244140625,0.22644725441932678,0.042562905699014664,-0.5111961364746094
1788862392517416400,7.47041650390625,0.19934585690498352,0.09125827252864838,-0.5088608264923096
1788862392527458600,7.48045849609375,0.18392083048820496,0.1550694704055786,-0.44522619247436523
1788862392537499600,7.490499755859375,0.19499266147613525,0.2125905603170395,-0.3820807933807373
1788862392547541500,7.50054150390625,0.18092237412929535,0.2666229009628296,-0.3768562078475952
1788862392557582600,7.51058251953125,0.14340563118457794,0.23110565543174744,-0.3399045765399933
1788862392567624400,7.52062451171875,0.06035948172211647,0.17146442830562592,-0.24227122962474823
1788862392577665500,7.53066552734375,-0.0316399522125721,0.22699213027954102,-0.11452711373567581
1788862392587706600,7.54070654296875,-0.10222090780735016,0.2574554979801178,-0.0726744681596756
1788862392597748500,7.55074853515625,-0.12801629304885864,0.129058375954628,-0.06637556105852127
1788862392607789600,7.56078955078125,-0.15638427436351776,0.036496225744485855,-0.007179882377386093
1788862392617831400,7.57083154296875,-0.24873392283916473,0.0774090364575386,0.0997721329331398
1788862392627872500,7.58087255859375,-0.3063253164291382,0.08423232287168503,0.20150169730186462
1788862392637914600,7.59091455078125,-0.32787027955055237,0.08094199001789093,0.274771124124527
1788862392647955700,7.600955810546875,-0.32359349727630615,0.141418918967247,0.3396022915840149
1788862392657997600,7.61099755859375,-0.3339841067790985,0.19889526069164276,0.42630523443222046
1788862392668038700,7.62103857421875,-0.35156282782554626,0.20890767872333527,0.48854678869247437
1788862392678080500,7.63108056640625,-0.38176998496055603,0.2131839096546173,0.5684525370597839
1788862392688121600,7.64112158203125,-0.42421066761016846,0.23355069756507874,0.6719088554382324
1788862392698163500,7.65116357421875,-0.4668028652667999,0.2553904950618744,0.7741870284080505
1788862392708204500,7.66120458984375,-0.46876055002212524,0.2887372672557831,0.8475339412689209
1788862392718246700,7.67124658203125,-0.4139215350151062,0.3075554370880127,0.8786324858665466
1788862392728287700,7.681287841796875,-0.34519946575164795,0.2878360450267792,0.9170706868171692
1788862392738329600,7.69132958984375,-0.2993827164173126,0.23552995920181274,0.9779947996139526
1788862392748370700,7.70137060546875,-0.28499579429626465,0.2208508849143982,1.029593825340271
1788862392758411500,7.71141162109375,-0.2854386568069458,0.27178943157196045,1.0643984079360962
1788862392768453600,7.72145361328125,-0.2826727032661438,0.32991665601730347,1.0664886236190796
1788862392778494700,7.73149462890625,-0.28643521666526794,0.3366882801055908,1.0697989463806152
1788862392788536600,7.74153662109375,-0.2779479920864105,0.3040352463722229,1.0847526788711548
1788862392798577700,7.75157763671875,-0.2821374237537384,0.300814688205719,1.0768417119979858
1788862392808619500,7.76161962890625,-0.2843278646469116,0.3111877143383026,1.0895556211471558
1788862392818660600,7.77166064453125,-0.2697529196739197,0.2842322587966919,1.0878655910491943
1788862392828702700,7.78170263671875,-0.2562094032764435,0.29264703392982483,1.0823078155517578
1788862392838743800,7.791743896484375,-0.2475578635931015,0.3306106626987457,1.1052707433700562
1788862392848785700,7.80178564453125,-0.2514314353466034,0.367761492729187,1.136826515197754
1788862392858826800,7.81182666015625,-0.24804016947746277,0.3704262673854828,1.1606329679489136
1788862392868868600,7.82186865234375,-0.23587217926979065,0.3570880889892578,1.1841084957122803
1788862392878909700,7.83190966796875,-0.22555376589298248,0.37363192439079285,1.230146050453186
1788862392888951600,7.84195166015625,-0.21897628903388977,0.39397045969963074,1.2992899417877197
1788862392898992600,7.85199267578125,-0.22242800891399384,0.4009537994861603,1.357991337776184
1788862392909034500,7.862034423828125,-0.2278568595647812,0.39817294478416443,1.397385597229004
1788862392919075600,7.87207568359375,-0.23265188932418823,0.4100431799888611,1.4261224269866943
1788862392929116400,7.882116455078125,-0.23299969732761383,0.43418872356414795,1.4684553146362305
1788862392939158800,7.89215869140625,-0.2239936888217926,0.46359163522720337,1.521398901939392
1788862392949199600,7.90219970703125,-0.1981000304222107,0.4732344150543213,1.5676279067993164
1788862392959241700,7.91224169921875,-0.17108333110809326,0.45175841450691223,1.5757156610488892
1788862392969282600,7.922282470703125,-0.13691844046115875,0.4013759195804596,1.535881757736206
1788862392979324700,7.93232470703125,-0.09196853637695312,0.34559229016304016,1.5043309926986694
1788862392989365500,7.942365478515625,-0.05505126714706421,0.2881835997104645,1.5108554363250732
1788862392999407600,7.95240771484375,-0.036917537450790405,0.2241840958595276,1.5282416343688965
1788862393009448400,7.962448486328125,-0.02917972393333912,0.15598906576633453,1.528056025505066
1788862393019490600,7.972490478515625,-0.026194052770733833,0.11389647424221039,1.4846552610397339
1788862393029531400,7.982531494140625,-0.01230486948043108,0.096524678170681,1.4565831422805786
1788862393039573800,7.99257373046875,0.027355192229151726,0.1016126424074173,1.4613372087478638
1788862393049614600,8.002614501953126,0.08116436004638672,0.08390209078788757,1.4801859855651855
1788862393059656700,8.01265673828125,0.13981755077838898,0.059109658002853394,1.4813580513000488
1788862393069697500,8.022697509765624,0.18994756042957306,0.025060346350073814,1.4675732851028442
1788862393079739600,8.03273974609375,0.23255175352096558,0.0043593281880021095,1.464768409729004
1788862393089780500,8.042780517578125,0.256241112947464,-0.003719637170433998,1.4783662557601929
1788862393099821600,8.052821533203126,0.25731515884399414,-0.018306568264961243,1.4760980606079102
1788862393109863400,8.062863525390625,0.23632465302944183,-0.03641952574253082,1.4696757793426514
1788862393119904500,8.072904541015625,0.19700653851032257,-0.06569591909646988,1.4599595069885254
1788862393129946400,8.0829462890625,0.15254613757133484,-0.0788159891963005,1.4545727968215942
1788862393139987500,8.092987548828125,0.11194650828838348,-0.04682129994034767,1.4616259336471558
1788862393150029600,8.103029541015625,0.06680645793676376,0.004055994097143412,1.4606276750564575
1788862393160070700,8.113070556640626,0.035222169011831284,0.004858404863625765,1.4146778583526611
1788862393170112500,8.123112548828125,0.013370666652917862,-0.07431897521018982,1.3241809606552124
1788862393180153600,8.133153564453124,-0.010513893328607082,-0.16062669456005096,1.2391762733459473
1788862393190195500,8.143195556640626,-0.042026810348033905,-0.18440818786621094,1.2080104351043701
1788862393200236500,8.153236572265625,-0.044977329671382904,-0.18076924979686737,1.2220723628997803
1788862393210278400,8.1632783203125,-0.012299010530114174,-0.20685197412967682,1.2502095699310303
1788862393220319500,8.173319580078125,0.019475962966680527,-0.22689040005207062,1.2507821321487427
1788862393230361600,8.183361572265625,0.025561019778251648,-0.18439434468746185,1.2313196659088135
1788862393240402700,8.193402587890626,0.012946425005793571,-0.07812516391277313,1.188089370727539
1788862393250444500,8.203444580078125,0.0018346516881138086,0.01570359617471695,1.1328104734420776
1788862393260485600,8.213485595703125,0.00968778133392334,0.03552017733454704,1.0590687990188599
1788862393270526700,8.223526611328126,0.023754332214593887,-0.017075123265385628,0.951748788356781
1788862393280568600,8.233568603515625,0.012101403437554836,-0.09770578891038895,0.8278641104698181
1788862393290609700,8.243609619140624,-0.027337880805134773,-0.19097900390625,0.6985583305358887
1788862393300651500,8.253651611328126,-0.06347963958978653,-0.2375880628824234,0.6024057269096375
1788862393310692600,8.263692626953125,-0.08773491531610489,-0.18566839396953583,0.5596856474876404
1788862393320734500,8.273734375,-0.09408734738826752,-0.07609077543020248,0.5523334741592407
1788862393330775600,8.283775634765625,-0.0852656289935112,0.0338040366768837,0.5407644510269165
1788862393340817700,8.293817626953125,-0.06457339972257614,0.08610079437494278,0.5083029270172119
1788862393350858800,8.303858642578126,-0.04201269894838333,0.045337919145822525,0.4660148322582245
1788862393360900600,8.313900634765625,-0.041915759444236755,-0.009168464690446854,0.4081645905971527
1788862393370941700,8.323941650390625,-0.06391240656375885,-0.00890667550265789,0.328085720539093
1788862393380983600,8.333983642578126,-0.09591002017259598,0.013865748420357704,0.2336428463459015
1788862393391024600,8.344024658203125,-0.1318640261888504,0.011425759643316269,0.15129151940345764
1788862393401066500,8.35406640625,-0.1724010705947876,0.022591061890125275,0.09397176653146744
1788862393411107600,8.364107666015625,-0.2039230316877365,0.054610781371593475,0.0429791584610939
1788862393421149400,8.3741494140625,-0.21548141539096832,0.05098728463053703,0.017548900097608566
1788862393431190500,8.3841904296875,-0.17349135875701904,-0.01757712848484516,-0.005565473809838295
1788862393441231600,8.394231689453125,-0.10562922060489655,-0.11879535764455795,-0.04097539559006691
1788862393451273500,8.4042734375,-0.07622792571783066,-0.1691322922706604,-0.09662853926420212
1788862393461314600,8.414314453125,-0.0706547275185585,-0.12491770088672638,-0.15527907013893127
1788862393471356400,8.4243564453125,-0.05578283965587616,-0.04778669774532318,-0.21542389690876007
1788862393481397500,8.4343974609375,-0.05878714844584465,0.043649476021528244,-0.2553561329841614
1788862393491439600,8.444439697265626,-0.06283701956272125,0.12446975708007812,-0.2908739149570465
1788862393501480700,8.454480712890625,-0.05901458486914635,0.18279911577701569,-0.32766520977020264
1788862393511522600,8.4645224609375,-0.043767187744379044,0.21270081400871277,-0.37614381313323975
1788862393521563600,8.474563720703125,-0.03328391909599304,0.20173871517181396,-0.4260985851287842
1788862393531605500,8.48460546875,-0.02762523666024208,0.14958442747592926,-0.474042147397995
1788862393541646600,8.494646484375,-0.024450214579701424,0.058094460517168045,-0.5203374624252319
1788862393551688400,8.5046884765625,-0.022456040605902672,-0.04454589635133743,-0.5490508675575256
1788862393561729500,8.5147294921875,-0.023621439933776855,-0.1237214058637619,-0.5479243397712708
1788862393571771400,8.524771484375,-0.013717143796384335,-0.13839755952358246,-0.5339184999465942
1788862393581812500,8.5348125,-0.015249527059495449,-0.10503267496824265,-0.538489818572998
1788862393591854600,8.5448544921875,-0.016599217429757118,-0.004717523697763681,-0.5661052465438843
1788862393601895700,8.554895751953126,-0.016698019579052925,0.16067463159561157,-0.6010221838951111
1788862393611936500,8.5649365234375,-0.024465661495923996,0.32499194145202637,-0.6146392226219177
1788862393621978600,8.574978515625,-0.049312688410282135,0.4376172721385956,-0.6266269087791443
1788862393632019500,8.58501953125,-0.06582002341747284,0.48583993315696716,-0.6425784230232239
1788862393642061600,8.5950615234375,-0.05973683297634125,0.4546023905277252,-0.6580135822296143
1788862393652102400,8.605102294921876,-0.0461650975048542,0.3796413242816925,-0.6728167533874512
1788862393662144500,8.61514453125,-0.02671017311513424,0.2950758635997772,-0.691215455532074
1788862393672185300,8.625185302734375,0.0067694890312850475,0.23687033355236053,-0.7229403853416443
1788862393682227700,8.635227783203124,0.03988216817378998,0.23652012646198273,-0.7627993822097778
1788862393692268500,8.6452685546875,0.06286471337080002,0.28368470072746277,-0.7911162376403809
1788862393702310700,8.655310546875,0.07078549265861511,0.32947590947151184,-0.7979499101638794
1788862393712351500,8.6653515625,0.058227621018886566,0.3297843039035797,-0.7907153964042664
1788862393722393600,8.6753935546875,0.046309974044561386,0.3122713565826416,-0.7773019075393677
1788862393732434400,8.685434326171874,0.034693531692028046,0.2830583453178406,-0.768988847732544
1788862393742476500,8.6954765625,0.023576432839035988,0.23705196380615234,-0.7669267654418945
1788862393752517400,8.705517333984375,0.01137010008096695,0.19646458327770233,-0.7600805759429932
1788862393762558500,8.715558349609376,0.003921770956367254,0.14374518394470215,-0.7832481861114502
1788862393772600300,8.725600341796875,0.007473096251487732,0.05464620143175125,-0.8409985899925232
1788862393782641400,8.735641357421875,0.028562935069203377,-0.05251487344503403,-0.8640889525413513
1788862393792683500,8.74568359375,0.05534448102116585,-0.10431575030088425,-0.811659038066864
1788862393802724600,8.755724609375,0.04742876812815666,-0.0906316339969635,-0.7578352689743042
1788862393812766500,8.765766357421874,0.011701131239533424,-0.05242938548326492,-0.7814452052116394
1788862393822807600,8.7758076171875,0.001070857048034668,-0.09411212056875229,-0.8629904389381409
1788862393832849400,8.785849365234375,0.035770248621702194,-0.20910847187042236,-0.9464868903160095
1788862393842890500,8.795890380859374,0.08967502415180206,-0.3237530291080475,-1.0125380754470825
1788862393852932400,8.805932373046875,0.12310648709535599,-0.368502140045166,-1.0425468683242798
1788862393862973400,8.815973388671875,0.13933445513248444,-0.3551386594772339,-1.0323381423950195
1788862393873015300,8.826015380859374,0.13224831223487854,-0.3483414649963379,-0.9955937266349792
1788862393883056400,8.836056396484375,0.1146584078669548,-0.3832368552684784,-0.9671083092689514
1788862393893098500,8.846098388671875,0.10541004687547684,-0.407546728849411,-0.9881073236465454
1788862393903139600,8.8561396484375,0.11058349907398224,-0.43039852380752563,-1.0531699657440186
1788862393913181400,8.866181396484375,0.12004411220550537,-0.4651290774345398,-1.119953989982605
1788862393923222500,8.876222412109374,0.120249442756176,-0.495968222618103,-1.1547846794128418
1788862393933263600,8.886263671875,0.1311769336462021,-0.5172484517097473,-1.161570429801941
1788862393943305500,8.896305419921875,0.14204183220863342,-0.5566437840461731,-1.1981620788574219
1788862393953346600,8.9063466796875,0.15621836483478546,-0.6647542715072632,-1.2489866018295288
1788862393963388400,8.916388427734375,0.1792328655719757,-0.806790292263031,-1.2567811012268066
1788862393973429500,8.926429443359375,0.1826864629983902,-0.8611190319061279,-1.256742000579834
1788862393983471400,8.936471435546874,0.14212997257709503,-0.8584566712379456,-1.1918913125991821
1788862393993512400,8.946512451171875,0.09990289807319641,-0.8221540451049805,-1.1565741300582886
1788862394003554600,8.956554443359375,0.09189929813146591,-0.8346748948097229,-1.1865551471710205
1788862394013595600,8.966595703125,0.1310136765241623,-0.8726446628570557,-1.2046092748641968
1788862394023637500,8.976637451171875,0.16006290912628174,-0.869640588760376,-1.2204015254974365
1788862394033678600,8.9866787109375,0.1916155070066452,-0.83504718542099,-1.271756649017334
1788862394043720400,8.996720458984376,0.2616518437862396,-0.7835275530815125,-1.3092230558395386
1788862394053761500,9.006761474609375,0.35428911447525024,-0.777286946773529,-1.3161555528640747
1788862394063803400,9.016803466796874,0.4135495126247406,-0.8606125116348267,-1.3232520818710327
1788862394073844500,9.026844482421875,0.41927823424339294,-0.8327526450157166,-1.3533239364624023
1788862394083885300,9.03688525390625,0.3785291910171509,-0.7694056034088135,-1.3554900884628296
1788862394093927400,9.046927490234374,0.3228997588157654,-0.6396713256835938,-1.3143019676208496
1788862394103968300,9.05696826171875,0.30586138367652893,-0.5456444025039673,-1.2976601123809814
1788862394114010600,9.0670107421875,0.3113243281841278,-0.6297782063484192,-1.3627903461456299
1788862394124051500,9.077051513671876,0.31882166862487793,-0.7316523790359497,-1.4155782461166382
1788862394134093600,9.087093505859375,0.31845521926879883,-0.6816134452819824,-1.3837294578552246
1788862394144134400,9.097134521484374,0.3286764323711395,-0.5728430151939392,-1.3723689317703247
1788862394154176500,9.107176513671876,0.3220677971839905,-0.4897997975349426,-1.3517942428588867
1788862394164217600,9.117217529296875,0.2991776466369629,-0.38111966848373413,-1.2861286401748657
1788862394174259500,9.127259521484374,0.3061372935771942,-0.252131849527359,-1.287312626838684
1788862394184300500,9.137300537109375,0.3076885938644409,-0.23867808282375336,-1.3182921409606934
1788862394194342700,9.1473427734375,0.29749932885169983,-0.2786382734775543,-1.3233311176300049
1788862394204383500,9.157383544921874,0.2720389664173126,-0.27021098136901855,-1.342586874961853
1788862394214425600,9.167425537109375,0.23224176466464996,-0.20259997248649597,-1.3066788911819458
1788862394224466700,9.177466796875,0.187541663646698,-0.10401401668787003,-1.2587833404541016
1788862394234507500,9.187507568359376,0.14538303017616272,-0.07260575890541077,-1.173895001411438
1788862394244549600,9.197549560546875,0.11467544734477997,-0.11638759821653366,-1.112235426902771
1788862394254590500,9.207590576171874,0.08129086345434189,-0.10669156163930893,-1.0411577224731445
1788862394264632600,9.217632568359376,0.07107684016227722,-0.00023808660625945777,-1.0203187465667725
1788862394274673400,9.22767333984375,0.03484213724732399,0.06059357151389122,-0.9938336610794067
1788862394284715500,9.237715576171874,0.03961345553398132,-0.07506944984197617,-0.9044209718704224
1788862394294756400,9.24775634765625,0.04749614745378494,-0.08602090179920197,-0.852904736995697
1788862394304798700,9.257798828125,0.0624210350215435,0.03002314642071724,-0.8357505202293396
1788862394314839600,9.267839599609376,0.06637582927942276,0.17962782084941864,-0.8262683749198914
1788862394324881700,9.277881591796875,0.07447077333927155,0.3403943181037903,-0.7728429436683655
1788862394334922500,9.287922607421875,0.06769701838493347,0.41232818365097046,-0.649966299533844
1788862394344964600,9.297964599609376,0.024923725053668022,0.34575021266937256,-0.57525634765625
1788862394355005400,9.30800537109375,-0.008958874270319939,0.27333301305770874,-0.4668335020542145
1788862394365047600,9.318047607421875,-0.05552850663661957,0.29342523217201233,-0.3227170705795288
1788862394375088400,9.32808837890625,-0.07316076010465622,0.349565714597702,-0.23801256716251373
1788862394385130500,9.338130615234375,-0.09439041465520859,0.4030529260635376,-0.15846394002437592
1788862394395171300,9.34817138671875,-0.08106422424316406,0.5241020917892456,-0.0720270574092865
1788862394405212400,9.35821240234375,-0.042876891791820526,0.5472875833511353,0.028201811015605927
1788862394415254300,9.368254150390625,-0.03975620120763779,0.474417120218277,0.10596398264169693
1788862394425295400,9.37829541015625,-0.0778452605009079,0.4650241434574127,0.22100774943828583
1788862394435337500,9.38833740234375,-0.12988795340061188,0.5064504146575928,0.34620827436447144
1788862394445378600,9.398378662109375,-0.17112646996974945,0.501566469669342,0.44798657298088074
1788862394455420400,9.40842041015625,-0.18655656278133392,0.46452799439430237,0.5426755547523499
1788862394465461500,9.41846142578125,-0.21364916861057281,0.4362870454788208,0.6389538645744324
1788862394475503400,9.42850341796875,-0.2636481523513794,0.4636739194393158,0.7270440459251404
1788862394485544400,9.43854443359375,-0.31772923469543457,0.44956716895103455,0.806564450263977
1788862394495586300,9.44858642578125,-0.3464500904083252,0.45707273483276367,0.9264567494392395
1788862394505627400,9.45862744140625,-0.3529828190803528,0.49483582377433777,1.0699326992034912
1788862394515669200,9.468669189453125,-0.34666767716407776,0.561881959438324,1.1877392530441284
1788862394525710300,9.47871044921875,-0.30083173513412476,0.5989800691604614,1.3026466369628906
1788862394535752400,9.48875244140625,-0.2185688316822052,0.5896971225738525,1.3547981977462769
1788862394545793500,9.49879345703125,-0.18004539608955383,0.5820932388305664,1.383908748626709
1788862394555834600,9.508834716796875,-0.2668095827102661,0.579206645488739,1.3981760740280151
1788862394565876500,9.51887646484375,-0.3473065495491028,0.5299149751663208,1.3818151950836182
1788862394575917600,9.52891748046875,-0.3443797528743744,0.46554797887802124,1.3711780309677124
1788862394585959400,9.53895947265625,-0.31034669280052185,0.4291369915008545,1.4051927328109741
1788862394596000500,9.54900048828125,-0.28141942620277405,0.4243435561656952,1.5047403573989868
1788862394606042400,9.55904248046875,-0.2409263253211975,0.44832825660705566,1.6308913230895996
1788862394616083500,9.56908349609375,-0.1922338902950287,0.48527827858924866,1.7038475275039673
1788862394626125600,9.57912548828125,-0.14737267792224884,0.5240054130554199,1.719464898109436
1788862394636166700,9.589166748046875,-0.09546420723199844,0.5514596700668335,1.7333705425262451
1788862394646208500,9.59920849609375,-0.04129311069846153,0.586896538734436,1.7793694734573364
1788862394656249600,9.60924951171875,-0.010704309679567814,0.5975641012191772,1.8331706523895264
1788862394666291500,9.61929150390625,-0.002817091764882207,0.5793920159339905,1.8726024627685547
1788862394676332500,9.62933251953125,-0.0034285534638911486,0.5186356902122498,1.9011508226394653
1788862394686374400,9.63937451171875,-0.0020985708106309175,0.47050440311431885,1.9433259963989258
1788862394696415500,9.64941552734375,-0.003754258155822754,0.464181512594223,1.994289517402649
1788862394706456300,9.659456298828125,-0.01986691541969776,0.4412255883216858,2.0481536388397217
1788862394716498400,9.66949853515625,-0.04517706483602524,0.3699793815612793,2.107468605041504
1788862394726539300,9.679539306640624,-0.05753839388489723,0.28863605856895447,2.1463868618011475
1788862394736581600,9.68958154296875,-0.08243469148874283,0.2547161877155304,2.133275270462036
1788862394746622500,9.69962255859375,-0.10063499957323074,0.23306068778038025,2.062364339828491
1788862394756664600,9.70966455078125,-0.10190772265195847,0.17507274448871613,1.947125792503357
1788862394766705400,9.719705322265625,-0.10565318912267685,0.12921364605426788,1.8488715887069702
1788862394776747500,9.72974755859375,-0.11689253151416779,0.07435252517461777,1.8132734298706055
1788862394786788400,9.739788330078126,-0.14601552486419678,0.041018806397914886,1.8006747961044312
1788862394796830500,9.74983056640625,-0.16461904346942902,0.006351372692734003,1.7763090133666992
1788862394806871300,9.759871337890624,-0.15477199852466583,0.014828480780124664,1.7581965923309326
1788862394816913400,9.769913330078126,-0.1320381909608841,0.04915529489517212,1.7490307092666626
1788862394826954200,9.779954345703125,-0.10259295254945755,0.08767206221818924,1.7471617460250854
1788862394836996600,9.78999658203125,-0.08014410734176636,0.10405129939317703,1.7550498247146606
1788862394847037400,9.800037353515625,-0.06309881061315536,0.043886762112379074,1.7336221933364868
1788862394857078500,9.81007861328125,-0.060687314718961716,-0.08571623265743256,1.6751631498336792
1788862394867120400,9.820120361328126,-0.06845974922180176,-0.24265365302562714,1.6135597229003906
1788862394877161500,9.830161376953125,-0.09905946999788284,-0.3448082506656647,1.5824748277664185
1788862394887203300,9.840203369140625,-0.15717364847660065,-0.3418574631214142,1.5857435464859009
1788862394897244400,9.850244384765626,-0.22821159660816193,-0.2619969844818115,1.5999555587768555
1788862394907286500,9.86028662109375,-0.2917977571487427,-0.19476042687892914,1.5827746391296387
1788862394917327400,9.870327392578124,-0.3279123604297638,-0.1879184991121292,1.5381227731704712
1788862394927369500,9.880369384765626,-0.32843273878097534,-0.2350737601518631,1.470739722251892
1788862394937410300,9.890410400390625,-0.29975077509880066,-0.3349681496620178,1.3763149976730347
1788862394947452700,9.90045263671875,-0.2731263339519501,-0.42429667711257935,1.271989107131958
1788862394957493500,9.910493408203125,-0.25519341230392456,-0.4096042811870575,1.1726830005645752
1788862394967535600,9.92053564453125,-0.2526730000972748,-0.29065126180648804,1.0542967319488525
1788862394977576400,9.930576416015626,-0.25776177644729614,-0.1895534247159958,0.9283276200294495
1788862394987618600,9.94061865234375,-0.25430765748023987,-0.16660815477371216,0.8212355375289917
1788862394997659400,9.950659423828125,-0.21323131024837494,-0.1188206598162651,0.7362649440765381
1788862395007700500,9.960700439453126,-0.17176936566829681,0.05417189374566078,0.6438735127449036
1788862395017742300,9.970742431640625,-0.12052508443593979,0.3143390119075775,0.5292859673500061
1788862395027783400,9.980783447265624,-0.051711130887269974,0.5469544529914856,0.41175878047943115
1788862395037825300,9.9908251953125,0.013065734878182411,0.6529452800750732,0.328348308801651
1788862395047866400,10.000866455078125,0.028370654210448265,0.6235266923904419,0.2657128870487213
1788862395057908500,10.010908447265624,-0.012286227196455002,0.4615606963634491,0.22461234033107758
1788862395067949600,10.020949462890625,-0.07922451198101044,0.2267220914363861,0.177491694688797
1788862395077991400,10.030991455078125,-0.10894645750522614,0.02888358011841774,0.11078111082315445
1788862395088032500,10.041032470703126,-0.10177483409643173,-0.06621097773313522,0.030830616131424904
1788862395098074400,10.051074462890625,-0.10447980463504791,-0.047272708266973495,-0.06261491030454636
1788862395108115500,10.061115478515624,-0.11045993119478226,0.06819956004619598,-0.16353833675384521
1788862395118157300,10.0711572265625,-0.09677101671695709,0.189686581492424,-0.24675332009792328
1788862395128198400,10.081198486328125,-0.08437906205654144,0.28696972131729126,-0.3076710104942322
1788862395138240500,10.091240478515624,-0.07490167021751404,0.37529027462005615,-0.37090855836868286
1788862395148281600,10.101281494140625,-0.0459270104765892,0.45566898584365845,-0.44281789660453796
1788862395158322700,10.11132275390625,-0.033129192888736725,0.48771533370018005,-0.5120387673377991
1788862395168364500,10.121364501953124,-0.026934944093227386,0.4887326657772064,-0.5696762800216675
1788862395178405600,10.131405517578125,-0.0001179780374513939,0.49054840207099915,-0.6200347542762756
1788862395188447500,10.141447509765625,0.035352133214473724,0.46231091022491455,-0.6385538578033447
1788862395198488600,10.151488525390626,0.08575645089149475,0.3967433571815491,-0.633372962474823
1788862395208530400,10.161530517578125,0.11992879956960678,0.31265830993652344,-0.6153507828712463
1788862395218571500,10.171571533203124,0.1217365562915802,0.23659655451774597,-0.6089856028556824
1788862395228613400,10.18161328125,0.11136593669652939,0.16926918923854828,-0.6214113235473633
1788862395238654500,10.191654541015625,0.12957316637039185,0.08235159516334534,-0.6485140919685364
1788862395248696600,10.201696533203124,0.17218002676963806,0.0029726203065365553,-0.6725863814353943
1788862395258737700,10.211737548828125,0.22019921243190765,-0.0014820491196587682,-0.6850540041923523
1788862395268779500,10.221779541015625,0.25938841700553894,0.10263236612081528,-0.7041965126991272
1788862395278820600,10.231820556640624,0.286540687084198,0.255604088306427,-0.7368255853652954
1788862395288861400,10.241861328125,0.311351478099823,0.4029085636138916,-0.7698221206665039
1788862395298903600,10.251903564453125,0.3230893611907959,0.49590855836868286,-0.791637659072876
1788862395308944400,10.2619443359375,0.3287038505077362,0.48164305090904236,-0.8212205767631531
1788862395318986500,10.271986572265625,0.34254881739616394,0.331854909658432,-0.865149736404419
1788862395329027300,10.28202734375,0.3341611921787262,0.1269182711839676,-0.9461324214935303
1788862395339069400,10.2920693359375,0.30362778902053833,-0.0012120045721530914,-1.0384224653244019
1788862395349110300,10.3021103515625,0.25240880250930786,0.00896819494664669,-1.110954999923706
1788862395359152600,10.312152587890624,0.21943914890289307,0.1158248707652092,-1.1350536346435547
1788862395369193500,10.322193359375,0.20638513565063477,0.23551584780216217,-1.096622347831726
1788862395379235600,10.332235595703125,0.19116702675819397,0.34026038646698,-1.041558861732483
1788862395389276000,10.34227587890625,0.17958201467990875,0.3845921456813812,-1.0270640850067139
1788862395399318000,10.352318115234375,0.1774035394191742,0.3183761239051819,-1.04964017868042
1788862395409359000,10.362359130859375,0.20198053121566772,0.14363093674182892,-1.10797119140625
1788862395419401200,10.372401123046876,0.24337990581989288,-0.023271501064300537,-1.2146430015563965
1788862395429442000,10.382442138671875,0.28352704644203186,-0.08611757308244705,-1.3350982666015625
1788862395439483100,10.392483154296874,0.30925264954566956,-0.05642838776111603,-1.3713090419769287
1788862395449525000,10.40252490234375,0.32393839955329895,-0.038423556834459305,-1.283585786819458
1788862395459566000,10.412566162109375,0.2813083827495575,-0.031570710241794586,-1.1959627866744995
1788862395469608200,10.422608154296874,0.2012239247560501,0.03856363892555237,-1.1730375289916992
1788862395479649000,10.43264892578125,0.1213674396276474,0.14623577892780304,-1.1450740098953247
1788862395489691100,10.442691162109375,0.06784722208976746,0.1021343544125557,-1.0656609535217285
1788862395499732000,10.45273193359375,0.03664323315024376,-0.0767965093255043,-0.9834726452827454
1788862395509774000,10.462774169921875,0.01660693995654583,-0.33508238196372986,-1.0312870740890503
1788862395519815000,10.47281494140625,0.021871211007237434,-0.6476048827171326,-1.1992418766021729
1788862395529857300,10.482857177734376,0.052314601838588715,-0.877625048160553,-1.3745945692062378
1788862395539898000,10.492898193359375,0.0724816545844078,-0.8921054005622864,-1.4912573099136353
1788862395549940200,10.502940185546874,0.10427207499742508,-0.8222339153289795,-1.561069369316101
1788862395559981000,10.51298095703125,0.13685691356658936,-0.7201789617538452,-1.5860003232955933
1788862395570023200,10.523023193359375,0.15037299692630768,-0.632330596446991,-1.6132830381393433
1788862395580064000,10.53306396484375,0.13267308473587036,-0.5993925929069519,-1.6291166543960571
1788862395590105000,10.54310498046875,0.1232665404677391,-0.5413857698440552,-1.6464332342147827
1788862395600147000,10.55314697265625,0.1394239366054535,-0.3930237293243408,-1.67001211643219
1788862395610188000,10.56318798828125,0.1531626582145691,-0.3286953270435333,-1.6868547201156616
1788862395620230100,10.573230224609375,0.1563989222049713,-0.3944953680038452,-1.6920527219772339
1788862395630271200,10.583271240234374,0.1748674213886261,-0.5838759541511536,-1.660460114479065
1788862395640313000,10.59331298828125,0.23141831159591675,-0.8195108771324158,-1.6190475225448608
1788862395650354200,10.603354248046875,0.316950261592865,-0.9698710441589355,-1.6207854747772217
1788862395660396000,10.61339599609375,0.4210902452468872,-1.0479331016540527,-1.6397085189819336
1788862395670437000,10.62343701171875,0.5118486285209656,-1.0236541032791138,-1.7076574563980103
1788862395680479000,10.63347900390625,0.5699023604393005,-0.9742605090141296,-1.6839540004730225
1788862395690520000,10.64352001953125,0.5936551094055176,-0.9035423994064331,-1.6273688077926636
1788862395700562000,10.65356201171875,0.5480833649635315,-0.8752790689468384,-1.6389591693878174
1788862395710603000,10.66360302734375,0.45554569363594055,-0.9073653221130371,-1.6710925102233887
1788862395720644000,10.67364404296875,0.3502837121486664,-0.8669500350952148,-1.6874818801879883
1788862395730686200,10.683686279296875,0.24907533824443817,-0.762405514717102,-1.6683624982833862
1788862395740727300,10.693727294921874,0.1978350579738617,-0.670428454875946,-1.6621928215026855
1788862395750769200,10.70376904296875,0.19107674062252045,-0.6013670563697815,-1.664618968963623
1788862395760810200,10.713810302734375,0.2307242900133133,-0.46910011768341064,-1.589241862297058
1788862395770852000,10.72385205078125,0.2652495205402374,-0.3713969886302948,-1.4825825691223145
1788862395780893200,10.73389306640625,0.3003805875778198,-0.28425994515419006,-1.3981635570526123
1788862395790935000,10.74393505859375,0.2932579815387726,-0.155021533370018,-1.3121919631958008
1788862395800976100,10.75397607421875,0.24251091480255127,-0.06797479093074799,-1.2181370258331299
1788862395811018000,10.76401806640625,0.18306569755077362,-0.07885300368070602,-1.201154351234436
1788862395821059000,10.77405908203125,0.12567217648029327,-0.06855535507202148,-1.238305687904358
1788862395831101200,10.78410107421875,0.0772085040807724,0.06768796592950821,-1.1516656875610352
1788862395841142300,10.794142333984375,0.09097012132406235,0.17327085137367249,-1.0545449256896973
1788862395851183000,10.80418310546875,0.17094218730926514,0.20815825462341309,-1.0038090944290161
1788862395861225200,10.81422509765625,0.25934234261512756,0.260017991065979,-0.9036952257156372
1788862395871266000,10.82426611328125,0.30762627720832825,0.337350070476532,-0.7911282181739807
1788862395881308200,10.83430810546875,0.3049468696117401,0.42832711338996887,-0.6414667963981628
1788862395891349000,10.844348876953125,0.266104131937027,0.34476563334465027,-0.45761334896087646
1788862395901391000,10.85439111328125,0.19265973567962646,0.21403159201145172,-0.23854652047157288
1788862395911432000,10.864431884765626,0.09921287000179291,0.18623805046081543,0.016150474548339844
1788862395921474000,10.87447412109375,-0.023450730368494987,0.18520580232143402,0.16603264212608337
1788862395931515000,10.884514892578125,-0.13177694380283356,0.06993274390697479,0.19406268000602722
1788862395941557200,10.89455712890625,-0.21131063997745514,-0.08815515786409378,0.16852110624313354
1788862395951598000,10.90459814453125,-0.25534307956695557,-0.1669599562883377,0.21205046772956848
1788862395961640200,10.91464013671875,-0.27571919560432434,-0.08396600931882858,0.26343217492103577
1788862395971681000,10.924680908203126,-0.2896882891654968,0.07844900339841843,0.28363996744155884
1788862395981723100,10.93472314453125,-0.27723824977874756,0.22210150957107544,0.3210192918777466
1788862395991764000,10.944763916015624,-0.2514053285121918,0.31390121579170227,0.40951162576675415
1788862396001805000,10.95480517578125,-0.24161449074745178,0.4308784306049347,0.5321573615074158
1788862396011847000,10.964846923828125,-0.23573796451091766,0.5201268196105957,0.6721488237380981
1788862396021888000,10.974887939453126,-0.2336556315422058,0.5800013542175293,0.8034535646438599
1788862396031929900,10.984929931640625,-0.22597454488277435,0.5866797566413879,0.9232311248779297
1788862396041971000,10.994970947265625,-0.22508397698402405,0.5845217704772949,1.0413631200790405
1788862396052013000,11.005012939453126,-0.24591416120529175,0.6010653376579285,1.1665420532226562
1788862396062054100,11.01505419921875,-0.27105972170829773,0.6607944369316101,1.2791564464569092
1788862396072096000,11.025095947265624,-0.2793053984642029,0.7021070122718811,1.3645763397216797
1788862396082137000,11.03513720703125,-0.26834622025489807,0.7168347835540771,1.4512152671813965
1788862396092179000,11.045178955078125,-0.23234295845031738,0.7350449562072754,1.5287652015686035
1788862396102220000,11.055219970703124,-0.18127018213272095,0.7164978981018066,1.5535273551940918
1788862396112262000,11.065261962890625,-0.1388862431049347,0.6088358759880066,1.5488553047180176
1788862396122303000,11.075302978515625,-0.1343335658311844,0.46967774629592896,1.561505913734436
1788862396132345000,11.085344970703124,-0.16361743211746216,0.3839505910873413,1.6088107824325562
1788862396142386200,11.09538623046875,-0.18999390304088593,0.34671321511268616,1.6420990228652954
1788862396152427300,11.10542724609375,-0.19977888464927673,0.27922046184539795,1.6375378370285034
1788862396162469000,11.11546923828125,-0.18751557171344757,0.14736469089984894,1.5819679498672485
1788862396172510200,11.12551025390625,-0.17225618660449982,0.014139254577457905,1.5540988445281982
1788862396182552000,11.135552001953124,-0.16294658184051514,0.03512762859463692,1.6134436130523682
1788862396192593200,11.14559326171875,-0.17652496695518494,0.16340330243110657,1.7087815999984741
1788862396202635000,11.155635009765625,-0.16691868007183075,0.3370395302772522,1.809126377105713
1788862396212676000,11.165676025390624,-0.1417350322008133,0.5164386034011841,1.9172950983047485
1788862396222718000,11.175718017578125,-0.10379830002784729,0.6830286383628845,1.9862725734710693
1788862396232759000,11.185759033203125,-0.04326038807630539,0.8027797937393188,2.0232903957366943
1788862396242801200,11.19580126953125,0.0027302727103233337,0.8330383896827698,2.027039051055908
1788862396252842200,11.20584228515625,0.01811056025326252,0.7845182418823242,2.006706953048706
1788862396262884000,11.215884033203125,0.0010815097484737635,0.7022292613983154,1.966260552406311
1788862396272925200,11.22592529296875,-0.02623693086206913,0.5882965326309204,1.9067705869674683
1788862396282966000,11.235966064453125,-0.07271841168403625,0.504040002822876,1.8768912553787231
1788862396293008100,11.246008056640624,-0.14778199791908264,0.4005793631076813,1.9229357242584229
1788862396303049000,11.256049072265625,-0.24275937676429749,0.2546927332878113,2.057295560836792
1788862396313091000,11.266091064453125,-0.3533162474632263,0.08175718039274216,2.212784767150879
1788862396323132200,11.276132080078124,-0.43358314037323,-0.010601244866847992,2.304377794265747
1788862396333174000,11.286174072265625,-0.46824097633361816,-0.04429475963115692,2.3078243732452393
1788862396343215000,11.296215087890625,-0.43436476588249207,-0.0589248351752758,2.251075029373169
1788862396353257200,11.30625732421875,-0.35171541571617126,-0.11031532287597656,2.154513120651245
1788862396363298300,11.31629833984375,-0.2584427297115326,-0.1161566972732544,2.055037260055542
1788862396373340200,11.326340087890625,-0.1902216076850891,-0.03749597445130348,1.9731082916259766
1788862396383381200,11.33638134765625,-0.12932203710079193,0.11827950179576874,1.9336826801300049
1788862396393423000,11.346423095703125,-0.05768246948719025,0.273802787065506,1.9352821111679077
1788862396403464200,11.356464111328124,0.023183083161711693,0.35461559891700745,1.9218803644180298
1788862396413505000,11.366505126953125,0.09842244535684586,0.2921900451183319,1.861449956893921
1788862396423547100,11.376547119140625,0.15521462261676788,0.14023646712303162,1.7446682453155518
1788862396433588000,11.386587890625,0.17781580984592438,-0.03586745262145996,1.5881191492080688
1788862396443630000,11.396630126953125,0.17314913868904114,-0.15788736939430237,1.42635178565979
1788862396453671000,11.4066708984375,0.14078694581985474,-0.21078333258628845,1.2937668561935425
1788862396463713300,11.41671337890625,0.09220263361930847,-0.23615074157714844,1.207869291305542
1788862396473754000,11.426754150390625,0.04000840336084366,-0.2569023668766022,1.14182448387146
1788862396483796200,11.436796142578125,-0.013284645974636078,-0.27292314171791077,1.0799150466918945
1788862396493837000,11.446837158203126,-0.04042758420109749,-0.2780771553516388,1.0078383684158325
1788862396503879200,11.456879150390625,-0.029437251389026642,-0.26680001616477966,0.9389267563819885
1788862396513920000,11.466919921875,0.0072898706421256065,-0.2585950791835785,0.8615139722824097
1788862396523962000,11.476962158203126,0.03218483552336693,-0.3202325999736786,0.7683976292610168
1788862396534003000,11.4870029296875,0.024955684319138527,-0.40384361147880554,0.6254316568374634
1788862396544044000,11.4970439453125,-0.018384866416454315,-0.41256678104400635,0.3947955071926117
1788862396554086000,11.5070859375,-0.04548066481947899,-0.2087678611278534,0.12781229615211487
1788862396564127000,11.517126953125,-0.04652222990989685,0.20606635510921478,-0.079591765999794
1788862396574169000,11.527169189453126,-0.03592284768819809,0.6349093317985535,-0.17621897161006927
1788862396584210200,11.537210205078125,0.0017390442080795765,0.8841031789779663,-0.1968638002872467
1788862396594252000,11.547251953125,0.07961360365152359,0.9591537117958069,-0.1944565623998642
1788862396604293000,11.557293212890626,0.18761436641216278,0.8167909383773804,-0.18982692062854767
1788862396614335000,11.5673349609375,0.26405081152915955,0.5046860575675964,-0.1905345320701599
1788862396624376000,11.5773759765625,0.2692098915576935,0.20243965089321136,-0.22801612317562103
1788862396634418000,11.58741796875,0.23148462176322937,-0.04104330763220787,-0.2946934103965759
1788862396644459000,11.597458984375,0.16766995191574097,-0.2575843930244446,-0.3689463436603546
1788862396654501000,11.607501220703124,0.09261702001094818,-0.4274836778640747,-0.4312762916088104
1788862396664542200,11.617542236328125,0.005073321983218193,-0.42445459961891174,-0.48418372869491577
1788862396674583300,11.627583251953125,-0.0685574859380722,-0.28805574774742126,-0.5194026827812195
1788862396684625200,11.637625244140626,-0.11894156783819199,-0.11842917650938034,-0.5016287565231323
1788862396694666200,11.647666259765625,-0.134210005402565,-0.00956740602850914,-0.4531901180744171
1788862396704708000,11.6577080078125,-0.11373508721590042,0.037812359631061554,-0.4007575511932373
1788862396714749200,11.667749267578126,-0.07663432508707047,0.03416409716010094,-0.37245452404022217
1788862396724791000,11.677791015625,-0.02570270001888275,0.018438128754496574,-0.3827127516269684
1788862396734832000,11.68783203125,0.021584387868642807,-0.028112860396504402,-0.42628687620162964
1788862396744874000,11.6978740234375,0.06827519088983536,-0.08669973909854889,-0.49041739106178284
1788862396754915000,11.7079150390625,0.11345971375703812,-0.12687858939170837,-0.5688663721084595
1788862396764957200,11.717957275390624,0.1475931853055954,-0.12474939227104187,-0.6539477109909058
1788862396774998300,11.727998291015625,0.19445788860321045,-0.13740259408950806,-0.7235856652259827
1788862396785040100,11.7380400390625,0.25657159090042114,-0.2025485783815384,-0.789533793926239
1788862396795081200,11.748081298828126,0.28663840889930725,-0.23545299470424652,-0.8666312098503113
1788862396805122000,11.7581220703125,0.2914446294307709,-0.16385045647621155,-0.9861235618591309
1788862396815164200,11.7681640625,0.29663246870040894,-0.012205533683300018,-1.1239296197891235
1788862396825205000,11.778205078125,0.3011912703514099,0.20447777211666107,-1.2187613248825073
1788862396835247000,11.7882470703125,0.2617221474647522,0.4684572219848633,-1.2289808988571167
1788862396845288000,11.798287841796874,0.19739855825901031,0.7273281812667847,-1.1669849157333374
1788862396855330000,11.808330078125,0.15272510051727295,0.9143995642662048,-1.0897923707962036
1788862396865371000,11.818370849609375,0.1522901952266693,0.9674928784370422,-1.0227822065353394
1788862396875413200,11.828413330078124,0.1571294367313385,0.8241255879402161,-1.0339845418930054
1788862396885454000,11.8384541015625,0.16513462364673615,0.5518783330917358,-1.1004256010055542
1788862396895496200,11.84849609375,0.18174982070922852,0.2702527940273285,-1.116568922996521
1788862396905537000,11.858537109375,0.161893829703331,0.06186709553003311,-1.0737255811691284
1788862396915579100,11.8685791015625,0.09152459353208542,-0.040283508598804474,-1.0203782320022583
1788862396925620000,11.878619873046874,0.007713845930993557,-0.1400628238916397,-1.0492953062057495
1788862396935661000,11.8886611328125,-0.021924739703536034,-0.29557839035987854,-1.1246545314788818
1788862396945703000,11.898702880859375,-0.013635651208460331,-0.4429563879966736,-1.1346898078918457
1788862396955744000,11.908743896484374,-0.006549512036144733,-0.4971487820148468,-1.0624263286590576
1788862396965785900,11.918785888671875,-0.015014901757240295,-0.42066946625709534,-1.077581524848938
1788862396975827000,11.928826904296875,-0.0030152308754622936,-0.35078704357147217,-1.2375613451004028
1788862396985869000,11.938869140625,0.04879523441195488,-0.36749038100242615,-1.3927778005599976
1788862396995910100,11.94891015625,0.13267815113067627,-0.5240789651870728,-1.4125251770019531
1788862397005952000,11.958951904296875,0.20197254419326782,-0.6913859248161316,-1.3250821828842163
1788862397015993000,11.9689931640625,0.24651657044887543,-0.6791273951530457,-1.2954411506652832
1788862397026035000,11.979034912109375,0.29064273834228516,-0.5804519057273865,-1.362619161605835
1788862397036076000,11.989075927734374,0.31467723846435547,-0.5262323617935181,-1.413220763206482
1788862397046118100,11.9991181640625,0.320649653673172,-0.5567764043807983,-1.4360369443893433
1788862397056159000,12.009158935546875,0.3025609254837036,-0.6889445781707764,-1.4418224096298218
1788862397066200000,12.019199951171874,0.29113730788230896,-0.7690572738647461,-1.4444242715835571
1788862397076242000,12.029241943359375,0.292778879404068,-0.7933410406112671,-1.4864009618759155
1788862397086283000,12.039282958984375,0.302788108587265,-0.7856101393699646,-1.567726969718933
1788862397096325000,12.0493251953125,0.3162924647331238,-0.7813330888748169,-1.613215684890747
1788862397106366200,12.0593662109375,0.3214816153049469,-0.8026197552680969,-1.6643297672271729
1788862397116408000,12.069407958984375,0.3318069577217102,-0.8202890157699585,-1.7050081491470337
1788862397126449200,12.07944921875,0.3540448844432831,-0.7936331629753113,-1.6894515752792358
1788862397136491000,12.089490966796875,0.36730822920799255,-0.7045627236366272,-1.6875487565994263
1788862397146532000,12.099531982421874,0.3686009347438812,-0.654457688331604,-1.6797674894332886
1788862397156574000,12.109573974609376,0.36314305663108826,-0.6434791088104248,-1.664846658706665
1788862397166615000,12.119614990234375,0.36686640977859497,-0.6738247871398926,-1.6501771211624146
1788862397176657200,12.1296572265625,0.3742454946041107,-0.6967905163764954,-1.660524606704712
1788862397186698200,12.1396982421875,0.39217522740364075,-0.6564436554908752,-1.651919960975647
1788862397196739000,12.149739013671875,0.3615347743034363,-0.5419726967811584,-1.6627339124679565
1788862397206781200,12.15978125,0.3347758650779724,-0.5537265539169312,-1.6510213613510132
1788862397216822300,12.169822265625,0.3158647418022156,-0.5004122257232666,-1.654331922531128
1788862397226864000,12.179864013671875,0.3023659884929657,-0.4223214089870453,-1.6821174621582031
1788862397236905200,12.1899052734375,0.2927112281322479,-0.41129541397094727,-1.7185317277908325
1788862397246947000,12.199947021484375,0.30047807097435,-0.46305152773857117,-1.7170121669769287
1788862397256988200,12.20998828125,0.2980857491493225,-0.46320998668670654,-1.6911336183547974
1788862397267030000,12.220030029296876,0.27113136649131775,-0.33810535073280334,-1.6296577453613281
1788862397277071000,12.230071044921875,0.2432909458875656,-0.2182963788509369,-1.5662788152694702
1788862397287113200,12.24011328125,0.21158148348331451,-0.23056237399578094,-1.525129795074463
1788862397297154300,12.250154296875,0.20559071004390717,-0.3085940480232239,-1.438081979751587
1788862397307196200,12.260196044921875,0.21131756901741028,-0.2282842993736267,-1.3041573762893677
1788862397317237200,12.2702373046875,0.22812238335609436,-0.11991521716117859,-1.1531537771224976
1788862397327278000,12.280278076171875,0.25594469904899597,-0.021805163472890854,-1.066150426864624
1788862397337320200,12.2903203125,0.27962204813957214,0.03928082808852196,-1.0027917623519897
1788862397347361000,12.300361083984376,0.2830897569656372,0.12790550291538239,-0.9104231595993042
1788862397357403100,12.310403076171875,0.24326911568641663,0.17243541777133942,-0.7724738121032715
1788862397367444000,12.32044384765625,0.16689497232437134,0.2064487785100937,-0.622912585735321
1788862397377486000,12.330486083984376,0.08718843013048172,0.19242137670516968,-0.513087809085846
1788862397387527700,12.340527587890625,-0.007225422188639641,0.1547624170780182,-0.3597744107246399
1788862397397569500,12.350569580078124,-0.10481003671884537,0.15401886403560638,-0.2073550522327423
1788862397407610600,12.360610595703125,-0.15120629966259003,0.22942200303077698,-0.07627186924219131
1788862397417652500,12.370652587890625,-0.1346219927072525,0.334026962518692,0.03489327058196068
1788862397427693600,12.380693603515626,-0.11676949262619019,0.361261785030365,0.11634605377912521
1788862397437735700,12.390735595703125,-0.0865790992975235,0.34198397397994995,0.2106805443763733
1788862397447776800,12.40077685546875,-0.09056451916694641,0.37044888734817505,0.33041760325431824
1788862397457817900,12.41081787109375,-0.13450480997562408,0.439639687538147,0.48190271854400635
1788862397467859700,12.420859619140625,-0.23694810271263123,0.42992740869522095,0.6141547560691833
1788862397477900800,12.43090087890625,-0.3312940299510956,0.4090104103088379,0.7305410504341125
1788862397487942700,12.440942626953126,-0.40097537636756897,0.40129363536834717,0.8617520332336426
