time,seconds_elapsed,z,y,x
1789031114225952500,0.051952392578125,9.748740247344971,4.324826023864746,-2.0274398933410644
1789031114235960600,0.061960693359375,11.346720217895507,4.256292001342773,-2.2043115409851075
1789031114245967400,0.07196728515625,11.448324150848388,4.137629381561279,-0.879120922088623
1789031114255974700,0.081974609375,10.839299103546143,4.363282888031006,0.3350385948181152
1789031114265981400,0.0919814453125,9.996091206359862,4.1569326324462885,1.1400889030456542
1789031114275988200,0.10198828125,9.23249051437378,3.8284780921936035,1.692401298522949
1789031114285995500,0.11199560546875,9.030030836486816,3.8359599723815916,1.333719962310791
1789031114296002300,0.122002197265625,9.011775048828124,4.043806604003906,0.8562263687133789
1789031114306010400,0.13201025390625,9.332897346496582,4.141370321655273,0.32710780181884763
1789031114316017400,0.142017333984375,9.334393722534179,3.9338229652404784,0.055066638183593745
1789031114326024400,0.1520244140625,8.015637520599364,3.2398037590026854,0.48407764816284177
1789031114336031500,0.162031494140625,6.763619689941406,2.4911668273925778,0.9139864837646484
1789031114346038300,0.172038330078125,5.531503660583496,2.90476516418457,-0.3778349494934082
1789031114356045600,0.182045654296875,6.348824252319336,4.438999515533447,-1.441010124206543
1789031114366052400,0.19205224609375,6.909366716003418,6.406285092163086,-1.7881693649291992
1789031114376059600,0.2020595703125,8.510788351440429,7.344812142944336,-2.728641704559326
1789031114386067500,0.2120673828125,9.575459902191161,5.745485433959961,-3.3942297660827636
1789031114396074500,0.222074462890625,10.152462502288818,3.349937035369873,-1.6823755790710448
1789031114406081500,0.23208154296875,11.35794303817749,2.661454420471191,-1.4682441680908203
1789031114416088300,0.24208837890625,11.461492259979247,2.4417864181518554,-1.3009493270874022
1789031114426095400,0.252095458984375,11.28716445159912,2.624493932342529,-0.8051999458312988
1789031114436102700,0.2621025390625,10.376469995117187,3.025073797607422,-1.234061318206787
1789031114446109400,0.272109375,8.500014443969727,3.4630630638122555,-1.6814777534484862
1789031114456117500,0.282117431640625,7.25906979598999,3.5721488769531247,-1.4730325714111328
1789031114466124500,0.29212451171875,7.001393842315673,3.020435031890869,-1.817049422454834
1789031114476131300,0.30213134765625,6.694936029815674,2.849099975585937,-2.318784307861328
1789031114486138600,0.312138671875,6.455216588592529,3.2032921836853023,-2.8516438148498535
1789031114496145400,0.3221455078125,7.294084995269775,3.0144495277404784,-2.80914673538208
1789031114506152700,0.332152587890625,8.525153561401366,2.0766706649780273,-1.9668366638183592
1789031114516159500,0.342159423828125,10.046070166015625,1.1733084510803222,-1.0615291610717772
1789031114526166500,0.35216650390625,11.350910070800781,0.4400841926574707,-0.7231985389709472
1789031114536174600,0.362174560546875,10.663026006317137,0.7939771255493163,-0.3687070556640625
1789031114546181400,0.372181396484375,10.027814378356933,1.5159785636901855,0.14200608596801756
1789031114556188700,0.382188720703125,9.473107781219483,1.1501146224975585,1.4203601348876953
1789031114566195500,0.392195556640625,8.2483239944458,0.7342717216491699,2.1767782218933105
1789031114576202800,0.40220263671875,7.4868182289123535,0.5352537086486816,2.668188112640381
1789031114586209500,0.41220947265625,6.966528280639648,0.6209960556030273,3.0241759719848633
1789031114596216300,0.42221630859375,6.0778305519104,1.2210428466796874,2.8956372703552242
1789031114606223600,0.4322236328125,5.619640209197998,1.3633482078552246,2.9604303527832028
1789031114616231400,0.4422314453125,5.516539900207519,1.031751277923584,3.1331121475219725
1789031114626238500,0.452238525390625,5.419125820159912,0.7217021629333495,3.071760729980469
1789031114636245500,0.46224560546875,5.543025756072998,0.6429927833557129,3.0769980461120605
1789031114646252500,0.47225244140625,5.576245304107665,0.9139864837646484,3.0699650787353514
1789031114656259600,0.482259521484375,5.15202269744873,1.2654852149963378,3.1377509132385253
1789031114666266400,0.492266357421875,4.878485157775879,1.2708721687316893,3.0035259826660154
1789031114676273700,0.502273681640625,3.7811926094055175,0.6766612442016601,4.056525800323486
1789031114686280400,0.512280517578125,3.40949280166626,-0.10863690032958984,4.563946914672851
1789031114696288500,0.52228857421875,4.772990647125244,-0.24615385818481444,4.196885872650146
1789031114706295600,0.532295654296875,6.629394759368896,0.7836521308898925,2.9626749168395996
1789031114716302600,0.542302490234375,7.4782888854980465,1.694346587371826,1.791461392211914
1789031114726309600,0.5523095703125,9.055020316314696,2.533813544464111,0.8686462898254395
1789031114736316400,0.56231640625,8.50360574645996,3.418919970703125,1.4510358436584472
1789031114746323700,0.57232373046875,9.388113622283935,3.1995512435913085,2.992901712799072
1789031114756330500,0.58233056640625,11.090391002655029,1.642123063659668,5.163095880126953
1789031114766337500,0.592337646484375,12.566865238952635,-0.21158757171630857,7.586027960205078
1789031114776345600,0.602345703125,13.13234574356079,-1.0749965454101562,10.511443113708495
1789031114786352600,0.6123525390625,11.22970361175537,-2.677615281677246,12.249633518981932
1789031114796359400,0.622359375,8.717587519836425,-5.035455004119873,13.18337216644287
1789031114806366500,0.632366455078125,7.799111907958984,-5.80997924118042,13.954903651428221
1789031114816373500,0.64237353515625,7.822605011749267,-4.331709353637695,13.80975517578125
1789031114826380500,0.652380615234375,7.723694555664062,-0.48497547378540035,13.671490029907226
1789031114836387600,0.6623876953125,6.86986238861084,1.9244892219543457,15.161581288146971
1789031114846394600,0.67239453125,5.72648145828247,1.0576385833740234,16.01840620727539
1789031114856402700,0.682402587890625,5.052663328552246,0.32082302246093747,15.194950473785399
1789031114866409500,0.692409423828125,4.71163922958374,1.2668319534301757,13.31744745941162
1789031114876416500,0.70241650390625,4.358644122314453,2.3579893600463864,10.200196897888183
1789031114886423600,0.712423583984375,3.915716815185547,3.2314240531921383,7.5719620254516595
1789031114896430600,0.7224306640625,3.174412126159668,3.161393654632568,6.911312004852294
1789031114906437600,0.732437744140625,1.246181964111328,1.6473603797912597,8.170362802886963
1789031114916444400,0.7424443359375,-2.4993968955993653,0.4649240348815918,11.26741228790283
1789031114926451500,0.752451416015625,-5.47763412322998,1.2822446266174317,13.16496674118042
1789031114936458500,0.76245849609375,-8.56166513671875,3.3973721557617185,13.328819917297363
1789031114946466600,0.772466552734375,-11.788001511383056,4.330212977600097,12.842198429870605
1789031114956473600,0.7824736328125,-13.712939646148682,3.801393685913086,12.222100199890136
1789031114966480400,0.79248046875,-14.23068575515747,2.9791350532531737,12.469750434112548
1789031114976487700,0.80248779296875,-12.462717466735839,1.112106671142578,11.592724438476562
1789031114986494500,0.812494384765625,-7.941417269134521,-1.2562076835632323,9.69741454925537
1789031114996501500,0.82250146484375,-2.0026000511169433,-3.299958075714111,9.664045363616943
1789031115006508500,0.832508544921875,9.277381795501709,-11.226561222076416,10.486902546691894
1789031115016515600,0.842515625,6.100874742889404,-7.941866181945801,10.43198554611206
1789031115026523600,0.852523681640625,-0.0004489128112792969,-1.4674959800720213,10.404152951812744
1789031115036530400,0.862530517578125,-2.168847428894043,-6.088604459381103,11.052682326507568
1789031115046537700,0.872537841796875,-5.3393689773559565,-7.531110959625244,9.402179557037353
1789031115056544500,0.88254443359375,-8.225279803466796,-6.029497605895996,7.407959211730956
1789031115066551600,0.892551513671875,-8.110657398986817,-5.106532865905762,7.317278823852539
1789031115076558600,0.90255859375,-4.762067102050781,-3.558531855010986,9.060107994842529
1789031115086565400,0.9125654296875,2.5499744056701656,-2.1083938369750976,7.521384515380859
1789031115096572700,0.92257275390625,1.9921254188537596,-6.867767462158203,2.3362919075012205
1789031115106579500,0.932579345703125,-5.472696082305908,-11.43425821609497,-0.591218172454834
1789031115116587500,0.94258740234375,-6.015132395935058,-12.706177848052977,1.5264531959533691
1789031115126594600,0.952594482421875,-0.030526071166992186,-9.124751439666747,2.1534347557067868
1789031115136601300,0.962601318359375,4.135833730316162,-8.558522747039794,5.316025511169434
1789031115146608600,0.972608642578125,0.8246528343200683,-9.266158975219726,8.167968601226805
1789031115156615400,0.982615478515625,-9.488071541595458,-6.4929252647399895,9.228899211883544
1789031115166622700,0.992622802734375,-16.166248159790037,-3.3865982482910155,8.515427117156982
1789031115176629500,1.00262939453125,-12.418275098419189,-2.940079638671875,5.876268699645996
1789031115186636500,1.012636474609375,-9.038260904693603,-3.705475981903076,3.4311902542114256
1789031115196644600,1.02264453125,-6.19948592376709,-4.206911592102051,2.409913608551025
1789031115206651400,1.0326513671875,-3.723133219146728,-2.356642621612549,0.20949264526367187
1789031115216658700,1.04265869140625,-2.506579500579834,0.29179332733154295,-0.13108254089355467
1789031115226665500,1.05266552734375,-0.8270470359802246,-1.252616381072998,4.948515556335449
1789031115236672500,1.062672607421875,-0.4400841926574707,-1.721879906463623,9.170540546417236
1789031115246679600,1.072679443359375,-0.7656956184387207,-4.040664214324951,13.127407702636718
1789031115256686300,1.082686279296875,0.04534019393920898,-7.855974197387694,16.58658018875122
1789031115266693600,1.092693603515625,0.6964134078979491,-9.309853155517578,17.311424741363524
1789031115276700400,1.102700439453125,1.1055226165771483,-7.652915969085693,15.29640476913452
1789031115286708500,1.11270849609375,0.015263035583496093,-3.826832078552246,10.346991387176512
1789031115296715500,1.122715576171875,-1.416020644378662,-1.3839981971740722,5.3019595764160155
1789031115306722600,1.13272265625,-1.862988166809082,-2.2342390617370604,1.3998597831726074
1789031115316729600,1.1427294921875,-1.5279495719909668,-3.387645711517334,-1.2660837654113768
1789031115326736400,1.152736328125,-0.7963713272094726,-4.543446562957763,-2.083853269958496
1789031115336743700,1.16274365234375,-2.5152584815979004,-4.868309800720215,-0.7844003189086913
1789031115346750500,1.17275048828125,-4.216638036346435,-4.342632898712158,0.18989011917114257
1789031115356757800,1.1827578125,-4.854393503570557,-4.019565312194824,0.7410054138183594
1789031115366764500,1.1927646484375,-4.808454759216309,-3.897610665130615,1.2119149528503417
1789031115376772600,1.202772705078125,-4.180874649047851,-3.5420717185974118,1.3696329872131348
1789031115386779600,1.212779541015625,-3.286789966583252,-3.13475816116333,1.3066355560302734
1789031115396786400,1.222786376953125,-3.6872201942443845,-3.245639625549316,1.4627075767517088
1789031115406793500,1.23279345703125,-8.553734343719482,-5.236119030761718,2.5617957763671875
1789031115416800500,1.242800537109375,-11.386523820495604,-7.028478248596191,3.1809961807250975
1789031115426806800,1.252806884765625,-7.326705992889404,-7.08025285949707,2.1065981857299803
1789031115436813600,1.2628134765625,-0.5581482620239258,-6.434716236877441,0.7023989120483398
1789031115446820600,1.272820556640625,6.687304512023926,-6.653037500762939,-0.3342904067993164
1789031115456828700,1.28282861328125,10.428394243621826,-8.15255592803955,-0.682497110748291
1789031115466835700,1.292835693359375,2.412756723022461,-8.729558528137206,1.3709797256469727
1789031115476842800,1.3028427734375,-9.159168088531494,-12.619238400268554,3.5166333259582516
1789031115486849800,1.312849853515625,-3.180547267913818,-15.093496178436279,3.19865341796875
1789031115496856600,1.322856689453125,2.0943279022216794,-29.268516744995114,3.7325603881835936
1789031115506863600,1.332863525390625,3.67749375,-43.34402830505371,3.5558383781433105
1789031115516870700,1.34287060546875,3.8226422256469723,-40.04436950454712,6.711845079040527
1789031115526877700,1.352877685546875,0.7615057655334472,-27.58584189071655,7.963713272094726
1789031115536884700,1.362884765625,-5.5720554512023925,-16.59914974746704,4.809502222442626
1789031115546892500,1.372892578125,-7.876773824310303,-7.233930678558349,1.3702315376281737
1789031115556899800,1.38289990234375,-5.971438215637207,-2.370259643554687,-1.0730512565612793
1789031115566906600,1.39290673828125,-3.3233015419006344,-1.6741455108642578,-0.8378209434509277
1789031115576913700,1.40291357421875,-1.0054150596618652,-4.7110406791687005,1.158793603515625
1789031115586920700,1.412920654296875,-0.25947160491943355,-7.604283747863769,2.1441572242736817
1789031115596927700,1.422927734375,0.6253355461120605,-8.37566559524536,1.1088146438598632
1789031115606934800,1.432934814453125,0.1444002876281738,-9.593416414642334,-0.244507844543457
1789031115616941600,1.442941650390625,-2.7424083641052244,-10.286837070465086,-0.8638578865051268
1789031115626950000,1.452949951171875,-4.58998385772705,-10.377816733551025,-0.2615665313720703
1789031115636956700,1.462956787109375,-4.64759433517456,-9.381230292510987,1.0353425804138183
1789031115646963700,1.472963623046875,-4.408024531555175,-8.952518557739257,1.9853917266845702
1789031115656970800,1.482970703125,-4.25180287322998,-9.681702600860595,3.1488240959167477
1789031115666977500,1.4929775390625,-4.48852956237793,-10.883741471862793,3.9240965209960934
1789031115676984800,1.50298486328125,-4.940135850524902,-12.504316720581054,4.427178144836425
1789031115686991600,1.51299169921875,-4.8692076263427735,-13.683909951019286,4.875642043304443
1789031115696998700,1.52299853515625,-4.612279860687256,-14.37074655227661,5.399074381256103
1789031115707005700,1.533005615234375,-4.734384145355224,-14.896722729492186,5.601982971954345
1789031115717013500,1.543013427734375,-3.7793969581604,-13.86123051147461,6.006752690124511
1789031115727020800,1.553020751953125,-2.4625860450744628,-12.702885820770263,7.0278796981811515
1789031115737027600,1.563027587890625,-1.2262801628112792,-12.008118426513672,7.582885570526122
1789031115747035000,1.573034912109375,-1.479317350769043,-11.215637677001952,7.755717002868652
1789031115757041700,1.583041748046875,-2.5008932716369627,-10.518326443481445,7.733121724700927
1789031115767048700,1.593048583984375,-3.2679356285095214,-10.097844776916503,7.3283520065307615
1789031115777055700,1.6030556640625,-3.5953427055358884,-10.296413877105712,6.53796618347168
1789031115787062500,1.6130625,-3.6950013496398926,-9.987112950134277,5.590909789276123
1789031115797070800,1.62307080078125,-2.5302222419738767,-10.231471157073974,5.06897382736206
1789031115807077600,1.63307763671875,-1.350329736328125,-9.408165061187743,4.5784617622375485
1789031115817084700,1.643084716796875,-0.9147346717834473,-8.501660457611084,3.835660697174072
1789031115827718000,1.6537177734375,-1.6977882522583008,-7.746589109039306,3.4138322921752926
1789031115837724700,1.663724609375,-2.4320599739074704,-7.1498343452453605,3.7530607398986815
1789031115847731700,1.673731689453125,-2.577208449554443,-7.20160895614624,3.201047619628906
1789031115857738800,1.68373876953125,-3.6043209617614744,-7.505373291778564,4.108150773620605
1789031115867745500,1.69374560546875,-4.066401882171631,-8.19131206741333,5.578040955352783
1789031115877752800,1.7037529296875,-4.14316597290039,-8.119635655212402,5.371541062164306
1789031115887759600,1.713759521484375,-4.087949697113037,-8.003666512298583,4.379144474029541
1789031115897767700,1.723767578125,-4.579509225463867,-7.554454425811767,4.049941745758057
1789031115907774700,1.733774658203125,-4.97978981552124,-7.033416289520264,4.557811772918701
1789031115917781500,1.743781494140625,-4.840028293609619,-6.788010619354248,5.539135178375243
1789031115927788800,1.753788818359375,-4.324826023864746,-6.641515405273437,6.2222308395385735
1789031115937795600,1.763795654296875,-3.0955531089782715,-6.786963156127929,6.2675710334777825
1789031115947803000,1.773802978515625,-1.8189947113037108,-6.764816790771484,5.3764791030883785
1789031115957809700,1.7838095703125,-1.7226280944824217,-6.145466748809814,3.8162078086853026
1789031115967816700,1.793816650390625,-2.401084989929199,-4.7679029685974115,2.408716507720947
1789031115977824800,1.80382470703125,-3.218255944061279,-3.0371944435119627,1.6347908210754394
1789031115987831600,1.81383154296875,-2.9894600479125977,-2.2480057212829587,1.3991115951538085
1789031115997838800,1.8238388671875,-3.0475194381713866,-2.0311808334350583,1.6021698234558104
1789031116007845600,1.833845703125,-4.434360749816895,-2.2186767509460448,2.6521768890380857
1789031116017852700,1.843852783203125,-5.557390966033935,-2.6164135017395016,3.452588431549072
1789031116027859700,1.853859619140625,-4.044255516815185,-2.7247511268615723,4.084807307434081
1789031116037866500,1.863866455078125,-2.8516438148498535,-2.3774422485351563,5.148880307769775
1789031116047873800,1.873873779296875,-3.6750995483398436,-2.4260744697570797,5.470601155853271
1789031116057880600,1.883880615234375,-3.723282856750488,-2.8036101440429686,5.3670519340515135
1789031116067888600,1.893888671875,-4.4008419265747065,-3.00053323059082,5.574150377655029
1789031116077895700,1.903895751953125,-4.762964927673339,-3.349039209747314,5.589712688446045
1789031116087902700,1.91390283203125,-4.775085573577881,-3.151816847991943,4.7393221862792965
1789031116097909800,1.92390966796875,-4.516960707092285,-2.8220155693054196,4.0435073287963865
1789031116107916500,1.93391650390625,-4.743811314392089,-2.7334301078796384,4.023006977081298
1789031116117923800,1.943923828125,-5.0951604080200195,-2.878728221130371,3.8048353507995603
1789031116127930600,1.9539306640625,-4.8389808303833,-2.9523499221801757,3.756502404785156
1789031116137937700,1.963937744140625,-4.623652318572998,-3.0475194381713866,4.2971430671691895
1789031116147944700,1.97394482421875,-4.809502222442626,-2.8655601119995118,4.809502222442626
1789031116157952800,1.983952880859375,-4.653579839324951,-2.4021324531555175,5.3405660781860345
1789031116167959800,1.993959716796875,-3.8922237113952636,-2.0929811637878415,5.967846913146972
1789031116177966600,2.003966552734375,-3.3605613052368164,-2.137423532104492,6.587795505523681
1789031116187973600,2.0139736328125,-3.69634808807373,-2.918382186126709,7.210437574768066
1789031116197980700,2.023980712890625,-4.8612768333435055,-3.561823882293701,6.910863092041015
1789031116207987700,2.03398779296875,-5.289539655303955,-4.049941745758057,6.428281819915771
1789031116217994800,2.043994873046875,-5.1876364471435545,-4.445583570098877,6.523002423095702
1789031116228001500,2.05400146484375,-4.8314989501953125,-4.764012390899658,6.676231329345702
1789031116238009600,2.064009521484375,-4.135684092712402,-5.0014872680664055,6.433668773651123
1789031116248016600,2.0740166015625,-4.344428549957275,-5.308393993377686,5.81626402053833
1789031116258023700,2.084023681640625,-4.550180255126953,-5.501875415039062,4.756829785919189
1789031116268030700,2.09403076171875,-4.973804311370849,-5.504419254302978,3.7352538650512694
1789031116278037800,2.104037841796875,-4.6824598968505855,-5.6091655769348145,3.11545491027832
1789031116288044800,2.114044921875,-4.3430818115234375,-6.085162794494629,3.087323040771484
1789031116298051600,2.124051513671875,-4.138227931976318,-6.875398979949951,3.4530373443603515
1789031116308058600,2.13405859375,-4.185363777160644,-7.407959211730956,3.7196915542602538
1789031116318065700,2.144065673828125,-4.075679413604736,-7.4034700836181635,3.6947020744323726
1789031116328073700,2.15407373046875,-4.403834678649902,-7.326257080078125,4.038868563079833
1789031116338080800,2.164080810546875,-4.423586842346191,-7.398980955505371,4.599111751556396
1789031116348087800,2.174087890625,-3.7823897102355954,-7.165097380828857,4.621258116912841
1789031116358094600,2.184094482421875,-3.037493718719482,-6.909965266418457,4.546588952636719
1789031116368101600,2.1941015625,-2.765003642272949,-6.995857250976562,4.601505953216552
1789031116378108700,2.204108642578125,-3.1239842536926266,-7.292139706420898,4.350862966918945
1789031116388115700,2.21411572265625,-3.6923078727722167,-7.46302584991455,3.6041713241577145
1789031116398122800,2.224122802734375,-3.930830213165283,-7.573608039093017,2.7789199394226074
1789031116408129800,2.2341298828125,-3.6551977470397947,-7.681796026611328,2.3177368446350095
1789031116418137600,2.2441376953125,-3.280654824829101,-7.705289130401611,2.1493945404052734
1789031116428144400,2.254144287109375,-2.6939257804870604,-7.687631893157959,1.9940707077026365
1789031116438151700,2.264151611328125,-2.204610816192627,-7.798064444732666,1.7724574165344238
1789031116448158500,2.274158447265625,-1.8179472480773924,-8.361599660491942,1.7452233726501465
1789031116458165800,2.284165771484375,-1.76841720123291,-9.220070593261719,1.669506745147705
1789031116468172500,2.294172607421875,-2.1601684478759764,-9.935039064025878,1.365592771911621
1789031116478179300,2.304179443359375,-3.301903364562988,-10.542418097686767,0.8967781593322753
1789031116488186600,2.3141865234375,-4.716427632904052,-11.30661734008789,0.8952817832946777
1789031116498193400,2.324193359375,-5.881206740570068,-12.357971144104003,1.922244657897949
1789031116508201500,2.334201416015625,-6.094589963531494,-13.500454248809813,3.190124074554443
1789031116518208500,2.34420849609375,-6.0139352951049805,-14.736760131072996,4.109946424865722
1789031116528215600,2.354215576171875,-5.982661035919189,-15.692046593475341,4.527136064147949
1789031116538222600,2.36422265625,-6.197989547729492,-15.93535733718872,4.540154535675049
1789031116548229400,2.3742294921875,-7.075015543365478,-15.449484037780762,4.46937594909668
1789031116558236700,2.384236572265625,-7.861959701538085,-14.64548119277954,4.7195700225830075
1789031116568243500,2.394243408203125,-7.4697595420837395,-13.59846687927246,5.182548768615723
1789031116578250800,2.404250732421875,-6.029048693084716,-12.46196927871704,5.3101896446228025
1789031116588257500,2.414257568359375,-4.24506918106079,-11.230302162170409,4.190601093292236
1789031116598265600,2.424265625,-3.2058360229492187,-10.270975484466552,2.4034791915893554
1789031116608272600,2.434272705078125,-3.435529744720459,-9.744999307250977,0.769286920928955
1789031116618279400,2.444279541015625,-4.218583325195312,-9.688436293029785,-0.1637035385131836
1789031116628286700,2.45428662109375,-4.999541979217529,-9.913790524291992,-0.3184288208007812
1789031116638293500,2.46429345703125,-5.4990323005676265,-10.24089832611084,0.1967734489440918
1789031116648300500,2.474300537109375,-5.551704737091064,-10.786028116607666,1.1854290969848633
1789031116658307600,2.4843076171875,-4.81399135055542,-11.318737985992431,2.1595698974609374
1789031116668314400,2.494314453125,-4.015225821685791,-11.769446448516845,3.1943139274597168
1789031116678321700,2.50432177734375,-3.901501242828369,-11.749395009613037,3.6545991966247557
1789031116688329500,2.51432958984375,-3.754557115936279,-11.186757619476317,3.5995325584411617
1789031116698336500,2.52433642578125,-3.3605613052368164,-10.152462502288818,2.971653173065185
1789031116708343600,2.534343505859375,-2.6946739685058594,-8.79809255065918,1.8148048583984373
1789031116718350600,2.5443505859375,-1.7513585144042967,-7.631966704559326,1.094299796295166
1789031116728357600,2.554357666015625,-1.205929448699951,-6.947673942565918,0.9935936889648437
1789031116738364400,2.564364501953125,-1.3801076194763182,-7.104494151306152,1.424849263000488
1789031116748371700,2.574371826171875,-2.0632032806396485,-7.970746239471435,2.2776339668273926
1789031116758378500,2.58437841796875,-2.499546533203125,-8.980800064849854,3.5326445495605467
1789031116768385500,2.594385498046875,-2.7205612739562985,-9.841216286468505,4.867561612701416
1789031116778393600,2.6043935546875,-3.4584242980957027,-10.213215369415282,5.787234325408935
1789031116788400600,2.614400634765625,-4.097227228546142,-10.105027381896972,6.314856516265869
1789031116798407700,2.62440771484375,-4.29639487915039,-9.83852280960083,6.685957773590087
1789031116808414500,2.63441455078125,-4.178330809783935,-9.406668685150146,6.823624369049072
1789031116818421500,2.64442138671875,-3.7578491432189938,-9.144952516174316,6.7374331092834465
1789031116828428500,2.654428466796875,-3.5309985359191893,-9.056217417144774,6.456413689422607
1789031116838435600,2.664435546875,-3.2255881866455076,-8.758737860870362,5.685031842041015
1789031116848442600,2.674442626953125,-2.64963304977417,-8.591891932678221,4.632929850006104
1789031116858449400,2.684449462890625,-2.360832474517822,-8.359953646850585,3.5730467025756836
1789031116868457500,2.69445751953125,-2.503137835693359,-8.013542594146728,3.144334967803955
1789031116878464500,2.704464599609375,-3.154659962463379,-7.894730336761474,3.7452795845031734
1789031116888471600,2.714471435546875,-4.2119992706298826,-8.045265766143798,4.655824403381347
1789031116898478600,2.724478515625,-4.959738376617431,-8.452579323577881,5.497535924530029
1789031116908485600,2.734485595703125,-5.06897382736206,-8.851064262390135,5.850531031799316
1789031116918492700,2.74449267578125,-4.722413137054443,-9.197325677490234,5.857264723968505
1789031116928499500,2.75449951171875,-4.272452862548828,-9.297433234405517,5.760748469543457
1789031116938506500,2.764506591796875,-3.8242882392883297,-8.988431582641601,5.619490571594238
1789031116948513500,2.774513427734375,-3.580229307556152,-8.396465222167969,5.633855781555176
1789031116958521600,2.784521484375,-3.825485340118408,-7.5716627502441405,5.63744708404541
1789031116968528400,2.7945283203125,-4.026598279571533,-6.911461642456055,5.698499226379394
1789031116978535700,2.80453564453125,-4.306719873809814,-6.5683426170349115,6.019920799255371
1789031116988542500,2.81454248046875,-4.678419681549072,-6.641066492462158,6.448632534027099
1789031116998549500,2.824549560546875,-4.628141446685791,-7.006481520843505,6.602011077880859
1789031117008556500,2.834556640625,-4.216638036346435,-7.334487148284912,6.182726512145996
1789031117018563600,2.8445634765625,-3.9309798507690425,-7.440280934143066,5.361664980316162
1789031117028570600,2.854570556640625,-3.769221601104736,-7.002740580749511,4.435707488250732
1789031117038578400,2.864578369140625,-3.7108629356384277,-6.074089611816406,4.005050464630127
1789031117048585700,2.874585693359375,-3.6905122215270993,-5.087678527832031,3.9469910743713377
1789031117058592500,2.884592529296875,-3.4893992820739745,-4.670788163757324,3.76682739944458
1789031117068599600,2.894599609375,-3.5022681159973144,-4.53955598526001,3.228580938720703
1789031117078606600,2.904606689453125,-3.4873043556213377,-4.569483506011963,2.6319758125305173
1789031117088613600,2.914613525390625,-3.208828775024414,-4.453813638305664,2.4347534507751463
1789031117098620700,2.92462060546875,-3.7204397422790527,-4.131194964599609,3.074603844451904
1789031117108627500,2.93462744140625,-4.775983399200439,-3.8545150352478026,4.4373535018920895
1789031117118634500,2.944634521484375,-4.996698864746094,-3.8166567214965816,4.908562316131592
1789031117128642600,2.954642578125,-4.67991605758667,-4.371812231445312,4.476558554077148
1789031117138649300,2.9646494140625,-3.9827544616699218,-5.014056826782226,4.004601551818848
1789031117148656600,2.97465673828125,-3.3916859268188473,-5.221155270385742,3.9175124664306638
1789031117158663400,2.984663330078125,-3.525461944580078,-4.940884038543701,4.21978042602539
1789031117168670700,2.994670654296875,-3.8602012641906738,-4.043656966400146,4.8701054519653315
1789031117178677500,3.004677490234375,-5.016600666046142,-3.056796969604492,5.614702168273926
1789031117188684500,3.0146845703125,-5.374234539031982,-2.628384510040283,5.883900217437744
1789031117198691600,3.024691650390625,-5.276371546173095,-3.179948717498779,5.622333686065674
1789031117208698600,3.03469873046875,-4.962431853485107,-4.131494239807129,5.2356701179504395
1789031117218706700,3.044706787109375,-4.5042415107727045,-4.706401913452148,4.6730327278137205
1789031117228713500,3.05471337890625,-5.386055909729004,-4.461445156097412,4.332756816864014
1789031117238720800,3.064720703125,-5.508609107208252,-3.8693291580200193,4.821922143554687
1789031117248727600,3.0747275390625,-5.343858105468749,-3.288585617828369,5.263801987457275
1789031117258734600,3.084734619140625,-5.070919116210937,-2.755426835632324,4.988917709350585
1789031117268741600,3.09474169921875,-4.730343930053711,-2.777872476196289,4.893897830963135
1789031117278748400,3.10474853515625,-4.3171945060729975,-3.2983120620727537,5.309142181396484
1789031117288755700,3.114755615234375,-4.299387631225586,-3.9559693305969237,5.32455485458374
1789031117298762500,3.124762451171875,-4.095730852508544,-3.969885627746582,4.720318210601806
1789031117308770600,3.1347705078125,-4.616918626403808,-3.4683003799438477,4.215889848327636
1789031117318777600,3.144777587890625,-4.669890338134765,-2.6836007858276365,4.211101445007324
1789031117328784400,3.154784423828125,-4.018667486572266,-1.8200421745300293,4.515015418243408
1789031117338791700,3.164791748046875,-3.7178959030151364,-1.2288240020751953,4.893299280548096
1789031117348798500,3.174798583984375,-3.8429929397583007,-1.0461164878845215,5.078251358795166
1789031117358805800,3.1848056640625,-4.677671493530273,-1.4044985488891601,5.2453965621948235
1789031117368812500,3.1948125,-5.4890065811157225,-2.589628370666504,5.603479347991943
1789031117378819600,3.204819580078125,-5.321113189697265,-4.225616292572021,5.858910737609863
1789031117388826600,3.21482666015625,-4.632032024383545,-5.66303511428833,5.642983675384521
1789031117398834400,3.22483447265625,-3.7901708656311035,-6.770203744506835,4.988468796539307
1789031117408841700,3.234841796875,-3.3891420875549314,-7.443722599029541,4.248959758758545
1789031117418848500,3.2448486328125,-4.40548069229126,-8.244433416748047,4.078372890472412
1789031117428856000,3.25485595703125,-5.364508094787597,-8.627206407165527,4.221576077270508
1789031117438863400,3.26486328125,-5.47778376083374,-8.539069858551025,4.52608860092163
1789031117448870100,3.2748701171875,-4.834192427062988,-8.353070317077636,5.156362187957764
1789031117458877200,3.284877197265625,-4.048445369720459,-7.812878567504883,5.232078815460205
1789031117468884200,3.29488427734375,-3.2803555496215817,-7.096114445495605,4.898237321472168
1789031117478891000,3.30489111328125,-3.158849815368652,-6.476465128326415,4.665550847625732
1789031117488899300,3.3148994140625,-3.0125042388916015,-6.068852295684814,4.6636055587768555
1789031117498906000,3.324906005859375,-2.927061167144775,-5.965153436279296,4.779574701690674
1789031117508913200,3.3349130859375,-2.9191303741455075,-6.056133099365234,4.4205940902709955
1789031117518920200,3.344920166015625,-3.205536747741699,-6.680121907043457,3.7779005821228027
1789031117528927000,3.354927001953125,-3.8519711959838867,-8.175300843811035,3.5606267814636228
1789031117538934300,3.364934326171875,-3.6159926948547363,-9.71013374557495,3.480570663452148
1789031117548941000,3.374941162109375,-3.0373440811157226,-10.915315006256103,3.1681273468017577
1789031117558948400,3.3849482421875,-3.14104294052124,-11.7342816116333,2.9134441452026367
1789031117568955100,3.394955078125,-3.632153556060791,-12.140248430633545,3.152565036010742
1789031117578963200,3.404963134765625,-4.070591735076904,-12.036100658416748,3.666570204925537
1789031117588970200,3.41497021484375,-4.077475064849853,-11.426925973510741,3.8789059646606443
1789031117598977000,3.42497705078125,-4.050390658569336,-10.839448741149901,3.6189854469299316
1789031117608984300,3.434984375,-4.253299249267578,-10.397269622039794,3.1753099517822263
1789031117618991000,3.4449912109375,-4.388571643066406,-10.018836122131347,2.9083564666748045
1789031117628998400,3.454998291015625,-4.576516473388671,-9.908702845764159,3.367145359802246
1789031117639005200,3.465005126953125,-4.734533782958984,-9.97125136413574,4.30941335067749
1789031117649012000,3.475011962890625,-4.6538791145324705,-10.62322240371704,5.32410594177246
1789031117659019300,3.485019287109375,-4.5504795303344725,-11.70779575576782,5.508609107208252
1789031117669027000,3.495027099609375,-4.568735317993164,-12.655151425170898,4.626645070648193
1789031117679034000,3.5050341796875,-4.7846623802185055,-13.365481130218505,3.663427815246582
1789031117689041200,3.515041259765625,-5.319018263244629,-13.912705847167969,3.1088708557128903
1789031117699048200,3.525048095703125,-6.167463476562499,-14.790629668426513,3.1953613906860348
1789031117709055200,3.53505517578125,-6.765864253997802,-15.668553489685058,3.642927463531494
1789031117719062000,3.54506201171875,-5.901856729888916,-15.550040507507322,3.9178117416381832
1789031117729069300,3.5550693359375,-4.304026396942138,-13.828759151458739,3.4488474914550777
1789031117739076000,3.565076171875,-2.9554923118591305,-11.298686547088622,2.459144380187988
1789031117749083400,3.57508349609375,-2.1357775184631347,-9.348010744476317,1.6537947967529296
1789031117759091200,3.58509130859375,-1.7067665084838866,-7.933636113739013,0.7085340538024902
1789031117769098200,3.59509814453125,-1.7184382415771484,-7.4214265960693355,0.4182371025085449
1789031117779105300,3.605105224609375,-2.643497908020019,-7.808688714599609,0.834379278564453
1789031117789112000,3.615112060546875,-3.4036569351196286,-8.59937381286621,1.5860089622497557
1789031117799119400,3.625119384765625,-3.748870886993408,-9.932644862365722,2.4172458511352537
1789031117809126100,3.635126220703125,-3.547159397125244,-10.601225675964354,2.6816554969787596
1789031117819133200,3.64513330078125,-2.991106061553955,-10.504859059143065,2.805106520080566
1789031117829140200,3.65514013671875,-2.6892870147705077,-9.828197814941406,2.784755805969238
1789031117839147000,3.66514697265625,-2.173635832214355,-8.964339928436278,2.7735329856872557
1789031117849155000,3.675155029296875,-1.979705497741699,-8.399457974243164,2.9159879844665526
1789031117859162000,3.685162109375,-2.1959318351745605,-8.143128759002686,3.1823429191589354
1789031117869169200,3.695169189453125,-2.580500476837158,-8.171110990905762,3.6445734771728513
1789031117879176200,3.70517626953125,-2.6864439002990723,-8.122179494476319,3.6635774528503418
1789031117889183200,3.715183349609375,-2.703951499938965,-7.96131907043457,3.267037802886963
1789031117899190300,3.725190185546875,-3.283348301696777,-7.924657857513427,3.074603844451904
1789031117909197000,3.735197021484375,-4.225317017364501,-8.227225092315674,3.2511762168884277
1789031117919204400,3.745204345703125,-5.542427205657959,-9.156773886871337,4.2034699272155756
1789031117929211100,3.755211181640625,-6.321440570831299,-10.411784469604491,5.50337179107666
1789031117939219200,3.76521923828125,-5.473144995117187,-11.598410667419433,6.571485006713867
1789031117949226200,3.775226318359375,-3.8871360328674314,-12.307094358825683,6.983437329864501
1789031117959233300,3.7852333984375,-2.9554923118591305,-12.109871997070313,6.557269434356689
1789031117969240000,3.795239990234375,-2.9206267501831054,-11.038766029357909,5.7077767578125
1789031117979247000,3.8052470703125,-3.2353146308898926,-9.772831901550292,5.037549930572509
1789031117989254100,3.815254150390625,-3.49239203414917,-8.454374974822997,4.632331299591065
1789031117999261200,3.82526123046875,-3.6076129890441893,-7.373243287658691,4.69847112045288
1789031118009268200,3.835268310546875,-3.7868788383483882,-6.905176863098144,5.335328762054443
1789031118019276000,3.845276123046875,-4.248959758758545,-6.9427359016418455,6.12870733718872
1789031118029283300,3.855283447265625,-4.425382493591308,-7.688230443572998,6.810456259918213
1789031118039290000,3.8652900390625,-4.492420140075684,-8.58022019958496,6.8016276412963865
1789031118049297200,3.875297119140625,-4.449025234985351,-9.115623545837401,6.026055941009521
1789031118059304200,3.88530419921875,-4.11787721786499,-8.884732723236084,4.9546506980895995
1789031118069311200,3.895311279296875,-3.6405332618713375,-7.612513816070556,4.39874700012207
1789031118079318300,3.905318359375,-2.9927520751953125,-6.018723698425292,4.390666569519043
1789031118089325300,3.9153251953125,-2.9325977584838867,-4.715978720092773,4.648941073608398
1789031118099332000,3.92533203125,-3.352331237030029,-4.183568125915527,4.853944590759277
1789031118109340200,3.935340087890625,-4.005948290252685,-4.3540053565979004,4.830601124572754
1789031118119347200,3.94534716796875,-4.923226801300048,-5.070320565795898,4.593275885009765
1789031118129354200,3.955354248046875,-5.768230349731445,-6.072892510986327,4.3622354248046875
1789031118139361000,3.965361083984375,-5.443067836761474,-6.412120958709717,3.963451210784912
1789031118149368300,3.975368408203125,-4.461894068908691,-5.938218667602539,3.6706104202270504
1789031118159375000,3.985375,-3.884741831207275,-5.1617491416931145,3.6041713241577145
1789031118169382100,3.995382080078125,-4.202871376800537,-4.540004898071289,3.71565133895874
1789031118179389200,4.00538916015625,-4.45605820236206,-4.19449167098999,3.5805285827636717
1789031118189396200,4.015396240234375,-4.339191233825684,-4.485536810302734,3.4153286682128905
1789031118199404300,4.025404296875,-4.664952297210693,-5.019443780517578,4.0255508163452145
1789031118209411000,4.0354111328125,-5.49678773651123,-5.266794739532471,5.562478644561767
1789031118219418400,4.04541845703125,-5.372887800598145,-5.034257903289794,5.89302811126709
1789031118229425200,4.055425048828125,-3.9736265678405758,-4.414159673309326,4.89644167022705
1789031118239432200,4.06543212890625,-2.9665654945373534,-3.9734769302368163,3.662829264831543
1789031118249439200,4.075439208984375,-2.5308207923889157,-3.4763808105468748,2.807351084136963
1789031118259446300,4.0854462890625,-2.542791800689697,-2.6663924613952634,2.2279542823791503
1789031118269453300,4.095453369140625,-4.215740210723877,-1.760785683441162,2.4908675521850583
1789031118279460000,4.105460205078125,-5.825691189575195,-1.4175170204162597,4.3825861389160155
1789031118289468400,4.115468505859375,-5.562478644561767,-2.399738251495361,5.665130040740967
1789031118299475200,4.12547509765625,-4.313004653167725,-4.451718711853027,5.271732780456543
1789031118309482000,4.13548193359375,-3.1803976303100585,-5.751022025299072,4.072537023925781
1789031118319489300,4.1454892578125,-2.674472891998291,-6.3244333229064935,3.212120802307129
1789031118329496000,4.15549609375,-3.130867583465576,-6.061819328308105,2.677016731262207
1789031118339503400,4.16550341796875,-3.784783911895752,-4.997746327972412,1.8900725730895995
1789031118349510100,4.17551025390625,-4.93534744720459,-3.103334264373779,1.5448586212158202
1789031118359517200,4.18551708984375,-5.6681227928161615,-1.7955016075134276,2.261922018432617
1789031118369525200,4.195525146484375,-5.631910492706298,-1.5693991882324219,3.9160160903930663
1789031118379532000,4.205531982421875,-4.798728314971924,-1.9882348411560058,5.432593204498291
1789031118389539300,4.215539306640625,-3.669862232208252,-3.355623264312744,6.470629261779785
1789031118399546000,4.225546142578125,-2.7473464050292966,-4.745158052825928,6.238242063140869
1789031118409553200,4.23555322265625,-2.352003855895996,-5.258115758514404,4.7022120605468745
1789031118419560200,4.245560302734375,-2.8600235206604,-4.740668924713135,3.12188932723999
1789031118429567200,4.255567138671875,-3.512892385864258,-3.8435914901733397,2.353799507141113
1789031118439574300,4.26557421875,-4.196736235046386,-2.9542952110290526,2.7733833480834957
1789031118449581300,4.275581298828125,-4.460098417663574,-2.4105121589660645,4.039467113494873
1789031118459589000,4.285589111328125,-4.073584487152099,-3.123834616088867,5.186289708709716
1789031118469596400,4.295596435546875,-3.904793270111084,-5.257816483306884,5.760598831939697
1789031118479603200,4.305603271484375,-3.6367923217773437,-7.7886372756958,5.642983675384521
1789031118489610500,4.315610595703125,-3.0277672744750976,-9.540145427703857,5.1137154708862305
1789031118499617300,4.3256171875,-3.116203098297119,-9.962572383117676,4.2125978210449215
1789031118509624300,4.335624267578125,-3.7409400939941406,-9.636512044525146,3.403357659912109
1789031118519631400,4.34563134765625,-4.176535158538818,-9.254786517333983,3.3514334114074704
1789031118529638400,4.355638427734375,-4.60928710861206,-8.987982669830322,3.695899175262451
1789031118539645400,4.3656455078125,-4.694879817962646,-8.796895449829101,3.9721301918029783
1789031118549653200,4.3756533203125,-4.460696968078613,-8.592490483093261,4.14391416091919
1789031118559660500,4.38566064453125,-4.552873731994628,-8.589497731018065,4.340388334655762
1789031118569667300,4.395667236328125,-4.3637318008422845,-8.809165733337402,4.4656350090026855
1789031118579674400,4.40567431640625,-3.984400475311279,-9.05217720184326,4.603750517272949
1789031118589681400,4.415681396484375,-4.020313500213623,-9.361777404022217,4.854692778778076
1789031118599688200,4.425688232421875,-4.413261847686767,-10.026617277526855,5.12074843826294
1789031118609695500,4.435695556640625,-4.963180041503906,-11.049539936828612,5.264400537872314
1789031118619702300,4.445702392578125,-5.326051230621338,-12.394482719421386,5.519233377075195
1789031118629710300,4.45571044921875,-5.473144995117187,-13.676428070831298,5.446958414459228
1789031118639717400,4.46571728515625,-4.998494515991211,-14.33228968811035,5.322908840942382
1789031118649724200,4.47572412109375,-4.499453107452393,-14.027028976440429,5.053261878967285
1789031118659731500,4.4857314453125,-4.108450048828125,-12.773514769744873,4.696525831604004
1789031118669738200,4.49573828125,-3.8298248306274414,-10.992228734588622,4.085555495452881
1789031118679745500,4.50574560546875,-3.7687726882934567,-9.19971987915039,3.181894006347656
1789031118689752300,4.51575244140625,-3.7057752571105955,-8.053046921539305,2.4820389335632322
1789031118699759400,4.52575927734375,-3.8099230293273925,-7.950694800567627,2.4007857147216796
1789031118709767400,4.535767333984375,-4.0988732421875,-8.723872299194335,2.952499559783935
1789031118719774200,4.545774169921875,-3.9523780281066894,-9.873687646484374,3.7624879089355465
1789031118729781500,4.555781494140625,-3.4680011047363277,-10.727968726348877,4.184765226745605
1789031118739788300,4.565788330078125,-3.0832828254699707,-10.633547398376464,3.826083890533447
1789031118749795300,4.57579541015625,-3.1606454666137695,-10.332326902008056,3.379266005706787
1789031118759802400,4.58580224609375,-3.9528269409179684,-10.653748474884033,3.2679356285095214
1789031118769809200,4.59580908203125,-4.80112251663208,-11.527482443237304,3.4778771865844726
1789031118779816400,4.60581640625,-5.369895048522949,-12.729072401428223,4.069993184661865
1789031118789824300,4.61582421875,-5.455487757873535,-13.487735052490233,4.4199955398559565
1789031118799831300,4.625831298828125,-4.458751679229736,-12.769773829650878,3.7205893798828122
1789031118809838300,4.63583837890625,-3.139546564483642,-11.158625749969481,2.5870845314025877
1789031118819845400,4.645845458984375,-2.608781983947754,-9.687538467407226,1.6193781478881835
1789031118829852400,4.655852294921875,-2.5936685859680173,-8.42160433959961,0.8925883064270019
1789031118839859200,4.665859130859375,-2.7834090675354,-7.582885570526122,0.7885901718139648
1789031118849866500,4.675866455078125,-2.9927520751953125,-7.242460021972656,1.193359889984131
1789031118859873300,4.685873291015625,-3.0774469589233395,-7.684190228271484,1.9850924514770507
1789031118869881300,4.69588134765625,-2.9975404785156248,-8.556278182983398,2.5227403617858886
1789031118879888400,4.705888427734375,-2.972550998687744,-9.588029460906982,2.86017315826416
1789031118889895400,4.7158955078125,-3.2685341789245603,-10.427795693206786,3.1844378456115723
1789031118899902500,4.72590234375,-3.481468489074707,-10.477924290466309,3.2881367050170898
1789031118909909200,4.7359091796875,-3.1836896575927733,-9.751882637023925,3.3291374084472656
1789031118919916300,4.745916259765625,-2.4814403831481933,-9.441085334014891,4.084358394622803
1789031118929923300,4.75592333984375,-2.435501638793945,-9.33424408493042,4.248959758758545
1789031118939930400,4.765930419921875,-2.9504046333312988,-9.369259284210205,3.870226983642578
1789031118949937400,4.7759375,-3.3535283378601073,-10.01778865890503,4.108599686431885
1789031118959945500,4.785945556640625,-3.7587469688415527,-11.17299095993042,4.86456886062622
1789031118969952300,4.7959521484375,-4.067598983001709,-12.616245648193358,5.8372132850646965
1789031118979959300,4.805959228515625,-3.721337567901611,-13.609240786743163,6.133795015716553
1789031118989966300,4.81596630859375,-3.5058594184875487,-13.454814779663085,5.103240838623047
1789031118999973400,4.825973388671875,-3.9782653335571285,-12.471845360565185,3.994575832366943
1789031119009980400,4.83598046875,-4.821622868347168,-11.157428649139403,3.4874539932250976
1789031119019987500,4.845987548828125,-5.208884986877441,-9.48747299118042,3.3261446563720702
1789031119029994200,4.855994140625,-4.7870565818786615,-7.96745421218872,3.437325395965576
1789031119040002300,4.866002197265625,-3.893121537017822,-6.701520084381103,3.5181297019958495
1789031119050009300,4.87600927734375,-3.0576947952270506,-5.824793363952637,3.8801030654907223
1789031119060016400,4.886016357421875,-3.1766566902160642,-5.575796391296387,5.187786084747314
1789031119070023400,4.8960234375,-3.9552211425781247,-5.703886180114746,7.134272034454345
1789031119080030500,4.906030517578125,-4.400692288970947,-6.545896976470947,8.380753273773193
1789031119090037200,4.916037353515625,-4.66076244430542,-7.455693607330322,8.659378491973877
1789031119100044300,4.926044189453125,-5.0182466796875,-7.908945909118652,8.090755597686767
1789031119110051300,4.93605126953125,-4.843769233703613,-7.940968356323242,6.991966673278808
1789031119120059100,4.94605908203125,-4.431218360137939,-7.409605225372314,5.966200899505615
1789031119130066400,4.95606640625,-4.0717888359069825,-6.515819818115234,5.449053340911865
1789031119140073200,4.9660732421875,-3.8521208335876462,-5.964255610656738,5.27981321105957
1789031119150080500,4.97608056640625,-4.018667486572266,-5.312434208679199,4.678569319152832
1789031119160087300,4.98608740234375,-4.13059641418457,-4.648342523193359,3.7158009765625
1789031119170094300,4.99609423828125,-4.3914147575378415,-3.317764950561523,2.8226141197204586
1789031119180101400,5.006101318359375,-5.1714755859374995,-2.4293664970397946,3.833116857910156
1789031119190108400,5.0161083984375,-6.649745473480224,-3.163338943481445,6.164919637298584
1789031119200116500,5.026116455078125,-7.588272524261474,-4.6432548446655275,7.6279264892578125
1789031119210123300,5.036123291015625,-6.392967345428467,-6.363189462280273,7.677007623291015
1789031119220130600,5.046130615234375,-5.533000036621093,-7.5451768943786615,7.455693607330322
1789031119230137300,5.056137451171875,-5.989694003295898,-8.200739236450195,7.60353555984497
1789031119240144100,5.06614404296875,-6.273406900024414,-9.226953923034667,7.600093894958496
1789031119250151400,5.0761513671875,-5.306747979736328,-9.73617068862915,6.841431243896484
1789031119260158200,5.086158203125,-3.7557542167663573,-9.096021019744873,5.575347478485107
1789031119270165500,5.09616552734375,-4.45022233581543,-7.200112580108642,4.357147746276855
1789031119280173300,5.10617333984375,-4.615122975158691,-5.220556719970703,3.857358149719238
1789031119290180400,5.116180419921875,-4.629188909912109,-3.6854245429992676,3.6745009979248047
1789031119300187400,5.1261875,-4.005200102233887,-2.4365491020202636,2.8459575859069823
1789031119310194200,5.136194091796875,-3.2920272827148436,-2.2512977485656736,2.139368820953369
1789031119320201500,5.146201416015625,-4.033780884552002,-1.560271294403076,1.5798738204956053
1789031119330208300,5.156208251953125,-3.4214638099670407,-0.8319850769042968,1.3418003929138183
1789031119340215600,5.166215576171875,-2.478447631072998,-0.15083470458984374,1.3316250358581543
1789031119350222300,5.176222412109375,-2.165555401611328,0.5817910034179687,1.352873575592041
1789031119360230400,5.18623046875,-1.8279729675292968,0.5131073432922363,1.901893943786621
1789031119370237400,5.196237548828125,-1.3178583763122558,-0.4424783943176269,2.4320599739074704
1789031119380244200,5.206244140625,-1.3441945945739746,-1.6328455322265625,2.1775264099121094
1789031119390251500,5.21625146484375,-1.512536898803711,-1.987337015533447,1.16193599319458
1789031119400258300,5.22625830078125,-1.6059107635498047,-1.7528548904418944,0.23582886352539062
1789031119410265300,5.236265380859375,-1.7525556152343749,-1.087266828918457,0.006284779357910156
1789031119420272400,5.2462724609375,-1.981052236175537,-0.4207809417724609,0.8705915786743164
1789031119430279000,5.25627880859375,-2.155230406951904,-0.4034229797363281,2.43250888671875
1789031119440287200,5.266287353515625,-2.037166337585449,-1.016338604736328,3.405302948760986
1789031119450294000,5.2762939453125,-2.5719711334228514,-2.108543474578857,3.7961563697814937
1789031119460301000,5.286301025390625,-3.832069394683838,-3.5326445495605467,4.413710760498047
1789031119470308000,5.29630810546875,-4.917390934753418,-5.290886393737793,5.883750579833984
1789031119480315000,5.30631494140625,-5.322759203338623,-6.716633482360839,7.77621735458374
1789031119490322200,5.316322265625,-5.160402403259277,-7.866299192047118,8.870816426086424
1789031119500329000,5.326328857421875,-5.500528676605224,-9.414749115753173,9.622595747375488
1789031119510337000,5.3363369140625,-6.48020606842041,-11.480645873260498,10.66856259765625
1789031119520344000,5.346343994140625,-7.332242584228515,-13.937545689392088,11.35076043319702
1789031119530351000,5.35635107421875,-6.8381392166137696,-15.761328804016113,10.790517244720458
1789031119540358100,5.366358154296875,-5.992088204956055,-16.716315991210937,8.840439992523192
1789031119550365000,5.376364990234375,-6.136937405395507,-17.105523398590087,7.192181787109375
1789031119560372200,5.386372314453125,-6.703914286041259,-16.650774720764158,5.937769754791259
1789031119570379000,5.39637890625,-6.385784740447997,-15.39232247314453,4.8427217704772945
1789031119580386000,5.406385986328125,-4.7560815979003905,-13.709198706054687,3.9791631591796874
1789031119590394000,5.41639404296875,-3.722534668731689,-11.829002214813231,3.4765304481506347
1789031119600401200,5.426401123046875,-3.5097499961853025,-9.983820922851562,3.1221886024475096
1789031119610408200,5.436408203125,-3.143137866973877,-8.158840707397461,2.759467050933838
1789031119620415000,5.4464150390625,-2.7425580017089843,-6.6611179313659665,2.6535236274719236
1789031119630422000,5.456422119140625,-2.5279776779174803,-5.638045634460449,2.673575066375732
1789031119640429000,5.466428955078125,-2.3151930053710936,-5.1146132965087885,2.994847001647949
1789031119650436000,5.47643603515625,-1.7018284675598143,-4.856039517211914,3.443161262512207
1789031119660443100,5.486443115234375,-1.0148422286987304,-4.727351177978515,3.5078047073364256
1789031119670451000,5.496450927734375,-0.7356184600830078,-4.702361698150635,3.040785746002197
1789031119680458000,5.5064580078125,-1.0362404060363768,-4.929212305450439,2.461089669036865
1789031119690465000,5.516465087890625,-1.6156372077941894,-5.877016887664794,2.3502082046508788
1789031119700472000,5.52647216796875,-2.5698762069702146,-7.655160533142089,2.565387078857422
1789031119710479000,5.53647900390625,-3.7861306503295897,-9.561842880249023,2.7768250129699705
1789031119720486000,5.54648583984375,-5.017648129272461,-11.464634649658203,3.314772198486328
1789031119730493200,5.5564931640625,-5.784989761352539,-13.183072891235351,4.0985739669799806
1789031119740501000,5.5665009765625,-5.764040496826172,-14.05127026824951,4.451569074249267
1789031119750508000,5.576508056640625,-5.475239921569824,-13.6243541847229,4.151096765899658
1789031119760515000,5.58651513671875,-5.691166983795165,-12.38565410079956,3.967790701293945
1789031119770522000,5.596522216796875,-6.067954470062255,-11.10954461593628,4.082712380981445
1789031119780529000,5.60652880859375,-5.760598831939697,-10.069862545013427,3.9586628074645995
1789031119790536000,5.616535888671875,-4.815787001800537,-9.388562535095215,3.289782718658447
1789031119800543000,5.62654296875,-3.901501242828369,-8.8489693359375,2.334047343444824
1789031119810550000,5.636550048828125,-3.7289690856933593,-8.456170626068115,1.784428424835205
1789031119820558000,5.64655810546875,-4.2773909034729005,-8.436568099975586,2.230647759246826
1789031119830564900,5.65656494140625,-4.577264661407471,-8.89341170425415,3.0823849998474118
1789031119840572200,5.666572265625,-4.2335470855712884,-9.67227543182373,3.785232824707031
1789031119850579000,5.676578857421875,-3.6186861717224117,-10.364050074005126,4.017171110534668
1789031119860586000,5.6865859375,-3.219004132080078,-10.858153441619873,3.866336405944824
1789031119870593000,5.696593017578125,-3.116352735900879,-11.467477764129638,4.068945721435546
1789031119880600000,5.70660009765625,-3.182043643951416,-12.215067232513427,5.003282919311523
1789031119890607000,5.716607177734375,-3.310731983184814,-12.536638442993164,5.925499471282959
1789031119900615000,5.726614990234375,-2.8553847549438474,-12.157456755065917,6.2289645317077635
1789031119910622200,5.736622314453125,-1.8468273056030273,-10.920851597595215,5.421520021820068
1789031119920629000,5.74662890625,-1.521365517425537,-9.53086789627075,4.57127915725708
1789031119930636000,5.756635986328125,-2.116923180389404,-8.634538649749755,4.383035051727295
1789031119940643000,5.76664306640625,-3.425055112457275,-8.306981935119628,4.784512742614746
1789031119950649900,5.77664990234375,-4.984727856445312,-9.061454733276367,5.895871225738525
1789031119960657200,5.7866572265625,-6.158934133148193,-10.424054753112792,6.6808700950622555
1789031119970665000,5.7966650390625,-6.328623175811767,-11.749993560028075,6.828562409973144
1789031119980672000,5.806672119140625,-5.205892234802246,-12.680739455413818,6.6051534675598145
1789031119990679000,5.816678955078125,-4.226963031005859,-12.535890254974365,6.091447573852538
1789031120000685800,5.826685791015625,-4.11787721786499,-11.1719434967041,5.680841989135742
1789031120010693000,5.836693115234375,-3.7645828353881834,-9.548974046325682,5.222053096008301
1789031120020700000,5.846699951171875,-2.648286311340332,-7.893832511138916,3.9772178703308105
1789031120030707200,5.856707275390625,-1.3211504035949706,-6.555174507904052,2.4069208564758298
1789031120040714000,5.8667138671875,-0.5051765502929687,-5.456684858703613,1.0003273811340332
1789031120050722000,5.87672216796875,-0.5066729263305664,-4.889408702850342,0.49844285812377925
1789031120060729000,5.88672900390625,-1.1321581100463867,-4.680364970397949,1.1988964813232421
1789031120070736000,5.89673583984375,-1.8077718910217284,-4.888810152435302,2.7207109115600585
1789031120080743200,5.9067431640625,-1.9979612854003905,-5.462670362854004,3.8513726455688473
1789031120090750000,5.91675,-1.7923592178344725,-5.786336499786376,3.8518215583801267
1789031120100757200,5.92675732421875,-2.2508488357543945,-5.552004012298584,3.3449989944458007
1789031120110764000,5.936763916015625,-3.666570204925537,-4.518307445526123,3.61973363494873
1789031120120772000,5.946772216796875,-5.365705195617675,-3.5754409042358395,4.778527238464355
1789031120130779100,5.956779052734375,-6.250661984252929,-3.6366426841735837,6.3901242309570305
1789031120140786000,5.966785888671875,-5.699995602416992,-4.571728070068359,7.372944012451171
1789031120150793000,5.97679296875,-4.632181661987304,-5.979219371032714,7.873631434631347
1789031120160800000,5.986800048828125,-5.0182466796875,-7.4895117057800284,8.333168515777587
1789031120170807000,5.99680712890625,-6.325331148529052,-8.950124356079101,8.194604094696045
1789031120180814000,6.00681396484375,-6.132897190093994,-9.868001417541503,6.778733087921142
1789031120190820900,6.01682080078125,-4.566939666748047,-9.650727616882323,5.265747276306152
1789031120200829000,6.026828857421875,-4.301332920074462,-8.511386901855468,5.397129092407226
1789031120210836000,6.0368359375,-5.399224018859863,-6.782324390411376,6.691644002532959
1789031120220843000,6.046843017578125,-5.534496412658691,-5.232827003479003,7.540388491058349
1789031120230850000,6.05685009765625,-5.22833787536621,-4.507533538055419,7.361721192169189
1789031120240857000,6.066857177734375,-4.345027100372314,-4.572625895690917,6.1364884925842285
1789031120250864000,6.076864013671875,-4.613626599121093,-4.712537055206298,4.9640778671264645
1789031120260871000,6.086870849609375,-4.851700026702881,-4.233247810363769,4.619312828063965
1789031120270878000,6.0968779296875,-3.3137247352600094,-3.4287960525512693,4.724657701110839
1789031120280886000,6.106885986328125,-2.823212670135498,-2.2819734573364254,5.432593204498291
1789031120290893000,6.11689306640625,-3.408146063232422,-0.826149210357666,5.265896913909912
1789031120300900000,6.126900146484375,-3.76682739944458,-0.8411129707336426,4.691138877868652
1789031120310907100,6.1369072265625,-3.258508459472656,-1.5818191093444822,4.198082973480225
1789031120320914000,6.146913818359375,-3.047818713378906,-2.5954642372131347,3.7487212493896482
1789031120330921000,6.1569208984375,-3.120542588806152,-3.0864252151489255,3.235464268493652
1789031120340928000,6.166927978515625,-2.842366283416748,-2.823811220550537,2.512864279937744
1789031120350935800,6.176935791015625,-3.025073797607422,-2.5827450408935544,1.8384475997924803
1789031120360943000,6.186943115234375,-3.716848439788818,-2.699761647033691,1.2382511711120605
1789031120370950000,6.196949951171875,-4.07956999130249,-3.1096190437316893,1.3781623306274413
1789031120380957200,6.206957275390625,-3.950732014465332,-2.545485277557373,2.056469588470459
1789031120390964000,6.2169638671875,-3.4385224967956542,-1.8164508720397947,2.478297993469238
1789031120400971000,6.226970947265625,-3.3164182121276853,-1.3398551040649413,3.1200936759948728
1789031120410978000,6.23697802734375,-3.6022260353088376,-1.152359186553955,3.93891064376831
1789031120420985000,6.246985107421875,-3.743633570861816,-1.2767080352783202,4.378246648406982
1789031120430993700,6.25699365234375,-3.8890813217163083,-1.8728642486572264,4.436306038665771
1789031120441000400,6.26700048828125,-4.487033186340332,-3.086724490356445,4.878784432983398
1789031120451007500,6.277007568359375,-5.015403565216064,-4.434660025024414,5.588814862823486
1789031120461014500,6.2870146484375,-4.719270747375488,-5.992836392974853,6.227318518066406
1789031120471021600,6.297021484375,-4.058920001983642,-7.486369316101074,6.424840155029297
1789031120481028600,6.307028564453125,-3.1947628402709958,-8.680926306915282,5.790975265502929
1789031120491035400,6.317035400390625,-3.3077392311096188,-10.045321977996826,5.215319403839111
1789031120501043500,6.32704345703125,-4.3555017326354974,-10.531943465423584,4.640860643005371
1789031120511050500,6.337050537109375,-5.459079060363769,-10.149320112609862,4.122665621185303
1789031120521057500,6.3470576171875,-6.027402679443359,-8.974814560699462,4.3813890380859375
1789031120531064600,6.357064697265625,-5.108627792358398,-7.545925082397461,4.755782322692871
1789031120541071600,6.367071533203125,-3.998017497253418,-6.240935540008545,5.251382066345214
1789031120551078700,6.37707861328125,-3.8057331764221187,-5.430199002838134,5.757306804656982
1789031120561085400,6.38708544921875,-3.266289614868164,-5.259462496948242,5.971288578033447
1789031120571092500,6.397092529296875,-3.1006407875061033,-5.83541763381958,6.236895324707031
1789031120581100500,6.4071005859375,-3.1817443687438964,-6.978648926544189,6.1085062606811515
1789031120591107600,6.417107666015625,-3.2044892845153807,-8.506149585723877,5.258863946533203
1789031120601114600,6.427114501953125,-3.4835634155273434,-9.781510882568359,4.07927071609497
1789031120611121700,6.43712158203125,-3.9323265892028805,-11.105055487823485,3.500622102355957
1789031120621128400,6.44712841796875,-4.727201540374756,-12.573000380706786,3.7529111022949215
1789031120631135500,6.457135498046875,-4.802020342254639,-13.800028731536864,4.361786511993408
1789031120641142500,6.467142578125,-4.0924388252258295,-14.202404248046873,4.9075148529052735
1789031120651150600,6.477150634765625,-3.6330513816833494,-13.463942673492431,5.055805718231201
1789031120661157600,6.48715771484375,-3.9022494308471676,-11.866710890960693,4.894197106170654
1789031120671164400,6.497164306640625,-4.386626354217529,-10.008810402679442,4.349216953277588
1789031120681171700,6.507171630859375,-4.292803576660156,-8.601169464111328,3.790470140838623
1789031120691178500,6.517178466796875,-4.192696019744873,-7.968202400207519,3.5523967132568357
1789031120701185500,6.527185546875,-4.64789361038208,-8.048258518218994,3.481318851470947
1789031120711192600,6.537192626953125,-5.108328517150879,-8.787019367980957,3.887435308074951
1789031120721199600,6.54719970703125,-4.959888014221191,-9.992799179077148,4.509478826904297
1789031120731207700,6.557207763671875,-4.567238941955567,-10.840047291564941,4.620210653686523
1789031120741214500,6.56721435546875,-4.170100741577148,-11.237484767150878,4.413561122894287
1789031120751221800,6.5772216796875,-4.5331215682983395,-11.986570611572265,4.2311528839111325
1789031120761228500,6.587228515625,-5.217863243103027,-13.021763554382323,4.084358394622803
1789031120771235600,6.597235595703125,-5.867739356231689,-14.58831962814331,4.4774563796997064
1789031120781242600,6.60724267578125,-5.838560023498535,-15.259893193817138,4.004900827026367
1789031120791249400,6.61724951171875,-4.6067432693481445,-13.93126091003418,2.701258023071289
1789031120801257700,6.6272578125,-3.447051840209961,-11.171045671081542,1.5502455749511719
1789031120811264500,6.637264404296875,-2.7064953392028808,-8.57438433303833,1.1854290969848633
1789031120821271600,6.647271484375,-3.0213328575134275,-7.54607472000122,1.701379554748535
1789031120831278600,6.657278564453125,-3.956268605804443,-7.990797678375244,2.48338567199707
1789031120841285400,6.667285400390625,-4.308515525054931,-8.975413111114502,3.3420062423706054
1789031120851292700,6.677292724609375,-4.2131963714599605,-10.064325953674317,4.160374297332764
1789031120861299500,6.687299560546875,-3.6923078727722167,-10.505607247161864,4.320037620544434
1789031120871306800,6.697306640625,-2.9511528213500973,-10.407744254302978,4.338443045806884
1789031120881314600,6.707314453125,-2.598905902099609,-9.929801747894286,4.103362370300292
1789031120891321600,6.717321533203125,-2.536507021331787,-9.119663761138915,3.656095572662353
1789031120901328600,6.72732861328125,-2.6554689163208005,-8.373720306396484,3.639635436248779
1789031120911335400,6.73733544921875,-2.744054377746582,-7.902810767364501,3.697245913696289
1789031120921342700,6.7473427734375,-2.9608792655944822,-7.865999916839599,3.929483474731445
1789031120931349500,6.757349609375,-2.850446714019775,-8.143278396606444,4.192696019744873
1789031120941356500,6.7673564453125,-2.4902690017700193,-8.375067044830322,4.355352095031738
1789031120951364600,6.777364501953125,-2.3485621910095213,-8.561964411926269,4.508132088470458
1789031120961371600,6.78737158203125,-2.4543559768676757,-8.741828811645508,4.54569112701416
1789031120971378700,6.797378662109375,-2.9994857673645017,-8.897302281951903,4.817283377838135
1789031120981385500,6.807385498046875,-3.763535372161865,-9.064148210144042,5.040393045043945
1789031120991392500,6.817392578125,-4.400393013763427,-9.175478587341308,5.014356101989746
1789031121001399600,6.827399658203125,-4.796483750915527,-9.178022426605224,4.942081139373779
1789031121011406600,6.837406494140625,-4.8503532882690426,-9.222614432525635,5.0288709495544435
1789031121021413600,6.84741357421875,-4.351760792541504,-9.349058207702637,5.316923336791992
1789031121031421700,6.857421630859375,-3.7671266746520993,-9.44901612701416,5.455487757873535
1789031121041428500,6.867428466796875,-3.3304841468811035,-9.562740705871581,5.40760372467041
1789031121051435500,6.877435546875,-3.2158617424011227,-9.856479322052001,5.7788546195983885
1789031121061442600,6.887442626953125,-3.4974797126770016,-10.147374823760986,6.310068112945556
1789031121071449600,6.89744970703125,-3.782090435028076,-10.372280142211913,6.646603083801269
1789031121081456600,6.90745654296875,-3.7158009765625,-10.493336963653563,6.487538311004638
1789031121091463700,6.917463623046875,-3.263596138000488,-10.133009613800048,5.744288333129883
1789031121101471700,6.9274716796875,-2.7437551025390623,-9.269151727294922,4.945672441864013
1789031121111478500,6.937478515625,-2.6560674667358395,-7.688679356384277,4.305522772979736
1789031121121485600,6.947485595703125,-2.6816554969787596,-6.133795015716553,3.9543233169555663
1789031121131492600,6.95749267578125,-3.3547254386901852,-4.663755196380615,3.857956700134277
1789031121141499400,6.96749951171875,-4.0918402748107905,-3.5525463508605957,4.3053731353759765
1789031121151506700,6.977506591796875,-4.404283591461182,-3.529352522277832,5.205742597198486
1789031121161513500,6.987513427734375,-4.712537055206298,-4.236689475250244,5.561281543731689
1789031121171520500,6.9975205078125,-4.840776481628418,-5.320963552093506,4.895693482208252
1789031121181528600,7.007528564453125,-4.652382738494873,-5.822997712707519,3.611653204345703
1789031121191535400,7.017535400390625,-3.2679356285095214,-5.571606538391113,2.5049334869384765
1789031121201542700,7.027542724609375,-2.3973440498352048,-5.247042575836181,2.5308207923889157
1789031121211549400,7.037549560546875,-3.0160955413818358,-4.9826329299926755,3.469946393585205
1789031121221556700,7.047556640625,-3.806331726837158,-4.568286405181884,4.199579349517822
1789031121231563500,7.0575634765625,-4.564246189880371,-3.8824972671508786,4.548983154296875
1789031121241570600,7.067570556640625,-5.525218881225586,-3.1925182762145994,4.827608372497559
1789031121251578600,7.07757861328125,-6.0242602897644035,-2.5911247467041014,5.179855291748047
1789031121261585400,7.08758544921875,-5.887192244720459,-2.2176292877197263,5.254823731231689
1789031121271592700,7.0975927734375,-4.450371973419189,-2.328361114501953,4.929062667846679
1789031121281599500,7.107599609375,-2.9288568183898924,-2.826953610229492,4.725705164337158
1789031121291606500,7.1176064453125,-3.1096190437316893,-3.4389714096069333,4.737676172637939
1789031121301613600,7.127613525390625,-4.751592469787598,-3.9164650032043453,5.015852478027344
1789031121311620400,7.137620361328125,-5.3399675277709955,-4.223671003723144,5.452794281005859
1789031121321627600,7.147627685546875,-5.363759906768799,-5.023783271026611,5.876119062042236
1789031121331635500,7.157635498046875,-4.963928229522705,-5.506813455963134,6.010942543029785
1789031121341642500,7.167642578125,-4.8415246696472165,-4.687846850585937,5.067028538513183
1789031121351649500,7.1776494140625,-5.198410354614258,-3.215113554382324,3.901351605224609
1789031121361656300,7.18765625,-4.305223497772216,-2.3077111251831055,3.5066076065063476
1789031121371663600,7.19766357421875,-3.929333837127685,-1.9731214431762694,3.469048567962646
1789031121381670400,7.20767041015625,-4.088548247528076,-1.9264345108032226,3.5896564765930172
1789031121391677700,7.217677734375,-3.580977495574951,-2.207005017852783,3.8973113899230953
1789031121401685500,7.227685546875,-3.4771289985656737,-2.4679729988098145,4.19449167098999
1789031121411692500,7.237692626953125,-3.2953193099975584,-2.7169699714660642,4.301183282470703
1789031121421699600,7.247699462890625,-2.868403226470947,-2.8688521392822266,4.1009681686401365
1789031121431706000,7.2577060546875,-2.694823606109619,-2.8178257164001463,3.7810429718017575
1789031121441713200,7.267713134765625,-2.982726355743408,-2.7123312057495115,3.5380315032958984
1789031121451720200,7.27772021484375,-3.4344822814941405,-2.704400412750244,3.5908535774230956
1789031121461727200,7.287727294921875,-3.579032206726074,-2.905513352203369,3.966443962860107
1789031121471734300,7.297734375,-3.483413777923584,-3.538779691314697,4.284274233245849
1789031121481742000,7.3077421875,-3.063829936981201,-4.563198726654052,4.403685041046142
1789031121491749400,7.317749267578125,-2.856432218170166,-5.7429415946960445,4.2600329414367675
1789031121501756200,7.327756103515625,-3.0801404357910154,-6.766762079620361,3.73495458984375
1789031121511763200,7.33776318359375,-3.060837184906006,-7.7884876380920405,3.3072903182983397
1789031121521770200,7.347770263671875,-2.879775684356689,-8.420407238769531,2.9192800117492674
1789031121531777000,7.357777099609375,-3.0162451789855957,-8.692448402404784,2.729240254974365
1789031121541784300,7.367784423828125,-3.2296284019470214,-8.885780186462402,2.883366986846924
1789031121551791000,7.377791015625,-3.8373067108154295,-9.113378981781006,3.2965164108276364
1789031121561799200,7.387799072265625,-4.549731342315674,-9.6028435836792,3.951330564880371
1789031121571806200,7.39780615234375,-4.651784188079834,-10.61693762435913,4.85858335647583
1789031121581813000,7.40781298828125,-4.096479040527344,-12.042983988189697,5.59913985748291
1789031121591820300,7.4178203125,-3.5179800643920895,-13.525892641448975,6.234201847839355
1789031121601827000,7.4278271484375,-3.6113539291381835,-14.614955121612548,6.194697520446777
1789031121611834400,7.43783447265625,-4.053383410644531,-14.635754748535156,5.41403814163208
1789031121621841200,7.447841064453125,-4.338443045806884,-13.614478102874756,4.327220225524902
1789031121631849000,7.457848876953125,-4.662109182739258,-12.076353173828124,3.5148376747131347
1789031121641856300,7.467856201171875,-5.230732077026367,-10.683376720428466,3.292326557922363
1789031121651863000,7.477863037109375,-5.494842447662354,-9.664494276428222,3.2474352767944334
1789031121661870300,7.487870361328125,-5.397428367614745,-9.246556449127196,3.475632622528076
1789031121671877000,7.497877197265625,-5.073462955474853,-9.328258580780028,4.203320289611816
1789031121681884200,7.50788427734375,-4.523245486450195,-9.597007717132568,5.130774157714844
1789031121691891200,7.51789111328125,-4.1931449325561525,-10.124330632781982,6.031442894744873
1789031121701898000,7.52789794921875,-4.243572805023193,-10.806229193115234,6.485144109344482
1789031121711906300,7.53790625,-4.242525341796875,-11.365873831176756,6.0321910827636716
1789031121721913000,7.5479130859375,-4.224419191741943,-11.748646821594237,4.933102883148193
1789031121731920100,7.557920166015625,-4.359242672729492,-11.890353632354735,3.930082025146484
1789031121741927200,7.56792724609375,-4.467580297851562,-11.825261274719237,3.4976293502807616
1789031121751934000,7.577933837890625,-4.407575618743897,-11.499649848937988,3.6776433876037595
1789031121761941200,7.587941162109375,-4.277839816284179,-10.760739361572265,3.7805940589904785
1789031121771948000,7.597947998046875,-4.230703971099853,-9.970503176116942,3.557484391784668
1789031121781956000,7.6079560546875,-4.723310962677002,-9.753977563476562,3.4270004013061524
1789031121791963100,7.617963134765625,-5.47119970626831,-10.322151544952392,3.662829264831543
1789031121801970200,7.62797021484375,-6.243030466461181,-11.935394551086425,4.672284539794922
1789031121811977200,7.637977294921875,-6.4281321823120114,-13.333907595825195,5.420771833801269
1789031121821984000,7.64798388671875,-5.372738162994384,-13.434314427947998,5.22190345840454
1789031121831991300,7.6579912109375,-3.9739258430480953,-12.075604985809326,4.216039485931396
1789031121841998000,7.667998046875,-3.197905229949951,-10.431386995697022,3.0424317596435544
1789031121852005000,7.678005126953125,-3.16019655380249,-9.20630393371582,2.143259398651123
1789031121862013200,7.68801318359375,-3.2330700668334957,-8.425046004486083,1.605611488342285
1789031121872020200,7.698020263671875,-3.116352735900879,-8.326734098815917,1.5447089836120604
1789031121882027300,7.70802734375,-2.680159120941162,-8.881291058349609,1.6300024177551269
1789031121892034000,7.718033935546875,-1.6300024177551269,-9.46098713531494,1.6997335411071777
1789031121902041000,7.728041015625,-1.1257236930847168,-9.642497548675536,2.0911855125427246
1789031121912048000,7.738048095703125,-1.7465701110839842,-9.319130686950682,2.958485063934326
1789031121922055200,7.74805517578125,-2.9185318237304685,-9.017610915374755,4.366126002502441
1789031121932062200,7.758062255859375,-4.052784860229492,-8.932766394042968,5.885396593475342
1789031121942070300,7.7680703125,-4.8050130943298335,-8.890718227386474,6.648548372650146
1789031121952077000,7.7780771484375,-5.093215119171142,-9.146598529815673,6.845172183990478
1789031121962084000,7.788083984375,-4.895543844604492,-9.558550852966308,6.723217536926269
1789031121972091100,7.798091064453125,-4.215889848327636,-9.995941568756104,6.333860491943359
1789031121982098200,7.80809814453125,-3.5398271545410154,-10.168174450683592,5.543773944091797
1789031121992105200,7.818105224609375,-3.248931652832031,-9.999981784057617,4.866214874267578
1789031122002112300,7.8281123046875,-3.4714427696228025,-9.6404026222229,4.531475554656982
1789031122012120300,7.838120361328125,-3.8799534278869627,-8.812008847808837,4.088099334716796
1789031122022127000,7.848127197265625,-3.966593600463867,-7.7130702857971185,3.7180455406188964
1789031122032134100,7.858134033203125,-3.7802947837829586,-6.7933975730895995,3.753210377502441
1789031122042141200,7.86814111328125,-3.2983120620727537,-6.3980550239562985,4.131643877410888
1789031122052148200,7.878148193359375,-2.8981811096191405,-6.423493416595458,4.5684360427856445
1789031122062155300,7.8881552734375,-2.656516379547119,-6.606799481201172,5.0309658760070795
1789031122072162000,7.898162109375,-2.665344998168945,-7.104494151306152,5.410297201538086
1789031122082169000,7.908169189453125,-3.395127591705322,-7.764246346282959,5.549160897827148
1789031122092177200,7.91817724609375,-4.350414054107666,-8.556876733398436,5.661239463043213
1789031122102184000,7.928183837890625,-4.946420629882812,-9.312396994781494,5.562179369354248
1789031122112191200,7.938191162109375,-4.793341361236572,-9.492411032104492,5.257217932891845
1789031122122198000,7.948197998046875,-3.7180455406188964,-9.272443754577637,5.130474882507324
1789031122132205300,7.958205322265625,-2.9364883361816405,-8.546252463531493,5.10129554977417
1789031122142212000,7.968212158203125,-2.697367445373535,-7.562235581207275,4.8713025527954095
1789031122152219100,7.97821923828125,-2.9109003059387204,-6.233004747009277,3.8097733917236325
1789031122162226200,7.98822607421875,-3.435380107116699,-3.99023634185791,2.2378303642272948
1789031122172234000,7.99823388671875,-4.102913457489014,-2.082506531524658,2.1734861946105957
1789031122182241300,8.0082412109375,-5.851428857421874,-0.5192424850463867,3.0831331878662107
1789031122192248000,8.018248046875,-6.227468155670166,-0.40132805328369137,4.314800304412842
1789031122202255400,8.02825537109375,-6.009296529388427,-2.574215697479248,5.316324786376953
1789031122212262100,8.03826220703125,-5.591508339691162,-4.834641339874267,5.670367356872558
1789031122222269200,8.048269287109376,-4.480000218963623,-7.097161908721923,5.682787277984619
1789031122232276200,8.058276123046875,-4.439448428344726,-8.539668408966063,5.278167197418212
1789031122242283000,8.068282958984375,-4.67976641998291,-7.426813549804687,5.008220960235596
1789031122252291300,8.078291259765624,-4.11129316329956,-4.799476502990722,4.383783239746093
1789031122262298000,8.088298095703125,-2.777722838592529,-2.3514053054809567,3.93277550201416
1789031122272305200,8.09830517578125,-1.3232453300476072,-1.6801310150146482,3.461566687774658
1789031122282312200,8.108312255859374,-1.3379098152160644,-2.079214504241943,2.4123078102111815
1789031122292319000,8.118319091796875,-2.7651532798767087,-0.6681319007873535,1.5722423027038572
1789031122302326300,8.128326171875,-3.5413235305786133,1.6716016716003417,0.23448212509155272
1789031122312333000,8.1383330078125,-4.8138417129516595,3.234716080474853,0.730381143951416
1789031122322340400,8.14834033203125,-4.5048400611877435,1.9225439331054686,4.013130895233154
1789031122332348200,8.15834814453125,-3.7779005821228027,-1.846976943206787,6.342539472961425
1789031122342355200,8.168355224609375,-4.118775043487549,-4.600159214782715,6.412270596313476
1789031122352362200,8.1783623046875,-4.422389741516113,-6.157437757110595,6.262333717346191
1789031122362369000,8.188369140625,-4.600308852386474,-6.307075360870361,6.713640730285644
1789031122372376300,8.198376220703125,-4.112041351318359,-5.4604257987976075,6.763619689941406
1789031122382383000,8.208383056640624,-3.3726819511413573,-5.063736511230468,5.9953802322387695
1789031122392390100,8.21839013671875,-3.49852717590332,-4.823867432403564,4.41775097579956
1789031122402397200,8.228397216796875,-3.896563201904297,-4.610184934234619,2.849997801208496
1789031122412405200,8.2384052734375,-4.614075511932373,-4.6252983322143555,2.3356933570861815
1789031122422412000,8.248412109375,-5.270086766815186,-4.559457786560058,2.6376620414733885
1789031122432418800,8.258418701171875,-5.5187844642639154,-4.364928901672363,3.146280256652832
1789031122442425600,8.268425537109374,-5.199757093048095,-4.422689016723632,3.9564182434082027
1789031122452433000,8.278432861328126,-4.41790061340332,-4.796932663726806,4.816984102630615
1789031122462439700,8.288439697265625,-3.5193268028259275,-5.7143608123779295,5.697152487945556
1789031122472447000,8.298447021484375,-3.089567604827881,-6.7657146163940425,6.287772109985351
1789031122482453800,8.308453857421876,-3.157054164123535,-7.62897395248413,6.3156047042846675
1789031122492461800,8.3184619140625,-3.209277687835693,-8.020725199127197,5.664232215118408
1789031122502468900,8.32846875,-3.020435031890869,-7.898920189666748,4.8041152687072755
1789031122512475600,8.3384755859375,-2.64963304977417,-7.567772172546387,4.193893120574951
1789031122522483000,8.34848291015625,-2.664297534942627,-7.103446688079834,3.8750153869628905
1789031122532489700,8.35848974609375,-2.985270195007324,-6.769904469299316,3.7729625411987304
1789031122542497000,8.3684970703125,-3.14089330291748,-6.621463966369628,3.5679590240478514
1789031122552503800,8.37850390625,-3.012653876495361,-6.747907741546631,3.315520386505127
1789031122562510800,8.3885107421875,-3.0909143432617188,-7.151480358886718,3.245639625549316
1789031122572519000,8.398518798828125,-3.5889082885742187,-8.039429899597167,3.8175545471191406
1789031122582525700,8.408525634765626,-4.284573508453369,-9.470264666748045,4.909160866546631
1789031122592533000,8.418532958984375,-4.674678741455078,-11.339238337707519,6.057030924987792
1789031122602539800,8.428539794921875,-4.585195454406738,-13.392864811706541,6.797587425994872
1789031122612546800,8.438546875,-4.688146125793457,-14.828487982177734,6.5683426170349115
1789031122622553900,8.448553955078125,-5.121795901489257,-15.223531256103515,5.577891317749023
1789031122632560600,8.458560546875,-5.8631005905151365,-14.654309811401367,4.425382493591308
1789031122642568700,8.468568603515624,-6.54380205001831,-13.736881662750243,3.6899136711120604
1789031122652575700,8.47857568359375,-6.829160960388183,-12.764536513519287,3.585316986083984
1789031122662582800,8.488582763671875,-6.26308190536499,-11.89319674682617,4.171746755218505
1789031122672589800,8.49858984375,-5.000140529632568,-11.33849014968872,5.093813669586181
1789031122682596900,8.508596923828126,-3.8295255554199215,-11.257087293243407,5.569661249542236
1789031122692604000,8.51860400390625,-3.284695040130615,-11.15952357559204,5.150675959014892
1789031122702610700,8.528610595703125,-3.470395306396484,-10.991630184173584,4.1100960624694824
1789031122712618000,8.538617919921874,-4.209904344177246,-10.876858142089842,3.1637878562927244
1789031122722625800,8.548625732421876,-4.835688803100585,-10.890475164031981,3.2199019577026364
1789031122732632800,8.5586328125,-4.7946880996704095,-10.685322009277343,4.096030127716064
1789031122742639900,8.568639892578124,-3.9188592048645017,-9.762057994079589,4.612728773498535
1789031122752647000,8.57864697265625,-3.133561060333252,-8.422202890014647,4.3525089805603026
1789031122762654000,8.588654052734375,-2.699312734222412,-7.21447779006958,3.8361096099853516
1789031122772660700,8.59866064453125,-2.4583961921691895,-6.807762783050537,3.852869021606445
1789031122782667800,8.608667724609376,-3.0334535034179684,-7.908945909118652,4.3357495689392085
1789031122792674800,8.6186748046875,-4.001608799743652,-9.88341409072876,4.875342768096924
1789031122802683000,8.628682861328125,-4.2408793281555175,-11.538555625915526,5.137807125091553
1789031122812689700,8.638689697265624,-4.039167838287353,-11.911602172088623,4.516362156677245
1789031122822697000,8.648697021484375,-3.295020034790039,-11.162067414855956,3.2309751403808593
1789031122832703700,8.658703857421875,-3.1132103462219236,-9.996540119171142,2.473210314941406
1789031122842710800,8.668710693359374,-3.5797803947448728,-8.639177415466309,1.6434698020935057
1789031122852717800,8.6787177734375,-3.77954659576416,-7.9272016967773435,1.7194857048034666
1789031122862724900,8.688724853515625,-3.949834188842773,-7.75676446609497,2.231844860076904
1789031122872732000,8.69873193359375,-3.6803368644714354,-8.240093926239012,3.1184476623535153
1789031122882739000,8.708739013671876,-3.0557495063781737,-9.176077137756348,4.042010952758789
1789031122892747000,8.7187470703125,-2.057217776489258,-9.854534033203125,4.165611613464355
1789031122902753800,8.72875390625,-1.332373223876953,-10.179995821380615,3.883395092773437
1789031122912760800,8.7387607421875,-1.7859248008728026,-9.827898539733885,3.3047464790344234
1789031122922768000,8.748767822265625,-3.212569715118408,-9.43614729309082,3.4114380905151367
1789031122932774700,8.758774658203125,-5.063437236022949,-9.759065242004393,4.898686234283447
1789031122942782000,8.768781982421874,-5.950638588714599,-10.538976432800292,6.839635592651367
1789031122952788700,8.778788818359375,-5.106083953094482,-11.142165613555907,7.870189769744872
1789031122962795800,8.788795654296875,-3.533542375183105,-11.246463023376464,7.593360202789306
1789031122972803800,8.798803955078125,-2.873640542602539,-10.94808564147949,6.471078174591064
1789031122982810600,8.808810546875,-3.503315579223633,-10.411485194396972,5.453093556213378
1789031122992818000,8.81881787109375,-4.276044165039062,-9.648931965637207,4.594323348236084
1789031123002824700,8.82882470703125,-4.60270305404663,-8.590844469451904,3.914220439147949
1789031123012832000,8.83883203125,-3.965695774841308,-7.655759083557128,3.918559929656982
1789031123022838800,8.8488388671875,-3.2609026611328122,-6.629843672180176,3.83072265625
1789031123032845800,8.858845703125,-2.9933506256103515,-6.067206282043457,3.99023634185791
1789031123042852900,8.868852783203126,-3.5511996124267577,-6.1076084350585935,4.786607669067383
1789031123052860700,8.878860595703125,-4.50124875869751,-6.289717398834228,5.576694216918945
1789031123062868000,8.888867919921875,-4.742614213562011,-6.8590884811401365,6.351667366790771
1789031123072874800,8.898874755859374,-4.67318236541748,-7.489661343383789,6.517016918945312
1789031123082882000,8.908882080078126,-4.217835137176514,-8.195801195526123,5.8919806480407715
1789031123092888800,8.918888916015625,-3.7110125732421873,-8.591143744659423,4.758625437164306
1789031123102895600,8.9288955078125,-3.6180876213073727,-8.195501920318604,3.745728497314453
1789031123112903000,8.93890283203125,-3.5016695655822754,-7.071573878479003,3.107224842071533
1789031123122909700,8.94890966796875,-3.264793238830566,-5.4147863296508785,2.8095956481933593
1789031123132917800,8.958917724609375,-3.0660745010375976,-4.115483016204834,2.9786861404418943
1789031123142924800,8.9689248046875,-3.3954268669128416,-3.237409557342529,3.4145804801940915
1789031123152931800,8.978931884765625,-4.0800189041137696,-2.7150246826171873,3.7002386657714843
1789031123162939000,8.98893896484375,-4.619761740875244,-2.7834090675354,4.106055847167968
1789031123172945700,8.998945556640624,-4.997895965576172,-3.0303111137390135,4.597765013122558
1789031123182953000,9.008952880859376,-4.4960114425659174,-3.927538185882568,4.8056116447448725
1789031123192959700,9.018959716796875,-3.9483378128051756,-5.130624520111084,4.82027612991333
1789031123202967000,9.028967041015624,-4.081664917755127,-5.545719232940674,4.395754248046875
1789031123212973800,9.038973876953126,-4.226963031005859,-5.061940859985351,4.095281939697266
1789031123222982000,9.04898193359375,-4.62859035949707,-3.6653731040954587,4.293402127075195
1789031123232989000,9.058989013671875,-4.552574456787109,-2.5905261962890624,4.689043951416015
1789031123242995700,9.06899560546875,-4.431966548156738,-2.3612813873291016,5.016899941253662
1789031123253003000,9.0790029296875,-4.050989208984375,-2.7908909477233883,5.33068999633789
1789031123263009800,9.089009765625,-3.863792566680908,-4.21364528427124,5.1428948036193844
1789031123273016800,9.099016845703124,-4.121618157958984,-4.908562316131592,4.815936639404296
1789031123283024000,9.10902392578125,-4.125658373260498,-4.659714981079102,4.375403533935547
1789031123293030700,9.11903076171875,-4.233247810363769,-3.3035493782043455,4.029890306854248
1789031123303038700,9.129038818359374,-3.8615480026245117,-2.1411644721984864,3.7484219741821287
1789031123313045800,9.139045654296876,-3.1667806083679197,-1.8760066383361815,3.548356497955322
1789031123323052800,9.149052734375,-2.634220376586914,-1.8064251525878905,3.2296284019470214
1789031123333059800,9.159059814453125,-2.6958710693359373,-2.019359462738037,3.0933085449218747
1789031123343067000,9.16906689453125,-3.3973721557617185,-2.510918991088867,3.4295442405700682
1789031123353074000,9.179073974609375,-4.3716625938415525,-3.0144495277404784,4.208258330535888
1789031123363080700,9.189080810546875,-4.993406837463379,-3.4421137992858886,5.0951604080200195
1789031123373088000,9.199087890625,-5.156062912750244,-3.9146693519592284,5.593752903747558
1789031123383095800,9.209095703125,-4.8409261192321775,-4.253299249267578,5.622632961273193
1789031123393102800,9.219102783203125,-3.9264907226562498,-4.3631332504272455,5.208136798858642
1789031123403110000,9.22910986328125,-2.914940521240234,-4.41191510925293,4.538358884429932
1789031123413117000,9.239116943359376,-2.4007857147216796,-4.43032053451538,3.7496190750122067
1789031123423123700,9.249123779296875,-2.5158570320129394,-4.6255976074218745,3.022230683135986
1789031123433130800,9.259130859375,-3.169773360443115,-4.843769233703613,2.760065601348877
1789031123443137800,9.2691376953125,-3.893869725036621,-5.381417144012451,3.2028432708740233
1789031123453144800,9.279144775390625,-4.611830947875976,-6.373514456939697,4.201823913574218
1789031123463151600,9.289151611328125,-4.694131629943848,-7.79522133026123,5.06912346496582
1789031123473159700,9.29915966796875,-3.9468414367675777,-9.295039032745361,5.502324327850341
1789031123483166700,9.309166748046875,-3.374028689575195,-10.062530302429199,5.415085604858398
1789031123493173800,9.319173828125,-3.2583588218688964,-10.199598347473144,5.199906730651855
1789031123503180800,9.329180908203124,-3.909731311035156,-10.13211178817749,5.109824893188477
1789031123513187800,9.339187744140625,-5.105335765075683,-10.097695139312744,5.180453842163086
1789031123523195000,9.34919482421875,-5.849184293365478,-10.34205334625244,5.34400774307251
1789031123533201700,9.35920166015625,-5.553051475524902,-10.781987901306152,5.467009853363037
1789031123543209000,9.369208984375,-4.638466441345215,-11.448024875640868,5.441721098327636
1789031123553216800,9.379216796875,-3.8985084907531737,-11.91264963531494,4.996549227142333
1789031123563223800,9.389223876953125,-3.6653731040954587,-11.767201884460448,4.139275395202636
1789031123573230800,9.39923095703125,-3.8042368003845213,-11.161019951629639,3.4063504119873045
1789031123583238000,9.40923779296875,-4.386925629425049,-10.409240630340575,3.2333693420410152
1789031123593244700,9.41924462890625,-4.931307231903076,-10.033201332092284,3.9133226135253905
1789031123603251700,9.429251708984374,-5.2076878860473625,-10.160692570495605,4.846462710571289
1789031123613258800,9.4392587890625,-4.956595986938476,-10.62382095413208,5.182997681427001
1789031123623265800,9.449265869140625,-4.43720386428833,-10.836904901885985,4.616918626403808
1789031123633272800,9.45927294921875,-3.8865374824523924,-10.344746823120117,3.515735500335693
1789031123643280600,9.46928076171875,-3.89446827545166,-9.780912332153319,2.812139487457275
1789031123653288000,9.479287841796875,-4.644302307891845,-9.497947623443602,2.994847001647949
1789031123663294700,9.489294677734375,-5.244648374176025,-9.529820433044433,4.116231204223633
1789031123673301800,9.4993017578125,-4.991311911010742,-9.795876092529296,5.437381607818603
1789031123683308800,9.509308837890625,-4.163666324615479,-10.133159251403807,5.996577333068847
1789031123693315800,9.51931591796875,-3.617339433288574,-10.452934810638427,5.993285305786133
1789031123703323000,9.529322998046876,-3.658789049530029,-10.877307054901122,5.411195027160645
1789031123713330000,9.539329833984375,-4.114884465789794,-11.309610092163085,4.586242917633056
1789031123723338000,9.549337890625,-4.532373380279541,-11.805060198211669,4.290858287811279
1789031123733344800,9.5593447265625,-4.613626599121093,-11.988665538024902,4.531774829864502
1789031123743351800,9.569351806640626,-4.459350229644775,-11.62504616088867,4.901230073547363
1789031123753358800,9.57935888671875,-4.104110558319092,-10.743082124328613,4.4856864479064935
1789031123763365600,9.58936572265625,-3.49224239654541,-9.85094273071289,3.9031472564697265
1789031123773373000,9.599373046875,-3.8189012855529785,-9.692177233123779,3.718195178222656
1789031123783379700,9.609379638671875,-4.442590818023682,-10.11879404144287,3.787028475952148
1789031123793386800,9.61938671875,-4.725705164337158,-11.009885971832274,4.364330351257324
1789031123803393800,9.629393798828126,-4.562749813842773,-11.158476112365722,4.649689261627197
1789031123813401600,9.639401611328125,-3.680785777282715,-10.396671071624755,4.381538675689697
1789031123823409000,9.649408935546875,-3.124433166503906,-8.908076189422607,3.441814524078369
1789031123833415700,9.659415771484374,-3.35173268661499,-7.832930006408691,3.2990602500915527
1789031123843423000,9.669423095703126,-4.3725604194641114,-7.8615107887268065,4.0063972030639645
1789031123853429800,9.6794296875,-5.31841971282959,-8.860790706634521,5.2359693931579585
1789031123863436800,9.689436767578124,-5.222950921630859,-10.204835663604737,6.5868976799011225
1789031123873443800,9.69944384765625,-4.246715194702148,-11.056273628997802,7.166444119262695
1789031123883450600,9.70945068359375,-2.995595189666748,-11.3649760055542,6.889913827514648
1789031123893458000,9.7194580078125,-2.592920397949219,-11.352705722045897,6.415113710784912
1789031123903465700,9.7294658203125,-3.1401451148986816,-10.967239254760742,5.376778378295898
1789031123913472800,9.73947265625,-3.8367081604003905,-10.29102692337036,4.0738837623596185
1789031123923479800,9.749479736328125,-4.159626109313964,-9.248651375579833,2.912097406768799
1789031123933486600,9.759486572265626,-3.887584945678711,-8.430582595825195,2.723703663635254
1789031123943494000,9.769493896484375,-3.680636139678955,-7.877671649932861,2.9774890396118163
1789031123953500700,9.779500732421875,-3.7585973312377927,-7.191882511901855,3.503165941619873
1789031123963508000,9.789508056640624,-3.868281694793701,-6.419453201293945,4.91589455871582
1789031123973514800,9.7995146484375,-3.902847981262207,-5.595997467803954,6.1644707244873045
1789031123983521800,9.809521728515625,-3.066972326660156,-5.992836392974853,6.668899086761474
1789031123993529900,9.81952978515625,-2.786850732421875,-6.996605438995361,6.950068144226074
1789031124003536600,9.82953662109375,-3.3975217933654784,-8.045565041351319,7.157615500640869
1789031124013544000,9.8395439453125,-4.4662335594177245,-9.987412225341796,6.959495313262939
1789031124023550700,9.84955078125,-6.111499012756347,-12.043432901000976,6.249764158630371
1789031124033558000,9.85955810546875,-6.819883428955078,-13.654281705474853,5.512350047302246
1789031124043564800,9.869564697265625,-5.624877525329589,-13.33031629333496,4.263773881530762
1789031124053571600,9.879571533203125,-3.191021900177002,-9.920524216461182,4.0815152801513666
1789031124063579000,9.889578857421874,-1.3253402565002441,-5.915473751831055,3.8090252037048336
1789031124073586700,9.899586669921876,-0.3580827857971191,-4.41131655883789,3.001730331420898
1789031124083593700,9.90959375,-1.2288240020751953,-4.683507360076904,2.5457845527648924
1789031124093600800,9.919600830078124,-3.3301848716735836,-5.299415737152099,2.4435820693969723
1789031124103607800,9.92960791015625,-6.040570788574218,-5.137956762695312,2.9973908409118653
1789031124113614800,9.93961474609375,-7.507617855834961,-4.5790603126525875,5.41388850402832
1789031124123621600,9.94962158203125,-8.040926275634765,-4.184166676330566,7.748983310699463
1789031124133629000,9.95962890625,-6.562207475280761,-4.606294356536865,7.038503968048095
1789031124143635700,9.9696357421875,-3.916764278411865,-5.480626875305176,4.220827889251709
1789031124153643000,9.97964306640625,-1.4829086532592772,-6.03323854598999,2.29199917678833
1789031124163649800,9.98964990234375,-1.6077064147949218,-5.382763882446289,1.8397943382263182
1789031124173657900,9.999657958984375,-4.413710760498047,-2.966715132141113,3.033303865814209
1789031124183665000,10.009664794921875,-6.118531980133056,-0.6153098266601562,4.3637318008422845
1789031124193671700,10.019671630859374,-4.065055143737792,-0.013018471527099609,4.9169420219421385
1789031124203678700,10.0296787109375,0.496048656463623,-2.371756019592285,3.877409588623047
1789031124213685800,10.039685791015625,2.9842227317810055,-4.8326960510253905,2.3452701637268065
1789031124223692800,10.04969287109375,1.7066168708801268,-3.378517817687988,-1.218050094604492
1789031124233699800,10.059699951171876,-2.0335750350952146,0.7709329345703124,-6.736684921264648
1789031124243706600,10.06970654296875,-6.117185241699218,6.131251176452636,-6.865522898101807
1789031124253714000,10.0797138671875,-7.656656909179687,9.438691132354736,-0.4212298545837402
1789031124263721700,10.0897216796875,-8.087762845611572,5.334131661224365,9.24984847640991
1789031124273728800,10.099728759765625,-6.701968997192383,-1.1578957778930663,15.559318038940429
1789031124283735800,10.10973583984375,-0.9503484214782715,-6.938396411132812,14.133570950317383
1789031124293742800,10.119742919921874,1.082029512786865,-10.37467434387207,8.610746270751953
1789031124303750000,10.12975,0.09965864410400391,-7.808987989807129,3.358915291595459
1789031124313756700,10.139756591796875,-2.984073094177246,-5.092915843963623,1.665017617034912
1789031124323764000,10.149763916015624,-5.976675531768798,-2.8356325912475584,0.8262988479614257
1789031124333770800,10.159770751953126,-6.133944653320312,-0.771830760192871,0.3253121505737305
1789031124343777800,10.16977783203125,-6.678775168609619,-0.8209118942260741,1.6383821235656737
1789031124353785900,10.179785888671875,-8.709207814025879,-2.349011103820801,4.904821376037598
1789031124363793000,10.18979296875,-8.471134386444092,-4.478354205322265,8.316409104156493
1789031124373799700,10.199799560546875,-6.636727001953124,-7.400626969146728,11.111340267181395
1789031124383806700,10.209806640625,-4.289960462188721,-10.453832636260985,12.120346629333495
1789031124393813800,10.219813720703126,-3.2487820152282714,-12.796708598327635,11.341033988952637
1789031124403820800,10.22982080078125,-3.660135787963867,-13.933355836486816,9.474903432464599
1789031124413827800,10.239827880859375,-3.93292513961792,-13.788955548858642,6.58225891418457
1789031124423835000,10.2498349609375,-4.3923125831604,-11.990610826873779,3.746925598144531
1789031124433842000,10.259842041015625,-4.042310227966309,-9.816077169036864,2.264016944885254
1789031124443850000,10.26985009765625,-3.1337106979370115,-7.774122428131103,0.9789292037963867
1789031124453857000,10.27985693359375,-2.04300220413208,-5.569361974334717,-0.4800374328613281
1789031124463863800,10.28986376953125,-1.5752350547790526,-3.493589134979248,-1.2603975364685058
1789031124473871000,10.29987109375,-1.5981296081542968,-2.035370686340332,-1.5342343513488768
1789031124483878000,10.3098779296875,-1.4643535903930662,-1.2355576942443847,-1.1246762298583983
1789031124493885000,10.319885009765626,-1.061828436279297,-1.038784245300293,-0.24346038131713865
1789031124503892000,10.32989208984375,-1.1966519172668457,-1.750011775970459,1.135150862121582
1789031124513898800,10.339898681640625,-2.368164717102051,-3.5079543449401855,2.9218238510131833
1789031124523906000,10.349906005859374,-3.1199440383911132,-6.000916823577881,5.247641126251221
1789031124533912800,10.359912841796875,-3.349338484954834,-9.571270049285888,8.125022608947754
1789031124543921000,10.3699208984375,-3.1084219429016113,-13.476811507415771,9.587131635284424
1789031124553928000,10.379927978515624,-2.3184850326538085,-16.09517029800415,8.602067289733887
1789031124563935000,10.38993505859375,-2.7067946144104003,-15.808763924407957,5.440523997497558
1789031124573942000,10.39994189453125,-3.702183954620361,-14.014309780120849,2.8362311416625974
1789031124583948800,10.40994873046875,-5.647323165893554,-12.592004356384276,2.1933879959106446
1789031124593956000,10.4199560546875,-7.9295958984374995,-11.72171205291748,2.530521517181396
1789031124603963000,10.429962890625,-8.117241453552246,-12.077699912261963,3.706224169921875
1789031124613970000,10.439969970703125,-5.844395890045166,-12.85072777328491,4.9534535972595215
1789031124623977000,10.44997705078125,-3.7250785079956055,-12.770073104858398,5.004629657745361
1789031124633983700,10.459983642578125,-4.388422005462647,-12.218957810211181,4.786009118652344
1789031124643992000,10.469991943359375,-6.941838076019287,-12.048520579528807,5.556193865203857
1789031124653998800,10.479998779296874,-8.36384422454834,-12.157606392669678,7.052569902801514
1789031124664006000,10.490005859375,-7.970297326660156,-12.376077294158934,8.256703700256347
1789031124674013000,10.500012939453125,-7.100902848815918,-12.389544678497314,7.957428492736816
1789031124684020000,10.51002001953125,-5.833322707366943,-11.946916646575927,6.6018614402771
1789031124694027000,10.520027099609376,-4.873247841644287,-11.797129405212402,5.728576384735107
1789031124704033800,10.53003369140625,-4.787505494689941,-12.60906304321289,6.536320169830322
1789031124714041000,10.540041015625,-5.0118122627258295,-13.310115216827391,7.572410938262939
1789031124724048000,10.5500478515625,-4.2874166229248045,-12.387150476837158,7.12454559020996
1789031124734056000,10.560055908203125,-2.688389189147949,-10.761637187194824,5.519682289886474
1789031124744063000,10.57006298828125,-1.8155530464172362,-9.497199435424804,3.9864954017639156
1789031124754070000,10.580070068359374,-2.0020015007019043,-8.971372895812987,3.4029087471008297
1789031124764077000,10.5900771484375,-3.227383837890625,-9.214234726715087,3.4521395187377926
1789031124774083800,10.600083740234375,-3.8560114112854,-9.597905542755127,3.5051112304687497
1789031124784091000,10.6100908203125,-3.1931168266296384,-9.462932424163817,3.503764492034912
1789031124794098000,10.620097900390626,-1.9473837753295897,-8.74616830215454,2.7448025657653807
1789031124804105000,10.63010498046875,-1.2322656669616698,-7.78878691329956,2.1992238624572753
1789031124814112000,10.640112060546874,-1.4929343727111815,-6.82467183227539,1.7836802368164062
1789031124824120000,10.6501201171875,-2.3892636192321777,-6.264428643798828,1.6048633003234862
1789031124834126800,10.660126953125,-3.629310441589355,-6.638672290802002,2.0364181495666505
1789031124844134000,10.6701337890625,-4.783166004180908,-7.803152123260498,2.6855460746765134
1789031124854141000,10.680140869140626,-5.31812043762207,-9.481038574218749,3.552845626068115
1789031124864148000,10.69014794921875,-4.474014714813232,-10.95526824645996,4.398298087310791
1789031124874155000,10.700155029296875,-2.7443536529541013,-11.575216838836669,4.988468796539307
1789031124884162000,10.710162109375,-1.860893240356445,-10.869226624298095,5.007173497009277
1789031124894168800,10.7201689453125,-1.8573019378662108,-9.613916766357422,4.889558340454101
1789031124904175900,10.73017578125,-2.3689129051208493,-8.365939151000976,4.496161080169678
1789031124914183000,10.740182861328124,-3.2064345733642576,-7.4028715332031245,3.8781577766418454
1789031124924191000,10.75019091796875,-3.901351605224609,-6.767510267639159,3.271078018188476
1789031124934198000,10.760197998046875,-3.584269522857666,-6.775291423034668,3.42176308517456
1789031124944205000,10.770205078125,-2.9309517448425293,-7.431601953125,4.313902478790283
1789031124954211800,10.7802119140625,-2.177676047515869,-8.328679387664794,5.245246924591064
1789031124964219000,10.790218994140625,-1.2928688964843749,-8.613888660430908,5.515043524169921
1789031124974226000,10.800225830078125,-1.7559972801208494,-7.904307143402099,5.239560695648193
1789031124984233000,10.81023291015625,-3.752611827087402,-6.923133375549316,5.066429988098144
1789031124994240000,10.820239990234375,-5.905896945190429,-6.321440570831299,5.463268913269043
1789031125004247000,10.8302470703125,-6.463147381591797,-6.734589994812011,6.515221267700195
1789031125014253800,10.84025390625,-4.963030403900146,-7.773224602508544,7.457638896179199
1789031125024262000,10.850261962890626,-3.003226707458496,-8.800935665130615,7.43100340270996
1789031125034269000,10.86026904296875,-2.3388357467651364,-9.203909732055664,6.244676480102538
1789031125044276000,10.87027587890625,-3.1830911071777344,-8.503306471252442,4.585494729614258
1789031125054283000,10.880282958984376,-4.059668190002441,-6.9807438529968255,3.841496563720703
1789031125064290000,10.8902900390625,-4.652382738494873,-5.104886852264404,3.7383962547302243
1789031125074296800,10.900296875,-4.757428336334228,-3.7008372161865233,4.079121078491211
1789031125084304000,10.910303955078126,-4.474313990020752,-3.356221814727783,4.8515503890991205
1789031125094311000,10.920310791015625,-4.82656090927124,-3.336918563842773,5.6778492370605465
1789031125104318000,10.93031787109375,-4.988618434143066,-4.2880151733398435,6.366032576751708
1789031125114325000,10.940324951171876,-4.80710802078247,-5.597793119049072,6.490082150268554
1789031125124332800,10.950332763671875,-4.603900154876709,-6.497115117645263,6.1361892173767085
1789031125134340000,10.960340087890625,-4.173392768859863,-6.77349577178955,5.733664063262939
1789031125144347000,10.970346923828124,-4.45635747756958,-5.965602349090576,5.5169888130187985
1789031125154354000,10.98035400390625,-5.118803149414062,-4.180725011444092,5.81611438293457
1789031125164361000,10.99036083984375,-4.796034838104248,-2.2040122657775876,5.963806697845459
1789031125174368000,11.000367919921874,-3.8578070625305174,-0.8334814529418945,5.2453965621948235
1789031125184375000,11.010375,-3.5901053894042967,-1.2370540702819823,3.8099230293273925
1789031125194382000,11.020382080078125,-3.7898715904235836,-2.328361114501953,3.020883944702148
1789031125204388900,11.030388916015625,-3.454683358001709,-2.3618799377441406,3.16004691619873
1789031125214396000,11.04039599609375,-3.2869396041870114,-2.048987708282471,3.2324715164184568
1789031125224403000,11.05040283203125,-3.902099793243408,-1.5222633430480956,3.718344815826416
1789031125234411000,11.060410888671875,-3.210624426269531,-1.5723919403076172,4.556465034484863
1789031125244417800,11.070417724609374,-3.193416101837158,-2.4109610717773435,4.943278240203857
1789031125254425000,11.080425048828126,-3.5338416503906247,-3.3572692779541016,4.624250868988037
1789031125264431900,11.090431884765625,-3.9299323875427246,-4.082113830566406,4.2600329414367675
1789031125274439000,11.10043896484375,-4.200177899932861,-3.4356793823242184,3.6324528312683104
1789031125284446000,11.110446044921876,-4.005200102233887,-2.3751976844787595,3.4811692138671875
1789031125294453000,11.120452880859375,-4.042160590362548,-1.4263456390380858,3.7366006034851074
1789031125304460000,11.1304599609375,-3.4352304695129394,-0.9353846611022949,4.271555036926269
1789031125314467000,11.140467041015626,-2.4938603042602536,-1.1249755050659178,4.791096797180176
1789031125324473900,11.150473876953125,-2.2430676803588865,-1.5638625968933104,4.846612348175048
1789031125334482000,11.16048193359375,-2.7259482276916502,-2.066644945526123,4.572176982879639
1789031125344489000,11.170489013671874,-4.022408426666259,-2.8945898071289062,4.52653751373291
1789031125354496000,11.18049609375,-5.0954596832275385,-4.210802169799805,5.221304907989501
1789031125364502800,11.190502685546875,-4.634426226043701,-5.730072760772705,6.206518891143799
1789031125374510000,11.200510009765624,-3.4222119979858396,-7.06723438796997,6.6258034568786615
1789031125384516900,11.210516845703125,-2.4711153884887693,-8.023568313598632,6.503100621795654
1789031125394524000,11.22052392578125,-2.2653636833190918,-8.820538191223145,6.237044962310791
1789031125404531000,11.230531005859374,-3.0529063919067383,-9.276633607482909,5.727379283905029
1789031125414538000,11.2405380859375,-3.7862802879333493,-9.35205095977783,4.979340902709961
1789031125424545000,11.250544921875,-4.031835595703125,-9.191789086151122,4.1745898696899415
1789031125434552600,11.260552490234375,-3.829226280212402,-8.725967225646972,3.534739476013183
1789031125444560600,11.270560546875,-3.7984009338378906,-8.42085615158081,3.3801638313293454
1789031125454567700,11.280567626953125,-4.1009681686401365,-8.491784375762938,3.593098141479492
1789031125464574500,11.290574462890625,-3.79855057144165,-9.012822512054443,3.9987656852722164
1789031125474581500,11.30058154296875,-3.4090438888549803,-9.776722479248047,4.168604365539551
1789031125484588500,11.310588623046876,-3.0056209091186523,-10.539574983215331,3.990984529876709
1789031125494595600,11.320595703125,-2.7916391357421872,-11.284321337127684,3.8596027137756344
1789031125504602600,11.3306025390625,-3.2237925354003902,-12.119149528503417,4.012532344818115
1789031125514609700,11.340609619140626,-3.9514802024841305,-12.746729638671875,4.267963734436035
1789031125524616400,11.350616455078125,-4.586691830444336,-12.97986502532959,4.2131963714599605
1789031125534623700,11.360623779296875,-4.716876545715332,-12.96101068725586,4.071938473510742
1789031125544630500,11.370630615234376,-4.611531672668456,-12.58347501296997,4.089446073150635
1789031125554638600,11.380638671875,-4.3911154823303225,-11.38338143081665,4.2497079467773435
1789031125564645600,11.390645751953125,-4.1560348068237305,-9.479242922973633,4.243572805023193
1789031125574652700,11.400652587890624,-3.9743747558593747,-7.477540697479248,3.9845501129150387
1789031125584659500,11.410659423828125,-3.9567175186157226,-5.755810428619385,3.801842598724365
1789031125594666500,11.42066650390625,-4.080168541717529,-5.013308638763427,4.331410078430175
1789031125604673500,11.430673583984374,-4.674978016662598,-6.060322952270507,5.45234536819458
1789031125614680600,11.4406806640625,-5.200804556274414,-8.494926765441894,6.0351838348388664
1789031125624687600,11.4506875,-4.7761330368041985,-10.743231761932373,5.823147350311279
1789031125634694700,11.460694580078124,-4.09842432937622,-11.874043133544921,5.338620789337158
1789031125644701400,11.470701416015626,-4.110844250488281,-11.948113747406005,5.068375276947021
1789031125654709500,11.48070947265625,-4.80740729598999,-11.490073042297363,5.486911654663086
1789031125664716500,11.490716552734375,-5.562179369354248,-10.951826581573485,6.1179334297180175
1789031125674723600,11.5007236328125,-5.689670607757568,-10.749217266082763,6.348225701904297
1789031125684730600,11.510730712890625,-5.372139612579345,-10.964695415496825,5.986551613616943
1789031125694737700,11.520737548828125,-4.988768071746826,-11.628188550567627,5.500827951812743
1789031125704744700,11.53074462890625,-4.759972175598144,-12.961609237670897,5.4978351997375485
1789031125714751500,11.54075146484375,-4.764461303710937,-14.130578198242187,5.831676693725585
1789031125724758500,11.550758544921875,-4.624101231384277,-13.729399782562256,5.423764585876465
1789031125734765600,11.560765625,-3.8257846153259276,-12.269236045074463,4.2217257148742675
1789031125744772600,11.570772705078125,-3.63275210647583,-11.244667372131348,3.4377743087768553
1789031125754779600,11.580779541015625,-3.8762124877929685,-11.290306841278076,3.5447651954650876
1789031125764787700,11.59078759765625,-4.109647149658203,-12.199056008911132,4.550030617523193
1789031125774794500,11.60079443359375,-3.9463925239562987,-12.764686151123046,5.505466717529297
1789031125784801500,11.610801513671875,-2.756623936462402,-12.346598686218261,5.767631799316406
1789031125794808600,11.62080859375,-1.7675193756103516,-10.966491066741943,5.074959331512451
1789031125804815600,11.630815673828126,-1.9771616584777831,-9.329904594421386,4.285770609283447
1789031125814822700,11.64082275390625,-2.992901712799072,-8.010549842071534,4.078522528076172
1789031125824829700,11.65082958984375,-4.104110558319092,-6.7371338340759275,3.726724521636963
1789031125834836500,11.66083642578125,-4.466981747436523,-5.7968111320495606,3.681384327697754
1789031125844843500,11.670843505859375,-4.012382707214355,-5.584026459503174,4.307468061828613
1789031125854850600,11.6808505859375,-2.701706935882568,-6.0513446960449215,5.000439804840088
1789031125864857600,11.690857666015624,-1.5288473976135253,-6.768408093261718,5.08199229888916
1789031125874864600,11.70086474609375,-1.6440683525085449,-7.167641220092773,4.487033186340332
1789031125884872700,11.710872802734375,-2.401683540344238,-7.6574050971984855,3.8943186378479
1789031125894879500,11.72087939453125,-3.6332010192871094,-8.131905938720703,3.1268273681640624
1789031125904886500,11.730886474609376,-4.198681523895264,-8.278700428009033,2.3677158042907713
1789031125914893600,11.7408935546875,-3.2972645988464353,-7.926453508758544,2.2911013511657714
1789031125924900600,11.750900634765625,-1.994519620513916,-7.3545385871887206,3.0074165603637693
1789031125934907600,11.76090771484375,-1.6588824752807616,-6.628197658538818,3.681234690093994
1789031125944914700,11.770914794921875,-1.7398364189147948,-6.415113710784912,4.1572319076538085
1789031125954921500,11.78092138671875,-2.882618798828125,-6.873453691101074,4.368669841766357
1789031125964928500,11.790928466796874,-4.8606782829284665,-7.692121021270752,4.314501029205322
1789031125974935600,11.800935546875,-6.3420905601501465,-8.421753977203368,4.761618189239502
1789031125984942600,11.810942626953125,-6.725611738586426,-8.93725552215576,6.316951442718506
1789031125994950700,11.82095068359375,-5.47149898147583,-9.81936919631958,8.457068451690674
1789031126004957700,11.830957763671876,-3.3387142150878906,-10.703428159332274,8.856002303314208
1789031126014964500,11.840964599609375,-2.263268756866455,-10.574141269683837,7.552958049774169
1789031126024971500,11.850971435546874,-3.0948049209594726,-9.76744494781494,6.066009181213379
1789031126034978600,11.860978515625,-4.375852446746826,-8.410680794525145,4.4385506027221675
1789031126044985600,11.870985595703125,-5.287444728851318,-6.77993018875122,3.5775358306884764
1789031126054992600,11.88099267578125,-5.31153638305664,-5.360168604278564,4.717175820922852
1789031126064999700,11.890999755859376,-4.314351391601562,-4.721066398620605,6.1553428306579585
1789031126075006500,11.90100634765625,-3.5027170288085934,-5.642085849761963,6.584204203033447
1789031126085013500,11.911013427734375,-3.1509190223693846,-6.371120255279541,5.326200868225097
1789031126095020500,11.9210205078125,-2.6876410011291503,-6.10341858215332,3.037493718719482
1789031126105027600,11.931027587890625,-2.7262475028991697,-3.2974142364501953,1.316960550689697
1789031126115035600,11.94103564453125,-3.2459389007568356,-0.15532383270263672,2.4545056144714352
1789031126125042700,11.951042724609374,-4.582501977539062,1.7688661140441893,5.198709629821777
1789031126135049500,11.961049560546876,-5.167136095428466,1.2204442962646485,7.050474976348877
1789031126145056500,11.971056396484375,-4.912153618621826,-1.8688240333557127,6.946776116943359
1789031126155063600,11.9810634765625,-3.7624879089355465,-4.312705377960205,5.212326651763916
1789031126165070600,11.991070556640626,-3.0125042388916015,-2.953846298217773,2.1924901702880857
1789031126175077600,12.00107763671875,-3.8516719207763668,-0.053121349334716794,1.362450382232666
1789031126185084700,12.011084716796875,-3.886687120056152,0.6646902359008788,3.1669302459716797
1789031126195091500,12.021091552734376,-2.5911247467041014,-1.3675380607604979,4.2986394432067865
1789031126205098800,12.0310986328125,-2.408117957305908,-3.3873464363098145,3.9270892730712887
1789031126215105500,12.04110546875,-3.9145197143554684,-3.629908992004394,3.6577415863037106
1789031126225112600,12.051112548828126,-5.185541520690918,-3.447650390625,4.375403533935547
1789031126235120600,12.06112060546875,-5.378723667144775,-3.310283070373535,5.66273583908081
1789031126245127700,12.071127685546875,-4.686799387359619,-3.30070626373291,6.168062026977538
1789031126255134500,12.081134521484374,-4.167407264709472,-3.723282856750488,5.640439836120605
1789031126265141500,12.0911416015625,-4.284274233245849,-3.24967984085083,4.97305612335205
1789031126275148500,12.1011484375,-4.601954866027832,-3.315370748901367,5.629067378234863
1789031126285155600,12.111155517578124,-6.057180562591553,-4.240580052947998,7.3855135711669915
1789031126295162600,12.12116259765625,-6.43546442489624,-6.05239215927124,8.332869240570068
1789031126305169700,12.131169677734375,-5.756259341430663,-7.914632138061523,8.169764252471923
1789031126315176400,12.141176513671875,-4.69233597869873,-8.459761928558349,7.232883215332031
1789031126325183700,12.151183837890626,-3.7970541954040526,-8.22902074356079,6.214599321746825
1789031126335190500,12.1611904296875,-3.8340146835327147,-7.227795536804199,5.430348640441895
1789031126345197600,12.171197509765625,-3.7633857345581054,-6.560411824035644,5.2837037887573235
1789031126355205600,12.18120556640625,-4.03512762298584,-6.431424209594726,4.938639474487305
1789031126365212700,12.191212646484376,-4.380042299652099,-6.188113465881347,4.2691608352661135
1789031126375219500,12.201219482421875,-4.112190988922119,-6.106261696624755,3.9700352653503415
1789031126385226500,12.2112265625,-4.125209460449218,-6.101024380493164,3.7907694160461425
1789031126395233500,12.221233642578126,-4.158429008483886,-6.208464179992675,3.7747581924438474
1789031126405240600,12.231240478515625,-3.6935049736022947,-6.515819818115234,3.785382462310791
1789031126415247600,12.24124755859375,-3.104531365203857,-6.587346592712402,3.385550785064697
1789031126425254700,12.251254638671876,-2.387168692779541,-6.483049182891845,2.842366283416748
1789031126435261000,12.261260986328125,-1.9651906501770018,-6.041169338989257,2.239626015472412
1789031126445268200,12.271268310546875,-1.8816928672790527,-5.356128388977051,1.7853262504577636
1789031126455275000,12.28127490234375,-1.9681834022521971,-4.682908809661865,1.8442834663391112
1789031126465282000,12.291281982421875,-2.175880396270752,-4.404433229064941,2.57930337600708
1789031126475289000,12.3012890625,-2.545634915161133,-5.074660056304931,4.116081566619873
1789031126485297000,12.311296875,-3.042282122039795,-6.927173590850829,5.397727642822265
1789031126495304200,12.32130419921875,-3.21780703125,-8.875155916595459,5.387851560974121
1789031126505311000,12.33131103515625,-3.0891186920166014,-10.040982487487792,4.6073418197631835
1789031126515318300,12.341318359375,-2.9556419494628905,-10.728417639160156,3.885639656829834
1789031126525325000,12.351324951171875,-3.5883097381591793,-11.500846949768066,3.9873932273864745
1789031126535331800,12.361331787109375,-5.278316835021973,-12.287042919921875,5.205892234802246
1789031126545339100,12.371339111328124,-6.478859329986572,-13.337947811126709,6.523900248718261
1789031126555346000,12.381345947265626,-5.798157870483398,-14.093318434906005,7.049726788330077
1789031126565353200,12.391353271484375,-4.750395368957519,-14.301913254547118,6.685209585571289
1789031126575360000,12.401360107421874,-4.631583111572265,-14.574253693389892,6.337002881622314
1789031126585367000,12.411366943359376,-5.5921068901062005,-15.044415044403076,6.187514915466308
1789031126595374000,12.4213740234375,-5.772569840240478,-15.396512326049804,6.298695655059814
1789031126605381000,12.431381103515625,-4.707299739074707,-14.596699333953856,6.35226591720581
1789031126615389200,12.44138916015625,-3.8605005393981933,-12.451345008850097,5.866093342590331
1789031126625396000,12.45139599609375,-4.087201509094238,-10.314370389556885,5.1234419151306145
1789031126635403300,12.4614033203125,-5.195716877746582,-9.305214389801025,4.632480937194824
1789031126645410000,12.47141015625,-6.213701496124267,-10.282198304748535,5.513846423339843
1789031126655417000,12.4814169921875,-5.990891104125976,-12.381164972686767,6.46718759689331
1789031126665424100,12.491424072265625,-4.40503177947998,-13.139079435729979,6.329371363830566
1789031126675431000,12.501430908203124,-3.028515462493896,-11.872397119903564,5.469553692626953
1789031126685438200,12.511438232421876,-2.0522797355651856,-9.991003527832031,4.503792597961426
1789031126695445000,12.521445068359375,-1.7986439971923827,-8.315062365722655,3.621230010986328
1789031126705452000,12.5314521484375,-2.0368670623779295,-6.902633023834228,2.740313437652588
1789031126715459000,12.541458984375,-2.5225907241821286,-6.049249769592285,2.079962692260742
1789031126725466000,12.551466064453125,-3.042132484436035,-5.762843395996094,1.6008230850219725
1789031126735473200,12.56147314453125,-3.183390382385254,-6.090100835418701,1.5566799919128418
1789031126745481000,12.57148095703125,-2.768295669555664,-6.637624827575683,1.7778443702697753
1789031126755488300,12.58148828125,-2.205059729003906,-7.078906121063232,1.9729718055725096
1789031126765495000,12.5914951171875,-2.29199917678833,-7.483526201629639,2.204461178588867
1789031126775502000,12.601502197265624,-2.5840917793273923,-7.977180656433105,1.9870377403259276
1789031126785509000,12.611509033203125,-2.915539071655273,-8.12711753540039,1.686116519165039
1789031126795516000,12.621515869140625,-3.184587483215332,-7.874828535461425,1.5596727439880371
1789031126805523200,12.631523193359374,-2.9345430473327636,-7.523778717041015,1.8357541229248047
1789031126815530000,12.641530029296876,-2.9818285301208496,-7.709628620910644,2.846855411529541
1789031126825537000,12.651537109375,-3.7089176467895504,-8.630348796844482,4.512471578979492
1789031126835544000,12.6615439453125,-4.472518338775634,-10.008211852264404,6.070647946929931
1789031126845551000,12.671551025390626,-4.51366867980957,-11.51162085723877,6.911012729644775
1789031126855558100,12.68155810546875,-4.195988047027588,-12.604873190307616,6.842478707122802
1789031126865565200,12.691565185546875,-4.017769660949707,-12.347795787048339,5.787084687805176
1789031126875572000,12.701572021484376,-3.9900867042541504,-10.937162096405029,4.959439101409912
1789031126885579000,12.7115791015625,-3.944447235107422,-9.361777404022217,5.044433260345459
1789031126895587000,12.721587158203125,-3.67719447479248,-8.008155640411376,5.3378726013183595
1789031126905594000,12.731593994140624,-3.2984616996765133,-7.145794129943847,5.448305152893066
1789031126915601000,12.741600830078125,-3.47323842086792,-6.728454853057861,5.446060588836669
1789031126925608200,12.751608154296875,-4.020313500213623,-7.198167291259765,6.143371822357177
1789031126935615000,12.761614990234374,-4.66076244430542,-8.45886410293579,7.529614583587646
1789031126945622000,12.7716220703125,-4.818031565856933,-9.828197814941406,9.311050256347656
1789031126955629000,12.781629150390625,-4.294898503112793,-10.992228734588622,10.507851811218261
1789031126965636000,12.791635986328124,-3.794211080932617,-11.79802723083496,10.503811595916748
1789031126975643100,12.80164306640625,-3.9490860008239745,-12.138003866577147,9.060556907653808
1789031126985650200,12.811650146484375,-4.26467170715332,-11.907412319183349,6.922385187530518
