time,seconds_elapsed,z,y,x
1788862119175383800,0.0503837890625,-0.7127497792243958,-0.432243287563324,2.217402696609497
1788862119185425700,0.06042578125,-0.6051934957504272,-0.5295405387878418,1.9211183786392212
1788862119195467800,0.0704677734375,-0.5417578220367432,-0.6325833201408386,1.5388023853302002
1788862119205509600,0.080509521484375,-0.5599509477615356,-0.7406940460205078,1.0945848226547241
1788862119215551500,0.090551513671875,-0.6298730373382568,-0.8166474103927612,0.6834284067153931
1788862119225593900,0.10059375,-0.6459803581237793,-1.0018662214279175,0.33418330550193787
1788862119235635700,0.1106357421875,-0.6026259660720825,-1.2981623411178589,0.11841505765914917
1788862119245677800,0.120677734375,-0.4507402777671814,-1.6009163856506348,0.0863141119480133
1788862119255719700,0.1307197265625,-0.1852300465106964,-1.9645191431045532,0.1192275881767273
1788862119265761500,0.140761474609375,0.08534392714500427,-2.4145357608795166,0.14029400050640106
1788862119275804000,0.150803955078125,0.30875277519226074,-2.8118982315063477,0.22822065651416779
1788862119285845800,0.160845703125,0.4778861403465271,-3.030325174331665,0.28760993480682373
1788862119295887600,0.1708876953125,0.7106096744537354,-3.068244457244873,0.27910539507865906
1788862119305929700,0.1809296875,1.1636786460876465,-3.0929598808288574,0.2316177785396576
1788862119315971600,0.1909716796875,1.7696624994277954,-3.0049660205841064,0.10768278688192368
1788862119326013700,0.201013671875,2.398341178894043,-2.9931886196136475,-0.0014253237750381231
1788862119336055800,0.211055908203125,2.928741931915283,-3.1795966625213623,-0.011841479688882828
1788862119346097700,0.22109765625,3.5231001377105713,-3.814749240875244,0.30100777745246887
1788862119356139800,0.231139892578125,4.12448787689209,-4.550282955169678,0.9984819293022156
1788862119366181600,0.241181640625,4.474671840667725,-5.373258590698242,1.81415593624115
1788862119376223700,0.2512236328125,4.346674919128418,-6.102166175842285,2.4846997261047363
1788862119386265900,0.261265869140625,3.881420612335205,-6.404599666595459,2.79719614982605
1788862119396307700,0.2713076171875,3.629704236984253,-6.368734359741211,2.9023444652557373
1788862119406349600,0.281349609375,3.8089914321899414,-5.993259906768799,2.9814603328704834
1788862119416391700,0.2913916015625,4.234999656677246,-5.459712028503418,3.0400314331054688
1788862119426433800,0.301433837890625,4.697291374206543,-4.970419883728027,3.089737892150879
1788862119436475600,0.3114755859375,4.976688861846924,-4.56776762008667,3.019216537475586
1788862119446517800,0.321517822265625,5.032862663269043,-4.177238941192627,2.7980949878692627
1788862119456559600,0.3315595703125,4.9921488761901855,-3.806208372116089,2.522313117980957
1788862119466601700,0.341601806640625,4.91298246383667,-3.637355089187622,2.368698835372925
1788862119476643800,0.351643798828125,4.796660900115967,-3.7661497592926025,2.45356822013855
1788862119486685700,0.361685791015625,4.6977949142456055,-3.9280850887298584,2.754542589187622
1788862119496727800,0.371727783203125,4.637403964996338,-4.032848358154297,3.175100564956665
1788862119506769700,0.381769775390625,4.560297966003418,-4.0126190185546875,3.6640830039978027
1788862119516811500,0.3918115234375,4.477723121643066,-3.9877450466156006,4.118013858795166
1788862119526854000,0.40185400390625,4.388125419616699,-3.9502313137054443,4.394752025604248
1788862119536895700,0.411895751953125,4.240771293640137,-3.7398698329925537,4.461340427398682
1788862119546937600,0.4219375,4.104504108428955,-3.4460160732269287,4.342220783233643
1788862119556979700,0.431979736328125,2.9810643196105957,-6.817198276519775,0.44674739241600037
1788862119567021600,0.442021484375,4.124055862426758,-3.7470014095306396,1.6464191675186157
1788862119577063700,0.452063720703125,4.281851768493652,-1.4633287191390991,3.4339568614959717
1788862119587105800,0.462105712890625,3.742100477218628,-2.6941215991973877,3.343163013458252
1788862119597147600,0.472147705078125,3.3027162551879883,-4.675008773803711,2.5957322120666504
1788862119607189800,0.482189697265625,3.044858694076538,-7.2021565437316895,1.1659345626831055
1788862119617231600,0.492231689453125,3.950043201446533,-7.527786731719971,-0.06502746790647507
1788862119627274800,0.502274658203125,4.283252716064453,0.17251691222190857,-0.7272829413414001
1788862119637315800,0.51231591796875,4.19393253326416,2.0518410205841064,-0.5459847450256348
1788862119647357700,0.522357666015625,3.5956764221191406,1.5067006349563599,-0.11003462225198746
1788862119657400600,0.532400634765625,3.391209602355957,0.5508359670639038,0.07295729964971542
1788862119667442700,0.542442626953125,3.4862284660339355,-0.9470360279083252,0.014824486337602139
1788862119677484800,0.55248486328125,3.712764024734497,-1.9900188446044922,0.35355353355407715
1788862119687526700,0.562526611328125,3.629701852798462,-1.8391454219818115,0.7098325490951538
1788862119697568800,0.57256884765625,3.381788492202759,-0.954587996006012,0.4409153461456299
1788862119707610600,0.582610595703125,3.0215036869049072,0.19875970482826233,-0.27007436752319336
1788862119717652700,0.59265283203125,2.6151115894317627,0.7999438047409058,-0.6833522319793701
1788862119727694800,0.60269482421875,2.3823049068450928,0.04893238842487335,-0.5110291838645935
1788862119737736700,0.61273681640625,2.0442054271698,-1.0287284851074219,0.24897386133670807
1788862119747778600,0.622778564453125,1.7545464038848877,-1.759973168373108,1.0481981039047241
1788862119757820700,0.632820556640625,1.5690721273422241,-1.8661091327667236,1.4841021299362183
1788862119767862800,0.64286279296875,1.4892239570617676,-1.5510122776031494,1.4807229042053223
1788862119777904600,0.652904541015625,1.47710120677948,-1.118229627609253,1.092146873474121
1788862119787946800,0.66294677734375,1.7462680339813232,-0.9158376455307007,0.7806984782218933
1788862119797988600,0.672988525390625,1.9627220630645752,-0.8192823529243469,0.5323981046676636
1788862119808030700,0.68303076171875,1.544987678527832,-0.4024454355239868,0.18174822628498077
1788862119818072800,0.69307275390625,1.9873634576797485,-0.29821518063545227,-0.18118096888065338
1788862119828114700,0.70311474609375,1.4892226457595825,0.5289416313171387,-0.4848391115665436
1788862119838156800,0.71315673828125,0.7122456431388855,0.9805580377578735,-0.6597190499305725
1788862119848198700,0.72319873046875,0.32214394211769104,0.4100969731807709,-0.4963751435279846
1788862119858240500,0.733240478515625,-0.10085391253232956,-0.45381250977516174,-0.04265798255801201
1788862119868283000,0.743282958984375,-0.4317471385002136,-0.770776093006134,0.27787208557128906
1788862119878324700,0.75332470703125,-0.5773069858551025,-0.8559434413909912,0.18822236359119415
1788862119888366600,0.76336669921875,-0.7311586141586304,-0.6763609051704407,-0.34839606285095215
1788862119898408700,0.77340869140625,-0.9873746633529663,-0.0678112730383873,-0.6331436634063721
1788862119908450600,0.783450439453125,-1.0554448366165161,0.7070343494415283,0.09352515637874603
1788862119918492700,0.79349267578125,-1.0286060571670532,1.2858631610870361,-0.5472133159637451
1788862119928534800,0.80353466796875,-1.1772851943969727,1.3988133668899536,-0.7690356969833374
1788862119938576600,0.81357666015625,-1.4414668083190918,1.1781246662139893,-0.7101225852966309
1788862119948618800,0.82361865234375,-1.7673094272613525,1.1930724382400513,-0.4990750551223755
1788862119958660600,0.83366064453125,-1.5042612552642822,0.7113193869590759,-0.4289947748184204
1788862119968702700,0.84370263671875,-0.617616593837738,1.1256308555603027,-0.6944786310195923
1788862119978744800,0.853744873046875,-0.22177153825759888,0.8442476391792297,-0.6224257349967957
1788862119988786700,0.86378662109375,0.13560070097446442,0.49158942699432373,-0.503158450126648
1788862119998828500,0.87382861328125,0.46483558416366577,-0.001419198582880199,-0.2534562349319458
1788862120008870700,0.88387060546875,0.5718174576759338,-0.06275153160095215,-0.07545827329158783
1788862120018912800,0.893912841796875,0.2684072256088257,0.42061594128608704,-0.06569325923919678
1788862120028954600,0.90395458984375,-0.36798733472824097,0.6296746134757996,0.03887735679745674
1788862120038996700,0.913996826171875,-0.8511819839477539,0.7129306197166443,0.020976921543478966
1788862120049038600,0.92403857421875,-1.0651254653930664,1.1983106136322021,-0.20216535031795502
1788862120059080700,0.934080810546875,-0.6407179236412048,1.4445252418518066,-0.5606628060340881
1788862120069122800,0.944122802734375,-0.9311119318008423,0.2949807643890381,-0.3285139799118042
1788862120079164700,0.95416455078125,-0.8711066842079163,-0.08155903965234756,-0.04587161913514137
1788862120089206800,0.964206787109375,-0.3875724971294403,0.19820229709148407,-0.03458114713430405
1788862120099248600,0.97424853515625,-0.14523150026798248,-0.09591641277074814,-0.13849316537380219
1788862120109290500,0.98429052734375,0.06844963133335114,-0.2441338449716568,0.011572766117751598
1788862120119332900,0.994332763671875,0.11014461517333984,-0.15162387490272522,0.1361972540616989
1788862120129374500,1.00437451171875,-0.05113242566585541,-0.09981980174779892,-0.028661739081144333
1788862120139416600,1.01441650390625,-0.17777931690216064,-0.06557794660329819,-0.30406454205513
1788862120149458700,1.024458740234375,-0.0010596717474982142,-0.42736464738845825,-0.554995596408844
1788862120159500500,1.03450048828125,0.39874523878097534,-1.915893793106079,-1.125390648841858
1788862120169542700,1.044542724609375,1.74033522605896,-1.8330950736999512,-0.06667570024728775
1788862120179584500,1.05458447265625,3.068305730819702,-0.6615166664123535,0.5408377051353455
1788862120189626600,1.064626708984375,2.7791457176208496,-0.2586272954940796,0.17967921495437622
1788862120199668700,1.074668701171875,3.130293369293213,-0.6463243961334229,0.04235225170850754
1788862120209710600,1.084710693359375,3.4958555698394775,-1.573851227760315,0.253108412027359
1788862120219752400,1.09475244140625,3.207064390182495,-2.0814502239227295,0.7308699488639832
1788862120229794600,1.104794677734375,3.228931188583374,-2.643376350402832,0.735583484172821
1788862120239836700,1.114836669921875,2.700589656829834,-1.9221482276916504,0.4438306987285614
1788862120249878500,1.12487841796875,2.3607780933380127,-1.1584491729736328,0.056462742388248444
1788862120259920600,1.134920654296875,2.315882444381714,-0.6996678113937378,0.03247485309839249
1788862120269962500,1.14496240234375,1.8342034816741943,-0.6977961659431458,0.1372920721769333
1788862120280004600,1.155004638671875,1.581830382347107,-1.1954224109649658,0.2066114991903305
1788862120290046700,1.165046630859375,1.1312892436981201,-1.664564609527588,0.26109763979911804
1788862120300088600,1.175088623046875,0.896460771560669,-1.022191047668457,0.44277849793434143
1788862120310130700,1.185130615234375,0.8962884545326233,-1.0524437427520752,0.36009079217910767
1788862120320172500,1.195172607421875,0.2740853428840637,-0.9978470206260681,0.005199822131544352
1788862120330214400,1.20521435546875,0.01804371550679207,-0.8900505304336548,-0.027596207335591316
1788862120340256800,1.2152568359375,-0.053164683282375336,-0.7971901297569275,0.11604111641645432
1788862120350298600,1.225298583984375,-0.09325617551803589,-0.9030172228813171,0.25126418471336365
1788862120360340500,1.235340576171875,-0.01525911409407854,-1.195629596710205,0.28483307361602783
1788862120370382600,1.245382568359375,0.016502544283866882,-1.182938814163208,0.3302682042121887
1788862120380424400,1.255424560546875,0.036004871129989624,-0.8262489438056946,0.31108489632606506
1788862120390466800,1.265466796875,-0.09052270650863647,-0.319419801235199,0.20483623445034027
1788862120400508700,1.2755087890625,-0.29702556133270264,-0.0984775722026825,0.16968970000743866
1788862120410550500,1.285550537109375,-0.4210401773452759,-0.1624421775341034,0.14347593486309052
1788862120420592600,1.295592529296875,-0.3615395724773407,-0.22672902047634125,0.20106573402881622
1788862120430634500,1.305634521484375,-0.09733347594738007,-0.12131364643573761,0.29180681705474854
1788862120440676600,1.315676513671875,0.21494212746620178,-0.009313073940575123,0.33010920882225037
1788862120450718700,1.32571875,0.39800676703453064,0.007131412625312805,0.26339489221572876
1788862120460760600,1.335760498046875,0.371012419462204,0.07214716076850891,0.1426253318786621
1788862120470802400,1.345802490234375,0.8348557353019714,0.6249557733535767,0.16145333647727966
1788862120480844500,1.355844482421875,1.2371219396591187,0.40483537316322327,0.10978029668331146
1788862120490886700,1.36588671875,1.7970826625823975,0.0008564725867472589,0.1423904299736023
1788862120500928800,1.3759287109375,2.209191083908081,-0.46929478645324707,0.1400548368692398
1788862120510970600,1.385970703125,2.084350824356079,-0.8202933073043823,0.17644719779491425
1788862120521012500,1.396012451171875,1.694811224937439,-0.848190188407898,0.14684909582138062
1788862120531054600,1.4060546875,1.1732151508331299,-0.8449317812919617,0.06877507269382477
1788862120541096700,1.4160966796875,0.7449514269828796,-1.2699557542800903,0.19829045236110687
1788862120551138600,1.426138671875,0.6064185500144958,-1.7544660568237305,0.39438778162002563
1788862120561180700,1.4361806640625,0.8633289337158203,-1.5222282409667969,0.27516260743141174
1788862120571222500,1.446222412109375,1.4014413356781006,-0.808590292930603,0.13416898250579834
1788862120581264400,1.456264404296875,1.9623379707336426,-0.07221987098455429,0.15089790523052216
1788862120591306800,1.466306640625,2.2649216651916504,0.2033374011516571,0.13604411482810974
1788862120601348600,1.4763486328125,2.2896690368652344,-0.32010984420776367,0.07288353145122528
1788862120611390500,1.486390380859375,2.2505619525909424,-1.0647659301757812,0.009258479811251163
1788862120621432600,1.4964326171875,2.2308261394500732,-1.3525763750076294,-0.08316519111394882
1788862120631474400,1.506474365234375,1.4938669204711914,-1.1204185485839844,-0.05752135068178177
1788862120641516800,1.516516845703125,0.18601727485656738,-0.6391469240188599,0.01589028351008892
1788862120651558700,1.52655859375,-0.36088496446609497,-0.4170161485671997,-0.06379282474517822
1788862120661600500,1.5366005859375,-0.316312700510025,-0.31986668705940247,-0.20772071182727814
1788862120671642600,1.546642578125,-0.3763592541217804,-0.2588360905647278,-0.14049239456653595
1788862120681684500,1.5566845703125,-0.4526801109313965,-0.5805746912956238,0.02647608146071434
1788862120691726600,1.5667265625,-0.6474831700325012,-1.0736008882522583,0.11667255312204361
1788862120701768700,1.576768798828125,-1.072558045387268,-1.6005747318267822,0.16439427435398102
1788862120711810600,1.586810546875,-1.6382997035980225,-1.9736425876617432,0.2510599195957184
1788862120721852400,1.596852294921875,-2.3464579582214355,-1.8765687942504883,0.3744574785232544
1788862120731894500,1.60689453125,-2.8829331398010254,-1.5187690258026123,0.4710359573364258
1788862120741936600,1.6169365234375,-2.9785232543945312,-1.4266636371612549,0.3940652906894684
1788862120751978800,1.626978759765625,-2.7922213077545166,-1.296722412109375,0.3740231394767761
1788862120762020600,1.6370205078125,-0.44177260994911194,-0.8961888551712036,0.45835503935813904
1788862120772062500,1.6470625,0.37443217635154724,0.7256658673286438,0.6245842576026917
1788862120782104600,1.6571044921875,0.18452005088329315,1.5237095355987549,0.42842191457748413
1788862120792146700,1.667146728515625,0.23061136901378632,1.4934935569763184,-0.10661965608596802
1788862120802187800,1.677187744140625,0.06009822338819504,0.7663067579269409,-0.6436948180198669
1788862120812230700,1.687230712890625,0.2308071106672287,-0.25554201006889343,-0.7728887796401978
1788862120822272500,1.6972724609375,0.5705897212028503,-1.108731746673584,-0.40591156482696533
1788862120832314400,1.707314453125,0.6059343814849854,-1.580053448677063,-0.07071305066347122
1788862120842356700,1.717356689453125,0.6993128061294556,-1.7339452505111694,-0.009071791544556618
1788862120852398600,1.727398681640625,0.7018603682518005,-1.9200845956802368,-0.055442485958337784
1788862120862440700,1.737440673828125,0.7961328029632568,-1.9139946699142456,-0.012475045397877693
1788862120872482600,1.747482666015625,0.9440999031066895,-1.9047644138336182,0.07988497614860535
1788862120882524400,1.7575244140625,0.9490669965744019,-1.832302451133728,0.11702036112546921
1788862120892566800,1.76756689453125,1.0156800746917725,-1.7408431768417358,0.17265646159648895
1788862120902608600,1.777608642578125,1.1385418176651,-1.4479832649230957,0.19001494348049164
1788862120912650500,1.787650390625,1.1234259605407715,-1.022809386253357,0.20250970125198364
1788862120922692600,1.797692626953125,1.0436582565307617,-0.6765022873878479,0.20865200459957123
1788862120932734500,1.807734375,0.9168248772621155,-0.5256839990615845,0.1802816241979599
1788862120942776600,1.817776611328125,0.8490002751350403,-0.40973877906799316,0.1782006323337555
1788862120952818700,1.827818603515625,0.8237711191177368,-0.4297487139701843,0.22186581790447235
1788862120962860500,1.837860595703125,0.7969275116920471,-0.48934438824653625,0.19825422763824463
1788862120972902700,1.847902587890625,0.8914756178855896,-0.3455565869808197,-0.09109742194414139
1788862120982944500,1.857944580078125,0.7604144811630249,-0.3535490036010742,-0.25414225459098816
1788862120992986600,1.867986572265625,0.6775094866752625,-0.6750277280807495,-0.2955895662307739
1788862121003027700,1.87802783203125,0.6168535947799683,-1.00607430934906,-0.291692316532135
1788862121013070600,1.888070556640625,0.6791441440582275,-1.1431142091751099,-0.28863072395324707
1788862121023111700,1.898111572265625,0.6522006988525391,-1.2538777589797974,-0.1393056958913803
1788862121033153500,1.908153564453125,0.5536535978317261,-1.2756069898605347,0.08874770998954773
1788862121043195400,1.9181953125,0.48933160305023193,-1.1353294849395752,0.29851213097572327
1788862121053237800,1.92823779296875,0.7725651860237122,-1.1817330121994019,0.31998226046562195
1788862121063279600,1.938279541015625,0.6750170588493347,-1.3725833892822266,0.3888111412525177
1788862121073321500,1.948321533203125,0.40485188364982605,-1.014799952507019,0.30802467465400696
1788862121083363600,1.958363525390625,0.056715741753578186,-0.0282292403280735,0.044675059616565704
1788862121093405400,1.968405517578125,-0.06529591232538223,0.3018797039985657,-0.10490457713603973
1788862121103447600,1.978447509765625,-0.12336587905883789,0.19814211130142212,-0.06591696292161942
1788862121113489700,1.98848974609375,-0.13018916547298431,0.11615030467510223,0.08226557821035385
1788862121123531500,1.998531494140625,-0.1785620152950287,0.10948867350816727,0.2354324907064438
1788862121133573600,2.00857373046875,-0.29018867015838623,0.01895158737897873,0.28044578433036804
1788862121143615500,2.018615478515625,-0.36926379799842834,-0.0065439194440841675,0.3252987265586853
1788862121153657600,2.02865771484375,-0.38592132925987244,0.12256906181573868,0.3208027780056
1788862121163699700,2.03869970703125,-0.43617624044418335,0.30320221185684204,0.271035760641098
1788862121173741600,2.048741455078125,-0.5249452590942383,0.44383442401885986,0.22490261495113373
1788862121183783400,2.058783447265625,-0.5893942713737488,0.4366430938243866,0.29833582043647766
1788862121193825500,2.068825439453125,-0.7432752251625061,0.42022523283958435,0.3396454453468323
1788862121203867600,2.07886767578125,-0.6543437242507935,0.4959096312522888,0.2782422602176666
1788862121213909500,2.088909423828125,-0.710793137550354,0.5018303394317627,0.08014117181301117
1788862121223951600,2.09895166015625,-0.8194035291671753,0.5383819937705994,-0.1578143984079361
1788862121233993500,2.108993408203125,-0.8535982370376587,0.6559845209121704,-0.3802530765533447
1788862121244035600,2.11903564453125,-0.5374988913536072,0.7931636571884155,-0.503141462802887
1788862121254077700,2.12907763671875,0.05756742134690285,0.6891272664070129,-0.4355112612247467
1788862121264119600,2.13911962890625,0.03519154340028763,0.25148335099220276,-0.11928271502256393
1788862121274161700,2.14916162109375,-0.30876263976097107,-0.3122346103191376,0.24855788052082062
1788862121284203500,2.15920361328125,-0.37075650691986084,-0.47679343819618225,0.3957318961620331
1788862121294245400,2.169245361328125,-0.3950112462043762,-0.4340156316757202,0.32862982153892517
1788862121304287700,2.179287841796875,-0.4015487730503082,-0.4705270230770111,0.24318096041679382
1788862121314329600,2.18932958984375,-0.32260680198669434,-0.5628082156181335,0.24211542308330536
1788862121324371500,2.199371337890625,-0.24800288677215576,-0.6177564263343811,0.31190037727355957
1788862121334413600,2.20941357421875,-0.23796169459819794,-0.6330363154411316,0.4003905653953552
1788862121344455400,2.219455322265625,-0.25866323709487915,-0.48423483967781067,0.44380754232406616
1788862121354497800,2.229497802734375,-0.2226349413394928,-0.2522277235984802,0.45118048787117004
1788862121364539600,2.23953955078125,-0.2558906376361847,-0.006459497381001711,0.39631831645965576
1788862121374581500,2.24958154296875,-0.3284069001674652,0.11477664858102798,0.27291035652160645
1788862121384623600,2.25962353515625,-0.35689660906791687,0.11333294957876205,0.21209149062633514
1788862121394665500,2.26966552734375,-0.29056498408317566,0.005172657780349255,0.2621418535709381
1788862121404707600,2.27970751953125,-0.19062480330467224,-0.2099846601486206,0.39338696002960205
1788862121414749700,2.289749755859375,-0.1207549124956131,-0.2982218563556671,0.5113743543624878
1788862121424791600,2.29979150390625,-0.07026803493499756,-0.1890420913696289,0.4950326383113861
1788862121434833400,2.30983349609375,-0.03313664719462395,-0.060326192528009415,0.4087691307067871
1788862121444875500,2.31987548828125,0.02738368697464466,0.008656072430312634,0.33575963973999023
1788862121454917600,2.329917724609375,0.08267011493444443,0.03446316719055176,0.33005645871162415
1788862121464959700,2.339959716796875,0.06226923316717148,0.07754379510879517,0.40696004033088684
1788862121475001600,2.350001708984375,0.014139254577457905,0.038414500653743744,0.47774872183799744
1788862121485043500,2.36004345703125,0.010060356929898262,0.02684892527759075,0.5363126993179321
1788862121495085600,2.37008544921875,-0.012372513301670551,0.007437942549586296,0.545968234539032
1788862121505127700,2.380127685546875,-0.038965508341789246,-0.04663700982928276,0.5184047818183899
1788862121515169500,2.39016943359375,-0.048594966530799866,-0.03579794615507126,0.4520423114299774
1788862121525211600,2.400211669921875,-0.06581976264715195,-0.027273433282971382,0.39502614736557007
1788862121535253500,2.41025341796875,-0.049434926360845566,-0.027812723070383072,0.3736007511615753
1788862121545295400,2.42029541015625,-0.019996611401438713,0.048349421471357346,0.3316940367221832
1788862121555337700,2.430337646484375,-0.01683916710317135,0.1284589022397995,0.2828623354434967
1788862121565379600,2.440379638671875,-0.03284050524234772,0.1785508394241333,0.24121634662151337
1788862121575421700,2.450421630859375,-0.06518379598855972,0.158384308218956,0.2131572812795639
1788862121585463600,2.460463623046875,-0.08758044987916946,0.04765460267663002,0.18614830076694489
1788862121595505400,2.47050537109375,-0.09962459653615952,-0.056164469569921494,0.1522398740053177
1788862121605547800,2.4805478515625,-0.09203511476516724,-0.11785765737295151,0.12510812282562256
1788862121615589600,2.490589599609375,-0.08014942705631256,-0.20204684138298035,0.12281247228384018
1788862121625631500,2.500631591796875,-0.071505606174469,-0.257586807012558,0.13612881302833557
1788862121635673600,2.510673583984375,-0.08340407907962799,-0.24175457656383514,0.16141977906227112
1788862121645715500,2.520715576171875,-0.09544556587934494,-0.18551553785800934,0.1667591631412506
1788862121655757600,2.530757568359375,-0.11301310360431671,-0.13210131227970123,0.11760678887367249
1788862121665799700,2.540799560546875,-0.11464721709489822,-0.08646617829799652,0.04567161574959755
1788862121675841500,2.550841552734375,-0.11232414096593857,-0.0242502111941576,-0.014208762906491756
1788862121685883600,2.560883544921875,-0.11387250572443008,0.06129664555191994,-0.016501478850841522
1788862121695925800,2.57092578125,-0.10835336893796921,0.09456006437540054,0.015336878597736359
1788862121705967600,2.580967529296875,-0.09563224762678146,0.022662967443466187,0.04277675971388817
1788862121716009700,2.591009765625,-0.09635050594806671,-0.08257424086332321,0.054491735994815826
1788862121726051600,2.601051513671875,-0.0992879718542099,-0.13424302637577057,0.06687410175800323
1788862121736093400,2.611093505859375,-0.09455180168151855,-0.09947732090950012,0.09635796397924423
1788862121746135800,2.6211357421875,-0.08332791179418564,0.0015068164793774486,0.1403680294752121
1788862121756177700,2.631177734375,-0.07038494944572449,0.09420426189899445,0.16786623001098633
1788862121766219500,2.641219482421875,-0.07309737801551819,0.14054885506629944,0.186624214053154
1788862121776261600,2.65126171875,-0.08073212951421738,0.14455345273017883,0.21496956050395966
1788862121786303500,2.661303466796875,-0.08078592270612717,0.1256529986858368,0.24936801195144653
1788862121796345600,2.671345703125,-0.06744295358657837,0.07506944984197617,0.2682197391986847
1788862121806387700,2.6813876953125,-0.05107969418168068,0.009469668380916119,0.26600557565689087
1788862121816429600,2.6914296875,-0.036982785910367966,-0.0070278155617415905,0.2497645616531372
1788862121826471700,2.7014716796875,-0.04128112643957138,0.0402614027261734,0.23318664729595184
1788862121836513500,2.711513427734375,-0.06867919862270355,0.11675058305263519,0.20150116086006165
1788862121846555600,2.7215556640625,-0.10859625041484833,0.1765843629837036,0.18464921414852142
1788862121856597800,2.73159765625,-0.12854598462581635,0.18341296911239624,0.1924743801355362
1788862121866639600,2.7416396484375,-0.11007936298847198,0.17186976969242096,0.2244754433631897
1788862121876681500,2.751681396484375,-0.07296235859394073,0.15113066136837006,0.25901105999946594
1788862121886723600,2.7617236328125,-0.022300245240330696,0.10974833369255066,0.27394258975982666
1788862121896765700,2.771765625,0.03256779536604881,0.05800071731209755,0.24463984370231628
1788862121906807600,2.7818076171875,0.07244410365819931,-0.0023992417845875025,0.17881181836128235
1788862121916849700,2.791849609375,0.1005479097366333,-0.05981273204088211,0.101727694272995
1788862121926891500,2.8018916015625,0.11508531123399734,-0.1195884495973587,0.04309820011258125
1788862121936933600,2.81193359375,0.1132218986749649,-0.15951909124851227,0.0237031988799572
1788862121946975700,2.821975830078125,0.09524182975292206,-0.1378026008605957,0.047580037266016006
1788862121957017600,2.832017578125,0.059759471565485,-0.04614752158522606,0.0724041610956192
1788862121967059700,2.842059814453125,0.011808455921709538,0.04861840233206749,0.09838861972093582
1788862121977101600,2.8521015625,-0.04038896784186363,0.05801057070493698,0.12153149396181107
1788862121987143400,2.862143310546875,-0.05841430649161339,0.04133172705769539,0.1185775101184845
1788862121997185800,2.872185791015625,-0.0408446341753006,-0.008490157313644886,0.12497974932193756
1788862122007227600,2.8822275390625,0.004649879410862923,-0.17218880355358124,0.15087579190731049
1788862122017269500,2.89226953125,0.03791595622897148,-0.3653090000152588,0.15294480323791504
1788862122027311600,2.9023115234375,0.049973949790000916,-0.3496868908405304,0.11049029231071472
1788862122037352400,2.9123525390625,0.03211425989866257,-0.1648043990135193,0.053572412580251694
1788862122047394600,2.92239453125,-0.00869388971477747,0.05210661143064499,0.03292599320411682
1788862122057436700,2.932436767578125,-0.03135951980948448,0.13356472551822662,0.08576364070177078
1788862122067478800,2.942478759765625,-0.03355422988533974,0.08660279959440231,0.1744527667760849
1788862122077520600,2.952520751953125,-0.011292069219052792,0.030917169526219368,0.22794368863105774
1788862122087562500,2.9625625,0.008675513789057732,-0.0072957295924425125,0.22195743024349213
1788862122097604600,2.9726044921875,0.006058158818632364,-0.05771363154053688,0.1835184246301651
1788862122107646700,2.982646728515625,-0.0027545075863599777,-0.11851173639297485,0.14308898150920868
1788862122117688600,2.9926884765625,0.006875216495245695,-0.10379723459482193,0.10718637704849243
1788862122127731200,3.002731201171875,0.007877363823354244,-0.010969294235110283,0.06405728310346603
1788862122137773000,3.01277294921875,0.008355667814612389,0.11806858330965042,0.031314246356487274
1788862122147815000,3.02281494140625,0.018330270424485207,0.18297834694385529,0.03406688943505287
1788862122157857300,3.032857177734375,0.03804538771510124,0.19845956563949585,0.062441807240247726
1788862122167899100,3.042899169921875,0.05273538455367088,0.19056329131126404,0.08764968812465668
1788862122177941000,3.05294091796875,0.05806463584303856,0.208163321018219,0.07337354868650436
1788862122187983000,3.062983154296875,0.07456478476524353,0.2028479129076004,0.046546727418899536
1788862122198025000,3.07302490234375,0.0761624127626419,0.12950286269187927,0.031852737069129944
1788862122208067000,3.083067138671875,0.0580047145485878,0.09644957631826401,0.02539137750864029
1788862122218109200,3.093109130859375,0.05335802957415581,0.07810811698436737,0.015512114390730858
1788862122228151000,3.103151123046875,0.06191742792725563,0.062139272689819336,-0.011171960271894932
1788862122238193200,3.113193115234375,0.05956852063536644,0.021577997133135796,-0.015535283833742142
1788862122248235000,3.123235107421875,0.050385408103466034,-0.04939631000161171,0.013942181132733822
1788862122258277000,3.133277099609375,0.037632863968610764,-0.13277748227119446,0.06927840411663055
1788862122268319200,3.1433193359375,0.013802364468574524,-0.1204284131526947,0.10028000175952911
1788862122278361000,3.153361083984375,-0.02280677855014801,-0.020871993154287338,0.10340255498886108
1788862122288403000,3.16340283203125,-0.05258091911673546,0.08648721873760223,0.1034502238035202
1788862122298445000,3.173445068359375,-0.041306428611278534,0.15589852631092072,0.12243963032960892
1788862122308487200,3.183487060546875,-0.014158429577946663,0.1695602685213089,0.1301816999912262
1788862122318529000,3.193529052734375,0.013836720027029514,0.12815876305103302,0.11614551395177841
1788862122328571100,3.203571044921875,0.027872910723090172,0.0728294625878334,0.10876323282718658
1788862122338613000,3.213613037109375,0.03712259978055954,0.000990695902146399,0.1370188444852829
1788862122348655000,3.223655029296875,0.028263594955205917,-0.02184884063899517,0.1732945591211319
1788862122358697200,3.233697265625,0.024173246696591377,0.01750788651406765,0.2180686891078949
1788862122368739000,3.243739013671875,0.023078154772520065,0.05638950690627098,0.24476714432239532
1788862122378781200,3.25378125,0.026742398738861084,0.0586145780980587,0.23819312453269958
1788862122388823000,3.263822998046875,0.04005953669548035,0.03496011346578598,0.22172173857688904
1788862122398865000,3.273864990234375,0.0557442232966423,0.011546934023499489,0.20791085064411163
1788862122408907300,3.2839072265625,0.05789552256464958,-0.02004481479525566,0.20766212046146393
1788862122418949000,3.29394921875,0.057986337691545486,-0.09691935777664185,0.21120837330818176
1788862122428991000,3.303990966796875,0.03236379846930504,-0.17690207064151764,0.20099729299545288
1788862122439033000,3.314033203125,0.007411577273160219,-0.21717385947704315,0.2121599316596985
1788862122449075000,3.324074951171875,-0.0021880532149225473,-0.19297903776168823,0.23072375357151031
1788862122459117000,3.334116943359375,0.0013259878614917397,-0.10608915239572525,0.23401115834712982
1788862122469159200,3.3441591796875,-0.011668906547129154,-0.008404137566685677,0.23845145106315613
1788862122479201000,3.354200927734375,-0.02653653547167778,0.047871652990579605,0.24211622774600983
1788862122489243100,3.3642431640625,-0.03136617690324783,0.06330067664384842,0.2471916824579239
1788862122499285000,3.374284912109375,-0.02016066201031208,0.04200524091720581,0.2500852048397064
1788862122509327000,3.3843271484375,-0.00123783724848181,0.027647607028484344,0.2405116707086563
1788862122519369200,3.394369140625,0.024415593594312668,0.014218084514141083,0.23615607619285583
1788862122529411000,3.4044111328125,0.04598773270845413,0.026861175894737244,0.21354930102825165
1788862122539453000,3.414452880859375,0.04542846605181694,0.06821207702159882,0.174800306558609
1788862122549495000,3.4244951171875,0.030305175110697746,0.14751514792442322,0.11349193751811981
1788862122559537200,3.434537109375,-0.001787779969163239,0.23250088095664978,0.06330014020204544
1788862122569579000,3.4445791015625,-0.01836249604821205,0.3075173497200012,0.045096106827259064
1788862122579621000,3.45462109375,-0.014006363227963448,0.33478838205337524,0.06337764114141464
1788862122589663000,3.4646630859375,0.007667507044970989,0.2974900007247925,0.08534259349107742
1788862122599705000,3.474705078125,0.0391673743724823,0.24049623310565948,0.09381091594696045
1788862122609747200,3.484747314453125,0.07813208550214767,0.19626778364181519,0.0915786549448967
1788862122619789000,3.4947890625,0.0961528941988945,0.13249891996383667,0.07701728492975235
1788862122629831200,3.5048310546875,0.09127212315797806,0.09724346548318863,0.06242156773805618
1788862122639872000,3.5148720703125,0.07596480846405029,0.08266611397266388,0.05435671657323837
1788862122649914000,3.5249140625,0.04451127350330353,0.1023482084274292,0.04767724126577377
1788862122659956000,3.5349560546875,0.019449863582849503,0.16395564377307892,0.010209494270384312
1788862122669998000,3.544998046875,-0.019365176558494568,0.25170281529426575,-0.03834738954901695
1788862122680040200,3.555040283203125,-0.018037855625152588,0.35589632391929626,-0.0889117643237114
1788862122690082000,3.56508203125,-0.025197764858603477,0.3869125545024872,-0.07145261019468307
1788862122700124000,3.5751240234375,-0.010337858460843563,0.3738763928413391,-0.03284157067537308
1788862122710166000,3.585166015625,0.03528209030628204,0.2836535573005676,-0.04842612147331238
1788862122720208100,3.5952080078125,0.052854690700769424,0.07164409011602402,-0.09505008161067963
1788862122730250200,3.605250244140625,0.08774982392787933,-0.06481335312128067,-0.17408445477485657
1788862122740292000,3.6152919921875,0.10119292885065079,-0.010616958141326904,-0.26183027029037476
1788862122750334000,3.625333984375,0.039488285779953,0.1692121922969818,-0.3469294607639313
1788862122760376000,3.6353759765625,-0.003175287041813135,0.3716350793838501,-0.4349021911621094
1788862122770418200,3.645418212890625,-0.04951855167746544,0.5090667009353638,-0.5026229023933411
1788862122780460000,3.6554599609375,-0.08765528351068497,0.5629829168319702,-0.5489033460617065
1788862122790502100,3.665502197265625,-0.1234726682305336,0.5534868836402893,-0.5761296153068542
1788862122800544000,3.6755439453125,-0.14459259808063507,0.49881884455680847,-0.5827004313468933
1788862122810585900,3.6855859375,-0.1480022519826889,0.3840677738189697,-0.5815731287002563
1788862122820628200,3.695628173828125,-0.13392424583435059,0.20924723148345947,-0.5831073522567749
1788862122830670000,3.705670166015625,-0.12477309256792068,0.05558736249804497,-0.6137257218360901
1788862122840712200,3.715712158203125,-0.12751135230064392,-0.011544803157448769,-0.7031264305114746
1788862122850754000,3.725754150390625,-0.12636034190654755,-0.03343944996595383,-0.8356674313545227
1788862122860796000,3.7357958984375,-0.11772263795137405,-0.10626412183046341,-0.9407800436019897
1788862122870838300,3.74583837890625,-0.11716870218515396,-0.15285079181194305,-1.0014822483062744
1788862122880880000,3.755880126953125,-0.12807035446166992,-0.11156008392572403,-1.0326697826385498
1788862122890922000,3.765921875,-0.15955157577991486,-0.04215650632977486,-1.0359296798706055
1788862122900964000,3.775964111328125,-0.1897486299276352,-0.016588296741247177,-1.0145008563995361
1788862122911006200,3.786006103515625,-0.21248802542686462,-0.08034437149763107,-0.9861112833023071
1788862122921048000,3.796048095703125,-0.21669556200504303,-0.23872175812721252,-0.951528787612915
1788862122931090200,3.806090087890625,-0.24333488941192627,-0.4008358418941498,-0.9177148938179016
1788862122941132000,3.816132080078125,-0.3022155165672302,-0.5254877805709839,-0.8759693503379822
1788862122951174100,3.826174072265625,-0.3924868106842041,-0.5888699293136597,-0.8138402104377747
1788862122961216300,3.83621630859375,-0.4858575165271759,-0.5954766869544983,-0.7632137537002563
1788862122971258000,3.846258056640625,-0.5630868077278137,-0.5702296495437622,-0.7266554832458496
1788862122981300200,3.85630029296875,-0.6243336200714111,-0.5434792637825012,-0.7058351635932922
1788862122991342000,3.866342041015625,-0.6718758344650269,-0.4729537069797516,-0.7131897211074829
1788862123001384000,3.876384033203125,-0.6967793703079224,-0.3719107210636139,-0.77698814868927
1788862123011426300,3.88642626953125,-0.6787800788879395,-0.26770681142807007,-0.9036419987678528
1788862123021468200,3.89646826171875,-0.5512319803237915,-0.05223817005753517,-0.9561672210693359
1788862123031510000,3.906510009765625,-0.31262555718421936,0.19725075364112854,-0.7380463480949402
1788862123041552100,3.91655224609375,-0.09817396849393845,0.31569990515708923,-0.36257871985435486
1788862123051594000,3.926593994140625,0.0821973979473114,0.3867240250110626,-0.061594389379024506
1788862123061636000,3.936635986328125,0.3289584517478943,0.19937275350093842,-0.06688369065523148
1788862123071678200,3.94667822265625,0.6371098756790161,-0.31690046191215515,-0.2326449602842331
1788862123081720000,3.956719970703125,0.804101288318634,-0.7537949681282043,-0.14114700257778168
1788862123091762200,3.96676220703125,0.7626054883003235,-0.7790795564651489,0.18586280941963196
1788862123101804000,3.976803955078125,0.7218071818351746,-0.34283989667892456,0.5006833076477051
1788862123111846100,3.98684619140625,0.7496047616004944,0.4441004693508148,0.7727633118629456
1788862123121888300,3.99688818359375,0.726932168006897,1.1594122648239136,1.059734582901001
1788862123131929000,4.00692919921875,0.6618722081184387,1.437111735343933,1.3683558702468872
1788862123141971200,4.01697119140625,0.6044683456420898,1.2289575338363647,1.6454620361328125
1788862123152013300,4.027013427734375,0.471312940120697,0.6509649753570557,1.8534306287765503
1788862123162055200,4.03705517578125,0.2757090628147125,0.10236658155918121,2.0028629302978516
1788862123172097300,4.04709716796875,0.1835530549287796,-0.04314933344721794,2.136683940887451
1788862123182139100,4.05713916015625,0.26385748386383057,0.11268260329961777,2.2300477027893066
1788862123192181000,4.067180908203125,0.4614136815071106,0.209562286734581,2.1481292247772217
1788862123202223400,4.077223388671875,0.6239650845527649,-0.1934964954853058,1.5190351009368896
1788862123212265200,4.08726513671875,0.5911562442779541,-1.09169602394104,0.21676479279994965
1788862123222307300,4.097307373046875,0.48499971628189087,-1.4911142587661743,-0.7242509126663208
1788862123232349200,4.10734912109375,0.434297114610672,-0.6370217204093933,-0.6323502659797668
1788862123242391000,4.11739111328125,0.4297569692134857,1.6993273496627808,0.09544875472784042
1788862123252433400,4.127433349609375,0.3801659643650055,4.723886013031006,0.8575756549835205
1788862123262475300,4.137475341796875,0.028970398008823395,6.036950588226318,1.4893245697021484
1788862123272517000,4.14751708984375,-0.37947702407836914,4.212597846984863,1.8656492233276367
1788862123282559200,4.157559326171875,-0.31800833344459534,0.6873549222946167,2.0177342891693115
1788862123292601000,4.16760107421875,0.19547656178474426,-2.2014665603637695,1.5389862060546875
1788862123302643200,4.177643310546875,0.4913465678691864,-3.358613967895508,0.5838533043861389
1788862123312685300,4.187685302734375,0.49016305804252625,-3.308464288711548,-0.04754035547375679
1788862123322727200,4.19772705078125,0.4050161838531494,-2.3822450637817383,-0.027163976803421974
1788862123332769300,4.207769287109375,0.341979444026947,-0.382327675819397,0.21307899057865143
1788862123342811100,4.21781103515625,0.28678834438323975,1.4966381788253784,0.47996261715888977
1788862123352853200,4.227853271484375,0.26540663838386536,2.464632987976074,0.5490186214447021
1788862123362895400,4.237895263671875,0.2045627236366272,2.534365177154541,0.4602789282798767
1788862123372937200,4.247937255859375,0.11699479818344116,1.9175324440002441,0.356069415807724
1788862123382979000,4.25797900390625,0.11767842620611191,0.905129611492157,0.34206414222717285
1788862123393021200,4.268021240234375,0.18856991827487946,-0.16252446174621582,0.40732622146606445
1788862123403063300,4.278063232421875,0.23500505089759827,-1.0257081985473633,0.4795181155204773
1788862123413105200,4.288105224609375,0.2518588602542877,-1.571767807006836,0.5089974403381348
1788862123423147300,4.298147216796875,0.2381363958120346,-1.7333998680114746,0.4843522906303406
1788862123433189000,4.308189208984375,0.19315853714942932,-1.3770638704299927,0.39326393604278564
1788862123443231200,4.318231201171875,0.14529408514499664,-0.4378596246242523,0.19246186316013336
1788862123453273300,4.3282734375,0.08831334859132767,0.7068578004837036,-0.07042170315980911
1788862123463315200,4.338315185546875,0.0711093321442604,1.3108398914337158,-0.3167518377304077
1788862123473357300,4.348357421875,0.07569821923971176,1.3250789642333984,-0.538041889667511
1788862123483399200,4.358399169921875,0.06439683586359024,0.9239435195922852,-0.7499147057533264
1788862123493441000,4.36844091796875,0.007863515987992287,0.3454820215702057,-0.9287947416305542
1788862123503483400,4.3784833984375,-0.002892459277063608,-0.10788252204656601,-1.0590238571166992
1788862123513525200,4.388525146484375,0.01884213089942932,-0.26212430000305176,-1.1693737506866455
1788862123523567000,4.398567138671875,-0.0019888486713171005,-0.15696164965629578,-1.2811604738235474
1788862123533608200,4.408608154296875,-0.053456567227840424,0.11784114688634872,-1.4032222032546997
1788862123543650000,4.418650146484375,-0.0675412267446518,0.3740806579589844,-1.5290802717208862
1788862123553692200,4.428692138671875,-0.03477209433913231,0.42624107003211975,-1.6461951732635498
1788862123563734300,4.438734375,-0.005358280148357153,0.2684660851955414,-1.7337980270385742
1788862123573776100,4.448776123046875,-0.008643555454909801,0.05599695444107056,-1.7627506256103516
1788862123583818200,4.458818359375,-0.020174510776996613,-0.1402852088212967,-1.712904930114746
1788862123593860000,4.468860107421875,-0.03183968737721443,-0.274030476808548,-1.6324926614761353
1788862123603902200,4.478902099609375,-0.048593368381261826,-0.3761185109615326,-1.599621295928955
1788862123613944300,4.4889443359375,-0.08008338510990143,-0.5062762498855591,-1.5874218940734863
1788862123623986200,4.498986083984375,-0.0898049846291542,-0.7322140336036682,-1.5542488098144531
1788862123634028300,4.5090283203125,-0.08147834986448288,-0.9532073736190796,-1.536258578300476
1788862123644070100,4.519070068359375,-0.09315737336874008,-1.0805704593658447,-1.5671131610870361
1788862123654112000,4.529112060546875,-0.10943035036325455,-1.180152416229248,-1.5865728855133057
1788862123664154400,4.539154296875,-0.12570306658744812,-1.1893128156661987,-1.5698721408843994
1788862123674196200,4.5491962890625,-0.18136046826839447,-1.018464207649231,-1.5247001647949219
1788862123684238000,4.559238037109375,-0.2608552873134613,-0.7609838843345642,-1.4523013830184937
1788862123694280200,4.5692802734375,-0.35176628828048706,-0.4509991407394409,-1.3824892044067383
1788862123704322000,4.579322021484375,-0.4132663905620575,-0.12910285592079163,-1.3619389533996582
1788862123714364400,4.589364501953125,-0.45060259103775024,0.05603450536727905,-1.4306317567825317
1788862123724406300,4.59940625,-0.480280339717865,-0.009637979790568352,-1.5529919862747192
1788862123734448000,4.6094482421875,-0.45444872975349426,-0.24938826262950897,-1.684270977973938
1788862123744490200,4.619490234375,-0.3880324363708496,-0.5633190274238586,-1.7832918167114258
1788862123754532400,4.629532470703125,-0.2905431389808655,-0.8272712826728821,-1.7995258569717407
1788862123764574200,4.63957421875,-0.2073872834444046,-0.8838807940483093,-1.7049123048782349
1788862123774616300,4.6496162109375,-0.19638575613498688,-0.7059688568115234,-1.551967740058899
1788862123784658200,4.659658203125,-0.22997941076755524,-0.45383220911026,-1.4291105270385742
1788862123794700000,4.669699951171875,-0.2993270456790924,-0.30097928643226624,-1.3778116703033447
1788862123804742400,4.679742431640625,-0.3509628176689148,-0.263150155544281,-1.4363300800323486
1788862123814784300,4.6897841796875,-0.3199806809425354,-0.31578299403190613,-1.5186231136322021
1788862123824826400,4.699826416015625,-0.26749321818351746,-0.44438624382019043,-1.54484224319458
1788862123834868200,4.7098681640625,-0.2452923208475113,-0.6538872718811035,-1.4864760637283325
1788862123844910000,4.71991015625,-0.2613815367221832,-0.8766734600067139,-1.41042959690094
1788862123854952400,4.729952392578125,-0.30282992124557495,-1.033427357673645,-1.377927303314209
1788862123864994300,4.739994384765625,-0.3357662856578827,-1.0369616746902466,-1.3922348022460938
1788862123875036200,4.7500361328125,-0.353824645280838,-0.8671026229858398,-1.4495199918746948
1788862123885078300,4.760078369140625,-0.35447633266448975,-0.6577879786491394,-1.480283498764038
1788862123895120100,4.7701201171875,-0.32514747977256775,-0.5375361442565918,-1.4630253314971924
1788862123905161200,4.7801611328125,-0.27289703488349915,-0.5594584941864014,-1.3871815204620361
1788862123915203300,4.790203369140625,-0.23619228601455688,-0.7017503976821899,-1.2965730428695679
1788862123925245200,4.8002451171875,-0.1932714581489563,-0.8691399097442627,-1.2486028671264648
1788862123935287300,4.810287353515625,-0.15216423571109772,-0.924475908279419,-1.2624931335449219
1788862123945329200,4.8203291015625,-0.11737296730279922,-0.7930994629859924,-1.3273887634277344
1788862123955371300,4.830371337890625,-0.09905601292848587,-0.5208237767219543,-1.3966377973556519
1788862123965413400,4.840413330078125,-0.0745895504951477,-0.3125014305114746,-1.4372180700302124
1788862123975455200,4.850455322265625,-0.062298260629177094,-0.2576344609260559,-1.400635004043579
1788862123985497300,4.860497314453125,-0.04717949777841568,-0.34360262751579285,-1.3423540592193604
1788862123995539200,4.870539306640625,-0.017406687140464783,-0.4428091049194336,-1.3340353965759277
1788862124005581000,4.8805810546875,-0.0007760451408103108,-0.5945083498954773,-1.3497669696807861
1788862124015623400,4.89062353515625,-0.026633474975824356,-0.7788212299346924,-1.3452470302581787
1788862124025665300,4.900665283203125,-0.06040981411933899,-0.8968620896339417,-1.3245929479599
1788862124035707100,4.91070703125,-0.07811237871646881,-0.9483271837234497,-1.3127328157424927
1788862124045749200,4.920749267578125,-0.0658155009150505,-0.8977694511413574,-1.305092453956604
1788862124055791000,4.930791015625,-0.029376264661550522,-0.7636206746101379,-1.356711745262146
1788862124065833200,4.940833251953125,-0.006767624989151955,-0.6627875566482544,-1.4193191528320312
1788862124075875300,4.950875244140625,-0.004536694847047329,-0.6704809069633484,-1.4245262145996094
1788862124085917200,4.960917236328125,0.006690393202006817,-0.7365257143974304,-1.358274221420288
1788862124095959300,4.970959228515625,0.021996112540364265,-0.7814095616340637,-1.2733113765716553
1788862124106001200,4.981001220703125,0.05068102106451988,-0.8249799013137817,-1.230305790901184
1788862124116043300,4.991043212890625,0.09484528750181198,-0.7817245721817017,-1.259079933166504
1788862124126085400,5.00108544921875,0.1417030692100525,-0.6645060777664185,-1.3054522275924683
1788862124136127200,5.011127197265625,0.1514824628829956,-0.5512112379074097,-1.2934619188308716
1788862124146169300,5.02116943359375,0.12200473248958588,-0.497538685798645,-1.2349530458450317
1788862124156211500,5.03121142578125,0.08050869405269623,-0.5211100578308105,-1.2229552268981934
1788862124166253300,5.04125341796875,0.0637667253613472,-0.637263298034668,-1.2861312627792358
1788862124176295200,5.051295166015625,0.054295461624860764,-0.8010343909263611,-1.3555047512054443
1788862124186337300,5.061337158203125,0.06767864525318146,-0.8401151895523071,-1.3795208930969238
1788862124196379400,5.07137939453125,0.07304491847753525,-0.7410064339637756,-1.3632913827896118
1788862124206421200,5.081421142578125,0.03356674686074257,-0.6463587880134583,-1.28035306930542
1788862124216463400,5.09146337890625,-0.023927703499794006,-0.616049587726593,-1.2043429613113403
1788862124226505200,5.101505126953125,-0.06137946993112564,-0.64832603931427,-1.214376449584961
1788862124236546300,5.11154638671875,-0.0728454440832138,-0.763157308101654,-1.2343189716339111
1788862124246588200,5.121588134765625,-0.06429217010736465,-0.816207230091095,-1.2588160037994385
1788862124256630500,5.131630615234375,-0.06315872818231583,-0.7518519163131714,-1.2597944736480713
1788862124266672400,5.14167236328125,-0.076716348528862,-0.6433635354042053,-1.199353814125061
1788862124276714200,5.15171435546875,-0.09024494141340256,-0.5549127459526062,-1.1118513345718384
1788862124286756400,5.16175634765625,-0.10712458938360214,-0.49477484822273254,-1.0741420984268188
1788862124296798200,5.171798095703125,-0.11244212090969086,-0.5370437502861023,-1.0546469688415527
1788862124306840300,5.18184033203125,-0.10855710506439209,-0.5896952152252197,-1.0115727186203003
1788862124316882400,5.19188232421875,-0.10448592901229858,-0.521447479724884,-0.9600375890731812
1788862124326924300,5.20192431640625,-0.111833855509758,-0.4235241115093231,-0.933739185333252
1788862124336966400,5.21196630859375,-0.13646116852760315,-0.3551482558250427,-0.9044451713562012
1788862124347008300,5.22200830078125,-0.1632174253463745,-0.2873809039592743,-0.8614303469657898
1788862124357050400,5.23205029296875,-0.19707658886909485,-0.22329993546009064,-0.7600517868995667
1788862124367092500,5.242092529296875,-0.25299203395843506,-0.14472229778766632,-0.5797467231750488
1788862124377134300,5.25213427734375,-0.3017372190952301,-0.0953422337770462,-0.4667178988456726
1788862124387176200,5.26217626953125,-0.3205452561378479,-0.10572829097509384,-0.5042186975479126
1788862124397218300,5.27221826171875,-0.3090851306915283,-0.20559683442115784,-0.6269664168357849
1788862124407260400,5.282260498046875,-0.2905593812465668,-0.2991499602794647,-0.6751675009727478
1788862124417302300,5.29230224609375,-0.3006402552127838,-0.2834354341030121,-0.5692000985145569
1788862124427344400,5.302344482421875,-0.35139477252960205,-0.1599036455154419,-0.34416696429252625
1788862124437386200,5.31238623046875,-0.41373059153556824,-0.015628760680556297,-0.14173875749111176
1788862124447428400,5.322428466796875,-0.4506550431251526,0.07241880893707275,-0.006188121158629656
1788862124457470500,5.332470458984375,-0.4393850862979889,0.06083884835243225,-0.07184276729822159
1788862124467512300,5.34251220703125,-0.39085111021995544,-0.05288558453321457,-0.15760134160518646
1788862124477554400,5.352554443359375,-0.29998084902763367,-0.05125386640429497,-0.18131598830223083
1788862124487596300,5.36259619140625,-0.26402977108955383,-0.06880569458007812,-0.2143370658159256
1788862124497638100,5.37263818359375,-0.3078145384788513,0.021152690052986145,-0.20682242512702942
1788862124507680500,5.382680419921875,-0.3501955568790436,0.1172587126493454,-0.1954302191734314
1788862124517722400,5.392722412109375,-0.37367746233940125,0.18227899074554443,-0.2055417001247406
1788862124527764200,5.40276416015625,-0.38186347484588623,0.16624516248703003,-0.2367212027311325
1788862124537806300,5.412806396484375,-0.3544315993785858,0.12757660448551178,-0.2698322832584381
1788862124547847200,5.42284716796875,-0.3402675688266754,0.10374397039413452,-0.3509228825569153
1788862124557889500,5.4328896484375,-0.3229748606681824,0.2769405245780945,-0.40093064308166504
1788862124567931400,5.442931396484375,-0.24394501745700836,0.36533111333847046,-0.5232869386672974
1788862124577973200,5.45297314453125,-0.17028091847896576,0.3324242830276489,-0.6059982776641846
1788862124588015400,5.463015380859375,-0.11153052002191544,0.3455643355846405,-0.6575019955635071
1788862124598057200,5.47305712890625,-0.08859697729349136,0.3893754482269287,-0.702948808670044
1788862124608099600,5.483099609375,-0.08020082861185074,0.44333961606025696,-0.6825050711631775
1788862124618141400,5.493141357421875,-0.039683230221271515,0.5413939952850342,-0.6190485954284668
1788862124628183300,5.503183349609375,0.03599581867456436,0.5962284803390503,-0.5745687484741211
1788862124638225400,5.513225341796875,0.11256062984466553,0.5510176420211792,-0.5053068399429321
1788862124648267300,5.523267333984375,0.19469411671161652,0.5256560444831848,-0.4345514476299286
1788862124658309400,5.533309326171875,0.28191158175468445,0.5145522952079773,-0.40322762727737427
1788862124668351500,5.5433515625,0.36009320616722107,0.5509063005447388,-0.4160802960395813
1788862124678393300,5.553393310546875,0.41376280784606934,0.5991411805152893,-0.47760066390037537
1788862124688435200,5.563435302734375,0.43857496976852417,0.5927171111106873,-0.5517489314079285
1788862124698477300,5.573477294921875,0.4441654682159424,0.5421152114868164,-0.5926558971405029
1788862124708519400,5.58351953125,0.4625048041343689,0.410123348236084,-0.594895601272583
1788862124718561500,5.5935615234375,0.4792283773422241,0.28661632537841797,-0.5523172616958618
1788862124728603400,5.603603271484375,0.4942872226238251,0.12067022174596786,-0.46480149030685425
1788862124738645200,5.613645263671875,0.5230861306190491,0.030184799805283546,-0.3784008324146271
1788862124748687400,5.623687255859375,0.5477917194366455,0.03837322071194649,-0.27889660000801086
1788862124758729500,5.6337294921875,0.5762545466423035,0.07977525889873505,-0.18090693652629852
1788862124768771300,5.643771240234375,0.6217818260192871,0.12427055090665817,-0.12800990045070648
1788862124778813400,5.6538134765625,0.6553182005882263,0.1946064978837967,-0.16830964386463165
1788862124788855300,5.663855224609375,0.688371479511261,0.262671560049057,-0.2385057806968689
1788862124798897200,5.673897216796875,0.7027655839920044,0.25617799162864685,-0.2877737283706665
1788862124808939500,5.683939453125,0.6892697811126709,0.20756730437278748,-0.2770230770111084
1788862124818980400,5.69398046875,0.6362640857696533,0.15425987541675568,-0.2700008451938629
1788862124829022500,5.7040224609375,0.5768372416496277,0.19391700625419617,-0.2567516267299652
1788862124839064300,5.714064208984375,0.536103367805481,0.31367164850234985,-0.20401811599731445
1788862124849106400,5.7241064453125,0.5024218559265137,0.36570101976394653,-0.1421307772397995
1788862124859148300,5.734148193359375,0.4778720438480377,0.3273560106754303,-0.13818956911563873
1788862124869190400,5.7441904296875,0.4224282205104828,0.3146894872188568,-0.17163486778736115
1788862124879232500,5.754232421875,0.3667154014110565,0.273430734872818,-0.16183364391326904
1788862124889274400,5.7642744140625,0.2939205765724182,0.30980977416038513,-0.09369506686925888
1788862124899316200,5.774316162109375,0.22990617156028748,0.39962995052337646,-0.0017606157343834639
1788862124909358300,5.7843583984375,0.17468498647212982,0.4583593010902405,0.06377764791250229
1788862124919400400,5.794400390625,0.10378605127334595,0.488425076007843,0.1301358938217163
1788862124929442300,5.8044423828125,0.046553388237953186,0.48263561725616455,0.19572049379348755
1788862124939484400,5.814484375,-0.006045109126716852,0.47102612257003784,0.23873108625411987
1788862124949526300,5.8245263671875,-0.05667872726917267,0.47160667181015015,0.27902817726135254
1788862124959568400,5.834568359375,-0.10400549322366714,0.4946153163909912,0.35425901412963867
1788862124969610500,5.844610595703125,-0.12023479491472244,0.5008817315101624,0.39313504099845886
1788862124979652400,5.85465234375,-0.12506790459156036,0.48016393184661865,0.43978428840637207
1788862124989694500,5.864694580078125,-0.17223168909549713,0.4968193471431732,0.5108470320701599
1788862124999736300,5.874736328125,-0.25607678294181824,0.495822012424469,0.596985399723053
1788862125009778200,5.884778076171875,-0.33208605647087097,0.4655386507511139,0.6738282442092896
1788862125019820500,5.894820556640625,-0.3929227888584137,0.4471580684185028,0.7282224893569946
1788862125029862400,5.9048623046875,-0.4264679551124573,0.43023526668548584,0.7534136176109314
1788862125039904300,5.914904296875,-0.44108816981315613,0.41140004992485046,0.7648454904556274
1788862125049946400,5.9249462890625,-0.42936334013938904,0.39558354020118713,0.7750576138496399
1788862125059988200,5.93498828125,-0.4069696366786957,0.3988083600997925,0.784765362739563
1788862125070030300,5.9450302734375,-0.3724864721298218,0.40747642517089844,0.7860463857650757
1788862125080072400,5.955072509765625,-0.3267157971858978,0.4274333715438843,0.7992439270019531
1788862125090113300,5.96511328125,-0.2741471230983734,0.43691927194595337,0.7940755486488342
1788862125100155400,5.9751552734375,-0.21754910051822662,0.4092165231704712,0.8003107905387878
1788862125110197200,5.985197265625,-0.15810494124889374,0.37940749526023865,0.8141653537750244
1788862125120239400,5.9952392578125,-0.12656620144844055,0.3886268436908722,0.8481497168540955
1788862125130280700,6.00528076171875,-0.11975543200969696,0.4062596261501312,0.8966221213340759
1788862125140322800,6.01532275390625,-0.12473820149898529,0.4348002076148987,0.9604783654212952
1788862125150365000,6.025364990234375,-0.11060187965631485,0.4186100363731384,1.0205148458480835
1788862125160406800,6.03540673828125,-0.08520490676164627,0.41619428992271423,1.090117335319519
1788862125170449000,6.045448974609375,-0.04091387614607811,0.42612361907958984,1.1460833549499512
1788862125180490800,6.05549072265625,0.0005422196118161082,0.4367959797382355,1.1719368696212769
1788862125190532900,6.065532958984375,0.012114186771214008,0.46863484382629395,1.1913211345672607
1788862125200575000,6.075574951171875,0.0115546565502882,0.5325717329978943,1.1935731172561646
1788862125210616800,6.085616943359375,0.005904760677367449,0.5794056057929993,1.200326919555664
1788862125220658700,6.09565869140625,0.011401524767279625,0.6202811002731323,1.2116544246673584
1788862125230700800,6.10570068359375,0.012897955253720284,0.6733112931251526,1.216907262802124
1788862125240743000,6.115742919921875,0.022767363116145134,0.7042338252067566,1.2143404483795166
1788862125250784800,6.12578466796875,0.03525812178850174,0.7146219611167908,1.2146344184875488
1788862125260827000,6.135826904296875,0.049080461263656616,0.728640079498291,1.2339929342269897
1788862125270868700,6.14586865234375,0.07041744142770767,0.7457703351974487,1.2627884149551392
1788862125280910800,6.155910888671875,0.12065557390451431,0.7409422993659973,1.2919739484786987
1788862125290953000,6.165952880859375,0.1830233484506607,0.7037032842636108,1.3091442584991455
1788862125300994800,6.175994873046875,0.2502362132072449,0.6448000073432922,1.2887753248214722
1788862125311037000,6.186036865234375,0.31420934200286865,0.5659717917442322,1.2492283582687378
1788862125321078800,6.196078857421875,0.3732646703720093,0.514354407787323,1.2109507322311401
1788862125331119900,6.206119873046875,0.4272506535053253,0.4645298719406128,1.1887773275375366
1788862125341161700,6.21616162109375,0.48710307478904724,0.4524468183517456,1.1871857643127441
1788862125351203800,6.226203857421875,0.5377723574638367,0.5055571794509888,1.2314238548278809
1788862125361246000,6.236245849609375,0.5627970695495605,0.5559409856796265,1.273171067237854
1788862125371287800,6.246287841796875,0.5544493794441223,0.585563600063324,1.287680983543396
1788862125381329700,6.25632958984375,0.5338402390480042,0.5778052806854248,1.2811567783355713
1788862125391371800,6.266371826171875,0.5185904502868652,0.5738592743873596,1.29581618309021
1788862125401414000,6.276413818359375,0.5168333053588867,0.5411114692687988,1.330263376235962
1788862125411455700,6.286455810546875,0.5097761750221252,0.4700862765312195,1.3695790767669678
1788862125421497900,6.296497802734375,0.4837498962879181,0.3967342972755432,1.3922617435455322
1788862125431539700,6.306539794921875,0.43028560280799866,0.36006149649620056,1.4151744842529297
1788862125441581800,6.316581787109375,0.3611217141151428,0.35099929571151733,1.4388854503631592
1788862125451624000,6.3266240234375,0.287255197763443,0.35505422949790955,1.4659905433654785
1788862125461665800,6.336665771484375,0.22278328239917755,0.344105988740921,1.4795622825622559
1788862125471708000,6.3467080078125,0.1743406504392624,0.3315052390098572,1.4778517484664917
1788862125481749800,6.356749755859375,0.12532250583171844,0.32471203804016113,1.4611274003982544
1788862125491791600,6.36679150390625,0.09076984971761703,0.30439531803131104,1.4294275045394897
1788862125501834000,6.376833984375,0.07282467186450958,0.26555630564689636,1.3822029829025269
1788862125511875800,6.386875732421875,0.06524984538555145,0.18356584012508392,1.3306646347045898
1788862125521917700,6.396917724609375,0.06065642461180687,0.10075803846120834,1.28401780128479
1788862125531959800,6.406959716796875,0.058093927800655365,0.051180630922317505,1.237913966178894
1788862125542002000,6.417001953125,0.06335500627756119,0.07045046240091324,1.1888632774353027
1788862125552044000,6.4270439453125,0.06426047533750534,0.1459803730249405,1.1241205930709839
1788862125562084900,6.4370849609375,0.044198621064424515,0.20495954155921936,1.051641821861267
1788862125572127000,6.447126953125,0.008376972749829292,0.20967945456504822,0.9868516325950623
1788862125582168800,6.4571689453125,-0.028552815318107605,0.19560731947422028,0.9548476338386536
1788862125592210700,6.467210693359375,-0.06907973438501358,0.20549775660037994,0.9490733742713928
1788862125602253000,6.477253173828125,-0.0938950702548027,0.257289856672287,0.9429947137832642
1788862125612295000,6.487294921875,-0.1147228553891182,0.31141194701194763,0.9298906326293945
1788862125622336800,6.497336669921875,-0.148240864276886,0.3359748125076294,0.9065554738044739
1788862125632379000,6.50737890625,-0.17937001585960388,0.31680378317832947,0.881208062171936
1788862125642420700,6.517420654296875,-0.20739899575710297,0.24527260661125183,0.8453243374824524
1788862125652462800,6.527462890625,-0.23037195205688477,0.16967052221298218,0.8192471861839294
1788862125662505000,6.5375048828125,-0.23362047970294952,0.1245480552315712,0.8076866865158081
1788862125672546800,6.547546875,-0.2275378257036209,0.08731812983751297,0.7841291427612305
1788862125682589000,6.5575888671875,-0.19580572843551636,0.0497121624648571,0.7347639799118042
1788862125692630800,6.567630859375,-0.1548641473054886,0.03466370329260826,0.6643779873847961
1788862125702673000,6.5776728515625,-0.11552632600069046,0.09210436046123505,0.5980767607688904
1788862125712715000,6.587715087890625,-0.07184995710849762,0.14323705434799194,0.5124403834342957
1788862125722756900,6.5977568359375,-0.030248450115323067,0.14434413611888885,0.40244758129119873
1788862125732798700,6.607798828125,-0.004326571244746447,0.12865038216114044,0.2985938787460327
1788862125742840800,6.6178408203125,0.030852986499667168,0.1441499888896942,0.23732466995716095
1788862125752883000,6.627883056640625,0.07116898149251938,0.1785212755203247,0.2047526091337204
1788862125762924800,6.6379248046875,0.09987759590148926,0.18210774660110474,0.1829565018415451
1788862125772967000,6.647966796875,0.13032205402851105,0.1200726106762886,0.19103413820266724
1788862125783007700,6.6580078125,0.16471731662750244,0.04998966306447983,0.22450074553489685
1788862125793049900,6.6680498046875,0.19960951805114746,0.02550536021590233,0.24581296741962433
1788862125803091700,6.678091796875,0.2147064357995987,-0.0036341496743261814,0.2394261658191681
1788862125813134000,6.688134033203125,0.21550299227237701,-0.031615182757377625,0.21230879426002502
1788862125823176000,6.698176025390625,0.20635609328746796,-0.02990596741437912,0.16726462543010712
1788862125833217800,6.7082177734375,0.20270437002182007,-0.004832305945456028,0.10413812100887299
1788862125843260000,6.718260009765625,0.20124337077140808,-0.008686166256666183,0.012870525009930134
1788862125853301800,6.7283017578125,0.20793534815311432,-0.07687187939882278,-0.06450442224740982
1788862125863343900,6.73834375,0.20639126002788544,-0.16758154332637787,-0.11343814432621002
1788862125873386000,6.748385986328125,0.19184346497058868,-0.21079185605049133,-0.13585424423217773
1788862125883427800,6.758427734375,0.17557768523693085,-0.16504301130771637,-0.14403147995471954
1788862125893469700,6.7684697265625,0.17636731266975403,-0.04484203830361366,-0.1454962193965912
1788862125903511800,6.77851171875,0.1791551113128662,0.05150526762008667,-0.15331631898880005
1788862125913554000,6.788553955078125,0.1609412133693695,0.080405093729496,-0.1678134948015213
1788862125923596000,6.798595947265625,0.13655491173267365,0.04470755159854889,-0.19082161784172058
1788862125933638000,6.808637939453125,0.11955223232507706,-0.03834579139947891,-0.21408618986606598
1788862125943679700,6.8186796875,0.11022317409515381,-0.13095402717590332,-0.23831936717033386
1788862125953721900,6.828721923828125,0.09874814748764038,-0.18316103518009186,-0.26711612939834595
1788862125963764000,6.838763916015625,0.07297860085964203,-0.2142009735107422,-0.2968367338180542
1788862125973805800,6.848805908203125,0.05154947564005852,-0.23659762740135193,-0.33018696308135986
1788862125983847000,6.858846923828125,0.03283810615539551,-0.2713468074798584,-0.3439539074897766
1788862125993888800,6.868888671875,0.00048416267964057624,-0.3039444386959076,-0.3394308090209961
1788862126003931000,6.878930908203125,-0.04002890735864639,-0.29654592275619507,-0.33360886573791504
1788862126013972700,6.88897265625,-0.07479434460401535,-0.2123492807149887,-0.3512376546859741
1788862126024014800,6.899014892578125,-0.08831015229225159,-0.0919720008969307,-0.39632949233055115
1788862126034057000,6.909056884765625,-0.10384677350521088,0.02413037046790123,-0.4536750912666321
1788862126044098800,6.919098876953125,-0.10877388715744019,0.08424164354801178,-0.5142894387245178
1788862126054141000,6.929140869140625,-0.10278709977865219,0.07147844135761261,-0.5546663999557495
1788862126064182800,6.939182861328125,-0.08057340234518051,0.041667286306619644,-0.5573247671127319
1788862126074225000,6.949224853515625,-0.052441637963056564,0.05396869406104088,-0.5099601745605469
1788862126084267000,6.95926708984375,-0.03338379040360451,0.11570502817630768,-0.42065852880477905
1788862126094308900,6.969308837890625,-0.0525771901011467,0.15092585980892181,-0.3552995026111603
1788862126104350700,6.979350830078125,-0.07068801671266556,0.12631931900978088,-0.341118723154068
1788862126114392800,6.989392822265625,-0.07318606227636337,0.05452103167772293,-0.35425475239753723
1788862126124435000,6.99943505859375,-0.07587851583957672,-0.04073544591665268,-0.38598525524139404
1788862126134477000,7.00947705078125,-0.08429490774869919,-0.12313178181648254,-0.452230840921402
1788862126144519200,7.019519287109375,-0.08350394666194916,-0.14973463118076324,-0.5184077620506287
1788862126154561000,7.02956103515625,-0.06016400456428528,-0.1519376039505005,-0.5407958626747131
1788862126164603100,7.03960302734375,-0.03620221093297005,-0.14653058350086212,-0.513454258441925
1788862126174645200,7.049645263671875,-0.024934111163020134,-0.13639912009239197,-0.4645058810710907
1788862126184686000,7.05968603515625,-0.0313885472714901,-0.12830418348312378,-0.441097229719162
1788862126194728200,7.069728271484375,-0.0428348146378994,-0.15421833097934723,-0.48204493522644043
1788862126204770000,7.07977001953125,-0.030536603182554245,-0.1900240033864975,-0.5569290518760681
1788862126214812200,7.089812255859375,0.013495302759110928,-0.23029658198356628,-0.6296064257621765
1788862126224854300,7.099854248046875,0.06962408870458603,-0.2730807960033417,-0.6473670601844788
1788862126234896100,7.109896240234375,0.09489535540342331,-0.29296717047691345,-0.6087688207626343
1788862126244938200,7.119938232421875,0.10034790635108948,-0.29845353960990906,-0.579886794090271
1788862126254980000,7.12997998046875,0.09561467170715332,-0.3044126331806183,-0.5871298313140869
1788862126265022000,7.14002197265625,0.09292834252119064,-0.29769080877304077,-0.6073570251464844
1788862126275064300,7.150064208984375,0.08642730116844177,-0.2833331823348999,-0.6263552308082581
1788862126285106200,7.160106201171875,0.06750447303056717,-0.2556248605251312,-0.6356720328330994
1788862126295148000,7.17014794921875,0.03611353039741516,-0.2589934766292572,-0.6348698735237122
1788862126305190100,7.180190185546875,0.02598819136619568,-0.2910446226596832,-0.6355103850364685
1788862126315232000,7.19023193359375,0.031064707785844803,-0.32994115352630615,-0.6366276144981384
1788862126325274000,7.200274169921875,0.05392182245850563,-0.3780439794063568,-0.6548558473587036
1788862126335316200,7.210316162109375,0.09518137574195862,-0.4308065176010132,-0.6903685927391052
1788862126345358000,7.220358154296875,0.13377723097801208,-0.4849581718444824,-0.7354322075843811
1788862126355400200,7.230400146484375,0.14664989709854126,-0.5111367702484131,-0.7629887461662292
1788862126365442000,7.240442138671875,0.125186949968338,-0.4467058479785919,-0.7365267276763916
1788862126375483100,7.250483154296875,0.07555148005485535,-0.347093790769577,-0.6922903060913086
1788862126385525200,7.260525146484375,0.017162475734949112,-0.272831529378891,-0.682541012763977
1788862126395567000,7.270567138671875,-0.012926983647048473,-0.24466539919376373,-0.7293394207954407
1788862126405609200,7.280609130859375,-0.002906307578086853,-0.3379490077495575,-0.7827863693237305
1788862126415651000,7.290651123046875,0.026157034561038017,-0.46767452359199524,-0.7905380725860596
1788862126425693000,7.30069287109375,0.028788238763809204,-0.5395535230636597,-0.7932166457176208
1788862126435735300,7.3107353515625,0.011262508109211922,-0.5954854488372803,-0.8388914465904236
1788862126445777200,7.320777099609375,0.004627774935215712,-0.6855216026306152,-0.8907011151313782
1788862126455819000,7.330819091796875,0.005528189707547426,-0.7688993215560913,-0.909755289554596
1788862126465861000,7.340861083984375,-0.009982060641050339,-0.7874879240989685,-0.8933690786361694
1788862126475903000,7.350903076171875,-0.028253208845853806,-0.7769995927810669,-0.8695260882377625
1788862126485945300,7.3609453125,-0.03960653021931648,-0.7776288986206055,-0.9005452394485474
1788862126495987200,7.3709873046875,-0.019095130264759064,-0.768398642539978,-0.9751531481742859
1788862126506029000,7.381029052734375,0.015539810992777348,-0.7791522741317749,-1.0332831144332886
1788862126516071200,7.3910712890625,0.04102279990911484,-0.7862383723258972,-1.0269654989242554
1788862126526113000,7.401113037109375,0.06329934298992157,-0.733050525188446,-0.9818736910820007
1788862126536155100,7.411155029296875,0.07100946456193924,-0.6068915128707886,-0.9798797369003296
1788862126546197200,7.421197265625,0.07954995334148407,-0.5040314793586731,-0.9874745607376099
1788862126556238000,7.431238037109375,0.09662454575300217,-0.46578288078308105,-0.9933550953865051
1788862126566280200,7.4412802734375,0.1428666114807129,-0.4993080794811249,-1.0208852291107178
1788862126576322000,7.451322021484375,0.1954331398010254,-0.5436899065971375,-1.02218759059906
1788862126586364000,7.461364013671875,0.22527599334716797,-0.556502103805542,-1.0311914682388306
1788862126596406300,7.47140625,0.2341587096452713,-0.5521619915962219,-1.040349006652832
1788862126606448000,7.4814482421875,0.21915152668952942,-0.5029004216194153,-1.0542141199111938
1788862126616490200,7.491490234375,0.20270223915576935,-0.46436792612075806,-1.0516208410263062
1788862126626532000,7.501531982421875,0.1956307590007782,-0.4818763732910156,-1.0738211870193481
1788862126636574000,7.511573974609375,0.22135289013385773,-0.5569540858268738,-1.1338459253311157
1788862126646616300,7.5216162109375,0.26099297404289246,-0.6620152592658997,-1.184116005897522
1788862126656658200,7.531658203125,0.292367160320282,-0.6803894639015198,-1.198396921157837
1788862126666700000,7.541699951171875,0.3098793029785156,-0.6477092504501343,-1.1952016353607178
1788862126676742100,7.5517421875,0.3358030319213867,-0.6489545702934265,-1.1913955211639404
1788862126686784000,7.561783935546875,0.3659779727458954,-0.6847754120826721,-1.181139588356018
1788862126696826000,7.571826171875,0.3766298294067383,-0.6832371950149536,-1.147230625152588
1788862126706868200,7.5818681640625,0.37064942717552185,-0.6694201827049255,-1.0975695848464966
1788862126716910000,7.59191015625,0.38099154829978943,-0.6852694153785706,-1.0712813138961792
1788862126726951200,7.601951171875,0.40202414989471436,-0.7170342803001404,-1.0800622701644897
1788862126736993000,7.611992919921875,0.40866953134536743,-0.7673757672309875,-1.118430495262146
1788862126747035100,7.62203515625,0.40937766432762146,-0.7899940013885498,-1.1314655542373657
1788862126757077200,7.6320771484375,0.38833603262901306,-0.7977080941200256,-1.1593059301376343
1788862126767119000,7.642119140625,0.3618314564228058,-0.8022311925888062,-1.1983119249343872
1788862126777161200,7.6521611328125,0.3278473913669586,-0.7340707778930664,-1.2079113721847534
1788862126787203000,7.662203125,0.28116270899772644,-0.6573107838630676,-1.1774457693099976
1788862126797245000,7.672244873046875,0.24195830523967743,-0.6152881979942322,-1.1534619331359863
1788862126807287300,7.682287353515625,0.21272052824497223,-0.5489984154701233,-1.1342469453811646
1788862126817329200,7.6923291015625,0.19391141831874847,-0.4701155722141266,-1.0889780521392822
1788862126827371000,7.70237109375,0.15687856078147888,-0.4395693838596344,-1.034603238105774
1788862126837413000,7.7124130859375,0.11846725642681122,-0.38364726305007935,-1.029066801071167
1788862126847455000,7.722455078125,0.0851077064871788,-0.2731846570968628,-1.0562467575073242
1788862126857497000,7.7324970703125,0.06715799868106842,-0.097086600959301,-1.0458076000213623
1788862126867539200,7.742539306640625,0.062080949544906616,0.024957014247775078,-1.0942329168319702
1788862126877581000,7.7525810546875,0.0356685146689415,0.12745197117328644,-1.1301206350326538
1788862126887623200,7.762623046875,0.04237968102097511,0.2109236866235733,-1.1310940980911255
1788862126897664000,7.7726640625,0.07348540425300598,0.31320318579673767,-1.111936330795288
1788862126907706000,7.7827060546875,0.1178443431854248,0.4020017683506012,-1.11895751953125
1788862126917748200,7.792748291015625,0.1563728302717209,0.4570823311805725,-1.0660183429718018
1788862126927790000,7.8027900390625,0.14378006756305695,0.5347195863723755,-0.9722048044204712
1788862126937832200,7.812832275390625,0.07962771505117416,0.5582241415977478,-0.8915807604789734
1788862126947874000,7.8228740234375,0.016037821769714355,0.5835608839988708,-0.7960750460624695
1788862126957916000,7.832916015625,-0.011944277212023735,0.6421118378639221,-0.6864076852798462
1788862126967958300,7.842958251953125,-0.011583153158426285,0.580771803855896,-0.6326871514320374
1788862126978000100,7.853000244140625,-0.016040485352277756,0.5555449724197388,-0.578022837638855
1788862126988042200,7.863042236328125,-0.020365726202726364,0.6018211245536804,-0.5123791694641113
1788862126998084000,7.873083984375,-0.006135923322290182,0.7003709077835083,-0.446694940328598
1788862127008126000,7.8831259765625,-0.0000900148443179205,0.6852926015853882,-0.33658096194267273
1788862127018168300,7.893168212890625,-0.011247062124311924,0.618813157081604,-0.2376844584941864
1788862127028210200,7.903210205078125,-0.03200000897049904,0.6172501444816589,-0.13493119180202484
1788862127038252000,7.913251953125,-0.046595729887485504,0.6286189556121826,0.003014432033523917
1788862127048294100,7.923294189453125,-0.07745910435914993,0.6142389178276062,0.1524025946855545
1788862127058335000,7.9333349609375,-0.1105603352189064,0.6608887314796448,0.2723276615142822
1788862127068377000,7.943377197265625,-0.15011146664619446,0.7051978707313538,0.3825835883617401
1788862127078419200,7.953419189453125,-0.181041419506073,0.6634778380393982,0.47942492365837097
1788862127088461000,7.9634609375,-0.21848785877227783,0.6046789884567261,0.6205671429634094
1788862127098503200,7.973503173828125,-0.2412152886390686,0.5832352042198181,0.7821751832962036
1788862127108545000,7.983544921875,-0.26733022928237915,0.5546627044677734,0.8713425993919373
1788862127118587100,7.993587158203125,-0.27716290950775146,0.5018362402915955,0.9322613477706909
1788862127128629200,8.003629150390625,-0.2808809280395508,0.5046748518943787,0.9965136051177979
1788862127138671400,8.01367138671875,-0.24942819774150848,0.5608425736427307,1.065384030342102
1788862127148713500,8.02371337890625,-0.19434711337089539,0.5838855504989624,1.0917136669158936
1788862127158755300,8.03375537109375,-0.14327752590179443,0.5108060240745544,1.1393418312072754
1788862127168797200,8.043797119140624,-0.12076476961374283,0.42518991231918335,1.2239278554916382
1788862127178839600,8.053839599609375,-0.11797244101762772,0.40957126021385193,1.2818193435668945
1788862127188881400,8.06388134765625,-0.12137862294912338,0.41785264015197754,1.3164961338043213
1788862127198923300,8.07392333984375,-0.1293816864490509,0.39375609159469604,1.350976824760437
1788862127208965400,8.08396533203125,-0.16893549263477325,0.37516510486602783,1.423229455947876
1788862127219006200,8.094006103515625,-0.23731347918510437,0.3674065172672272,1.4776839017868042
1788862127229048300,8.10404833984375,-0.29641568660736084,0.3652823567390442,1.4876843690872192
1788862127239090400,8.11409033203125,-0.33041146397590637,0.37568601965904236,1.5173977613449097
1788862127249132300,8.12413232421875,-0.33422085642814636,0.37770602107048035,1.544162631034851
1788862127259174400,8.13417431640625,-0.29933425784111023,0.3669670820236206,1.5680625438690186
1788862127269216300,8.14421630859375,-0.24649739265441895,0.3962474763393402,1.6142116785049438
1788862127279258400,8.15425830078125,-0.2094174027442932,0.4306371510028839,1.6912544965744019
1788862127289300500,8.164300537109375,-0.1885177195072174,0.44666802883148193,1.742855429649353
1788862127299342300,8.17434228515625,-0.18531499803066254,0.4095939099788666,1.739119529724121
1788862127309384400,8.184384521484375,-0.19339609146118164,0.3813079297542572,1.6861228942871094
1788862127319426300,8.19442626953125,-0.23407082259655,0.35708436369895935,1.5900355577468872
1788862127329468200,8.20446826171875,-0.2902797758579254,0.32775044441223145,1.5309476852416992
1788862127339510500,8.214510498046875,-0.3486117720603943,0.31993645429611206,1.5646004676818848
1788862127349552400,8.224552490234375,-0.40546759963035583,0.3401978015899658,1.6693010330200195
1788862127359594200,8.23459423828125,-0.4604312479496002,0.33111533522605896,1.7788573503494263
1788862127369635300,8.24463525390625,-0.5096874833106995,0.29924288392066956,1.8459022045135498
1788862127379677200,8.25467724609375,-0.5397484302520752,0.28690022230148315,1.8710123300552368
1788862127389719300,8.26471923828125,-0.5460414886474609,0.27621933817863464,1.8532394170761108
1788862127399761400,8.274761474609376,-0.5161251425743103,0.23107849061489105,1.7899025678634644
1788862127409803300,8.28480322265625,-0.4809549152851105,0.12374670803546906,1.7001913785934448
1788862127419845400,8.294845458984375,-0.4575968384742737,-0.023989755660295486,1.6126856803894043
1788862127429887200,8.30488720703125,-0.4527309834957123,-0.1311819851398468,1.5756027698516846
1788862127439929300,8.314929443359375,-0.441057026386261,-0.14436037838459015,1.6022599935531616
1788862127449971500,8.324971435546875,-0.41304269433021545,-0.09681229293346405,1.6229878664016724
1788862127460013300,8.335013427734374,-0.36217498779296875,0.0006194512825459242,1.6047487258911133
1788862127470055400,8.345055419921875,-0.3098614513874054,0.1340440809726715,1.5658172369003296
1788862127480097300,8.35509716796875,-0.2720126211643219,0.25251054763793945,1.5222785472869873
1788862127490139100,8.36513916015625,-0.25944435596466064,0.2690061628818512,1.4693222045898438
1788862127500181500,8.375181396484376,-0.2819885313510895,0.1663503646850586,1.415390968322754
1788862127510222300,8.385222412109375,-0.3195284605026245,0.053825415670871735,1.3825161457061768
1788862127520264400,8.395264404296874,-0.372844934463501,0.03929973393678665,1.3827563524246216
1788862127530306300,8.405306396484375,-0.4301756024360657,0.1482027769088745,1.4082868099212646
1788862127540348400,8.415348388671875,-0.4554668664932251,0.2990684509277344,1.4265224933624268
1788862127550390300,8.425390380859374,-0.43263477087020874,0.43734270334243774,1.4210004806518555
1788862127560432400,8.435432373046876,-0.3780604898929596,0.514204740524292,1.3708171844482422
1788862127570474500,8.445474609375,-0.3070659339427948,0.4880799353122711,1.2872931957244873
1788862127580516400,8.455516357421875,-0.23379944264888763,0.3772921562194824,1.195022702217102
1788862127590558200,8.46555810546875,-0.15718109905719757,0.26172029972076416,1.1090995073318481
1788862127600600300,8.475600341796875,-0.099122054874897,0.24039342999458313,1.0435636043548584
1788862127610642400,8.485642333984375,-0.0640554130077362,0.2974364757537842,1.0175904035568237
1788862127620684300,8.495684326171874,-0.0319073311984539,0.38344407081604004,1.0157456398010254
1788862127630726400,8.505726318359375,0.002844256116077304,0.4566279947757721,1.0076895952224731
1788862127640768300,8.515768310546875,0.04596402868628502,0.4737430512905121,0.969376802444458
1788862127650810400,8.525810302734374,0.07612565904855728,0.4086951017379761,0.8984189629554749
1788862127660851200,8.535851318359375,0.09221408516168594,0.29555362462997437,0.832268476486206
1788862127670893300,8.545893310546875,0.10206138342618942,0.223124161362648,0.8023867011070251
1788862127680935400,8.555935302734374,0.12917529046535492,0.19347278773784637,0.8006274700164795
1788862127690977300,8.565977294921876,0.16604888439178467,0.1878676414489746,0.7884442806243896
1788862127701019400,8.576019287109375,0.18885433673858643,0.20638246834278107,0.7537806034088135
1788862127711061200,8.586061279296874,0.18423694372177124,0.22081519663333893,0.6965665817260742
1788862127721103400,8.596103271484376,0.16034919023513794,0.18274131417274475,0.6045098900794983
1788862127731145500,8.6061455078125,0.10629981011152267,0.10590992122888565,0.45537176728248596
1788862127741187300,8.616187255859375,0.04791159927845001,0.022163093090057373,0.24267202615737915
1788862127751229200,8.626229248046876,-0.0034200313966721296,-0.030192257836461067,0.012705408968031406
1788862127761271300,8.636271240234375,-0.03982783854007721,-0.008266185410320759,-0.18927432596683502
1788862127771313400,8.6463134765625,-0.07385425269603729,0.10641618818044662,-0.36397209763526917
1788862127781355300,8.656355224609374,-0.10528940707445145,0.25215208530426025,-0.49115481972694397
1788862127791397400,8.6663974609375,-0.1091826781630516,0.36251509189605713,-0.5688937902450562
1788862127801438200,8.676438232421875,-0.0763498991727829,0.39664986729621887,-0.602079451084137
1788862127811480300,8.686480224609374,-0.03585946559906006,0.3408563733100891,-0.6110644340515137
1788862127821522200,8.696522216796875,-0.0036133769899606705,0.21274635195732117,-0.6134751439094543
1788862127831564500,8.706564453125,0.014177870936691761,0.11862172186374664,-0.6305715441703796
1788862127841606400,8.7166064453125,0.025191904976963997,0.09804587066173553,-0.6670712232589722
1788862127851648300,8.726648193359376,0.02821778878569603,0.09122205525636673,-0.6960451006889343
1788862127861690400,8.7366904296875,0.02821645699441433,0.07037296891212463,-0.6903494000434875
1788862127871732200,8.746732177734375,0.017476195469498634,0.09928423911333084,-0.6505069136619568
1788862127881774300,8.7567744140625,-0.0007025419035926461,0.16786250472068787,-0.5949424505233765
1788862127891816400,8.76681640625,-0.02834748476743698,0.23271900415420532,-0.5345749855041504
1788862127901858300,8.7768583984375,-0.0604550875723362,0.28962889313697815,-0.49264565110206604
1788862127911900200,8.786900146484374,-0.07997552305459976,0.32108214497566223,-0.4649572968482971
1788862127921942300,8.7969423828125,-0.07002648711204529,0.35046932101249695,-0.4371464252471924
1788862127931984400,8.806984375,-0.062121160328388214,0.3848715126514435,-0.42041245102882385
1788862127942025500,8.817025390625,-0.0554366260766983,0.4095914959907532,-0.4225834608078003
1788862127952067300,8.8270673828125,-0.02827797643840313,0.40815499424934387,-0.4593423008918762
1788862127962109400,8.837109375,0.01715608313679695,0.36216646432876587,-0.5248861312866211
1788862127972151300,8.8471513671875,0.054851531982421875,0.30629122257232666,-0.6056936383247375
1788862127982193200,8.857193115234375,0.07001157850027084,0.30165839195251465,-0.6970363259315491
1788862127992235500,8.867235595703125,0.08641238510608673,0.28193819522857666,-0.7614600658416748
1788862128002277400,8.87727734375,0.09988877922296524,0.20353208482265472,-0.7794585227966309
1788862128012319200,8.8873193359375,0.1043652892112732,0.10614800453186035,-0.7487890124320984
1788862128022361300,8.897361328125,0.08932188898324966,0.04935183748602867,-0.7021280527114868
1788862128032403200,8.9074033203125,0.05271967127919197,0.057252902537584305,-0.7101015448570251
1788862128042445300,8.9174453125,0.012253470718860626,0.10901489853858948,-0.7814023494720459
1788862128052487400,8.9274873046875,-0.006037918850779533,0.10571710765361786,-0.8727186918258667
1788862128062528300,8.9375283203125,0.00646695401519537,0.02250291220843792,-0.9457116723060608
1788862128072570400,8.9475703125,0.02852431870996952,-0.0980602502822876,-0.9936954379081726
1788862128082612200,8.9576123046875,0.05513222888112068,-0.1768709123134613,-1.0121082067489624
1788862128092654300,8.967654296875,0.08705021440982819,-0.20341543853282928,-1.0055574178695679
1788862128102696400,8.977696533203124,0.14056457579135895,-0.1676052361726761,-0.9759340286254883
1788862128112738300,8.98773828125,0.19668349623680115,-0.07563909888267517,-0.9489756226539612
1788862128122780400,8.997780517578125,0.23707006871700287,0.0179987084120512,-0.9588509202003479
1788862128132822300,9.007822265625,0.26657044887542725,0.05735383555293083,-1.012271761894226
1788862128142864100,9.017864013671876,0.3213157057762146,0.026609240099787712,-1.0503771305084229
1788862128152906500,9.027906494140625,0.3842126429080963,-0.042635612189769745,-1.022881031036377
1788862128162948400,9.0379482421875,0.4181559681892395,-0.11568745225667953,-0.9650416970252991
1788862128172990200,9.047990234375,0.42294567823410034,-0.1848771721124649,-0.9192257523536682
1788862128183032300,9.0580322265625,0.41106662154197693,-0.3076363801956177,-0.8773011565208435
1788862128193074200,9.06807421875,0.3762663006782532,-0.43838614225387573,-0.8930676579475403
1788862128203115300,9.078115234375,0.3215958774089813,-0.6007500290870667,-0.9739073514938354
1788862128213157400,9.088157470703125,0.28240904211997986,-0.7973714470863342,-1.0873668193817139
1788862128223199500,9.098199462890625,0.25970932841300964,-0.972518265247345,-1.1793981790542603
1788862128233241300,9.108241455078126,0.23749271035194397,-1.0529893636703491,-1.2392809391021729
1788862128243283200,9.118283203125,0.2088935673236847,-1.0316699743270874,-1.2443952560424805
1788862128253325600,9.12832568359375,0.16699618101119995,-0.9659159779548645,-1.2224338054656982
1788862128263367400,9.138367431640624,0.15151628851890564,-0.9320808053016663,-1.2130645513534546
1788862128273409300,9.1484091796875,0.1846017986536026,-0.9639559388160706,-1.2797099351882935
1788862128283451400,9.158451416015625,0.24914057552814484,-1.0544898509979248,-1.416640281677246
1788862128293493200,9.1684931640625,0.3253234922885895,-1.1933939456939697,-1.493910551071167
1788862128303535400,9.178535400390626,0.3781196177005768,-1.3100448846817017,-1.4722611904144287
1788862128313577500,9.188577392578125,0.3788948357105255,-1.2610567808151245,-1.4200915098190308
1788862128323619300,9.198619384765625,0.369476318359375,-1.0714000463485718,-1.4421054124832153
1788862128333660400,9.208660400390626,0.3733498752117157,-0.9920892715454102,-1.4454416036605835
1788862128343702300,9.218702392578125,0.3510800004005432,-1.1043591499328613,-1.4436959028244019
1788862128353744400,9.228744384765625,0.31300264596939087,-1.121729850769043,-1.4828693866729736
1788862128363786500,9.238786376953126,0.2790566682815552,-1.0091207027435303,-1.5646893978118896
1788862128373828400,9.248828369140625,0.24800314009189606,-0.8779760003089905,-1.612916111946106
1788862128383870500,9.258870361328125,0.2464800775051117,-0.7459216117858887,-1.6079602241516113
1788862128393912300,9.268912353515624,0.2463325411081314,-0.6464077830314636,-1.6101980209350586
1788862128403954200,9.2789541015625,0.26145610213279724,-0.6117265224456787,-1.6376341581344604
1788862128413996500,9.28899658203125,0.291476309299469,-0.5953464508056641,-1.6604071855545044
1788862128424038400,9.299038330078124,0.30584433674812317,-0.5130401253700256,-1.661851406097412
1788862128434080300,9.309080322265626,0.34765276312828064,-0.41417479515075684,-1.6578627824783325
1788862128444122400,9.319122314453125,0.4078415334224701,-0.3654312491416931,-1.6447770595550537
1788862128454163200,9.3291630859375,0.43485185503959656,-0.30302512645721436,-1.5993443727493286
1788862128464205300,9.339205322265625,0.4340433180332184,-0.1497093290090561,-1.5466225147247314
1788862128474247400,9.349247314453125,0.4136784076690674,-0.0052384380251169205,-1.5408989191055298
1788862128484289300,9.359289306640624,0.3949846029281616,0.1327039897441864,-1.5418418645858765
1788862128494331400,9.369331298828126,0.40179938077926636,0.12089686095714569,-1.487911581993103
1788862128504373200,9.379373291015625,0.41191112995147705,0.02774880640208721,-1.4411693811416626
1788862128514415400,9.389415283203125,0.40408727526664734,0.067179836332798,-1.3913216590881348
1788862128524457500,9.39945751953125,0.38650697469711304,0.22323255240917206,-1.3452284336090088
1788862128534499300,9.409499267578125,0.38166266679763794,0.36287379264831543,-1.2659621238708496
1788862128544541400,9.41954150390625,0.4126285910606384,0.2908390164375305,-1.1672126054763794
1788862128554583300,9.429583251953124,0.43569129705429077,0.19053159654140472,-1.07353675365448
1788862128564625200,9.439625244140625,0.4228138327598572,0.2038857489824295,-0.9653522372245789
1788862128574666200,9.449666259765625,0.3988238275051117,0.20247401297092438,-0.8562454581260681
1788862128584708400,9.459708251953124,0.38533544540405273,0.24128665030002594,-0.7688045501708984
1788862128594750500,9.46975048828125,0.3761752247810364,0.31791990995407104,-0.6682222485542297
1788862128604792300,9.479792236328125,0.3461669981479645,0.36055660247802734,-0.582939863204956
1788862128614834400,9.48983447265625,0.34711721539497375,0.20173658430576324,-0.5820663571357727
1788862128624876300,9.499876220703126,0.3083610236644745,0.17644907534122467,-0.5244144797325134
1788862128634918400,9.50991845703125,0.25866323709487915,0.21643270552158356,-0.3237224221229553
1788862128644960500,9.51996044921875,0.179324209690094,0.22593086957931519,-0.08549359440803528
1788862128655002400,9.53000244140625,0.08892907202243805,0.29669612646102905,0.13840554654598236
1788862128665044200,9.540044189453125,0.0037974014412611723,0.31757503747940063,0.3173670470714569
1788862128675086300,9.55008642578125,-0.04421672970056534,0.3754069209098816,0.5351723432540894
1788862128685128400,9.56012841796875,-0.06131582334637642,0.5014380812644958,0.7539491653442383
1788862128695169500,9.57016943359375,-0.09393341839313507,0.5695526599884033,0.9155436158180237
1788862128705211400,9.58021142578125,-0.14989416301250458,0.5987286567687988,1.0125833749771118
1788862128715253200,9.590253173828126,-0.19137901067733765,0.6619318723678589,1.1000211238861084
1788862128725295400,9.60029541015625,-0.19373458623886108,0.6482996940612793,1.1728622913360596
1788862128735337200,9.610337158203125,-0.19287411868572235,0.5654897689819336,1.246824860572815
1788862128745379300,9.62037939453125,-0.23585140705108643,0.5048402547836304,1.34088933467865
1788862128755421400,9.63042138671875,-0.30461743474006653,0.4692188799381256,1.4086393117904663
1788862128765463300,9.64046337890625,-0.3458511531352997,0.40279218554496765,1.4194928407669067
1788862128775505400,9.65050537109375,-0.3509657382965088,0.3365953266620636,1.4290343523025513
1788862128785547300,9.66054736328125,-0.3475571572780609,0.3081085681915283,1.4653679132461548
1788862128795589400,9.67058935546875,-0.3492077887058258,0.2948974072933197,1.4839661121368408
1788862128805631500,9.680631591796875,-0.34126412868499756,0.2533627450466156,1.488351821899414
1788862128815672300,9.69067236328125,-0.32795071601867676,0.2302134931087494,1.5316931009292603
1788862128825714400,9.70071435546875,-0.299471914768219,0.28162476420402527,1.6263560056686401
1788862128835756300,9.71075634765625,-0.2688242793083191,0.40572354197502136,1.6911967992782593
1788862128845798100,9.720798095703126,-0.2635887563228607,0.5214045643806458,1.7453598976135254
1788862128855840500,9.730840576171875,-0.29069122672080994,0.532286524772644,1.8178119659423828
1788862128865882400,9.74088232421875,-0.33359235525131226,0.48562368750572205,1.883994460105896
1788862128875924200,9.75092431640625,-0.367350310087204,0.47188523411750793,1.9135522842407227
1788862128885966300,9.76096630859375,-0.3899557590484619,0.45746421813964844,1.870848298072815
1788862128896008200,9.77100830078125,-0.39066362380981445,0.4310179650783539,1.7715959548950195
1788862128906050600,9.781050537109374,-0.38505393266677856,0.4190100431442261,1.7099765539169312
1788862128916092400,9.791092529296876,-0.3889581263065338,0.4681682586669922,1.741451621055603
1788862128926134300,9.80113427734375,-0.3993348777294159,0.5407817363739014,1.8263428211212158
1788862128936175400,9.81117529296875,-0.40037164092063904,0.5683438777923584,1.9229873418807983
1788862128946217200,9.82121728515625,-0.3723679780960083,0.5073186159133911,1.988138198852539
1788862128956259300,9.83125927734375,-0.31420081853866577,0.4039330780506134,1.9852960109710693
1788862128966301400,9.841301513671874,-0.260576993227005,0.3216070532798767,1.9403434991836548
1788862128976343300,9.85134326171875,-0.2299724817276001,0.3104012906551361,1.9247362613677979
1788862128986385400,9.861385498046875,-0.2107311487197876,0.3189239203929901,1.978748083114624
1788862128996427300,9.87142724609375,-0.1955346167087555,0.31361785531044006,2.0574426651000977
1788862129006469400,9.881469482421876,-0.18171148002147675,0.301596075296402,2.1005935668945312
1788862129016511500,9.891511474609375,-0.1572956144809723,0.2788814306259155,2.0932583808898926
1788862129026553300,9.90155322265625,-0.1228441596031189,0.2031611055135727,2.0416910648345947
1788862129036595500,9.911595458984374,-0.09933031350374222,0.0872102677822113,1.979056477546692
1788862129046637300,9.92163720703125,-0.09804507344961166,-0.012894759885966778,1.9222840070724487
1788862129056678400,9.931678466796875,-0.11440806835889816,-0.055502939969301224,1.8884203433990479
1788862129066720300,9.94172021484375,-0.1337127834558487,-0.023978037759661674,1.8919333219528198
1788862129076762400,9.951762451171875,-0.14033819735050201,0.06084044650197029,1.9131038188934326
1788862129086804500,9.961804443359375,-0.1303878277540207,0.1391184777021408,1.9084385633468628
1788862129096846300,9.971846435546874,-0.1133904755115509,0.15923891961574554,1.8340740203857422
1788862129106888200,9.98188818359375,-0.09957985579967499,0.1168091744184494,1.7126061916351318
1788862129116930300,9.991930419921875,-0.09488177299499512,0.06456940621137619,1.5989714860916138
1788862129126972400,10.001972412109374,-0.10218309611082077,0.023689616471529007,1.5174068212509155
1788862129137014300,10.01201416015625,-0.10676213353872299,-0.0290023572742939,1.4639474153518677
1788862129147056400,10.022056396484375,-0.10909666121006012,-0.09159223735332489,1.4102559089660645
1788862129157098200,10.03209814453125,-0.10479378700256348,-0.10376527905464172,1.3522043228149414
1788862129167139300,10.042139404296876,-0.10597490519285202,-0.044858019798994064,1.2966172695159912
1788862129177181200,10.05218115234375,-0.12721973657608032,0.05417029559612274,1.2384912967681885
1788862129187223600,10.0622236328125,-0.15140444040298462,0.15433764457702637,1.178147554397583
1788862129197265400,10.072265380859376,-0.16197772324085236,0.20636515319347382,1.105668544769287
1788862129207307300,10.082307373046875,-0.1660265177488327,0.1947963833808899,0.9952616691589355
1788862129217349400,10.092349365234375,-0.1738136112689972,0.1273193359375,0.8105189800262451
1788862129227391200,10.10239111328125,-0.1519162952899933,0.0132124749943614,0.577261745929718
1788862129237433300,10.112433349609375,-0.11190123111009598,-0.10589873790740967,0.32955554127693176
1788862129247475500,10.122475341796875,-0.07329817861318588,-0.1859605461359024,0.10513121634721756
1788862129257517300,10.132517333984374,-0.049496714025735855,-0.22106952965259552,-0.06684587895870209
1788862129267559200,10.14255908203125,-0.04724554345011711,-0.16368800401687622,-0.16959835588932037
1788862129277600300,10.152600341796875,-0.039027560502290726,-0.03212864324450493,-0.22254678606987
1788862129287642400,10.162642333984374,-0.04356478899717331,0.10579966753721237,-0.2666391432285309
1788862129297684500,10.1726845703125,-0.060325924307107925,0.21756881475448608,-0.3386843204498291
1788862129307726300,10.182726318359375,-0.05548696219921112,0.27503928542137146,-0.4427574574947357
1788862129317768400,10.1927685546875,-0.024415593594312668,0.2762039005756378,-0.5515062808990479
1788862129327810300,10.202810302734376,0.017246631905436516,0.2977944016456604,-0.6623835563659668
1788862129337852200,10.21285205078125,0.058214038610458374,0.3555956482887268,-0.7698096036911011
1788862129347894500,10.22289453125,0.09333207458257675,0.3850049376487732,-0.8333643674850464
1788862129357936400,10.232936279296876,0.11472950875759125,0.3984488546848297,-0.8509976863861084
1788862129367978200,10.242978271484375,0.12772707641124725,0.3695319890975952,-0.8585829138755798
1788862129378020400,10.253020263671875,0.11216222494840622,0.28473374247550964,-0.8929890394210815
1788862129388061200,10.263061279296876,0.06832845509052277,0.16111858189105988,-0.9537310004234314
1788862129398103300,10.273103271484375,0.04493445158004761,0.0998629480600357,-1.002846598625183
1788862129408145400,10.2831455078125,0.034450650215148926,0.18212532997131348,-1.0261929035186768
1788862129418187300,10.293187255859374,0.007798002101480961,0.42189210653305054,-1.0317389965057373
1788862129428229400,10.3032294921875,-0.01805836334824562,0.7204854488372803,-1.0406906604766846
1788862129438271200,10.313271240234375,-0.02003922127187252,0.9685389399528503,-1.0291029214859009
1788862129448313300,10.323313232421874,0.01357279997318983,1.1114747524261475,-1.0046908855438232
1788862129458355500,10.33335546875,0.08333350718021393,1.0690062046051025,-0.980286180973053
1788862129468397300,10.343397216796875,0.1877659112215042,0.7773008346557617,-0.9900660514831543
1788862129478439400,10.353439453125,0.2796553373336792,0.2820444703102112,-0.9145987629890442
1788862129488480300,10.363480224609376,0.32352906465530396,-0.19237902760505676,-0.9094066619873047
1788862129498522400,10.3735224609375,0.36840254068374634,-0.47130468487739563,-1.0408576726913452
1788862129508564200,10.383564208984374,0.433735191822052,-0.5433319807052612,-1.1449235677719116
1788862129518606300,10.3936064453125,0.45271554589271545,-0.4616885185241699,-1.1642935276031494
1788862129528648400,10.4036484375,0.420812726020813,-0.28287139534950256,-1.137725591659546
1788862129538690300,10.413690185546875,0.353709876537323,-0.05240941047668457,-1.1156489849090576
1788862129548732200,10.423732177734376,0.28923821449279785,0.09515926986932755,-1.1202168464660645
1788862129558774300,10.433774169921875,0.25785550475120544,0.09710098057985306,-1.1627761125564575
1788862129568816400,10.44381640625,0.2823169231414795,-0.05769472196698189,-1.2100226879119873
1788862129578858500,10.4538583984375,0.3314543664455414,-0.2708093822002411,-1.214543104171753
1788862129588900400,10.463900390625,0.35174819827079773,-0.4506872892379761,-1.2106019258499146
1788862129598941400,10.47394140625,0.34002360701560974,-0.5875647068023682,-1.2349567413330078
1788862129608983300,10.4839833984375,0.3300119936466217,-0.7140161395072937,-1.301435112953186
1788862129619025200,10.494025146484375,0.3215668499469757,-0.8591246008872986,-1.3760526180267334
1788862129629067500,10.504067626953125,0.30514979362487793,-0.9336515665054321,-1.4463130235671997
1788862129639109400,10.514109375,0.2609460949897766,-0.8477051854133606,-1.4596189260482788
1788862129649151200,10.524151123046876,0.20692069828510284,-0.6358084082603455,-1.4277232885360718
1788862129659193300,10.534193359375,0.17327724397182465,-0.47603949904441833,-1.3852612972259521
1788862129669235200,10.544235107421875,0.17808452248573303,-0.48141804337501526,-1.3626537322998047
1788862129679277300,10.55427734375,0.22187566757202148,-0.5996096730232239,-1.3773692846298218
1788862129689319400,10.5643193359375,0.32834672927856445,-0.8607586622238159,-1.4326226711273193
1788862129699360300,10.5743603515625,0.4336899220943451,-1.2309823036193848,-1.455790638923645
1788862129709402400,10.58440234375,0.4566807150840759,-1.5321165323257446,-1.4979037046432495
1788862129719444200,10.5944443359375,0.3901379108428955,-1.6465427875518799,-1.461260199546814
1788862129729486300,10.604486328125,0.2289964258670807,-1.5670007467269897,-1.3365715742111206
1788862129739528400,10.614528564453124,0.038547925651073456,-1.459162950515747,-1.282511830329895
1788862129749570300,10.6245703125,-0.09030432999134064,-1.5071169137954712,-1.2889220714569092
1788862129759612400,10.6346123046875,-0.13444621860980988,-1.545228123664856,-1.349779725074768
1788862129769654300,10.644654296875,-0.09156027436256409,-1.4387381076812744,-1.3930270671844482
1788862129779696000,10.654696044921875,0.01560958568006754,-1.2190576791763306,-1.4348400831222534
1788862129789738500,10.664738525390625,0.16274631023406982,-0.9893126487731934,-1.4939590692520142
1788862129799780400,10.6747802734375,0.27678367495536804,-0.8203617334365845,-1.5578824281692505
1788862129809821400,10.684821533203126,0.3326495885848999,-0.6341795921325684,-1.6201103925704956
1788862129819863300,10.69486328125,0.3339303135871887,-0.4633748531341553,-1.6480125188827515
1788862129829905200,10.7049052734375,0.32888999581336975,-0.30221766233444214,-1.6450690031051636
1788862129839947500,10.714947509765626,0.3350280523300171,-0.17725174129009247,-1.6527652740478516
1788862129849989400,10.7249892578125,0.3536704480648041,-0.07566306740045547,-1.6838139295578003
1788862129860031500,10.735031494140625,0.3931954801082611,-0.0778559148311615,-1.691078543663025
1788862129870073300,10.7450732421875,0.4213208556175232,-0.0906609296798706,-1.6915855407714844
1788862129880115200,10.755115234375,0.4133673310279846,-0.08398384600877762,-1.6983824968338013
1788862129890157600,10.765157470703125,0.4083840250968933,-0.12688258290290833,-1.6643768548965454
1788862129900199400,10.775199462890624,0.3753163516521454,-0.09977000206708908,-1.6357241868972778
1788862129910240500,10.785240478515625,0.33350953459739685,0.029077723622322083,-1.6711386442184448
1788862129920282400,10.795282470703125,0.267226904630661,0.3068385124206543,-1.630034327507019
1788862129930324200,10.80532421875,0.20104388892650604,0.4102801978588104,-1.6555442810058594
1788862129940366300,10.815366455078125,0.16241180896759033,0.38570454716682434,-1.6600348949432373
1788862129950408400,10.825408447265625,0.1512446403503418,0.43423107266426086,-1.5519731044769287
1788862129960450300,10.8354501953125,0.1097286269068718,0.5152130126953125,-1.3859713077545166
1788862129970492400,10.845492431640626,0.09353527426719666,0.5141104459762573,-1.2034345865249634
1788862129980534300,10.8555341796875,0.02635091356933117,0.4236045181751251,-1.03193998336792
1788862129990576400,10.865576416015625,-0.06291238963603973,0.36792367696762085,-0.8807955384254456
1788862130000618500,10.875618408203126,-0.11257341504096985,0.3368033170700073,-0.6658938527107239
1788862130010659600,10.88565966796875,-0.1450786292552948,0.34287959337234497,-0.45386257767677307
1788862130020701400,10.895701416015624,-0.07132264971733093,0.38882070779800415,-0.28946882486343384
1788862130030743300,10.905743408203126,0.05132204294204712,0.4176531732082367,-0.17139758169651031
1788862130040785400,10.915785400390625,0.11471539735794067,0.3818906247615814,0.023967916145920753
1788862130050827300,10.9258271484375,0.08662011474370956,0.2829081416130066,0.29221081733703613
1788862130060869400,10.935869384765626,-0.011580223217606544,0.2801954448223114,0.5596781969070435
1788862130070911500,10.945911376953125,-0.14958523213863373,0.42675530910491943,0.858131468296051
1788862130080953300,10.955953369140625,-0.2710903584957123,0.4573054909706116,1.1233415603637695
1788862130090995200,10.9659951171875,-0.3498584032058716,0.36584803462028503,1.2419902086257935
1788862130101037300,10.976037353515625,-0.3724380135536194,0.28433266282081604,1.3084206581115723
1788862130111078100,10.986078125,-0.3625193238258362,0.2707095146179199,1.3861814737319946
1788862130121120500,10.99612060546875,-0.36753594875335693,0.26823359727859497,1.4823710918426514
1788862130131162400,11.006162353515625,-0.3808498680591583,0.2820998728275299,1.5671560764312744
1788862130141203500,11.016203369140625,-0.3388206660747528,0.30337637662887573,1.5978628396987915
1788862130151245300,11.026245361328124,-0.2323264479637146,0.26744261384010315,1.6108918190002441
1788862130161287400,11.036287353515625,-0.12544500827789307,0.23888714611530304,1.7124048471450806
1788862130171329500,11.04632958984375,-0.03549540787935257,0.258038729429245,1.8598939180374146
1788862130181371400,11.056371337890624,0.03177124634385109,0.26753664016723633,2.0074126720428467
1788862130191413500,11.06641357421875,0.08716339617967606,0.2917913794517517,2.083324909210205
1788862130201455400,11.076455322265625,0.11648533493280411,0.301638662815094,2.073056697845459
1788862130211496400,11.086496337890624,0.14112277328968048,0.3116694688796997,1.9844238758087158
1788862130221538300,11.096538330078126,0.16570986807346344,0.36939749121665955,1.9010719060897827
1788862130231580400,11.106580322265625,0.17878545820713043,0.40294158458709717,1.8685742616653442
1788862130241622500,11.11662255859375,0.14813007414340973,0.41400063037872314,1.799333095550537
1788862130251664400,11.126664306640626,0.07844580709934235,0.4205158054828644,1.7276415824890137
1788862130261706200,11.136706298828125,-0.02497645653784275,0.4144837260246277,1.669395089149475
1788862130271748400,11.146748291015625,-0.15407665073871613,0.4096434414386749,1.6812403202056885
1788862130281790500,11.15679052734375,-0.2880472242832184,0.48082947731018066,1.7589648962020874
1788862130291832300,11.166832275390625,-0.39837321639060974,0.5824634432792664,1.8742518424987793
1788862130301874400,11.17687451171875,-0.4687539041042328,0.6604351997375488,1.9839138984680176
1788862130311915500,11.18691552734375,-0.4916991591453552,0.7131186127662659,2.025787115097046
1788862130321957400,11.196957275390625,-0.4825461506843567,0.6871144771575928,1.9850208759307861
1788862130331999200,11.206999267578125,-0.48304203152656555,0.5731000304222107,1.9269171953201294
1788862130342041600,11.21704150390625,-0.5208051204681396,0.5042567849159241,1.9831314086914062
1788862130352083500,11.22708349609375,-0.6131225228309631,0.5332913398742676,2.128512382507324
1788862130362125300,11.237125244140625,-0.6920591592788696,0.5640851855278015,2.265275001525879
1788862130372167400,11.24716748046875,-0.6750330328941345,0.5384983420372009,2.3542981147766113
1788862130382209300,11.257209228515626,-0.5436978936195374,0.5108550190925598,2.390810966491699
1788862130392251400,11.26725146484375,-0.4223403334617615,0.5161842703819275,2.3684513568878174
1788862130402292500,11.27729248046875,-0.37996357679367065,0.5053265690803528,2.2765300273895264
1788862130412334300,11.287334228515626,-0.4068508446216583,0.3551224172115326,2.1512043476104736
1788862130422376400,11.29737646484375,-0.4572647511959076,0.07197432219982147,2.0581183433532715
1788862130432418300,11.307418212890624,-0.5027393102645874,-0.20075413584709167,2.0229642391204834
1788862130442460400,11.31746044921875,-0.5147978067398071,-0.3276606798171997,2.039067268371582
1788862130452502500,11.32750244140625,-0.502854585647583,-0.31511425971984863,2.0442569255828857
1788862130462544400,11.33754443359375,-0.4799008369445801,-0.2461213618516922,1.98919677734375
1788862130472586500,11.34758642578125,-0.45577630400657654,-0.18533124029636383,1.8838634490966797
1788862130482628400,11.35762841796875,-0.41500332951545715,-0.16583476960659027,1.742551326751709
1788862130492670200,11.367670166015625,-0.37131229043006897,-0.15044675767421722,1.5894829034805298
1788862130502711300,11.377711181640626,-0.32774537801742554,-0.10986098647117615,1.424628734588623
1788862130512753400,11.38775341796875,-0.27312979102134705,0.013847905211150646,1.251153826713562
1788862130522795500,11.39779541015625,-0.2109287530183792,0.23319889605045319,1.1033833026885986
1788862130532837400,11.40783740234375,-0.1500571370124817,0.44591596722602844,0.9890854954719543
1788862130542879200,11.417879150390625,-0.07875579595565796,0.502543568611145,0.8539668321609497
1788862130552921300,11.42792138671875,-0.008319715037941933,0.3474580943584442,0.6768532991409302
1788862130562963500,11.43796337890625,0.05735303834080696,0.13776399195194244,0.432911217212677
1788862130573005300,11.44800537109375,0.15983493626117706,0.0922822579741478,0.18000757694244385
1788862130583047400,11.45804736328125,0.2643999755382538,0.21499113738536835,-0.04661943390965462
1788862130593088500,11.468088623046874,0.31246015429496765,0.4161932170391083,-0.21199961006641388
1788862130603130400,11.47813037109375,0.3512384593486786,0.680001437664032,-0.27645716071128845
1788862130613172200,11.488172119140625,0.37260153889656067,0.8334221243858337,-0.2509121298789978
1788862130623214600,11.498214599609375,0.39075151085853577,0.8115562796592712,-0.19271352887153625
1788862130633256400,11.50825634765625,0.4153183698654175,0.5886347889900208,-0.140466570854187
1788862130643298300,11.51829833984375,0.417521595954895,0.251423716545105,-0.14197364449501038
1788862130653340400,11.52834033203125,0.41739538311958313,-0.036252547055482864,-0.18520846962928772
1788862130663382300,11.53838232421875,0.3877384066581726,-0.20563997328281403,-0.26735445857048035
1788862130673424400,11.54842431640625,0.3386100232601166,-0.23317599296569824,-0.37627777457237244
1788862130683465500,11.558465576171875,0.29659438133239746,-0.1506776511669159,-0.4931143522262573
1788862130693507300,11.56850732421875,0.27393966913223267,-0.009853961877524853,-0.6013167500495911
1788862130703549400,11.578549560546875,0.2695004343986511,0.11735032498836517,-0.6826549768447876
1788862130713591300,11.58859130859375,0.29525986313819885,0.2266262173652649,-0.730807900428772
1788862130723633400,11.59863330078125,0.32274502515792847,0.3433179557323456,-0.7490667700767517
1788862130733675500,11.608675537109375,0.3207508623600006,0.45764318108558655,-0.777288556098938
1788862130743717400,11.61871728515625,0.2973230183124542,0.5268225073814392,-0.8287080526351929
1788862130753759500,11.628759521484374,0.2832426130771637,0.5091612339019775,-0.8586116433143616
1788862130763801300,11.63880126953125,0.27673065662384033,0.40264493227005005,-0.8142513632774353
1788862130773842400,11.648842529296875,0.2645168900489807,0.2398536056280136,-0.7598839998245239
1788862130783884300,11.65888427734375,0.24669420719146729,0.04620904102921486,-0.783046305179596
1788862130793926400,11.668926513671876,0.24158412218093872,-0.15315812826156616,-0.8687481880187988
1788862130803968500,11.678968505859375,0.25032249093055725,-0.3161012530326843,-0.9535261988639832
1788862130814010400,11.68901025390625,0.2719156742095947,-0.4222135543823242,-1.0533579587936401
1788862130824052200,11.69905224609375,0.2877463102340698,-0.4726516902446747,-1.0939887762069702
1788862130834094300,11.70909423828125,0.27119874954223633,-0.4429566562175751,-1.0885521173477173
1788862130844136400,11.719136474609375,0.21526411175727844,-0.35511308908462524,-1.1030360460281372
1788862130854178300,11.72917822265625,0.15472114086151123,-0.2882765233516693,-1.110905408859253
1788862130864219400,11.739219482421875,0.08984360098838806,-0.26965758204460144,-1.1106772422790527
1788862130874261500,11.749261474609375,0.024929851293563843,-0.258747935295105,-1.135465145111084
1788862130884303400,11.759303466796876,-0.033312149345874786,-0.2345951944589615,-1.1990067958831787
1788862130894345200,11.76934521484375,-0.06046813726425171,-0.3059964179992676,-1.2967474460601807
1788862130904387600,11.7793876953125,-0.04452832043170929,-0.45912763476371765,-1.4147769212722778
1788862130914429400,11.789429443359374,-0.004780906718224287,-0.5057832598686218,-1.5461311340332031
1788862130924471300,11.79947119140625,0.04854170233011246,-0.4525967538356781,-1.6128311157226562
1788862130934513400,11.809513427734375,0.07505853474140167,-0.3443776071071625,-1.6626535654067993
1788862130944555300,11.81955517578125,0.09963072091341019,-0.2565641403198242,-1.7050734758377075
1788862130954596400,11.829596435546875,0.10917548835277557,-0.29341644048690796,-1.750864028930664
1788862130964638500,11.839638427734375,0.11802863329648972,-0.4429686367511749,-1.7265046834945679
1788862130974680300,11.849680419921874,0.13061819970607758,-0.5439815521240234,-1.6847971677780151
1788862130984722400,11.859722412109376,0.16404326260089874,-0.5802527070045471,-1.666481852531433
1788862130994764300,11.869764404296875,0.17713163793087006,-0.5945714712142944,-1.720203161239624
1788862131004806400,11.879806396484375,0.16938050091266632,-0.647053599357605,-1.792555332183838
1788862131014848500,11.8898486328125,0.1754160225391388,-0.6850970983505249,-1.849026083946228
1788862131024890400,11.899890380859375,0.17566344141960144,-0.7532436847686768,-1.8094322681427002
1788862131034932500,11.909932373046875,0.17242184281349182,-0.8326812386512756,-1.7282203435897827
1788862131044973300,11.919973388671876,0.2005314975976944,-0.9100881814956665,-1.686292290687561
1788862131055015400,11.930015380859375,0.24892167747020721,-0.959968626499176,-1.6854875087738037
1788862131065057300,11.940057373046875,0.2945224344730377,-0.936057448387146,-1.6625339984893799
1788862131075099400,11.950099365234376,0.3183055520057678,-0.8504030108451843,-1.6517537832260132
1788862131085141500,11.9601416015625,0.35066720843315125,-0.8179912567138672,-1.6678466796875
1788862131095183400,11.970183349609375,0.3745829164981842,-0.9307489395141602,-1.699590802192688
1788862131105225200,11.98022509765625,0.38685664534568787,-1.0688484907150269,-1.7017927169799805
1788862131115267300,11.990267333984375,0.38857996463775635,-1.0519747734069824,-1.7302073240280151
1788862131125309400,12.000309326171875,0.3917749524116516,-0.9586881995201111,-1.7532896995544434
1788862131135351000,12.01035107421875,0.3820408284664154,-0.8934172987937927,-1.757274866104126
1788862131145393000,12.020392822265626,0.3621731400489807,-0.8720483779907227,-1.761703372001648
1788862131155434800,12.030434814453125,0.35250717401504517,-0.7908334136009216,-1.7637341022491455
1788862131165476900,12.040476806640624,0.38693466782569885,-0.6343415379524231,-1.7716783285140991
1788862131175518700,12.050518798828126,0.4509546756744385,-0.4448179304599762,-1.768273949623108
1788862131185560800,12.060560791015625,0.5107450485229492,-0.29193252325057983,-1.7406785488128662
1788862131195603000,12.07060302734375,0.5181035995483398,-0.21972890198230743,-1.6428297758102417
1788862131205644800,12.080644775390626,0.4748016595840454,-0.18485534191131592,-1.5409417152404785
1788862131215687000,12.09068701171875,0.3845604658126831,-0.09231182187795639,-1.4629460573196411
1788862131225727700,12.100727783203125,0.32797548174858093,0.003980360459536314,-1.3654530048370361
1788862131235769900,12.110769775390626,0.2764643430709839,0.14897456765174866,-1.2116740942001343
1788862131245812000,12.12081201171875,0.2478228509426117,0.19627444446086884,-1.110300064086914
1788862131255853800,12.130853759765625,0.21176311373710632,0.20770180225372314,-1.003071665763855
1788862131265896000,12.14089599609375,0.17808398604393005,0.24732057750225067,-0.9153017997741699
1788862131275937800,12.150937744140625,0.14600327610969543,0.299656480550766,-0.8265522718429565
1788862131285979600,12.160979736328125,0.12887223064899445,0.31655025482177734,-0.7442877292633057
1788862131296022000,12.17102197265625,0.11638519912958145,0.23200686275959015,-0.6034230589866638
1788862131306062800,12.181062744140625,0.05847183242440224,0.19588083028793335,-0.4390205144882202
1788862131316105000,12.19110498046875,0.011439874768257141,0.22406958043575287,-0.27367281913757324
1788862131326146800,12.201146728515624,-0.0287094097584486,0.3105858266353607,-0.08826008439064026
1788862131336188700,12.211188720703126,-0.07801783829927444,0.35288137197494507,0.09978625178337097
1788862131346230800,12.221230712890625,-0.1010453924536705,0.3082726001739502,0.29056552052497864
1788862131356273000,12.23127294921875,-0.08512528240680695,0.29900720715522766,0.39895936846733093
1788862131366315000,12.24131494140625,-0.05285362899303436,0.3646125793457031,0.49769341945648193
1788862131376356900,12.25135693359375,-0.044324055314064026,0.37134799361228943,0.6029497981071472
1788862131386398700,12.261398681640625,-0.06294380873441696,0.3773028254508972,0.7490742206573486
1788862131396439800,12.271439697265626,-0.12270248681306839,0.45448389649391174,0.9638794660568237
1788862131406481700,12.281481689453125,-0.20122338831424713,0.5856573581695557,1.168872594833374
1788862131416524000,12.29152392578125,-0.2627871632575989,0.6936511993408203,1.3332865238189697
1788862131426566000,12.30156591796875,-0.287323921918869,0.8129885196685791,1.418514370918274
1788862131436607700,12.311607666015625,-0.27724412083625793,0.8894252181053162,1.4533601999282837
1788862131446649900,12.32164990234375,-0.26011013984680176,0.8584430813789368,1.5116698741912842
1788862131456691700,12.331691650390624,-0.2729921042919159,0.7966178059577942,1.5835131406784058
1788862131466733800,12.34173388671875,-0.3366163671016693,0.8033390641212463,1.6560555696487427
1788862131476776000,12.35177587890625,-0.41748350858688354,0.8071375489234924,1.7425254583358765
1788862131486816800,12.361816650390624,-0.45156532526016235,0.7750115394592285,1.81063711643219
1788862131496859000,12.37185888671875,-0.43674910068511963,0.7269756197929382,1.8809163570404053
1788862131506900700,12.381900634765625,-0.38263818621635437,0.7031312584877014,1.9898161888122559
1788862131516942800,12.39194287109375,-0.33669227361679077,0.7200236916542053,2.1417646408081055
1788862131526985000,12.40198486328125,-0.32618024945259094,0.7480883598327637,2.28240966796875
1788862131537026800,12.41202685546875,-0.3301651179790497,0.749641478061676,2.3711812496185303
1788862131547069000,12.42206884765625,-0.31516221165657043,0.7178835868835449,2.391467332839966
1788862131557110800,12.43211083984375,-0.2764502465724945,0.6730899810791016,2.3512015342712402
1788862131567151900,12.44215185546875,-0.2433631271123886,0.6117717623710632,2.3025946617126465
1788862131577193700,12.45219384765625,-0.23055943846702576,0.4896914064884186,2.2763595581054688
1788862131587235800,12.46223583984375,-0.23239143192768097,0.35461533069610596,2.2814130783081055
1788862131597278000,12.47227783203125,-0.25942492485046387,0.2534479796886444,2.2893831729888916
1788862131607319800,12.48231982421875,-0.29020068049430847,0.19006234407424927,2.2893083095550537
