time,seconds_elapsed,z,y,x
1788862119185425700,0.06042578125,-0.6021488308906555,-0.5384467840194702,1.9194278717041016
1788862119195467800,0.0704677734375,-0.5387131571769714,-0.641489565372467,1.5371118783950806
1788862119205509600,0.080509521484375,-0.5569065809249878,-0.7495999932289124,1.0928938388824463
1788862119215551500,0.090551513671875,-0.626828670501709,-0.8255533576011658,0.68173748254776
1788862119225593900,0.10059375,-0.6429356932640076,-1.010772466659546,0.33249273896217346
1788862119235635700,0.1106357421875,-0.5995813012123108,-1.3070685863494873,0.11672449111938477
1788862119245677800,0.120677734375,-0.4476960301399231,-1.6098222732543945,0.08462297916412354
1788862119255719700,0.1307197265625,-0.1821857988834381,-1.973425030708313,0.11753645539283752
1788862119265761500,0.140761474609375,0.0883905440568924,-2.4234437942504883,0.13860608637332916
1788862119275804000,0.150803955078125,0.31179937720298767,-2.8208062648773193,0.2265327423810959
1788862119285845800,0.160845703125,0.48093095421791077,-3.039231538772583,0.28591954708099365
1788862119295887600,0.1708876953125,0.7136544585227966,-3.077150821685791,0.277415007352829
1788862119305929700,0.1809296875,1.1667239665985107,-3.1018667221069336,0.2299281656742096
1788862119315971600,0.1909716796875,1.7727078199386597,-3.0138728618621826,0.10599316656589508
1788862119326013700,0.201013671875,2.401386022567749,-3.0020949840545654,-0.0031156993936747313
1788862119336055800,0.211055908203125,2.9317867755889893,-3.1885030269622803,-0.013531855307519436
1788862119346097700,0.22109765625,3.52614688873291,-3.823657274246216,0.2993200719356537
1788862119356139800,0.231139892578125,4.127534866333008,-4.5591912269592285,0.9967942237854004
1788862119366181600,0.241181640625,4.477717399597168,-5.382165908813477,1.8124667406082153
1788862119376223700,0.2512236328125,4.349720478057861,-6.1110734939575195,2.4830105304718018
1788862119386265900,0.261265869140625,3.8844659328460693,-6.413506507873535,2.795506238937378
1788862119396307700,0.2713076171875,3.632749557495117,-6.377641201019287,2.9006545543670654
1788862119406349600,0.281349609375,3.8120362758636475,-6.002166271209717,2.9797699451446533
1788862119416391700,0.2913916015625,4.238044261932373,-5.468618392944336,3.0383410453796387
1788862119426433800,0.301433837890625,4.700336933135986,-4.9793267250061035,3.088048219680786
1788862119436475600,0.3114755859375,4.979734420776367,-4.576674461364746,3.017526865005493
1788862119446517800,0.321517822265625,5.0359063148498535,-4.1861443519592285,2.796403169631958
1788862119456559600,0.3315595703125,4.995192527770996,-3.8151137828826904,2.5206212997436523
1788862119466601700,0.341601806640625,4.916029453277588,-3.6462631225585938,2.367011070251465
1788862119476643800,0.351643798828125,4.799707889556885,-3.775057792663574,2.45188045501709
1788862119486685700,0.361685791015625,4.700840473175049,-3.9369919300079346,2.7528529167175293
1788862119496727800,0.371727783203125,4.640449523925781,-4.041755199432373,3.1734108924865723
1788862119506769700,0.381769775390625,4.563343048095703,-4.0215253829956055,3.6623928546905518
1788862119516811500,0.3918115234375,4.480768203735352,-3.9966514110565186,4.116323471069336
1788862119526854000,0.40185400390625,4.391171932220459,-3.959139347076416,4.393064022064209
1788862119536895700,0.411895751953125,4.2438178062438965,-3.7487778663635254,4.459652423858643
1788862119546937600,0.4219375,4.107550621032715,-3.4549241065979004,4.3405327796936035
1788862119556979700,0.431979736328125,2.9841105937957764,-6.826106071472168,0.4450589120388031
1788862119567021600,0.442021484375,4.127101421356201,-3.755908727645874,1.6447300910949707
1788862119577063700,0.452063720703125,4.284897327423096,-1.472235918045044,3.432267904281616
1788862119587105800,0.462105712890625,3.745147228240967,-2.7030296325683594,3.341475248336792
1788862119597147600,0.472147705078125,3.305763006210327,-4.683917045593262,2.5940444469451904
1788862119607189800,0.482189697265625,3.0479049682617188,-7.211064338684082,1.1642463207244873
1788862119617231600,0.492231689453125,3.953089475631714,-7.536694526672363,-0.06671575456857681
1788862119627274800,0.502274658203125,4.286298751831055,0.16360928118228912,-0.7289714217185974
1788862119637315800,0.51231591796875,4.196978569030762,2.042933464050293,-0.547673225402832
1788862119647357700,0.522357666015625,3.5987234115600586,1.497792363166809,-0.11172214895486832
1788862119657400600,0.532400634765625,3.394256591796875,0.541927695274353,0.07126977294683456
1788862119667442700,0.542442626953125,3.489274501800537,-0.9559434056282043,0.013135628774762154
1788862119677484800,0.55248486328125,3.7158100605010986,-1.9989261627197266,0.35186466574668884
1788862119687526700,0.562526611328125,3.6327481269836426,-1.8480530977249146,0.7081440687179565
1788862119697568800,0.57256884765625,3.3848347663879395,-0.9634956121444702,0.4392268657684326
1788862119707610600,0.582610595703125,3.0245485305786133,0.1898532211780548,-0.2717645466327667
1788862119717652700,0.59265283203125,2.6181564331054688,0.7910373210906982,-0.6850424408912659
1788862119727694800,0.60269482421875,2.3853518962860107,0.04002412408590317,-0.5127167105674744
1788862119737736700,0.61273681640625,2.0472524166107178,-1.0376367568969727,0.2472863346338272
1788862119747778600,0.622778564453125,1.757591724395752,-1.768880009651184,1.0465084314346313
1788862119757820700,0.632820556640625,1.5721174478530884,-1.8750159740447998,1.4824124574661255
1788862119767862800,0.64286279296875,1.4922703504562378,-1.559920072555542,1.479034662246704
1788862119777904600,0.652904541015625,1.4801476001739502,-1.1271374225616455,1.090458631515503
1788862119787946800,0.66294677734375,1.749315619468689,-0.924746572971344,0.7790119051933289
1788862119797988600,0.672988525390625,1.965769648551941,-0.8281912803649902,0.5307115316390991
1788862119808030700,0.68303076171875,1.5480338335037231,-0.41135305166244507,0.1800597459077835
1788862119818072800,0.69307275390625,1.9904096126556396,-0.3071227967739105,-0.18286944925785065
1788862119828114700,0.70311474609375,1.4922693967819214,0.5200334787368774,-0.48652681708335876
1788862119838156800,0.71315673828125,0.7152923941612244,0.9716498851776123,-0.6614067554473877
1788862119848198700,0.72319873046875,0.32519012689590454,0.4011893570423126,-0.4980636239051819
1788862119858240500,0.733240478515625,-0.09780771285295486,-0.46272012591362,-0.044346459209918976
1788862119868283000,0.743282958984375,-0.42869997024536133,-0.7796846032142639,0.27618494629859924
1788862119878324700,0.75332470703125,-0.5742598176002502,-0.8648519515991211,0.18653520941734314
1788862119888366600,0.76336669921875,-0.7281122803688049,-0.6852686405181885,-0.3500843644142151
1788862119898408700,0.77340869140625,-0.9843283295631409,-0.07671903073787689,-0.634831964969635
1788862119908450600,0.783450439453125,-1.0523964166641235,0.6981247067451477,0.09183972328901291
1788862119918492700,0.79349267578125,-1.0255576372146606,1.2769534587860107,-0.5488987565040588
1788862119928534800,0.80353466796875,-1.1742390394210815,1.3899056911468506,-0.7707241773605347
1788862119938576600,0.81357666015625,-1.4384206533432007,1.1692169904708862,-0.7118110656738281
1788862119948618800,0.82361865234375,-1.764262080192566,1.1841638088226318,-0.5007619857788086
1788862119958660600,0.83366064453125,-1.5012139081954956,0.7024107575416565,-0.4306817352771759
1788862119968702700,0.84370263671875,-0.6145693063735962,1.1167222261428833,-0.6961655616760254
1788862119978744800,0.853744873046875,-0.21872423589229584,0.8353390097618103,-0.6241126656532288
1788862119988786700,0.86378662109375,0.13864745199680328,0.4826813042163849,-0.5048461556434631
1788862119998828500,0.87382861328125,0.46788233518600464,-0.010327335447072983,-0.255143940448761
1788862120008870700,0.88387060546875,0.5748661756515503,-0.07166144996881485,-0.07714332640171051
1788862120018912800,0.893912841796875,0.27145591378211975,0.41170603036880493,-0.06737831234931946
1788862120028954600,0.90395458984375,-0.36494168639183044,0.6207674741744995,0.03718812018632889
1788862120038996700,0.913996826171875,-0.8481363654136658,0.7040234804153442,0.019287683069705963
1788862120049038600,0.92403857421875,-1.0620766878128052,1.189400553703308,-0.20385020971298218
1788862120059080700,0.934080810546875,-0.6376690864562988,1.4356151819229126,-0.5623476505279541
1788862120069122800,0.944122802734375,-0.9280638098716736,0.2860713601112366,-0.33019980788230896
1788862120079164700,0.95416455078125,-0.8680585622787476,-0.09046845138072968,-0.04755743220448494
1788862120089206800,0.964206787109375,-0.3845258951187134,0.18929429352283478,-0.03626905381679535
1788862120099248600,0.97424853515625,-0.14218488335609436,-0.10482442378997803,-0.14018107950687408
1788862120109290500,0.98429052734375,0.07149790972471237,-0.25304338335990906,0.009887143038213253
1788862120119332900,0.994332763671875,0.11319289356470108,-0.16053341329097748,0.13451163470745087
1788862120129374500,1.00437451171875,-0.04808511584997177,-0.10872844606637955,-0.030348695814609528
1788862120139416600,1.01441650390625,-0.1747320145368576,-0.07448659092187881,-0.3057515025138855
1788862120149458700,1.024458740234375,0.0019881916232407093,-0.43627381324768066,-0.5566818118095398
1788862120159500500,1.03450048828125,0.40179309248924255,-1.9248028993606567,-1.1270768642425537
1788862120169542700,1.044542724609375,1.7433819770812988,-1.8420032262802124,-0.06836342066526413
1788862120179584500,1.05458447265625,3.071352481842041,-0.6704248189926147,0.5391499996185303
1788862120189626600,1.064626708984375,2.782191753387451,-0.26753467321395874,0.1779903620481491
1788862120199668700,1.074668701171875,3.1333394050598145,-0.655231773853302,0.04066339507699013
1788862120209710600,1.084710693359375,3.4989020824432373,-1.5827592611312866,0.2514204978942871
1788862120219752400,1.09475244140625,3.210110902786255,-2.090358257293701,0.7291820645332336
1788862120229794600,1.104794677734375,3.231977701187134,-2.6522841453552246,0.7338953614234924
1788862120239836700,1.114836669921875,2.7036361694335938,-1.9310561418533325,0.4421426057815552
1788862120249878500,1.12487841796875,2.363826036453247,-1.1673582792282104,0.054776545614004135
1788862120259920600,1.134920654296875,2.3189303874969482,-0.7085769772529602,0.030788658186793327
1788862120269962500,1.14496240234375,1.837250828742981,-0.7067047953605652,0.1356051117181778
1788862120280004600,1.155004638671875,1.5848777294158936,-1.2043310403823853,0.204924538731575
1788862120290046700,1.165046630859375,1.134335994720459,-1.6734727621078491,0.25940993428230286
1788862120300088600,1.175088623046875,0.8995075225830078,-1.0310992002487183,0.44109079241752625
1788862120310130700,1.185130615234375,0.8993377089500427,-1.061354160308838,0.35840651392936707
1788862120320172500,1.195172607421875,0.27713459730148315,-1.0067574977874756,0.003515534335747361
1788862120330214400,1.20521435546875,0.021091856062412262,-0.8989599347114563,-0.029282022267580032
1788862120340256800,1.2152568359375,-0.05011654272675514,-0.806099534034729,0.11435530334711075
1788862120350298600,1.225298583984375,-0.09020886570215225,-0.9119258522987366,0.24957722425460815
1788862120360340500,1.235340576171875,-0.012211805209517479,-1.2045382261276245,0.28314611315727234
1788862120370382600,1.245382568359375,0.01955082267522812,-1.1918483972549438,0.3285825848579407
1788862120380424400,1.255424560546875,0.03905314952135086,-0.8351584672927856,0.309399276971817
1788862120390466800,1.265466796875,-0.08747456967830658,-0.3283292055130005,0.2031504213809967
1788862120400508700,1.2755087890625,-0.29397740960121155,-0.1073869839310646,0.1680038869380951
1788862120410550500,1.285550537109375,-0.41799190640449524,-0.17135171592235565,0.14179031550884247
1788862120420592600,1.295592529296875,-0.35849130153656006,-0.2356385588645935,0.19938011467456818
1788862120430634500,1.305634521484375,-0.09428547322750092,-0.13022293150424957,0.29012081027030945
1788862120440676600,1.315676513671875,0.21799013018608093,-0.01822235807776451,0.3284232020378113
1788862120450718700,1.32571875,0.40105491876602173,-0.0017779981717467308,0.261709064245224
1788862120460760600,1.335760498046875,0.37406057119369507,0.0632377490401268,0.14093951880931854
1788862120470802400,1.345802490234375,0.8379044532775879,0.6160458326339722,0.15976828336715698
1788862120480844500,1.355844482421875,1.2401705980300903,0.39592546224594116,0.10809524357318878
1788862120490886700,1.36588671875,1.8001302480697632,-0.008052429184317589,0.14070385694503784
1788862120500928800,1.3759287109375,2.2122387886047363,-0.478203684091568,0.13836826384067535
1788862120510970600,1.385970703125,2.0873985290527344,-0.8292022347450256,0.1747606247663498
1788862120521012500,1.396012451171875,1.6978588104248047,-0.8570991158485413,0.14516252279281616
1788862120531054600,1.4060546875,1.176263689994812,-0.8538416028022766,0.06708983331918716
1788862120541096700,1.4160966796875,0.7479999661445618,-1.2788655757904053,0.19660520553588867
1788862120551138600,1.426138671875,0.6094668507575989,-1.7633756399154663,0.3927021622657776
1788862120561180700,1.4361806640625,0.8663772344589233,-1.5311378240585327,0.2734769880771637
1788862120571222500,1.446222412109375,1.4044921398162842,-0.8175021409988403,0.13248679041862488
1788862120581264400,1.456264404296875,1.9653887748718262,-0.0811316967010498,0.1492157280445099
1788862120591306800,1.466306640625,2.267970085144043,0.1944277286529541,0.13435868918895721
1788862120601348600,1.4763486328125,2.292717456817627,-0.3290195167064667,0.07119809836149216
1788862120611390500,1.486390380859375,2.253610849380493,-1.0736759901046753,0.007573619484901428
1788862120621432600,1.4964326171875,2.233875036239624,-1.3614864349365234,-0.08485005050897598
1788862120631474400,1.506474365234375,1.4969171285629272,-1.1293299198150635,-0.05920429900288582
1788862120641516800,1.516516845703125,0.18906748294830322,-0.6480582356452942,0.014207333326339722
1788862120651558700,1.52655859375,-0.35783669352531433,-0.42592567205429077,-0.06547845155000687
1788862120661600500,1.5366005859375,-0.3132644295692444,-0.32877621054649353,-0.20940633118152618
1788862120671642600,1.546642578125,-0.37330999970436096,-0.2677465081214905,-0.14217668771743774
1788862120681684500,1.5566845703125,-0.44963085651397705,-0.5894851088523865,0.024791793897747993
1788862120691726600,1.5667265625,-0.6444343328475952,-1.0825109481811523,0.11498769372701645
1788862120701768700,1.576768798828125,-1.0695092678070068,-1.6094847917556763,0.16270941495895386
1788862120711810600,1.586810546875,-1.6352531909942627,-1.9825505018234253,0.24937182664871216
1788862120721852400,1.596852294921875,-2.343411445617676,-1.8854767084121704,0.37276938557624817
1788862120731894500,1.60689453125,-2.879882335662842,-1.5276809930801392,0.46935397386550903
1788862120741936600,1.6169365234375,-2.9754724502563477,-1.4355756044387817,0.39238330721855164
1788862120751978800,1.626978759765625,-2.789172410964966,-1.305632472038269,0.37233826518058777
1788862120762020600,1.6370205078125,-0.43872377276420593,-0.9050989151000977,0.4566701650619507
1788862120772062500,1.6470625,0.3774815499782562,0.7167553305625916,0.6229001879692078
1788862120782104600,1.6571044921875,0.18756943941116333,1.5147989988327026,0.42673781514167786
1788862120792146700,1.667146728515625,0.2336595058441162,1.484584093093872,-0.10830546915531158
1788862120802187800,1.677187744140625,0.06314636766910553,0.7573973536491394,-0.6453806161880493
1788862120812230700,1.687230712890625,0.2338569164276123,-0.2644529342651367,-0.7745723128318787
1788862120822272500,1.6972724609375,0.5736395120620728,-1.1176426410675049,-0.40759509801864624
1788862120832314400,1.707314453125,0.6089845895767212,-1.588964819908142,-0.07239600270986557
1788862120842356700,1.717356689453125,0.7023630142211914,-1.7428566217422485,-0.010754741728305817
1788862120852398600,1.727398681640625,0.704910159111023,-1.9289954900741577,-0.0571260079741478
1788862120862440700,1.737440673828125,0.7991825938224792,-1.9229055643081665,-0.014158569276332855
1788862120872482600,1.747482666015625,0.9471490383148193,-1.9136747121810913,0.07820049673318863
1788862120882524400,1.7575244140625,0.9521161317825317,-1.8412127494812012,0.11533588171005249
1788862120892566800,1.76756689453125,1.0187305212020874,-1.749754786491394,0.17097389698028564
1788862120902608600,1.777608642578125,1.141592264175415,-1.456894874572754,0.18833237886428833
1788862120912650500,1.787650390625,1.1264747381210327,-1.031719446182251,0.20082484185695648
1788862120922692600,1.797692626953125,1.046707034111023,-0.6854123473167419,0.20696714520454407
1788862120932734500,1.807734375,0.9198742508888245,-0.5345945358276367,0.17859752476215363
1788862120942776600,1.817776611328125,0.8520496487617493,-0.4186493456363678,0.17651653289794922
1788862120952818700,1.827818603515625,0.8268202543258667,-0.43865901231765747,0.22018134593963623
1788862120962860500,1.837860595703125,0.799976646900177,-0.4982546865940094,0.1965697556734085
1788862120972902700,1.847902587890625,0.894525408744812,-0.354467511177063,-0.0927809476852417
1788862120982944500,1.857944580078125,0.7634642720222473,-0.3624599277973175,-0.25582578778266907
1788862120992986600,1.867986572265625,0.6805598139762878,-0.6839391589164734,-0.29727232456207275
1788862121003027700,1.87802783203125,0.6199039220809937,-1.0149857997894287,-0.29337507486343384
1788862121013070600,1.888070556640625,0.682193398475647,-1.1520246267318726,-0.29031500220298767
1788862121023111700,1.898111572265625,0.6552499532699585,-1.26278817653656,-0.1409899890422821
1788862121033153500,1.908153564453125,0.5567029714584351,-1.284517526626587,0.08706361055374146
1788862121043195400,1.9181953125,0.4923809766769409,-1.1442400217056274,0.296828031539917
1788862121053237800,1.92823779296875,0.7756158113479614,-1.1906447410583496,0.31829988956451416
1788862121063279600,1.938279541015625,0.678067684173584,-1.3814951181411743,0.3871287703514099
1788862121073321500,1.948321533203125,0.40790167450904846,-1.02371084690094,0.30634114146232605
1788862121083363600,1.958363525390625,0.059765543788671494,-0.03714017942547798,0.04299153760075569
1788862121093405400,1.968405517578125,-0.06224624812602997,0.29296889901161194,-0.10658828914165497
1788862121103447600,1.978447509765625,-0.12031621485948563,0.18923130631446838,-0.06760067492723465
1788862121113489700,1.98848974609375,-0.12713950872421265,0.1072394922375679,0.08058186620473862
1788862121123531500,1.998531494140625,-0.17551235854625702,0.10057786107063293,0.23374877870082855
1788862121133573600,2.00857373046875,-0.2871388792991638,0.010040649212896824,0.27876225113868713
1788862121143615500,2.018615478515625,-0.36621400713920593,-0.015454857610166073,0.3236151933670044
1788862121153657600,2.02865771484375,-0.3828711211681366,0.11365774273872375,0.3191198408603668
1788862121163699700,2.03869970703125,-0.4331260323524475,0.2942909002304077,0.26935282349586487
1788862121173741600,2.048741455078125,-0.5218958854675293,0.43492385745048523,0.22321851551532745
1788862121183783400,2.058783447265625,-0.5863448977470398,0.42773252725601196,0.2966517210006714
1788862121193825500,2.068825439453125,-0.7402251362800598,0.4113140404224396,0.3379622995853424
1788862121203867600,2.07886767578125,-0.6512936353683472,0.48699843883514404,0.27655911445617676
1788862121213909500,2.088909423828125,-0.7077419757843018,0.49291813373565674,0.07845956087112427
1788862121223951600,2.09895166015625,-0.816352367401123,0.5294697880744934,-0.159496009349823
1788862121233993500,2.108993408203125,-0.8505467772483826,0.6470720767974854,-0.3819343149662018
1788862121244035600,2.11903564453125,-0.534447431564331,0.7842512130737305,-0.5048226714134216
1788862121254077700,2.12907763671875,0.06061680614948273,0.6802167296409607,-0.437195360660553
1788862121264119600,2.13911962890625,0.03824092820286751,0.24257279932498932,-0.12096681445837021
1788862121274161700,2.14916162109375,-0.3057132661342621,-0.3211451768875122,0.24687378108501434
1788862121284203500,2.15920361328125,-0.36770713329315186,-0.4857040047645569,0.3940477967262268
1788862121294245400,2.169245361328125,-0.39196088910102844,-0.4429270923137665,0.32694706320762634
1788862121304287700,2.179287841796875,-0.39849841594696045,-0.4794384837150574,0.241498202085495
1788862121314329600,2.18932958984375,-0.31955575942993164,-0.57172030210495,0.24043361842632294
1788862121324371500,2.199371337890625,-0.24495184421539307,-0.6266685128211975,0.31021857261657715
1788862121334413600,2.20941357421875,-0.23491010069847107,-0.641948938369751,0.3987095355987549
1788862121344455400,2.219455322265625,-0.2556116282939911,-0.49314743280410767,0.4421265125274658
1788862121354497800,2.229497802734375,-0.21958376467227936,-0.2611399292945862,0.44949889183044434
1788862121364539600,2.23953955078125,-0.25283944606781006,-0.015371708199381828,0.39463672041893005
1788862121374581500,2.24958154296875,-0.32535600662231445,0.10586468875408173,0.2712283730506897
1788862121384623600,2.25962353515625,-0.3538457155227661,0.1044209897518158,0.2104094922542572
1788862121394665500,2.26966552734375,-0.28751394152641296,-0.0037394268438220024,0.2604600489139557
1788862121404707600,2.27970751953125,-0.18757376074790955,-0.218896746635437,0.39170515537261963
1788862121414749700,2.289749755859375,-0.11770497262477875,-0.30713292956352234,0.5096909999847412
1788862121424791600,2.29979150390625,-0.06721809506416321,-0.19795316457748413,0.4933493137359619
1788862121434833400,2.30983349609375,-0.03008505143225193,-0.06923878192901611,0.40708810091018677
1788862121444875500,2.31987548828125,0.030435282737016678,-0.00025652069598436356,0.3340786099433899
1788862121454917600,2.329917724609375,0.08572074770927429,0.025551464408636093,0.32837408781051636
1788862121464959700,2.339959716796875,0.06531986594200134,0.0686320960521698,0.40527766942977905
1788862121475001600,2.350001708984375,0.01719057373702526,0.029502160847187042,0.47606730461120605
1788862121485043500,2.36004345703125,0.013111677020788193,0.0179365873336792,0.5346312522888184
1788862121495085600,2.37008544921875,-0.009321607649326324,-0.001474013552069664,0.5442862510681152
1788862121505127700,2.380127685546875,-0.03591460362076759,-0.05554896593093872,0.5167227983474731
1788862121515169500,2.39016943359375,-0.0455443374812603,-0.04470964893698692,0.45035994052886963
1788862121525211600,2.400211669921875,-0.06276912987232208,-0.0361851342022419,0.3933437764644623
1788862121535253500,2.41025341796875,-0.046383608132600784,-0.036725062876939774,0.37191933393478394
1788862121545295400,2.42029541015625,-0.016945291310548782,0.039437081664800644,0.33001261949539185
1788862121555337700,2.430337646484375,-0.013790057972073555,0.11954860389232635,0.2811778485774994
1788862121565379600,2.440379638671875,-0.029791396111249924,0.16964054107666016,0.23953187465667725
1788862121575421700,2.450421630859375,-0.062132202088832855,0.149471715092659,0.21147625148296356
1788862121585463600,2.460463623046875,-0.0845288559794426,0.03874200955033302,0.18446727097034454
1788862121595505400,2.47050537109375,-0.09657368808984756,-0.06507642567157745,0.15055787563323975
1788862121605547800,2.4805478515625,-0.08898420631885529,-0.12676961719989777,0.12342613190412521
1788862121615589600,2.490589599609375,-0.07709741592407227,-0.21095982193946838,0.1211320161819458
1788862121625631500,2.500631591796875,-0.0684535950422287,-0.266499787569046,0.1344483494758606
1788862121635673600,2.510673583984375,-0.08035386353731155,-0.25066590309143066,0.15973682701587677
1788862121645715500,2.520715576171875,-0.0923953503370285,-0.19442686438560486,0.16507621109485626
1788862121655757600,2.530757568359375,-0.10996371507644653,-0.14101186394691467,0.11592268943786621
1788862121665799700,2.540799560546875,-0.11159782856702805,-0.09537672996520996,0.043987520039081573
1788862121675841500,2.550841552734375,-0.10927586257457733,-0.03315974771976471,-0.015894386917352676
1788862121685883600,2.560883544921875,-0.11082422733306885,0.05238710716366768,-0.018187101930379868
1788862121695925800,2.57092578125,-0.10530218482017517,0.08564785122871399,0.013655268587172031
1788862121705967600,2.580967529296875,-0.09258106350898743,0.013750756159424782,0.041095148772001266
1788862121716009700,2.591009765625,-0.0932987704873085,-0.09148696064949036,0.05281089246273041
1788862121726051600,2.601051513671875,-0.09623623639345169,-0.1431557536125183,0.06519325822591782
1788862121736093400,2.611093505859375,-0.09150103479623795,-0.10838915407657623,0.09467577934265137
1788862121746135800,2.6211357421875,-0.08027714490890503,-0.007405012845993042,0.13868585228919983
1788862121756177700,2.631177734375,-0.0673326626420021,0.08529102802276611,0.1661861538887024
1788862121766219500,2.641219482421875,-0.0700450912117958,0.1316356211900711,0.18494413793087006
1788862121776261600,2.65126171875,-0.07768122106790543,0.13564150035381317,0.2132875621318817
1788862121786303500,2.661303466796875,-0.07773501425981522,0.11674104630947113,0.2476860135793686
1788862121796345600,2.671345703125,-0.06439121812582016,0.06615673005580902,0.2665388882160187
1788862121806387700,2.6813876953125,-0.04802796244621277,0.0005569476634263992,0.26432472467422485
1788862121816429600,2.6914296875,-0.0339311882853508,-0.015940409153699875,0.24808353185653687
1788862121826471700,2.7014716796875,-0.03822953253984451,0.031348809599876404,0.2315056174993515
1788862121836513500,2.711513427734375,-0.06562760472297668,0.1078379899263382,0.1998201310634613
1788862121846555600,2.7215556640625,-0.10554465651512146,0.16767176985740662,0.18296818435192108
1788862121856597800,2.73159765625,-0.1254938393831253,0.17449986934661865,0.19079411029815674
1788862121866639600,2.7416396484375,-0.10702721774578094,0.16295666992664337,0.22279517352581024
1788862121876681500,2.751681396484375,-0.06991269439458847,0.14221985638141632,0.2573273479938507
1788862121886723600,2.7617236328125,-0.01925058290362358,0.10083752125501633,0.2722588777542114
1788862121896765700,2.771765625,0.03561814874410629,0.04908926784992218,0.24295708537101746
1788862121906807600,2.7818076171875,0.07549446076154709,-0.011310689151287079,0.17712906002998352
1788862121916849700,2.791849609375,0.10359964519739151,-0.06872545182704926,0.10004685074090958
1788862121926891500,2.8018916015625,0.11813704669475555,-0.12850117683410645,0.041417356580495834
1788862121936933600,2.81193359375,0.1162748709321022,-0.16843295097351074,0.022024083882570267
1788862121946975700,2.821975830078125,0.09829480201005936,-0.14671647548675537,0.045900922268629074
1788862121957017600,2.832017578125,0.06281079351902008,-0.05505986139178276,0.07072274386882782
1788862121967059700,2.842059814453125,0.014859776012599468,0.03970606252551079,0.09670720249414444
1788862121977101600,2.8521015625,-0.03733530640602112,0.04909606650471687,0.11985334008932114
1788862121987143400,2.862143310546875,-0.055360645055770874,0.03241722285747528,0.11689935624599457
1788862121997185800,2.872185791015625,-0.03779234737157822,-0.017403386533260345,0.12329967319965363
1788862122007227600,2.8822275390625,0.007702164351940155,-0.18110203742980957,0.14919571578502655
1788862122017269500,2.89226953125,0.040967829525470734,-0.3742218613624573,0.15126414597034454
1788862122027311600,2.9023115234375,0.05302582308650017,-0.3585997521877289,0.10880964249372482
1788862122037352400,2.9123525390625,0.035165853798389435,-0.17371699213981628,0.05189137905836105
1788862122047394600,2.92239453125,-0.005642293952405453,0.04319401830434799,0.031244957819581032
1788862122057436700,2.932436767578125,-0.028308890759944916,0.12465302646160126,0.0840812623500824
1788862122067478800,2.942478759765625,-0.03050360083580017,0.07769110053777695,0.1727703958749771
1788862122077520600,2.952520751953125,-0.008240197785198689,0.022004321217536926,0.22626303136348724
1788862122087562500,2.9625625,0.011727385222911835,-0.016208577901124954,0.22027677297592163
1788862122097604600,2.9726044921875,0.009110856801271439,-0.06662724167108536,0.18183892965316772
1788862122107646700,2.982646728515625,0.0002981908619403839,-0.12742534279823303,0.1414094865322113
1788862122117688600,2.9926884765625,0.009927915409207344,-0.1127108484506607,0.10550687462091446
1788862122127731200,3.002731201171875,0.01092937309294939,-0.019882269203662872,0.06237682327628136
1788862122137773000,3.01277294921875,0.011407952755689621,0.10915535688400269,0.02963417023420334
1788862122147815000,3.02281494140625,0.02138255536556244,0.17406511306762695,0.032386813312768936
1788862122157857300,3.032857177734375,0.04109863564372063,0.1895454376935959,0.060763075947761536
1788862122167899100,3.042899169921875,0.05578863248229027,0.18164916336536407,0.08597096055746078
1788862122177941000,3.05294091796875,0.06111692264676094,0.19925008714199066,0.07169347256422043
1788862122187983000,3.062983154296875,0.07761707156896591,0.19393467903137207,0.0448666512966156
1788862122198025000,3.07302490234375,0.07921469956636429,0.12058962881565094,0.03017266094684601
1788862122208067000,3.083067138671875,0.06105700135231018,0.08753634989261627,0.023711301386356354
1788862122218109200,3.093109130859375,0.05641196668148041,0.06919335573911667,0.013834345154464245
1788862122228151000,3.103151123046875,0.06497136503458023,0.05322451516985893,-0.012849729508161545
1788862122238193200,3.113193115234375,0.0626213550567627,0.012664257548749447,-0.017214590683579445
1788862122248235000,3.123235107421875,0.05343824625015259,-0.05831005051732063,0.012262873351573944
1788862122258277000,3.133277099609375,0.040684595704078674,-0.1416902095079422,0.06759756058454514
1788862122268319200,3.1433193359375,0.016854098066687584,-0.12934114038944244,0.0985991582274437
1788862122278361000,3.153361083984375,-0.019752979278564453,-0.029786624014377594,0.10172459483146667
1788862122288403000,3.16340283203125,-0.0495271198451519,0.07757258415222168,0.1017722636461258
1788862122298445000,3.173445068359375,-0.03825290501117706,0.14698414504528046,0.12076128274202347
1788862122308487200,3.183487060546875,-0.011104905046522617,0.16064588725566864,0.12850335240364075
1788862122318529000,3.193529052734375,0.016887350007891655,0.11924706399440765,0.11446313560009003
1788862122328571100,3.203571044921875,0.030923541635274887,0.06391776353120804,0.1070808544754982
1788862122338613000,3.213613037109375,0.04017612338066101,-0.007923680357635021,0.13534049689769745
1788862122348655000,3.223655029296875,0.03131711855530739,-0.03076321631669998,0.17161621153354645
1788862122358697200,3.233697265625,0.027225807309150696,0.008594401180744171,0.216389000415802
1788862122368739000,3.243739013671875,0.026130715385079384,0.04747602343559265,0.24308745563030243
1788862122378781200,3.25378125,0.029794270172715187,0.04970172792673111,0.2365124672651291
1788862122388823000,3.263822998046875,0.0431114099919796,0.02604726329445839,0.22004108130931854
1788862122398865000,3.273864990234375,0.05879664793610573,0.0026335762813687325,0.20623096823692322
1788862122408907300,3.2839072265625,0.06094794720411301,-0.028958171606063843,0.2059822380542755
1788862122418949000,3.29394921875,0.06103793531656265,-0.10583195090293884,0.20952734351158142
1788862122428991000,3.303990966796875,0.035415396094322205,-0.18581466376781464,0.19931626319885254
1788862122439033000,3.314033203125,0.010464964434504509,-0.22608810663223267,0.21048139035701752
1788862122449075000,3.324074951171875,0.0008653337135910988,-0.20189328491687775,0.22904521226882935
1788862122459117000,3.334116943359375,0.004379787016659975,-0.1150037869811058,0.2323331981897354
1788862122469159200,3.3441591796875,-0.008615107275545597,-0.01731877028942108,0.23677349090576172
1788862122479201000,3.354200927734375,-0.02348480187356472,0.03895893320441246,0.240435391664505
1788862122489243100,3.3642431640625,-0.028314443305134773,0.054387956857681274,0.24551084637641907
1788862122499285000,3.374284912109375,-0.017109204083681107,0.03309277445077896,0.24840398132801056
1788862122509327000,3.3843271484375,0.0018136206781491637,0.018735140562057495,0.23883044719696045
1788862122519369200,3.394369140625,0.027469392865896225,0.005303452722728252,0.23447811603546143
1788862122529411000,3.4044111328125,0.04904153198003769,0.017946545034646988,0.21187134087085724
1788862122539453000,3.414452880859375,0.04848185181617737,0.059297826141119,0.17312176525592804
1788862122549495000,3.4244951171875,0.03335856273770332,0.1386009007692337,0.11181339621543884
1788862122559537200,3.434537109375,0.00126464304048568,0.2235875278711319,0.061620257794857025
1788862122569579000,3.4445791015625,-0.015310073271393776,0.29860398173332214,0.04341622442007065
1788862122579621000,3.45462109375,-0.010955043137073517,0.32587605714797974,0.06169622391462326
1788862122589663000,3.4646630859375,0.01071882713586092,0.288577675819397,0.08366117626428604
1788862122599705000,3.474705078125,0.042220212519168854,0.23158249258995056,0.092131607234478
1788862122609747200,3.484747314453125,0.08118492364883423,0.18735404312610626,0.08989934623241425
1788862122619789000,3.4947890625,0.09920614212751389,0.1235847994685173,0.07533855736255646
1788862122629831200,3.5048310546875,0.09432537108659744,0.08832934498786926,0.06074283644556999
1788862122639872000,3.5148720703125,0.07901640236377716,0.07375352084636688,0.05267568305134773
1788862122649914000,3.5249140625,0.047562867403030396,0.0934356153011322,0.04599620774388313
1788862122659956000,3.5349560546875,0.02250283770263195,0.15504178404808044,0.008530378341674805
1788862122669998000,3.544998046875,-0.01631220243871212,0.24278894066810608,-0.040026504546403885
1788862122680040200,3.555040283203125,-0.014984743669629097,0.34698233008384705,-0.09059068560600281
1788862122690082000,3.56508203125,-0.022144652903079987,0.37799856066703796,-0.07313153147697449
1788862122700124000,3.5751240234375,-0.0072851600125432014,0.36496278643608093,-0.03452106937766075
1788862122710166000,3.585166015625,0.038334786891937256,0.27473995089530945,-0.05010562017560005
1788862122720208100,3.5952080078125,0.055907800793647766,0.0627300962805748,-0.09672900289297104
1788862122730250200,3.605250244140625,0.09080293774604797,-0.07372734695672989,-0.17576338350772858
1788862122740292000,3.6152919921875,0.10424741357564926,-0.019532226026058197,-0.26350727677345276
1788862122750334000,3.625333984375,0.042542774230241776,0.16029691696166992,-0.3486064672470093
1788862122760376000,3.6353759765625,-0.00012176251038908958,0.36272069811820984,-0.4365805387496948
1788862122770418200,3.645418212890625,-0.04646502807736397,0.5001523494720459,-0.5043012499809265
1788862122780460000,3.6554599609375,-0.08460244536399841,0.5540691614151001,-0.5505826473236084
1788862122790502100,3.665502197265625,-0.12041983008384705,0.5445731282234192,-0.5778089165687561
1788862122800544000,3.6755439453125,-0.14154058694839478,0.48990586400032043,-0.5843808650970459
1788862122810585900,3.6855859375,-0.1449502408504486,0.3751547932624817,-0.5832535624504089
1788862122820628200,3.695628173828125,-0.13087113201618195,0.20033323764801025,-0.5847862958908081
1788862122830670000,3.705670166015625,-0.12171997874975204,0.04667336866259575,-0.6154046654701233
1788862122840712200,3.715712158203125,-0.1244579628109932,-0.020459052175283432,-0.7048049569129944
1788862122850754000,3.725754150390625,-0.12330695241689682,-0.04235370084643364,-0.8373459577560425
1788862122860796000,3.7357958984375,-0.11466952413320541,-0.11517811566591263,-0.942458987236023
1788862122870838300,3.74583837890625,-0.11411558836698532,-0.16176478564739227,-1.0031611919403076
1788862122880880000,3.755880126953125,-0.12501682341098785,-0.12047445774078369,-1.0343481302261353
1788862122890922000,3.765921875,-0.1564980447292328,-0.05107088387012482,-1.037608027458191
1788862122900964000,3.775964111328125,-0.1866966187953949,-0.025501271709799767,-1.0161813497543335
1788862122911006200,3.786006103515625,-0.20943601429462433,-0.08925734460353851,-0.9877917170524597
1788862122921048000,3.796048095703125,-0.21364107728004456,-0.24763703346252441,-0.9532057642936707
1788862122931090200,3.806090087890625,-0.2402804046869278,-0.40975111722946167,-0.9193918704986572
1788862122941132000,3.816132080078125,-0.2991633713245392,-0.5344008803367615,-0.8776496052742004
1788862122951174100,3.826174072265625,-0.38943466544151306,-0.5977830290794373,-0.8155204653739929
1788862122961216300,3.83621630859375,-0.48280248045921326,-0.6043924689292908,-0.7648899555206299
1788862122971258000,3.846258056640625,-0.5600317716598511,-0.5791454315185547,-0.7283316850662231
1788862122981300200,3.85630029296875,-0.6212804913520813,-0.5523932576179504,-0.7075141072273254
1788862122991342000,3.866342041015625,-0.668822705745697,-0.4818677008152008,-0.7148686647415161
1788862123001384000,3.876384033203125,-0.6937251687049866,-0.3808257281780243,-0.7786655426025391
1788862123011426300,3.88642626953125,-0.6757258772850037,-0.27662181854248047,-0.9053193926811218
1788862123021468200,3.89646826171875,-0.5481787323951721,-0.061152294278144836,-0.95784592628479
1788862123031510000,3.906510009765625,-0.3095723092556,0.18833662569522858,-0.7397250533103943
1788862123041552100,3.91655224609375,-0.09511879831552505,0.3067840039730072,-0.36425474286079407
1788862123051594000,3.926593994140625,0.08525256812572479,0.3778081238269806,-0.06327042728662491
1788862123061636000,3.936635986328125,0.3320118486881256,0.1904585063457489,-0.06856223195791245
1788862123071678200,3.94667822265625,0.640163242816925,-0.32581472396850586,-0.23432350158691406
1788862123081720000,3.956719970703125,0.8071550726890564,-0.7627096176147461,-0.1428249627351761
1788862123091762200,3.96676220703125,0.7656592726707458,-0.7879942059516907,0.18418484926223755
1788862123101804000,3.976803955078125,0.7248611450195312,-0.35175466537475586,0.499005526304245
1788862123111846100,3.98684619140625,0.7526587247848511,0.4351857006549835,0.7710855603218079
1788862123121888300,3.99688818359375,0.7299867868423462,1.1504968404769897,1.0580577850341797
1788862123131929000,4.00692919921875,0.6649268269538879,1.4281963109970093,1.366679072380066
1788862123141971200,4.01697119140625,0.6075237989425659,1.2200413942337036,1.6437864303588867
1788862123152013300,4.027013427734375,0.4743683934211731,0.6420488357543945,1.8517550230026245
1788862123162055200,4.03705517578125,0.27876245975494385,0.0934523344039917,2.0011844635009766
1788862123172097300,4.04709716796875,0.18660643696784973,-0.052063584327697754,2.135005474090576
1788862123182139100,4.05713916015625,0.2669121026992798,0.10376720875501633,2.2283709049224854
1788862123192181000,4.067180908203125,0.4644683003425598,0.20064689218997955,2.1464524269104004
1788862123202223400,4.077223388671875,0.6270194053649902,-0.20241163671016693,1.5173579454421997
1788862123212265200,4.08726513671875,0.5942105650901794,-1.1006112098693848,0.21508760750293732
1788862123222307300,4.097307373046875,0.4880543351173401,-1.5000296831130981,-0.7259277105331421
1788862123232349200,4.10734912109375,0.4373517334461212,-0.6459371447563171,-0.6340270638465881
1788862123242391000,4.11739111328125,0.43281078338623047,1.6904127597808838,0.09377079457044601
1788862123252433400,4.127433349609375,0.38321977853775024,4.714971542358398,0.8558976650238037
1788862123262475300,4.137475341796875,0.03202488645911217,6.0280351638793945,1.487647533416748
1788862123272517000,4.14751708984375,-0.3764225244522095,4.2036824226379395,1.8639721870422363
1788862123282559200,4.157559326171875,-0.31495440006256104,0.6784401535987854,2.016056537628174
1788862123292601000,4.16760107421875,0.19853049516677856,-2.210381269454956,1.5373084545135498
1788862123302643200,4.177643310546875,0.4944020211696625,-3.367530107498169,0.5821776390075684
1788862123312685300,4.187685302734375,0.4932185113430023,-3.317380428314209,-0.04921600595116615
1788862123322727200,4.19772705078125,0.40807080268859863,-2.391160488128662,-0.02884078398346901
1788862123332769300,4.207769287109375,0.34503406286239624,-0.3912430703639984,0.21140217781066895
1788862123342811100,4.21781103515625,0.28984296321868896,1.4877227544784546,0.4782858192920685
1788862123352853200,4.227853271484375,0.2684612572193146,2.4557175636291504,0.5473418235778809
1788862123362895400,4.237895263671875,0.2076154202222824,2.52545166015625,0.45859941840171814
1788862123372937200,4.247937255859375,0.12004749476909637,1.9086188077926636,0.35438990592956543
1788862123382979000,4.25797900390625,0.12073346227407455,0.8962138295173645,0.34038791060447693
1788862123393021200,4.268021240234375,0.1916249543428421,-0.1714402437210083,0.40564998984336853
1788862123403063300,4.278063232421875,0.23806022107601166,-1.0346240997314453,0.4778420925140381
1788862123413105200,4.288105224609375,0.2549140453338623,-1.580683708190918,0.5073214173316956
1788862123423147300,4.298147216796875,0.24119116365909576,-1.742315411567688,0.4826756715774536
1788862123433189000,4.308189208984375,0.19621330499649048,-1.385979413986206,0.3915873169898987
1788862123443231200,4.318231201171875,0.1483488529920578,-0.4467751383781433,0.1907852441072464
1788862123453273300,4.3282734375,0.09136810898780823,0.6979422569274902,-0.07209831476211548
1788862123463315200,4.338315185546875,0.0741635411977768,1.3019248247146606,-0.31842923164367676
1788862123473357300,4.348357421875,0.07875242829322815,1.3161638975143433,-0.53971928358078
1788862123483399200,4.358399169921875,0.0674515962600708,0.9150279760360718,-0.7515913248062134
1788862123493441000,4.36844091796875,0.010918278247117996,0.3365665078163147,-0.9304713606834412
1788862123503483400,4.3784833984375,0.000160514609888196,-0.11679638922214508,-1.060702919960022
1788862123513525200,4.388525146484375,0.02189510501921177,-0.2710381746292114,-1.1710528135299683
1788862123523567000,4.398567138671875,0.0010656381491571665,-0.16587692499160767,-1.2828375101089478
1788862123533608200,4.408608154296875,-0.05040207877755165,0.10892587900161743,-1.4048992395401
1788862123543650000,4.418650146484375,-0.06448742747306824,0.365166038274765,-1.530758261680603
1788862123553692200,4.428692138671875,-0.03171829506754875,0.4173264503479004,-1.6478731632232666
1788862123563734300,4.438734375,-0.002303243614733219,0.2595503032207489,-1.7354742288589478
1788862123573776100,4.448776123046875,-0.005588518921285868,0.047081176191568375,-1.764426827430725
1788862123583818200,4.458818359375,-0.01712043583393097,-0.14920009672641754,-1.7145825624465942
1788862123593860000,4.468860107421875,-0.02878561243414879,-0.2829453647136688,-1.6341702938079834
1788862123603902200,4.478902099609375,-0.04553833231329918,-0.3850342929363251,-1.6012974977493286
1788862123613944300,4.4889443359375,-0.07702834904193878,-0.5151920318603516,-1.5890980958938599
1788862123623986200,4.498986083984375,-0.0867500826716423,-0.7411296963691711,-1.5559252500534058
1788862123634028300,4.5090283203125,-0.07842344790697098,-0.9621230363845825,-1.5379350185394287
1788862123644070100,4.519070068359375,-0.09010124206542969,-1.0894873142242432,-1.5687878131866455
1788862123654112000,4.529112060546875,-0.10637421905994415,-1.1890692710876465,-1.588247537612915
1788862123664154400,4.539154296875,-0.1226474791765213,-1.1982290744781494,-1.5715476274490356
1788862123674196200,4.5491962890625,-0.17830488085746765,-1.0273804664611816,-1.526375651359558
1788862123684238000,4.559238037109375,-0.2578006684780121,-0.769899308681488,-1.453978180885315
1788862123694280200,4.5692802734375,-0.34871166944503784,-0.45991453528404236,-1.3841660022735596
1788862123704322000,4.579322021484375,-0.41020944714546204,-0.13802041113376617,-1.3636125326156616
1788862123714364400,4.589364501953125,-0.4475456476211548,0.04711694270372391,-1.4323053359985352
1788862123724406300,4.59940625,-0.4772248864173889,-0.018554139882326126,-1.554667592048645
1788862123734448000,4.6094482421875,-0.4513932764530182,-0.2583044171333313,-1.6859465837478638
1788862123744490200,4.619490234375,-0.38497644662857056,-0.5722357034683228,-1.7849667072296143
1788862123754532400,4.629532470703125,-0.2874871492385864,-0.8361879587173462,-1.8012007474899292
1788862123764574200,4.63957421875,-0.2043321132659912,-0.8927966952323914,-1.7065883874893188
1788862123774616300,4.6496162109375,-0.1933305859565735,-0.7148847579956055,-1.553643822669983
1788862123784658200,4.659658203125,-0.22692424058914185,-0.46274811029434204,-1.4307866096496582
1788862123794700000,4.669699951171875,-0.2962718605995178,-0.30989518761634827,-1.3794877529144287
1788862123804742400,4.679742431640625,-0.3479083180427551,-0.2720654308795929,-1.438007116317749
1788862123814784300,4.6897841796875,-0.31692618131637573,-0.324698269367218,-1.5203001499176025
1788862123824826400,4.699826416015625,-0.2644379138946533,-0.453302264213562,-1.546518087387085
1788862123834868200,4.7098681640625,-0.24223701655864716,-0.6628032922744751,-1.4881519079208374
1788862123844910000,4.71991015625,-0.2583255469799042,-0.885590136051178,-1.4121044874191284
1788862123854952400,4.729952392578125,-0.2997739315032959,-1.0423439741134644,-1.3796021938323975
1788862123864994300,4.739994384765625,-0.33271151781082153,-1.04587721824646,-1.393911361694336
1788862123875036200,4.7500361328125,-0.35076987743377686,-0.8760181665420532,-1.451196551322937
1788862123885078300,4.760078369140625,-0.35142213106155396,-0.6667029857635498,-1.4819608926773071
1788862123895120100,4.7701201171875,-0.32209327816963196,-0.5464511513710022,-1.4647027254104614
1788862123905161200,4.7801611328125,-0.2698419988155365,-0.5683742761611938,-1.3888577222824097
1788862123915203300,4.790203369140625,-0.23313724994659424,-0.7106661796569824,-1.2982492446899414
1788862123925245200,4.8002451171875,-0.19021683931350708,-0.8780553340911865,-1.2502796649932861
1788862123935287300,4.810287353515625,-0.1491096168756485,-0.9333913326263428,-1.2641699314117432
1788862123945329200,4.8203291015625,-0.11431683599948883,-0.8020162582397461,-1.3290634155273438
1788862123955371300,4.830371337890625,-0.09599988162517548,-0.529740571975708,-1.3983124494552612
1788862123965413400,4.840413330078125,-0.07153438031673431,-0.32141733169555664,-1.4388941526412964
1788862123975455200,4.850455322265625,-0.059243086725473404,-0.26655036211013794,-1.402311086654663
1788862123985497300,4.860497314453125,-0.04412336274981499,-0.3525194227695465,-1.3440287113189697
1788862123995539200,4.870539306640625,-0.014350553043186665,-0.45172590017318726,-1.335710048675537
1788862124005581000,4.8805810546875,0.002278716769069433,-0.6034238934516907,-1.3514435291290283
1788862124015623400,4.89062353515625,-0.023578712716698647,-0.7877367734909058,-1.346923589706421
1788862124025665300,4.900665283203125,-0.057356152683496475,-0.9057766199111938,-1.3262710571289062
1788862124035707100,4.91070703125,-0.075058713555336,-0.9572417140007019,-1.314410924911499
1788862124045749200,4.920749267578125,-0.06275936961174011,-0.9066862463951111,-1.3067671060562134
1788862124055791000,4.930791015625,-0.02632012963294983,-0.7725374698638916,-1.3583863973617554
1788862124065833200,4.940833251953125,-0.0037112166173756123,-0.6717045903205872,-1.420993447303772
1788862124075875300,4.950875244140625,-0.0014802864752709866,-0.6793979406356812,-1.42620050907135
1788862124085917200,4.960917236328125,0.009747486561536789,-0.7454434037208557,-1.3599475622177124
1788862124095959300,4.970959228515625,0.025053206831216812,-0.790327250957489,-1.2749847173690796
1788862124106001200,4.981001220703125,0.053738389164209366,-0.8338978290557861,-1.2319787740707397
1788862124116043300,4.991043212890625,0.09790265560150146,-0.790642499923706,-1.2607529163360596
1788862124126085400,5.00108544921875,0.1447586566209793,-0.6734223365783691,-1.3071277141571045
1788862124136127200,5.011127197265625,0.15453805029392242,-0.5601274967193604,-1.2951374053955078
1788862124146169300,5.02116943359375,0.1250612735748291,-0.5064558386802673,-1.2366271018981934
1788862124156211500,5.03121142578125,0.08356524258852005,-0.5300272107124329,-1.224629282951355
1788862124166253300,5.04125341796875,0.06682422757148743,-0.6461813449859619,-1.2878040075302124
1788862124176295200,5.051295166015625,0.05735296756029129,-0.809952437877655,-1.357177495956421
1788862124186337300,5.061337158203125,0.07073519378900528,-0.8490323424339294,-1.3811949491500854
1788862124196379400,5.07137939453125,0.07610146701335907,-0.749923586845398,-1.3649654388427734
1788862124206421200,5.081421142578125,0.03662233054637909,-0.6552751064300537,-1.2820285558700562
1788862124216463400,5.09146337890625,-0.020872117951512337,-0.6249659061431885,-1.2060184478759766
1788862124226505200,5.101505126953125,-0.05832374840974808,-0.657242476940155,-1.216051697731018
1788862124236546300,5.11154638671875,-0.06978972256183624,-0.7720737457275391,-1.2359942197799683
1788862124246588200,5.121588134765625,-0.061237819492816925,-0.8251223564147949,-1.2604931592941284
1788862124256630500,5.131630615234375,-0.0601043775677681,-0.7607670426368713,-1.2614716291427612
1788862124266672400,5.14167236328125,-0.07365939021110535,-0.6522811055183411,-1.2010273933410645
1788862124276714200,5.15171435546875,-0.0871879830956459,-0.5638303160667419,-1.1135249137878418
1788862124286756400,5.16175634765625,-0.10406818240880966,-0.5036919116973877,-1.0758163928985596
1788862124296798200,5.171798095703125,-0.10938571393489838,-0.5459607839584351,-1.0563212633132935
1788862124306840300,5.18184033203125,-0.10550262033939362,-0.5986104607582092,-1.0132497549057007
1788862124316882400,5.19188232421875,-0.10143144428730011,-0.5303627252578735,-0.9617145657539368
1788862124326924300,5.20192431640625,-0.10877826809883118,-0.4324404001235962,-0.9354146122932434
1788862124336966400,5.21196630859375,-0.13340558111667633,-0.3640645444393158,-0.9061205983161926
1788862124347008300,5.22200830078125,-0.16015923023223877,-0.29629960656166077,-0.86310213804245
1788862124357050400,5.23205029296875,-0.1940183937549591,-0.2322186380624771,-0.7617235779762268
1788862124367092500,5.242092529296875,-0.24993672966957092,-0.1536383330821991,-0.5814225673675537
1788862124377134300,5.25213427734375,-0.29868191480636597,-0.10425826907157898,-0.4683937430381775
1788862124387176200,5.26217626953125,-0.3174896836280823,-0.11464457958936691,-0.505894124507904
1788862124397218300,5.27221826171875,-0.3060295581817627,-0.2145131230354309,-0.6286418437957764
1788862124407260400,5.282260498046875,-0.2875022888183594,-0.30806764960289,-0.6768408417701721
1788862124417302300,5.29230224609375,-0.2975831627845764,-0.2923531234264374,-0.5708734393119812
1788862124427344400,5.302344482421875,-0.3483378291130066,-0.16882120072841644,-0.3458404839038849
1788862124437386200,5.31238623046875,-0.4106736481189728,-0.024546321481466293,-0.1434122771024704
1788862124447428400,5.322428466796875,-0.44759809970855713,0.06350124627351761,-0.007861645892262459
1788862124457470500,5.332470458984375,-0.43632814288139343,0.051921285688877106,-0.07351629436016083
1788862124467512300,5.34251220703125,-0.3877953886985779,-0.06180199980735779,-0.15927660465240479
1788862124477554400,5.352554443359375,-0.2969251275062561,-0.06017028167843819,-0.18299125134944916
1788862124487596300,5.36259619140625,-0.2609729468822479,-0.07772313058376312,-0.21601077914237976
1788862124497638100,5.37263818359375,-0.3047577142715454,0.012235255911946297,-0.20849613845348358
1788862124507680500,5.382680419921875,-0.3471391499042511,0.10834166407585144,-0.19710451364517212
1788862124517722400,5.392722412109375,-0.37062105536460876,0.17336194217205048,-0.20721599459648132
1788862124527764200,5.40276416015625,-0.37880733609199524,0.15732836723327637,-0.23839588463306427
1788862124537806300,5.412806396484375,-0.3513754606246948,0.11865980923175812,-0.2715069651603699
1788862124547847200,5.42284716796875,-0.33721020817756653,0.09482602775096893,-0.35259583592414856
1788862124557889500,5.4328896484375,-0.3199175000190735,0.2680225670337677,-0.4026035964488983
1788862124567931400,5.442931396484375,-0.24088887870311737,0.3564143180847168,-0.5249616503715515
1788862124577973200,5.45297314453125,-0.16722477972507477,0.32350748777389526,-0.6076729893684387
1788862124588015400,5.463015380859375,-0.10847534984350204,0.33664843440055847,-0.6591780185699463
1788862124598057200,5.47305712890625,-0.08554180711507797,0.3804595470428467,-0.7046248316764832
1788862124608099600,5.483099609375,-0.07714428007602692,0.43442243337631226,-0.6841791868209839
1788862124618141400,5.493141357421875,-0.03662668541073799,0.5324768424034119,-0.6207227110862732
1788862124628183300,5.503183349609375,0.039052363485097885,0.587311327457428,-0.5762428641319275
1788862124638225400,5.513225341796875,0.11561717838048935,0.5421004891395569,-0.5069809556007385
1788862124648267300,5.523267333984375,0.1977502554655075,0.5167392492294312,-0.43622612953186035
1788862124658309400,5.533309326171875,0.28496772050857544,0.5056354999542236,-0.40490230917930603
1788862124668351500,5.5433515625,0.3631507158279419,0.5419882535934448,-0.41775304079055786
1788862124678393300,5.553393310546875,0.41682031750679016,0.5902231335639954,-0.47927340865135193
1788862124688435200,5.563435302734375,0.441632479429245,0.5837990641593933,-0.553421676158905
1788862124698477300,5.573477294921875,0.44722050428390503,0.5331994295120239,-0.5943320989608765
1788862124708519400,5.58351953125,0.46556299924850464,0.4012046456336975,-0.5965673923492432
1788862124718561500,5.5935615234375,0.48228657245635986,0.2776976227760315,-0.553989052772522
1788862124728603400,5.603603271484375,0.4973456859588623,0.1117512583732605,-0.46647289395332336
1788862124738645200,5.613645263671875,0.5261445641517639,0.02126583456993103,-0.3800722360610962
1788862124748687400,5.623687255859375,0.550848126411438,0.02945616841316223,-0.2805708944797516
1788862124758729500,5.6337294921875,0.579310953617096,0.07085821032524109,-0.18258123099803925
1788862124768771300,5.643771240234375,0.6248393058776855,0.11535248160362244,-0.12968264520168304
1788862124778813400,5.6538134765625,0.6583756804466248,0.18568842113018036,-0.16998238861560822
1788862124788855300,5.663855224609375,0.6914297938346863,0.253752738237381,-0.24017736315727234
1788862124798897200,5.673897216796875,0.7058238983154297,0.24725915491580963,-0.28944531083106995
1788862124808939500,5.683939453125,0.6923278570175171,0.19864872097969055,-0.2786950469017029
1788862124818980400,5.69398046875,0.6393221616744995,0.14534129202365875,-0.2716728150844574
1788862124829022500,5.7040224609375,0.5798958539962769,0.18499791622161865,-0.2584228217601776
1788862124839064300,5.714064208984375,0.5391619801521301,0.30475255846977234,-0.20568931102752686
1788862124849106400,5.7241064453125,0.5054799318313599,0.3567824363708496,-0.14380274713039398
1788862124859148300,5.734148193359375,0.4809300899505615,0.3184374272823334,-0.13986153900623322
1788862124869190400,5.7441904296875,0.425487220287323,0.30577000975608826,-0.173305481672287
1788862124879232500,5.754232421875,0.36977440118789673,0.26451125741004944,-0.16350425779819489
1788862124889274400,5.7642744140625,0.29697808623313904,0.3008916974067688,-0.09536781907081604
1788862124899316200,5.774316162109375,0.2329636812210083,0.39071187376976013,-0.003433366073295474
1788862124909358300,5.7843583984375,0.1777426302433014,0.4494411051273346,0.06210508942604065
1788862124919400400,5.794400390625,0.10684369504451752,0.47950688004493713,0.12846334278583527
1788862124929442300,5.8044423828125,0.04961157590150833,0.4737169146537781,0.1940487176179886
1788862124939484400,5.814484375,-0.0029869202990084887,0.46210741996765137,0.2370593100786209
1788862124949526300,5.8245263671875,-0.0536220446228981,0.4626893699169159,0.27735427021980286
1788862124959568400,5.834568359375,-0.10094881057739258,0.48569801449775696,0.352585107088089
1788862124969610500,5.844610595703125,-0.11717619746923447,0.49196264147758484,0.39146384596824646
1788862124979652400,5.85465234375,-0.12200930714607239,0.47124484181404114,0.43811309337615967
1788862124989694500,5.864694580078125,-0.16917185485363007,0.48789912462234497,0.509177565574646
1788862124999736300,5.874736328125,-0.25301694869995117,0.48690176010131836,0.5953159332275391
1788862125009778200,5.884778076171875,-0.3290284276008606,0.456620454788208,0.6721556782722473
1788862125019820500,5.894820556640625,-0.3898651599884033,0.4382398724555969,0.7265499234199524
1788862125029862400,5.9048623046875,-0.4234086871147156,0.4213155508041382,0.7517433762550354
1788862125039904300,5.914904296875,-0.43802890181541443,0.4024803340435028,0.7631752490997314
1788862125049946400,5.9249462890625,-0.42630529403686523,0.3866649568080902,0.7733856439590454
1788862125059988200,5.93498828125,-0.4039115905761719,0.38988977670669556,0.7830933928489685
1788862125070030300,5.9450302734375,-0.3694281578063965,0.3985576033592224,0.7843747735023499
1788862125080072400,5.955072509765625,-0.32365748286247253,0.41851454973220825,0.7975723147392273
1788862125090113300,5.96511328125,-0.27108797430992126,0.42799967527389526,0.7924051284790039
1788862125100155400,5.9751552734375,-0.21448995172977448,0.4002969264984131,0.7986403703689575
1788862125110197200,5.985197265625,-0.15504620969295502,0.3704882860183716,0.8124943375587463
1788862125120239400,5.9952392578125,-0.12350746244192123,0.3797076344490051,0.8464787006378174
1788862125130280700,6.00528076171875,-0.1166975200176239,0.39734116196632385,0.8949499726295471
1788862125140322800,6.01532275390625,-0.12168028950691223,0.4258817434310913,0.9588062167167664
1788862125150365000,6.025364990234375,-0.10754300653934479,0.4096906781196594,1.0188440084457397
1788862125160406800,6.03540673828125,-0.08214603364467621,0.40727493166923523,1.0884464979171753
1788862125170449000,6.045448974609375,-0.037855278700590134,0.41720452904701233,1.1444121599197388
1788862125180490800,6.05549072265625,0.003600818570703268,0.42787688970565796,1.1702656745910645
1788862125190532900,6.065532958984375,0.015172786079347134,0.45971575379371643,1.1896499395370483
1788862125200575000,6.075574951171875,0.014613255858421326,0.5236526131629944,1.1919019222259521
1788862125210616800,6.085616943359375,0.00896253902465105,0.5704872608184814,1.1986545324325562
1788862125220658700,6.09565869140625,0.01445930264890194,0.6113627552986145,1.2099820375442505
1788862125230700800,6.10570068359375,0.01595463789999485,0.664393961429596,1.215233325958252
1788862125240743000,6.115742919921875,0.0258240457624197,0.6953164935112,1.2126665115356445
1788862125250784800,6.12578466796875,0.038315899670124054,0.705703616142273,1.212962031364441
1788862125260827000,6.135826904296875,0.05213823914527893,0.7197217345237732,1.2323205471038818
1788862125270868700,6.14586865234375,0.07347740978002548,0.7368499636650085,1.2611191272735596
1788862125280910800,6.155910888671875,0.12371554225683212,0.7320219278335571,1.2903046607971191
1788862125290953000,6.165952880859375,0.1860828995704651,0.6947833299636841,1.3074743747711182
1788862125300994800,6.175994873046875,0.25329577922821045,0.6358800530433655,1.2871054410934448
1788862125311037000,6.186036865234375,0.31726765632629395,0.5570529699325562,1.2475568056106567
1788862125321078800,6.196078857421875,0.37632298469543457,0.505435585975647,1.209279179573059
1788862125331119900,6.206119873046875,0.4303096532821655,0.45561039447784424,1.187106728553772
1788862125341161700,6.21616162109375,0.49016207456588745,0.44352734088897705,1.1855151653289795
1788862125351203800,6.226203857421875,0.5408319234848022,0.4966371953487396,1.2297539710998535
1788862125361246000,6.236245849609375,0.5658566355705261,0.5470210313796997,1.2715011835098267
1788862125371287800,6.246287841796875,0.557508647441864,0.5766438841819763,1.2860107421875
1788862125381329700,6.25632958984375,0.5368995070457458,0.5688855648040771,1.2794865369796753
1788862125391371800,6.266371826171875,0.5216498970985413,0.5649394392967224,1.294146180152893
1788862125401414000,6.276413818359375,0.5198927521705627,0.5321916341781616,1.328593373298645
1788862125411455700,6.286455810546875,0.5128365755081177,0.46116551756858826,1.367910385131836
1788862125421497900,6.296497802734375,0.48681026697158813,0.387813538312912,1.3905930519104004
1788862125431539700,6.306539794921875,0.4333443343639374,0.3511422872543335,1.4135035276412964
1788862125441581800,6.316581787109375,0.36418044567108154,0.34208008646965027,1.4372144937515259
1788862125451624000,6.3266240234375,0.29031461477279663,0.34613436460494995,1.4643205404281616
1788862125461665800,6.336665771484375,0.2258426994085312,0.3351861238479614,1.477892279624939
1788862125471708000,6.3467080078125,0.1774015724658966,0.32258397340774536,1.4761838912963867
1788862125481749800,6.356749755859375,0.12838342785835266,0.3157907724380493,1.4594595432281494
1788862125491791600,6.36679150390625,0.09382899850606918,0.29547572135925293,1.4277570247650146
1788862125501834000,6.376833984375,0.07588382065296173,0.25663670897483826,1.3805325031280518
1788862125511875800,6.386875732421875,0.06830967217683792,0.17464560270309448,1.3289952278137207
1788862125521917700,6.396917724609375,0.06371625512838364,0.0918378010392189,1.282348394393921
1788862125531959800,6.406959716796875,0.061154164373874664,0.04226000979542732,1.2362451553344727
1788862125542002000,6.417001953125,0.06641524285078049,0.061529841274023056,1.1871944665908813
1788862125552044000,6.4270439453125,0.06732085347175598,0.13705962896347046,1.122451901435852
1788862125562084900,6.4370849609375,0.04725899547338486,0.19603879749774933,1.0499731302261353
1788862125572127000,6.447126953125,0.011436117812991142,0.2007598578929901,0.9851812124252319
1788862125582168800,6.4571689453125,-0.025493670254945755,0.18668772280216217,0.9531772136688232
1788862125592210700,6.467210693359375,-0.06602004170417786,0.19657763838768005,0.9474037289619446
1788862125602253000,6.477253173828125,-0.09083537757396698,0.2483697384595871,0.9413250684738159
1788862125612295000,6.487294921875,-0.11166316270828247,0.30249184370040894,0.9282209873199463
1788862125622336800,6.497336669921875,-0.14518117904663086,0.3270547091960907,0.9048858284950256
1788862125632379000,6.50737890625,-0.1763092279434204,0.3078826665878296,0.879539966583252
1788862125642420700,6.517420654296875,-0.2043382078409195,0.23635147511959076,0.8436562418937683
1788862125652462800,6.527462890625,-0.2273096740245819,0.16074799001216888,0.8175812363624573
1788862125662505000,6.5375048828125,-0.23055820167064667,0.1156255230307579,0.8060207366943359
1788862125672546800,6.547546875,-0.22447608411312103,0.07839610427618027,0.7824624180793762
1788862125682589000,6.5575888671875,-0.19274398684501648,0.0407901406288147,0.73309725522995
1788862125692630800,6.567630859375,-0.15180528163909912,0.025744356215000153,0.6627071499824524
1788862125702673000,6.5776728515625,-0.1124674528837204,0.08318501710891724,0.5964059233665466
1788862125712715000,6.587715087890625,-0.06878944486379623,0.13431617617607117,0.5107719302177429
1788862125722756900,6.5977568359375,-0.02718793973326683,0.13542325794696808,0.4007790982723236
1788862125732798700,6.607798828125,-0.001267699059098959,0.11973103880882263,0.29692307114601135
1788862125742840800,6.6178408203125,0.03391185775399208,0.1352306455373764,0.2356538623571396
1788862125752883000,6.627883056640625,0.07422854006290436,0.16960129141807556,0.20308277010917664
1788862125762924800,6.6379248046875,0.10293715447187424,0.1731877624988556,0.18128666281700134
1788862125772967000,6.647966796875,0.13338255882263184,0.11115173250436783,0.18936565518379211
1788862125783007700,6.6580078125,0.16777782142162323,0.04106878489255905,0.22283226251602173
1788862125793049900,6.6680498046875,0.2026692032814026,0.016585249453783035,0.2441433221101761
1788862125803091700,6.678091796875,0.21776612102985382,-0.012554261833429337,0.23775652050971985
1788862125813134000,6.688134033203125,0.21856364607810974,-0.04053618758916855,0.21064050495624542
1788862125823176000,6.698176025390625,0.20941674709320068,-0.038826972246170044,0.16559633612632751
1788862125833217800,6.7082177734375,0.2057662457227707,-0.013754456304013729,0.10247159004211426
1788862125843260000,6.718260009765625,0.2043052464723587,-0.017608316615223885,0.011203992180526257
1788862125853301800,6.7283017578125,0.21099667251110077,-0.08579351752996445,-0.06617173552513123
1788862125863343900,6.73834375,0.2094525843858719,-0.17650318145751953,-0.11510545760393143
1788862125873386000,6.748385986328125,0.19490507245063782,-0.2197137475013733,-0.1375211626291275
1788862125883427800,6.758427734375,0.17863929271697998,-0.17396490275859833,-0.1456983983516693
1788862125893469700,6.7684697265625,0.179428368806839,-0.05376342311501503,-0.14716392755508423
1788862125903511800,6.77851171875,0.18221616744995117,0.0425838828086853,-0.1549840271472931
1788862125913554000,6.788553955078125,0.16400036215782166,0.0714854896068573,-0.16948391497135162
1788862125923596000,6.798595947265625,0.1396140605211258,0.035787951201200485,-0.1924920380115509
1788862125933638000,6.808637939453125,0.12261179089546204,-0.04726577550172806,-0.21575602889060974
1788862125943679700,6.8186796875,0.11328273266553879,-0.13987401127815247,-0.23998920619487762
1788862125953721900,6.828721923828125,0.1018090695142746,-0.19208228588104248,-0.2687840163707733
1788862125963764000,6.838763916015625,0.07603952288627625,-0.223122239112854,-0.29850462079048157
1788862125973805800,6.848805908203125,0.054609302431344986,-0.24551786482334137,-0.3318564295768738
1788862125983847000,6.858846923828125,0.035897932946681976,-0.28026705980300903,-0.3456233739852905
1788862125993888800,6.868888671875,0.0035460360813885927,-0.31286659836769104,-0.341097354888916
1788862126003931000,6.878930908203125,-0.03696703538298607,-0.3054680824279785,-0.33527541160583496
1788862126013972700,6.88897265625,-0.07173165678977966,-0.22127220034599304,-0.35290300846099854
1788862126024014800,6.899014892578125,-0.0852474644780159,-0.10089491307735443,-0.39799484610557556
1788862126034057000,6.909056884765625,-0.100785993039608,0.015209239907562733,-0.45534318685531616
1788862126044098800,6.919098876953125,-0.10571310669183731,0.07532051205635071,-0.5159575343132019
1788862126054141000,6.929140869140625,-0.099724680185318,0.06255578249692917,-0.5563321709632874
1788862126064182800,6.939182861328125,-0.07751098275184631,0.0327446274459362,-0.5589905381202698
1788862126074225000,6.949224853515625,-0.049380719661712646,0.04504743590950966,-0.5116280913352966
1788862126084267000,6.95926708984375,-0.03032287023961544,0.10678377002477646,-0.4223264157772064
1788862126094308900,6.969308837890625,-0.049515724182128906,0.1420040875673294,-0.35696661472320557
1788862126104350700,6.979350830078125,-0.06762655079364777,0.11739755421876907,-0.3427858352661133
1788862126114392800,6.989392822265625,-0.07012377679347992,0.04559849947690964,-0.3559207022190094
1788862126124435000,6.99943505859375,-0.07281623035669327,-0.04965797811746597,-0.3876512050628662
1788862126134477000,7.00947705078125,-0.0812343955039978,-0.13205265998840332,-0.4538993239402771
1788862126144519200,7.019519287109375,-0.08044343441724777,-0.15865550935268402,-0.5200762152671814
1788862126154561000,7.02956103515625,-0.057102810591459274,-0.1608591228723526,-0.5424633622169495
1788862126164603100,7.03960302734375,-0.03314101696014404,-0.15545210242271423,-0.5151217579841614
1788862126174645200,7.049645263671875,-0.02187114953994751,-0.1453222930431366,-0.4661708474159241
1788862126184686000,7.05968603515625,-0.028325585648417473,-0.1372273564338684,-0.44276219606399536
1788862126194728200,7.069728271484375,-0.03977266699075699,-0.16314074397087097,-0.4837110638618469
1788862126204770000,7.07977001953125,-0.027474457398056984,-0.19894641637802124,-0.5585951805114746
1788862126214812200,7.089812255859375,0.01655622199177742,-0.2392178475856781,-0.6312743425369263
1788862126224854300,7.099854248046875,0.07268501073122025,-0.2820020616054535,-0.6490349769592285
1788862126234896100,7.109896240234375,0.09795913100242615,-0.30189111828804016,-0.6104326248168945
1788862126244938200,7.119938232421875,0.10341168195009232,-0.30737748742103577,-0.5815505981445312
1788862126254980000,7.12997998046875,0.09867695719003677,-0.3133351802825928,-0.5887957811355591
1788862126265022000,7.14002197265625,0.0959906280040741,-0.30661335587501526,-0.6090229749679565
1788862126275064300,7.150064208984375,0.08948958665132523,-0.2922557294368744,-0.6280211806297302
1788862126285106200,7.160106201171875,0.07056675851345062,-0.2645474076271057,-0.6373379826545715
1788862126295148000,7.17014794921875,0.0391751304268837,-0.26791536808013916,-0.6365367770195007
1788862126305190100,7.180190185546875,0.029049793258309364,-0.2999665141105652,-0.6371772885322571
1788862126315232000,7.19023193359375,0.034127671271562576,-0.3388643264770508,-0.6382926106452942
1788862126325274000,7.200274169921875,0.056984785944223404,-0.38696715235710144,-0.6565208435058594
1788862126335316200,7.210316162109375,0.09824392944574356,-0.4397293031215668,-0.692034125328064
1788862126345358000,7.220358154296875,0.13683979213237762,-0.493880957365036,-0.7370977401733398
1788862126355400200,7.230400146484375,0.14971312880516052,-0.5200601816177368,-0.7646533250808716
1788862126365442000,7.240442138671875,0.12825018167495728,-0.45562925934791565,-0.7381913065910339
1788862126375483100,7.250483154296875,0.07861253619194031,-0.3560151755809784,-0.6939579844474792
1788862126385525200,7.260525146484375,0.020223531872034073,-0.28175291419029236,-0.6842086911201477
1788862126395567000,7.270567138671875,-0.009863477200269699,-0.25358909368515015,-0.7310035824775696
1788862126405609200,7.280609130859375,0.00015719840303063393,-0.3468726873397827,-0.7844505310058594
1788862126415651000,7.290651123046875,0.02922026813030243,-0.47659793496131897,-0.7922026515007019
1788862126425693000,7.30069287109375,0.031851474195718765,-0.5484769344329834,-0.7948812246322632
1788862126435735300,7.3107353515625,0.014324109070003033,-0.6044073700904846,-0.8405583500862122
1788862126445777200,7.320777099609375,0.00768937636166811,-0.6944435238838196,-0.8923680186271667
1788862126455819000,7.330819091796875,0.008590607903897762,-0.777821958065033,-0.9114210605621338
1788862126465861000,7.340861083984375,-0.006919642444700003,-0.7964105606079102,-0.8950348496437073
1788862126475903000,7.350903076171875,-0.025191335007548332,-0.7859217524528503,-0.8711926341056824
1788862126485945300,7.3609453125,-0.03654465824365616,-0.7865510582923889,-0.9022117853164673
1788862126495987200,7.3709873046875,-0.016032304614782333,-0.7773216962814331,-0.976818323135376
1788862126506029000,7.381029052734375,0.018602637574076653,-0.78807532787323,-1.0349482297897339
1788862126516071200,7.3910712890625,0.04408508166670799,-0.7951608896255493,-1.0286314487457275
1788862126526113000,7.401113037109375,0.06636162847280502,-0.7419730424880981,-0.9835396409034729
1788862126536155100,7.411155029296875,0.07407297194004059,-0.6158152222633362,-0.9815438985824585
1788862126546197200,7.421197265625,0.08261346071958542,-0.5129551887512207,-0.9891387224197388
1788862126556238000,7.431238037109375,0.09968845546245575,-0.4747069478034973,-0.995018720626831
1788862126566280200,7.4412802734375,0.14593052864074707,-0.5082321166992188,-1.022548794746399
1788862126576322000,7.451322021484375,0.19849692285060883,-0.5526138544082642,-1.0238513946533203
1788862126586364000,7.461364013671875,0.2283397763967514,-0.5654260516166687,-1.0328552722930908
1788862126596406300,7.47140625,0.23722071945667267,-0.5610842704772949,-1.0420153141021729
1788862126606448000,7.4814482421875,0.2222135365009308,-0.5118227005004883,-1.0558804273605347
1788862126616490200,7.491490234375,0.2057635635137558,-0.4732895791530609,-1.0532881021499634
1788862126626532000,7.501531982421875,0.19869208335876465,-0.4907980263233185,-1.0754884481430054
1788862126636574000,7.511573974609375,0.22441545128822327,-0.5658769011497498,-1.1355115175247192
1788862126646616300,7.5216162109375,0.2640555202960968,-0.6709380745887756,-1.1857815980911255
1788862126656658200,7.531658203125,0.2954302728176117,-0.689312756061554,-1.2000616788864136
1788862126666700000,7.541699951171875,0.31294241547584534,-0.6566325426101685,-1.1968663930892944
1788862126676742100,7.5517421875,0.3388659954071045,-0.6578777432441711,-1.1930605173110962
1788862126686784000,7.561783935546875,0.36904093623161316,-0.6936985850334167,-1.1828045845031738
1788862126696826000,7.571826171875,0.37969306111335754,-0.6921606063842773,-1.148895263671875
1788862126706868200,7.5818681640625,0.3737126588821411,-0.6783435940742493,-1.0992342233657837
1788862126716910000,7.59191015625,0.3840535581111908,-0.6941916942596436,-1.07294762134552
1788862126726951200,7.601951171875,0.4050861597061157,-0.7259565591812134,-1.0817285776138306
1788862126736993000,7.611992919921875,0.4117334485054016,-0.7762998342514038,-1.1200940608978271
1788862126747035100,7.62203515625,0.41244158148765564,-0.7989180684089661,-1.1331291198730469
1788862126757077200,7.6320771484375,0.39139804244041443,-0.8066303730010986,-1.160972237586975
1788862126767119000,7.642119140625,0.36489346623420715,-0.8111534714698792,-1.199978232383728
1788862126777161200,7.6521611328125,0.33091115951538086,-0.7429947257041931,-1.2095751762390137
1788862126787203000,7.662203125,0.2842264771461487,-0.6662347316741943,-1.1791095733642578
1788862126797245000,7.672244873046875,0.2450210005044937,-0.6242111325263977,-1.1551272869110107
1788862126807287300,7.682287353515625,0.2157832235097885,-0.5579213500022888,-1.135912299156189
1788862126817329200,7.6923291015625,0.19697438180446625,-0.4790387451648712,-1.090643048286438
1788862126827371000,7.70237109375,0.15994152426719666,-0.44849255681037903,-1.0362682342529297
1788862126837413000,7.7124130859375,0.12153035402297974,-0.3925705552101135,-1.0307315587997437
1788862126847455000,7.722455078125,0.08817080408334732,-0.282107949256897,-1.0579115152359009
1788862126857497000,7.7324970703125,0.0702240839600563,-0.10601270198822021,-1.0474680662155151
1788862126867539200,7.742539306640625,0.0651470348238945,0.01603091135621071,-1.095893383026123
1788862126877581000,7.7525810546875,0.03873283416032791,0.11852752417325974,-1.1317836046218872
1788862126887623200,7.762623046875,0.045444000512361526,0.2019992470741272,-1.1327570676803589
1788862126897664000,7.7726640625,0.07654863595962524,0.30427977442741394,-1.1136009693145752
1788862126907706000,7.7827060546875,0.12090757489204407,0.39307835698127747,-1.120622158050537
1788862126917748200,7.792748291015625,0.15943633019924164,0.4481586515903473,-1.0676825046539307
1788862126927790000,7.8027900390625,0.1468435674905777,0.5257958769798279,-0.9738689661026001
1788862126937832200,7.812832275390625,0.08269203454256058,0.5492997169494629,-0.8932437896728516
1788862126947874000,7.8228740234375,0.01910214312374592,0.5746364593505859,-0.7977380752563477
1788862126957916000,7.832916015625,-0.008880499750375748,0.6331878900527954,-0.6880714893341064
1788862126967958300,7.842958251953125,-0.008519375696778297,0.5718478560447693,-0.6343509554862976
1788862126978000100,7.853000244140625,-0.012976028956472874,0.5466204285621643,-0.579685628414154
1788862126988042200,7.863042236328125,-0.017301268875598907,0.592896580696106,-0.5140419602394104
1788862126998084000,7.873083984375,-0.0030710597056895494,0.6914459466934204,-0.44835716485977173
1788862127008126000,7.8831259765625,0.0029748487286269665,0.6763676404953003,-0.33824318647384644
1788862127018168300,7.893168212890625,-0.00818342063575983,0.6098893284797668,-0.23934845626354218
1788862127028210200,7.903210205078125,-0.028936367481946945,0.6083263158798218,-0.13659518957138062
1788862127038252000,7.913251953125,-0.0435323603451252,0.6196954250335693,0.0013500466011464596
1788862127048294100,7.923294189453125,-0.07439573109149933,0.6053153872489929,0.1507382094860077
1788862127058335000,7.9333349609375,-0.10749750584363937,0.6519656777381897,0.27066248655319214
1788862127068377000,7.943377197265625,-0.14704863727092743,0.6962748169898987,0.38091841340065
1788862127078419200,7.953419189453125,-0.17797628045082092,0.6545526385307312,0.4777630865573883
1788862127088461000,7.9634609375,-0.21542271971702576,0.5957537889480591,0.6189053058624268
1788862127098503200,7.973503173828125,-0.23815245926380157,0.574312150478363,0.7805100083351135
1788862127108545000,7.983544921875,-0.2642674148082733,0.5457396507263184,0.8696774244308472
1788862127118587100,7.993587158203125,-0.27409735321998596,0.4929106533527374,0.930600106716156
1788862127128629200,8.003629150390625,-0.2778153717517853,0.49574926495552063,0.9948523640632629
1788862127138671400,8.01367138671875,-0.2463642805814743,0.5519185066223145,1.063720464706421
1788862127148713500,8.02371337890625,-0.1912831962108612,0.5749614834785461,1.0900501012802124
1788862127158755300,8.03375537109375,-0.14021307229995728,0.50188148021698,1.1376789808273315
1788862127168797200,8.043797119140624,-0.11770031601190567,0.4162653386592865,1.2222650051116943
1788862127178839600,8.053839599609375,-0.11490635573863983,0.4006451666355133,1.2801588773727417
1788862127188881400,8.06388134765625,-0.1183125376701355,0.4089265465736389,1.3148356676101685
1788862127198923300,8.07392333984375,-0.12631696462631226,0.3848312497138977,1.3493144512176514
1788862127208965400,8.08396533203125,-0.1658707708120346,0.3662402629852295,1.4215670824050903
1788862127219006200,8.094006103515625,-0.2342495620250702,0.3584824502468109,1.476020336151123
1788862127229048300,8.10404833984375,-0.29335176944732666,0.35635828971862793,1.486020803451538
1788862127239090400,8.11409033203125,-0.3273456394672394,0.36676016449928284,1.5157369375228882
1788862127249132300,8.12413232421875,-0.33115503191947937,0.3687801659107208,1.5425018072128296
1788862127259174400,8.13417431640625,-0.29626843333244324,0.3580412268638611,1.566401720046997
1788862127269216300,8.14421630859375,-0.24343320727348328,0.38732317090034485,1.6125484704971313
1788862127279258400,8.15425830078125,-0.20635390281677246,0.4217134714126587,1.689590334892273
1788862127289300500,8.164300537109375,-0.18545421957969666,0.4377443492412567,1.7411912679672241
1788862127299342300,8.17434228515625,-0.18224972486495972,0.40066856145858765,1.7374578714370728
1788862127309384400,8.184384521484375,-0.19033081829547882,0.37238258123397827,1.684461236000061
1788862127319426300,8.19442626953125,-0.2310059517621994,0.34815940260887146,1.5883733034133911
1788862127329468200,8.20446826171875,-0.28721490502357483,0.31882548332214355,1.5292854309082031
1788862127339510500,8.214510498046875,-0.3455466330051422,0.31101125478744507,1.5629385709762573
1788862127349552400,8.224552490234375,-0.40240246057510376,0.33127260208129883,1.667639136314392
1788862127359594200,8.23459423828125,-0.4573669135570526,0.32219088077545166,1.7771943807601929
1788862127369635300,8.24463525390625,-0.5066231489181519,0.29031842947006226,1.8442392349243164
1788862127379677200,8.25467724609375,-0.5366833209991455,0.27797502279281616,1.8693504333496094
1788862127389719300,8.26471923828125,-0.5429763793945312,0.26729413866996765,1.8515775203704834
1788862127399761400,8.274761474609376,-0.5130589008331299,0.22215226292610168,1.7882423400878906
1788862127409803300,8.28480322265625,-0.47788870334625244,0.11482048034667969,1.698531150817871
1788862127419845400,8.294845458984375,-0.4545310139656067,-0.03291560336947441,1.6110248565673828
1788862127429887200,8.30488720703125,-0.4496651589870453,-0.14010784029960632,1.573941946029663
1788862127439929300,8.314929443359375,-0.43799230456352234,-0.1532852053642273,1.600597620010376
1788862127449971500,8.324971435546875,-0.4099779725074768,-0.1057371199131012,1.6213254928588867
1788862127460013300,8.335013427734374,-0.35911160707473755,-0.008304101414978504,1.6030843257904053
1788862127470055400,8.345055419921875,-0.3067980706691742,0.12512052059173584,1.5641528367996216
1788862127480097300,8.35509716796875,-0.26894599199295044,0.24358393251895905,1.5206189155578613
1788862127490139100,8.36513916015625,-0.2563777267932892,0.260079562664032,1.4676625728607178
1788862127500181500,8.375181396484376,-0.27892449498176575,0.15742617845535278,1.4137275218963623
1788862127510222300,8.385222412109375,-0.3164644241333008,0.044901225715875626,1.3808526992797852
1788862127520264400,8.395264404296874,-0.3697792589664459,0.030374012887477875,1.381095290184021
1788862127530306300,8.405306396484375,-0.4271099269390106,0.13927705585956573,1.406625747680664
1788862127540348400,8.415348388671875,-0.4524001181125641,0.2901417016983032,1.4248629808425903
1788862127550390300,8.425390380859374,-0.42956802248954773,0.4284159541130066,1.419340968132019
1788862127560432400,8.435432373046876,-0.374996155500412,0.5052803158760071,1.3691542148590088
1788862127570474500,8.445474609375,-0.3040015995502472,0.4791554808616638,1.285630226135254
1788862127580516400,8.455516357421875,-0.23073267936706543,0.36836540699005127,1.1933631896972656
1788862127590558200,8.46555810546875,-0.15411433577537537,0.252793550491333,1.1074399948120117
1788862127600600300,8.475600341796875,-0.09605583548545837,0.23146720230579376,1.0419033765792847
1788862127610642400,8.485642333984375,-0.06098919361829758,0.2885102331638336,1.01593017578125
1788862127620684300,8.495684326171874,-0.02884029969573021,0.3745170831680298,1.0140866041183472
1788862127630726400,8.505726318359375,0.005911287385970354,0.44770100712776184,1.006030559539795
1788862127640768300,8.515768310546875,0.04902929812669754,0.46481770277023315,0.9677151441574097
1788862127650810400,8.525810302734374,0.0791909322142601,0.39976975321769714,0.8967573046684265
1788862127660851200,8.535851318359375,0.09527962654829025,0.28662803769111633,0.8306072354316711
1788862127670893300,8.545893310546875,0.10512692481279373,0.21419857442378998,0.8007254600524902
1788862127680935400,8.555935302734374,0.13224110007286072,0.18454693257808685,0.7989665865898132
1788862127690977300,8.565977294921876,0.16911469399929047,0.1789417862892151,0.7867833971977234
1788862127701019400,8.576019287109375,0.19192245602607727,0.19745445251464844,0.7521230578422546
1788862127711061200,8.586061279296874,0.18730506300926208,0.2118871808052063,0.6949090361595154
1788862127721103400,8.596103271484376,0.16341324150562286,0.17381712794303894,0.6028465032577515
1788862127731145500,8.6061455078125,0.1093638613820076,0.09698572754859924,0.45370835065841675
1788862127741187300,8.616187255859375,0.05097673460841179,0.01323788147419691,0.24101018905639648
1788862127751229200,8.626229248046876,-0.0003548965323716402,-0.039117470383644104,0.011043568141758442
1788862127761271300,8.636271240234375,-0.0367610789835453,-0.01719292625784874,-0.19093380868434906
1788862127771313400,8.6463134765625,-0.07078748941421509,0.09748944640159607,-0.3656315803527832
1788862127781355300,8.656355224609374,-0.10222332179546356,0.24322597682476044,-0.4928152859210968
1788862127791397400,8.6663974609375,-0.10611659288406372,0.3535889983177185,-0.570554256439209
1788862127801438200,8.676438232421875,-0.07328300178050995,0.38772299885749817,-0.6037387251853943
1788862127811480300,8.686480224609374,-0.03279256820678711,0.3319295048713684,-0.612723708152771
1788862127821522200,8.696522216796875,-0.0005472931079566479,0.20382024347782135,-0.6151356101036072
1788862127831564500,8.706564453125,0.01724395528435707,0.10969562083482742,-0.6322320103645325
1788862127841606400,8.7166064453125,0.028258800506591797,0.08911900222301483,-0.6687304973602295
1788862127851648300,8.726648193359376,0.03128468617796898,0.08229518681764603,-0.6977043747901917
1788862127861690400,8.7366904296875,0.03128362447023392,0.06144584342837334,-0.6920083165168762
1788862127871732200,8.746732177734375,0.020543362945318222,0.09035711735486984,-0.6521658301353455
1788862127881774300,8.7567744140625,0.0023635420948266983,0.15893639624118805,-0.5966029167175293
1788862127891816400,8.76681640625,-0.025281401351094246,0.2237928956747055,-0.5362354516983032
1788862127901858300,8.7768583984375,-0.05738738179206848,0.28070124983787537,-0.49430376291275024
1788862127911900200,8.786900146484374,-0.07690781354904175,0.31215450167655945,-0.4666154086589813
1788862127921942300,8.7969423828125,-0.06695932149887085,0.34154218435287476,-0.43880531191825867
1788862127931984400,8.806984375,-0.059053994715213776,0.3759443759918213,-0.42207133769989014
1788862127942025500,8.817025390625,-0.05237135663628578,0.40066614747047424,-0.42424511909484863
1788862127952067300,8.8270673828125,-0.02521270513534546,0.39922964572906494,-0.46100395917892456
1788862127962109400,8.837109375,0.02022325061261654,0.3532393276691437,-0.5265450477600098
1788862127972151300,8.8471513671875,0.057918697595596313,0.29736408591270447,-0.6073525547981262
1788862127982193200,8.857193115234375,0.07307834178209305,0.2927316427230835,-0.6986958384513855
1788862127992235500,8.867235595703125,0.08947914838790894,0.2730114459991455,-0.7631195783615112
1788862128002277400,8.87727734375,0.10295635461807251,0.19460457563400269,-0.7811168432235718
1788862128012319200,8.8873193359375,0.10743286460638046,0.09722049534320831,-0.7504473328590393
1788862128022361300,8.897361328125,0.09238986670970917,0.04042394831776619,-0.70378577709198
1788862128032403200,8.9074033203125,0.055787649005651474,0.04832501336932182,-0.7117592692375183
1788862128042445300,8.9174453125,0.015320231206715107,0.10008815675973892,-0.7830618619918823
1788862128052487400,8.9274873046875,-0.002971158130094409,0.0967903658747673,-0.8743782043457031
1788862128062528300,8.9375283203125,0.009533308446407318,0.013576553203165531,-0.9473717212677002
1788862128072570400,8.9475703125,0.031590674072504044,-0.10698661208152771,-0.995355486869812
1788862128082612200,8.9576123046875,0.0581999346613884,-0.1857985407114029,-1.0137662887573242
1788862128092654300,8.967654296875,0.0901179239153862,-0.21234306693077087,-1.0072154998779297
1788862128102696400,8.977696533203124,0.1436317414045334,-0.17653235793113708,-0.977592945098877
1788862128112738300,8.98773828125,0.19975066184997559,-0.08456622064113617,-0.9506345391273499
1788862128122780400,8.997780517578125,0.24013736844062805,0.00907145719975233,-0.9605095982551575
1788862128132822300,9.007822265625,0.2696377635002136,0.04842658340930939,-1.0139304399490356
1788862128142864100,9.017864013671876,0.324383020401001,0.017681989818811417,-1.0520358085632324
1788862128152906500,9.027906494140625,0.3872799575328827,-0.05156286433339119,-1.0245397090911865
1788862128162948400,9.0379482421875,0.4212242066860199,-0.12461559474468231,-0.9666990041732788
1788862128172990200,9.047990234375,0.42601391673088074,-0.19380532205104828,-0.920883059501648
1788862128183032300,9.0580322265625,0.4141339361667633,-0.3165636360645294,-0.8789598345756531
1788862128193074200,9.06807421875,0.37933361530303955,-0.4473133981227875,-0.8947263360023499
1788862128203115300,9.078115234375,0.32466399669647217,-0.6096780300140381,-0.9755648970603943
1788862128213157400,9.088157470703125,0.2854771614074707,-0.8062994480133057,-1.089024305343628
1788862128223199500,9.098199462890625,0.2627754211425781,-0.9814443588256836,-1.181058645248413
1788862128233241300,9.108241455078126,0.24055878818035126,-1.0619155168533325,-1.2409414052963257
1788862128243283200,9.118283203125,0.21196316182613373,-1.0405993461608887,-1.2460505962371826
1788862128253325600,9.12832568359375,0.170065775513649,-0.9748454093933105,-1.2240891456604004
1788862128263367400,9.138367431640624,0.1545841246843338,-0.9410085678100586,-1.2147225141525269
1788862128273409300,9.1484091796875,0.18766963481903076,-0.9728837013244629,-1.2813678979873657
1788862128283451400,9.158451416015625,0.25220787525177,-1.0634170770645142,-1.4182989597320557
1788862128293493200,9.1684931640625,0.32839080691337585,-1.202321171760559,-1.4955692291259766
1788862128303535400,9.178535400390626,0.3811873197555542,-1.3189724683761597,-1.4739192724227905
1788862128313577500,9.188577392578125,0.38196253776550293,-1.2699843645095825,-1.4217495918273926
1788862128323619300,9.198619384765625,0.37254390120506287,-1.0803275108337402,-1.4437637329101562
1788862128333660400,9.208660400390626,0.37641745805740356,-1.0010167360305786,-1.4470999240875244
1788862128343702300,9.218702392578125,0.35414689779281616,-1.113286018371582,-1.4453551769256592
1788862128353744400,9.228744384765625,0.3160695433616638,-1.1306567192077637,-1.484528660774231
1788862128363786500,9.238786376953126,0.2821255922317505,-1.0180494785308838,-1.5663456916809082
1788862128373828400,9.248828369140625,0.2510720491409302,-0.886904776096344,-1.6145724058151245
1788862128383870500,9.258870361328125,0.2495480626821518,-0.7548494935035706,-1.6096179485321045
1788862128393912300,9.268912353515624,0.2494005262851715,-0.6553356647491455,-1.6118557453155518
1788862128403954200,9.2789541015625,0.26452434062957764,-0.6206546425819397,-1.639291524887085
1788862128413996500,9.28899658203125,0.2945445477962494,-0.604274570941925,-1.662064552307129
1788862128424038400,9.299038330078124,0.30891379714012146,-0.5219694375991821,-1.6635069847106934
1788862128434080300,9.309080322265626,0.35072222352027893,-0.42310407757759094,-1.6595183610916138
1788862128444122400,9.319122314453125,0.410910040140152,-0.3743596374988556,-1.64643394947052
1788862128454163200,9.3291630859375,0.43792036175727844,-0.31195351481437683,-1.601001262664795
1788862128464205300,9.339205322265625,0.4371119737625122,-0.1586378514766693,-1.5482792854309082
1788862128474247400,9.349247314453125,0.4167470633983612,-0.014166966080665588,-1.5425556898117065
1788862128484289300,9.359289306640624,0.398052841424942,0.12377584725618362,-1.543499231338501
1788862128494331400,9.369331298828126,0.40486761927604675,0.11196871846914291,-1.4895689487457275
1788862128504373200,9.379373291015625,0.41498181223869324,0.018818365409970284,-1.4428231716156006
1788862128514415400,9.389415283203125,0.4071579575538635,0.058249395340681076,-1.3929754495620728
1788862128524457500,9.39945751953125,0.3895742893218994,0.21430529654026031,-1.3468871116638184
1788862128534499300,9.409499267578125,0.3847299814224243,0.3539465367794037,-1.2676208019256592
1788862128544541400,9.41954150390625,0.4156980514526367,0.2819097340106964,-1.1688681840896606
1788862128554583300,9.429583251953124,0.43876075744628906,0.18160229921340942,-1.0751923322677612
1788862128564625200,9.439625244140625,0.4258822202682495,0.19495747983455658,-0.9670093655586243
1788862128574666200,9.449666259765625,0.40189221501350403,0.19354574382305145,-0.8579025864601135
1788862128584708400,9.459708251953124,0.3884039521217346,0.23235824704170227,-0.7704614996910095
1788862128594750500,9.46975048828125,0.37924373149871826,0.30899152159690857,-0.6698791980743408
1788862128604792300,9.479792236328125,0.34923577308654785,0.3516279458999634,-0.5845963954925537
1788862128614834400,9.48983447265625,0.35018599033355713,0.19280792772769928,-0.5837228894233704
1788862128624876300,9.499876220703126,0.3114318251609802,0.1675185114145279,-0.5260680317878723
1788862128634918400,9.50991845703125,0.2617340385913849,0.20750214159488678,-0.3253760039806366
1788862128644960500,9.51996044921875,0.18239326775074005,0.21700195968151093,-0.0871497318148613
1788862128655002400,9.53000244140625,0.0919981300830841,0.287767231464386,0.13674940168857574
1788862128665044200,9.540044189453125,0.006866864860057831,0.30864575505256653,0.31571149826049805
1788862128675086300,9.55008642578125,-0.04114726558327675,0.3664776384830475,0.5335168242454529
1788862128685128400,9.56012841796875,-0.05824703350663185,0.4925094246864319,0.7522926330566406
1788862128695169500,9.57016943359375,-0.0908646285533905,0.5606240034103394,0.913887083530426
1788862128705211400,9.58021142578125,-0.14682281017303467,0.5897975564002991,1.0109305381774902
1788862128715253200,9.590253173828126,-0.18830765783786774,0.6530007719993591,1.0983682870864868
1788862128725295400,9.60029541015625,-0.190666064620018,0.6393712759017944,1.1712054014205933
1788862128735337200,9.610337158203125,-0.18980559706687927,0.5565613508224487,1.2451679706573486
1788862128745379300,9.62037939453125,-0.2327818125486374,0.4959108233451843,1.3392339944839478
1788862128755421400,9.63042138671875,-0.3015478253364563,0.46028944849967957,1.4069839715957642
1788862128765463300,9.64046337890625,-0.3427810072898865,0.393862247467041,1.4178383350372314
1788862128775505400,9.65050537109375,-0.3478955924510956,0.32766538858413696,1.427379846572876
1788862128785547300,9.66054736328125,-0.3444858193397522,0.29917749762535095,1.4637150764465332
1788862128795589400,9.67058935546875,-0.3461364507675171,0.28596633672714233,1.4823132753372192
1788862128805631500,9.680631591796875,-0.3381941318511963,0.2444329410791397,1.4866970777511597
1788862128815672300,9.69067236328125,-0.3248807191848755,0.2212836891412735,1.5300383567810059
1788862128825714400,9.70071435546875,-0.2964034080505371,0.2726963758468628,1.6246991157531738
1788862128835756300,9.71075634765625,-0.2657557725906372,0.3967951536178589,1.689539909362793
1788862128845798100,9.720798095703126,-0.26051822304725647,0.5124742388725281,1.7437059879302979
1788862128855840500,9.730840576171875,-0.2876206934452057,0.5233561992645264,1.8161580562591553
1788862128865882400,9.74088232421875,-0.3305220901966095,0.47669363021850586,1.8823400735855103
1788862128875924200,9.75092431640625,-0.3642800450325012,0.46295517683029175,1.911897897720337
1788862128885966300,9.76096630859375,-0.38688576221466064,0.44853442907333374,1.8691935539245605
1788862128896008200,9.77100830078125,-0.3875936269760132,0.4220881462097168,1.7699412107467651
1788862128906050600,9.781050537109374,-0.38198378682136536,0.41008010506629944,1.7083220481872559
1788862128916092400,9.791092529296876,-0.3858879804611206,0.45923832058906555,1.7397971153259277
1788862128926134300,9.80113427734375,-0.3962648808956146,0.5318519473075867,1.8246880769729614
1788862128936175400,9.81117529296875,-0.39730164408683777,0.5594140887260437,1.921332597732544
1788862128946217200,9.82121728515625,-0.3692978322505951,0.4983886778354645,1.9864836931228638
1788862128956259300,9.83125927734375,-0.31113067269325256,0.39500313997268677,1.983641505241394
1788862128966301400,9.841301513671874,-0.2575078010559082,0.3126780092716217,1.9386875629425049
1788862128976343300,9.85134326171875,-0.2269032895565033,0.3014722466468811,1.923080325126648
1788862128986385400,9.861385498046875,-0.20765966176986694,0.3099927008152008,1.9770954847335815
1788862128996427300,9.87142724609375,-0.19246312975883484,0.30468663573265076,2.0557901859283447
1788862129006469400,9.881469482421876,-0.17864148318767548,0.2926662564277649,2.0989387035369873
1788862129016511500,9.891511474609375,-0.15422561764717102,0.26995164155960083,2.0916035175323486
1788862129026553300,9.90155322265625,-0.11977267265319824,0.19422990083694458,2.040038585662842
1788862129036595500,9.911595458984374,-0.09625882655382156,0.07827906310558319,1.9774038791656494
1788862129046637300,9.92163720703125,-0.09497574716806412,-0.021823924034833908,1.920628309249878
1788862129056678400,9.931678466796875,-0.11133874207735062,-0.06443210691213608,1.886764645576477
1788862129066720300,9.94172021484375,-0.1306445300579071,-0.0329061821103096,1.8902759552001953
1788862129076762400,9.951762451171875,-0.13726994395256042,0.051912300288677216,1.911446452140808
1788862129086804500,9.961804443359375,-0.12731783092021942,0.13018867373466492,1.9067838191986084
1788862129096846300,9.971846435546874,-0.11032047122716904,0.15030911564826965,1.8324192762374878
1788862129106888200,9.98188818359375,-0.09650850296020508,0.10787809640169144,1.7109533548355103
1788862129116930300,9.991930419921875,-0.09181042015552521,0.055638328194618225,1.5973186492919922
1788862129126972400,10.001972412109374,-0.09911120682954788,0.014758026227355003,1.5157548189163208
1788862129137014300,10.01201416015625,-0.1036902442574501,-0.037933945655822754,1.462295413017273
1788862129147056400,10.022056396484375,-0.10602504014968872,-0.10052356868982315,1.408603549003601
1788862129157098200,10.03209814453125,-0.10172216594219208,-0.11269661039113998,1.350551962852478
1788862129167139300,10.042139404296876,-0.10290301591157913,-0.05378960818052292,1.2949652671813965
1788862129177181200,10.05218115234375,-0.12414784729480743,0.04523870348930359,1.2368392944335938
1788862129187223600,10.0622236328125,-0.14833498001098633,0.14540834724903107,1.1764919757843018
1788862129197265400,10.072265380859376,-0.15890826284885406,0.19743585586547852,1.1040129661560059
1788862129207307300,10.082307373046875,-0.1629563868045807,0.18586644530296326,0.9936071038246155
1788862129217349400,10.092349365234375,-0.17074348032474518,0.11838940531015396,0.808864414691925
1788862129227391200,10.10239111328125,-0.14884333312511444,0.004279863089323044,0.5756113529205322
1788862129237433300,10.112433349609375,-0.10882826894521713,-0.1148313507437706,0.32790514826774597
1788862129247475500,10.122475341796875,-0.07022736966609955,-0.19489111006259918,0.10347764194011688
1788862129257517300,10.132517333984374,-0.04642590135335922,-0.2300000935792923,-0.06849945336580276
1788862129267559200,10.14255908203125,-0.04417581111192703,-0.17261755466461182,-0.171253502368927
1788862129277600300,10.152600341796875,-0.03595782816410065,-0.041058190166950226,-0.22420193254947662
1788862129287642400,10.162642333984374,-0.04049397632479668,0.096869096159935,-0.26829272508621216
1788862129297684500,10.1726845703125,-0.05725511163473129,0.2086382508277893,-0.3403379023075104
1788862129307726300,10.182726318359375,-0.05241601541638374,0.26610860228538513,-0.4444108307361603
1788862129317768400,10.1927685546875,-0.02134464681148529,0.2672732174396515,-0.5531596541404724
1788862129327810300,10.202810302734376,0.02031717449426651,0.2888640761375427,-0.6640375256538391
1788862129337852200,10.21285205078125,0.06128457933664322,0.34666532278060913,-0.7714635729789734
1788862129347894500,10.22289453125,0.09640248119831085,0.37607476115226746,-0.835018515586853
1788862129357936400,10.232936279296876,0.11779991537332535,0.389518678188324,-0.852651834487915
1788862129367978200,10.242978271484375,0.13079775869846344,0.360601544380188,-0.8602367043495178
1788862129378020400,10.253020263671875,0.11523289978504181,0.2758032977581024,-0.8946428298950195
1788862129388061200,10.263061279296876,0.07140088081359863,0.15218648314476013,-0.9553821682929993
1788862129398103300,10.273103271484375,0.048006877303123474,0.09093084931373596,-1.004497766494751
1788862129408145400,10.2831455078125,0.037521325051784515,0.17319488525390625,-1.0278466939926147
1788862129418187300,10.293187255859374,0.0108686788007617,0.4129616618156433,-1.0333927869796753
1788862129428229400,10.3032294921875,-0.014987821690738201,0.7115551233291626,-1.042344570159912
1788862129438271200,10.313271240234375,-0.016968678683042526,0.9596086144447327,-1.0307568311691284
1788862129448313300,10.323313232421874,0.016643879935145378,1.1025439500808716,-1.0063440799713135
1788862129458355500,10.33335546875,0.08640458434820175,1.0600754022598267,-0.9819393754005432
1788862129468397300,10.343397216796875,0.1908375322818756,0.7683694958686829,-0.9917184114456177
1788862129478439400,10.353439453125,0.2827269434928894,0.2731131315231323,-0.9162511229515076
1788862129488480300,10.363480224609376,0.32659974694252014,-0.201309472322464,-0.9110604524612427
1788862129498522400,10.3735224609375,0.3714732229709625,-0.48023512959480286,-1.0425114631652832
1788862129508564200,10.383564208984374,0.4368074834346771,-0.5522639751434326,-1.1465749740600586
1788862129518606300,10.3936064453125,0.4557878375053406,-0.4706204831600189,-1.1659449338912964
1788862129528648400,10.4036484375,0.42388421297073364,-0.29180261492729187,-1.1393781900405884
1788862129538690300,10.413690185546875,0.35678136348724365,-0.06134061887860298,-1.1173015832901
1788862129548732200,10.423732177734376,0.29231104254722595,0.08622678369283676,-1.1218674182891846
1788862129558774300,10.433774169921875,0.26092833280563354,0.08816849440336227,-1.1644266843795776
1788862129568816400,10.44381640625,0.2853894829750061,-0.06662695109844208,-1.2116737365722656
1788862129578858500,10.4538583984375,0.334526926279068,-0.2797416150569916,-1.2161941528320312
1788862129588900400,10.463900390625,0.3548196852207184,-0.4596185088157654,-1.212254524230957
1788862129598941400,10.47394140625,0.3430950939655304,-0.5964959263801575,-1.2366093397140503
1788862129608983300,10.4839833984375,0.3330838680267334,-0.7229477167129517,-1.3030871152877808
1788862129619025200,10.494025146484375,0.3246387243270874,-0.8680561780929565,-1.3777046203613281
1788862129629067500,10.504067626953125,0.3082238435745239,-0.9425851702690125,-1.4479618072509766
1788862129639109400,10.514109375,0.2640201449394226,-0.8566387891769409,-1.4612677097320557
1788862129649151200,10.524151123046876,0.20999594032764435,-0.6447432041168213,-1.4293702840805054
1788862129659193300,10.534193359375,0.17635248601436615,-0.48497429490089417,-1.3869082927703857
1788862129669235200,10.544235107421875,0.1811557412147522,-0.4903489947319031,-1.3643066883087158
1788862129679277300,10.55427734375,0.22494688630104065,-0.6085406541824341,-1.379022240638733
1788862129689319400,10.5643193359375,0.3314191699028015,-0.8696907758712769,-1.4342738389968872
1788862129699360300,10.5743603515625,0.43676233291625977,-1.2399144172668457,-1.457441806793213
1788862129709402400,10.58440234375,0.45975354313850403,-1.5410490036010742,-1.4995542764663696
1788862129719444200,10.5944443359375,0.3932107388973236,-1.6554752588272095,-1.462910771369934
1788862129729486300,10.604486328125,0.232070192694664,-1.5759341716766357,-1.3382208347320557
1788862129739528400,10.614528564453124,0.04162169620394707,-1.468096375465393,-1.28416109085083
1788862129749570300,10.6245703125,-0.08723217248916626,-1.516048789024353,-1.2905737161636353
1788862129759612400,10.6346123046875,-0.1313740611076355,-1.5541599988937378,-1.3514313697814941
1788862129769654300,10.644654296875,-0.08848784863948822,-1.4476702213287354,-1.3946782350540161
1788862129779696000,10.654696044921875,0.01868201047182083,-1.2279897928237915,-1.4364912509918213
1788862129789738500,10.664738525390625,0.16581980884075165,-0.9982457756996155,-1.4956086874008179
1788862129799780400,10.6747802734375,0.27985718846321106,-0.8292948603630066,-1.5595320463180542
1788862129809821400,10.684821533203126,0.335721880197525,-0.6431115865707397,-1.6217617988586426
1788862129819863300,10.69486328125,0.33700260519981384,-0.4723068177700043,-1.6496639251708984
1788862129829905200,10.7049052734375,0.3319622874259949,-0.31114962697029114,-1.6467204093933105
1788862129839947500,10.714947509765626,0.3381003439426422,-0.18618372082710266,-1.6544166803359985
1788862129849989400,10.7249892578125,0.35674166679382324,-0.08459401875734329,-1.6854668855667114
1788862129860031500,10.735031494140625,0.3962666988372803,-0.08678686618804932,-1.692731499671936
1788862129870073300,10.7450732421875,0.42439329624176025,-0.09959302842617035,-1.6932367086410522
1788862129880115200,10.755115234375,0.4164397716522217,-0.09291594475507736,-1.7000336647033691
1788862129890157600,10.765157470703125,0.41145673394203186,-0.13581493496894836,-1.6660276651382446
1788862129900199400,10.775199462890624,0.37838906049728394,-0.10870236158370972,-1.637374997138977
1788862129910240500,10.785240478515625,0.3365815579891205,0.020146004855632782,-1.6727904081344604
1788862129920282400,10.795282470703125,0.27029892802238464,0.2979067862033844,-1.6316860914230347
1788862129930324200,10.80532421875,0.2041180580854416,0.40134644508361816,-1.6571929454803467
1788862129940366300,10.815366455078125,0.16548597812652588,0.3767707943916321,-1.6616835594177246
1788862129950408400,10.825408447265625,0.1543162614107132,0.425299733877182,-1.553625464439392
1788862129960450300,10.8354501953125,0.1128002479672432,0.5062816739082336,-1.38762366771698
1788862129970492400,10.845492431640626,0.09660971164703369,0.5051764249801636,-1.2050827741622925
1788862129980534300,10.8555341796875,0.029425352811813354,0.41467049717903137,-1.033588171005249
1788862129990576400,10.865576416015625,-0.05984009802341461,0.35899171233177185,-0.8824469447135925
1788862130000618500,10.875618408203126,-0.10950112342834473,0.3278713524341583,-0.6675452589988708
1788862130010659600,10.88565966796875,-0.14200593531131744,0.33394724130630493,-0.4555133879184723
1788862130020701400,10.895701416015624,-0.06824995577335358,0.3798883557319641,-0.29111963510513306
1788862130030743300,10.905743408203126,0.05439513921737671,0.4087204337120056,-0.17304778099060059
1788862130040785400,10.915785400390625,0.11778849363327026,0.37295788526535034,0.022317711263895035
1788862130050827300,10.9258271484375,0.08969254046678543,0.27397602796554565,0.2905596196651459
1788862130060869400,10.935869384765626,-0.008507797494530678,0.27126333117485046,0.5580270290374756
1788862130070911500,10.945911376953125,-0.14650985598564148,0.41782039403915405,0.8564846515655518
1788862130080953300,10.955953369140625,-0.26801496744155884,0.4483705759048462,1.1216946840286255
1788862130090995200,10.9659951171875,-0.3467850387096405,0.35691502690315247,1.2403403520584106
1788862130101037300,10.976037353515625,-0.3693646490573883,0.27539965510368347,1.3067708015441895
1788862130111078100,10.986078125,-0.35944488644599915,0.26177549362182617,1.3845332860946655
1788862130121120500,10.99612060546875,-0.3644615113735199,0.2592995762825012,1.4807229042053223
1788862130131162400,11.006162353515625,-0.37777528166770935,0.2731657326221466,1.5655080080032349
1788862130141203500,11.016203369140625,-0.33574607968330383,0.29444223642349243,1.596214771270752
1788862130151245300,11.026245361328124,-0.22925348579883575,0.2585099935531616,1.6092413663864136
1788862130161287400,11.036287353515625,-0.12237204611301422,0.2299545407295227,1.71075439453125
1788862130171329500,11.04632958984375,-0.03242083266377449,0.2491045892238617,1.858245849609375
1788862130181371400,11.056371337890624,0.03484582155942917,0.258602499961853,2.0057647228240967
1788862130191413500,11.06641357421875,0.09023689478635788,0.2828582525253296,2.0816752910614014
1788862130201455400,11.076455322265625,0.11955883353948593,0.2927055358886719,2.0714070796966553
1788862130211496400,11.086496337890624,0.14419560134410858,0.3027369976043701,1.9827733039855957
1788862130221538300,11.096538330078126,0.16878269612789154,0.36046501994132996,1.8994213342666626
1788862130231580400,11.106580322265625,0.1818593591451645,0.394008070230484,1.8669252395629883
1788862130241622500,11.11662255859375,0.1512039750814438,0.40506711602211,1.7976840734481812
1788862130251664400,11.126664306640626,0.08152024447917938,0.41158178448677063,1.7259933948516846
1788862130261706200,11.136706298828125,-0.021902017295360565,0.40554970502853394,1.667746901512146
1788862130271748400,11.146748291015625,-0.15100248157978058,0.40070968866348267,1.6795916557312012
1788862130281790500,11.15679052734375,-0.28497305512428284,0.4718957245349884,1.7573162317276
1788862130291832300,11.166832275390625,-0.3952978253364563,0.573528528213501,1.8726049661636353
1788862130301874400,11.17687451171875,-0.46567851305007935,0.6515002846717834,1.9822670221328735
1788862130311915500,11.18691552734375,-0.48862484097480774,0.7041847109794617,2.0241386890411377
1788862130321957400,11.196957275390625,-0.4794718325138092,0.6781805753707886,1.983372449874878
1788862130331999200,11.206999267578125,-0.47996771335601807,0.5641661286354065,1.9252687692642212
1788862130342041600,11.21704150390625,-0.5177308320999146,0.4953228831291199,1.981482982635498
1788862130352083500,11.22708349609375,-0.6100478172302246,0.5243570804595947,2.1268646717071533
1788862130362125300,11.237125244140625,-0.6889844536781311,0.5551509261131287,2.263627290725708
1788862130372167400,11.24716748046875,-0.6719587445259094,0.5295644402503967,2.352649688720703
1788862130382209300,11.257209228515626,-0.5406236052513123,0.5019211173057556,2.389162540435791
1788862130392251400,11.26725146484375,-0.4192672371864319,0.5072515606880188,2.3668012619018555
1788862130402292500,11.27729248046875,-0.37689048051834106,0.4963938295841217,2.2748799324035645
1788862130412334300,11.287334228515626,-0.40377599000930786,0.3461880087852478,2.1495566368103027
1788862130422376400,11.29737646484375,-0.45418989658355713,0.06303992122411728,2.0564706325531006
1788862130432418300,11.307418212890624,-0.49966540932655334,-0.20968763530254364,2.021315336227417
1788862130442460400,11.31746044921875,-0.5117238759994507,-0.33659419417381287,2.0374183654785156
1788862130452502500,11.32750244140625,-0.49977999925613403,-0.32404839992523193,2.0426089763641357
1788862130462544400,11.33754443359375,-0.4768262505531311,-0.2550555169582367,1.9875487089157104
1788862130472586500,11.34758642578125,-0.45270252227783203,-0.19426462054252625,1.8822141885757446
1788862130482628400,11.35762841796875,-0.41192954778671265,-0.17476814985275269,1.740902066230774
1788862130492670200,11.367670166015625,-0.36823770403862,-0.15938089787960052,1.5878348350524902
1788862130502711300,11.377711181640626,-0.32467079162597656,-0.11879512667655945,1.4229806661605835
1788862130512753400,11.38775341796875,-0.27005401253700256,0.004912612959742546,1.2495075464248657
1788862130522795500,11.39779541015625,-0.20785297453403473,0.22426360845565796,1.1017370223999023
1788862130532837400,11.40783740234375,-0.14698176085948944,0.43698105216026306,0.9874386787414551
1788862130542879200,11.417879150390625,-0.07568041980266571,0.49360865354537964,0.8523200154304504
1788862130552921300,11.42792138671875,-0.005244873464107513,0.3385236859321594,0.675205647945404
1788862130562963500,11.43796337890625,0.06042788177728653,0.12882959842681885,0.43126359581947327
1788862130573005300,11.44800537109375,0.16290883719921112,0.08334875106811523,0.17835856974124908
1788862130583047400,11.45804736328125,0.26747387647628784,0.20605763792991638,-0.04826844856142998
1788862130593088500,11.468088623046874,0.3155358135700226,0.4072580635547638,-0.2136460393667221
1788862130603130400,11.47813037109375,0.3543141186237335,0.6710662841796875,-0.2781035900115967
1788862130613172200,11.488172119140625,0.3756762444972992,0.8244878649711609,-0.25255995988845825
1788862130623214600,11.498214599609375,0.3938262164592743,0.8026220202445984,-0.1943613439798355
1788862130633256400,11.50825634765625,0.41839414834976196,0.5796995162963867,-0.14211279153823853
1788862130643298300,11.51829833984375,0.4205973744392395,0.24248842895030975,-0.1436198651790619
1788862130653340400,11.52834033203125,0.4204695522785187,-0.04518630728125572,-0.18685708940029144
1788862130663382300,11.53838232421875,0.39081257581710815,-0.2145737260580063,-0.2690030634403229
1788862130673424400,11.54842431640625,0.34168633818626404,-0.24211180210113525,-0.3779231905937195
1788862130683465500,11.558465576171875,0.2996706962585449,-0.1596134603023529,-0.49475976824760437
1788862130693507300,11.56850732421875,0.27701491117477417,-0.018788743764162064,-0.6029637455940247
1788862130703549400,11.578549560546875,0.2725756764411926,0.10841554403305054,-0.6843019723892212
1788862130713591300,11.58859130859375,0.2983352541923523,0.2176913022994995,-0.7324547171592712
1788862130723633400,11.59863330078125,0.3258204162120819,0.3343830406665802,-0.750713586807251
1788862130733675500,11.608675537109375,0.32382702827453613,0.4487075209617615,-0.7789341807365417
1788862130743717400,11.61871728515625,0.30039918422698975,0.5178868174552917,-0.8303536772727966
1788862130753759500,11.628759521484374,0.28631827235221863,0.5002260804176331,-0.8602580428123474
1788862130763801300,11.63880126953125,0.27980631589889526,0.39370977878570557,-0.8158977627754211
1788862130773842400,11.648842529296875,0.26759201288223267,0.23091894388198853,-0.7615312337875366
1788862130783884300,11.65888427734375,0.24976931512355804,0.03727438673377037,-0.7846935391426086
1788862130793926400,11.668926513671876,0.24465976655483246,-0.16209329664707184,-0.8703945875167847
1788862130803968500,11.678968505859375,0.2533981502056122,-0.3250364065170288,-0.955172598361969
1788862130814010400,11.68901025390625,0.27499160170555115,-0.4311489760875702,-1.0550040006637573
1788862130824052200,11.69905224609375,0.29082223773002625,-0.48158711194992065,-1.0956348180770874
1788862130834094300,11.70909423828125,0.27427440881729126,-0.45189180970191956,-1.0901985168457031
1788862130844136400,11.719136474609375,0.21833975613117218,-0.3640482425689697,-1.104682445526123
1788862130854178300,11.72917822265625,0.1577959805727005,-0.2972109317779541,-1.1125530004501343
1788862130864219400,11.739219482421875,0.09291844069957733,-0.27859199047088623,-1.112324833869934
1788862130874261500,11.749261474609375,0.028004558756947517,-0.26768219470977783,-1.1371129751205444
1788862130884303400,11.759303466796876,-0.030237441882491112,-0.24352946877479553,-1.2006546258926392
1788862130894345200,11.76934521484375,-0.05739102140069008,-0.31493300199508667,-1.2983916997909546
1788862130904387600,11.7793876953125,-0.04145120456814766,-0.46806418895721436,-1.4164211750030518
1788862130914429400,11.789429443359374,-0.0017040572129189968,-0.514719545841217,-1.5477757453918457
1788862130924471300,11.79947119140625,0.0516185536980629,-0.4615330696105957,-1.6144757270812988
1788862130934513400,11.809513427734375,0.07813471555709839,-0.35331326723098755,-1.6642992496490479
1788862130944555300,11.81955517578125,0.1027069017291069,-0.2654998302459717,-1.706719160079956
1788862130954596400,11.829596435546875,0.11225193738937378,-0.3023523688316345,-1.7525092363357544
1788862130964638500,11.839638427734375,0.12110508233308792,-0.4519045650959015,-1.7281498908996582
1788862130974680300,11.849680419921874,0.13369464874267578,-0.55291748046875,-1.6864423751831055
1788862130984722400,11.859722412109376,0.16711971163749695,-0.5891886353492737,-1.6681270599365234
1788862130994764300,11.869764404296875,0.18020755052566528,-0.603506863117218,-1.7218492031097412
1788862131004806400,11.879806396484375,0.17245641350746155,-0.6559889912605286,-1.794201374053955
1788862131014848500,11.8898486328125,0.17849139869213104,-0.6940320134162903,-1.850672960281372
1788862131024890400,11.899890380859375,0.1787388175725937,-0.7621785998344421,-1.8110791444778442
1788862131034932500,11.909932373046875,0.1754976212978363,-0.8416165113449097,-1.729866623878479
1788862131044973300,11.919973388671876,0.20360727608203888,-0.9190234541893005,-1.6879385709762573
1788862131055015400,11.930015380859375,0.2519974708557129,-0.9689038991928101,-1.6871337890625
1788862131065057300,11.940057373046875,0.2975982129573822,-0.94499272108078,-1.6641802787780762
1788862131075099400,11.950099365234376,0.32138174772262573,-0.8593387007713318,-1.6533994674682617
1788862131085141500,11.9601416015625,0.35374337434768677,-0.8269269466400146,-1.6694923639297485
1788862131095183400,11.970183349609375,0.3776608407497406,-0.9396862983703613,-1.7012338638305664
1788862131105225200,11.98022509765625,0.38993456959724426,-1.077785849571228,-1.7034357786178589
1788862131115267300,11.990267333984375,0.39165762066841125,-1.0609118938446045,-1.7318507432937622
1788862131125309400,12.000309326171875,0.3948526084423065,-0.9676252603530884,-1.7549331188201904
1788862131135351000,12.01035107421875,0.3851182162761688,-0.9023541212081909,-1.7589186429977417
1788862131145393000,12.020392822265626,0.36525052785873413,-0.8809852004051208,-1.7633471488952637
1788862131155434800,12.030434814453125,0.3555834889411926,-0.7997692227363586,-1.765379548072815
1788862131165476900,12.040476806640624,0.3900109827518463,-0.6432773470878601,-1.7733237743377686
1788862131175518700,12.050518798828126,0.4540311098098755,-0.45375385880470276,-1.7699191570281982
1788862131185560800,12.060560791015625,0.5138214826583862,-0.3008684515953064,-1.7423237562179565
1788862131195603000,12.07060302734375,0.5211803317070007,-0.2286650836467743,-1.6444746255874634
1788862131205644800,12.080644775390626,0.4778783619403839,-0.19379152357578278,-1.5425865650177002
1788862131215687000,12.09068701171875,0.38763758540153503,-0.10124839097261429,-1.464590311050415
1788862131225727700,12.100727783203125,0.33105260133743286,-0.004956208635121584,-1.36709725856781
1788862131235769900,12.110769775390626,0.2795413136482239,0.1400381326675415,-1.2133185863494873
1788862131245812000,12.12081201171875,0.2508998215198517,0.18733800947666168,-1.111944556236267
1788862131255853800,12.130853759765625,0.21483996510505676,0.19876548647880554,-1.0047162771224976
1788862131265896000,12.14089599609375,0.1811608374118805,0.23838426172733307,-0.9169464111328125
1788862131275937800,12.150937744140625,0.14907892048358917,0.2907213270664215,-0.8281986713409424
1788862131285979600,12.160979736328125,0.13194787502288818,0.30761510133743286,-0.7459341287612915
1788862131296022000,12.17102197265625,0.1194629818201065,0.22306965291500092,-0.6050662994384766
1788862131306062800,12.181062744140625,0.06154961884021759,0.18694362044334412,-0.44066375494003296
1788862131316105000,12.19110498046875,0.014518193900585175,0.21513186395168304,-0.2753152549266815
1788862131326146800,12.201146728515624,-0.025631090626120567,0.3016481101512909,-0.08990252017974854
1788862131336188700,12.211188720703126,-0.07493992149829865,0.3439440429210663,0.09814321994781494
1788862131346230800,12.221230712890625,-0.0979674756526947,0.2993352711200714,0.2889224886894226
1788862131356273000,12.23127294921875,-0.08204829692840576,0.2900707721710205,0.3973149359226227
1788862131366315000,12.24131494140625,-0.04977664723992348,0.35567614436149597,0.4960489869117737
1788862131376356900,12.25135693359375,-0.04124680534005165,0.3624112904071808,0.6013057827949524
1788862131386398700,12.261398681640625,-0.05986655876040459,0.3683661222457886,0.7474302053451538
1788862131396439800,12.271439697265626,-0.11962536722421646,0.44554734230041504,0.9622352123260498
1788862131406481700,12.281481689453125,-0.1981462687253952,0.5767207741737366,1.1672283411026
1788862131416524000,12.29152392578125,-0.25971096754074097,0.6847155094146729,1.3316408395767212
1788862131426566000,12.30156591796875,-0.2842477560043335,0.8040528297424316,1.4168686866760254
1788862131436607700,12.311607666015625,-0.27416473627090454,0.8804864883422852,1.4517194032669067
1788862131446649900,12.32164990234375,-0.25703075528144836,0.8495043516159058,1.5100290775299072
1788862131456691700,12.331691650390624,-0.2699145972728729,0.7876808643341064,1.5818694829940796
1788862131466733800,12.34173388671875,-0.33353886008262634,0.7944021224975586,1.6544119119644165
1788862131476776000,12.35177587890625,-0.4144060015678406,0.7982006072998047,1.7408818006515503
1788862131486816800,12.361816650390624,-0.4484878182411194,0.7660745978355408,1.8089934587478638
1788862131496859000,12.37185888671875,-0.43367186188697815,0.7180389165878296,1.8792723417282104
1788862131506900700,12.381900634765625,-0.3795609474182129,0.6941945552825928,1.988172173500061
1788862131516942800,12.39194287109375,-0.33361342549324036,0.7110854387283325,2.140122890472412
1788862131526985000,12.40198486328125,-0.3231014013290405,0.7391501069068909,2.2807679176330566
1788862131537026800,12.41202685546875,-0.32708773016929626,0.7407046556472778,2.369537353515625
1788862131547069000,12.42206884765625,-0.312084823846817,0.7089467644691467,2.3898234367370605
1788862131557110800,12.43211083984375,-0.27337247133255005,0.6641528010368347,2.3495583534240723
1788862131567151900,12.44215185546875,-0.24028533697128296,0.6028345823287964,2.3009514808654785
1788862131577193700,12.45219384765625,-0.2274807244539261,0.4807533025741577,2.2747178077697754
1788862131587235800,12.46223583984375,-0.2293127179145813,0.3456772267818451,2.279771327972412
1788862131597278000,12.47227783203125,-0.25634780526161194,0.2445114105939865,2.2877390384674072
1788862131607319800,12.48231982421875,-0.28712356090545654,0.18112577497959137,2.2876641750335693
1788862131617361700,12.492361572265626,-0.2937333881855011,0.14238950610160828,2.3096768856048584
