time,seconds_elapsed,z,y,x
1788862326511745300,0.044745361328125,-0.48398688435554504,0.7648794651031494,2.0140328407287598
1788862326521752000,0.054751953125,-0.44966644048690796,0.3823261559009552,1.972665548324585
1788862326531758000,0.064758056640625,-0.443651407957077,0.04501098021864891,1.8766714334487915
1788862326541764000,0.07476416015625,-0.38933229446411133,-0.04847538843750954,1.6853883266448975
1788862326551771000,0.08477099609375,-0.35815706849098206,-0.12379491329193115,1.2949830293655396
1788862326561777200,0.094777099609375,-0.35401299595832825,-0.22849275171756744,0.8008382320404053
1788862326571784000,0.104783935546875,-0.2671651840209961,-0.23237431049346924,0.32305145263671875
1788862326581790000,0.1147900390625,-0.02221006155014038,-0.08670368790626526,-0.004420522600412369
1788862326591796000,0.1247958984375,0.24600647389888763,-0.01672380417585373,-0.11215977370738983
1788862326601803000,0.134802978515625,0.3422209620475769,-0.20981760323047638,-0.032638415694236755
1788862326611809000,0.14480908203125,0.21443158388137817,-0.6855777502059937,0.10101445019245148
1788862326621815800,0.15481591796875,-0.007653877139091492,-1.1185436248779297,0.1538868546485901
1788862326631822000,0.164822021484375,-0.130118265748024,-1.2788398265838623,0.052877411246299744
1788862326641828000,0.174828125,-0.0616690069437027,-1.1043920516967773,-0.14048664271831512
1788862326651835000,0.1848349609375,0.14848849177360535,-0.7357540726661682,-0.3491876721382141
1788862326661841000,0.1948408203125,0.360887348651886,-0.3371819853782654,-0.506809413433075
1788862326671848000,0.204847900390625,0.49696823954582214,-0.030220186337828636,-0.6040073037147522
1788862326681854000,0.21485400390625,0.4830223023891449,-0.07581822574138641,-0.6156219840049744
1788862326691860000,0.22485986328125,0.37840402126312256,-0.34503984451293945,-0.5452282428741455
1788862326701867000,0.234866943359375,0.3215440809726715,-0.5534112453460693,-0.4237155318260193
1788862326711873000,0.244873046875,0.28665614128112793,-0.6072701811790466,-0.3425040543079376
1788862326721880000,0.254880126953125,0.31302592158317566,-0.6644037365913391,-0.31779271364212036
1788862326731886000,0.264885986328125,0.4099990725517273,-0.9726872444152832,-0.2900758683681488
1788862326741893000,0.27489306640625,0.5895740985870361,-1.519639015197754,-0.31976059079170227
1788862326751899000,0.28489892578125,0.7642865180969238,-2.082087278366089,-0.3642476201057434
1788862326761905000,0.29490478515625,0.9374839663505554,-2.3971710205078125,-0.46092894673347473
1788862326771912200,0.304912109375,1.0560362339019775,-2.231996536254883,-0.6188591718673706
1788862326781918000,0.31491796875,1.1320736408233643,-1.9360466003417969,-0.6892188787460327
1788862326791925000,0.324925048828125,1.2147576808929443,-1.860344409942627,-0.6245429515838623
1788862326801931300,0.33493115234375,1.3381515741348267,-2.1145482063293457,-0.5043582320213318
1788862326811937000,0.34493701171875,2.357147693634033,-2.640855073928833,-0.14776839315891266
1788862326821944000,0.354944091796875,4.168705940246582,-3.069082498550415,0.5025560855865479
1788862326831949800,0.36494970703125,5.321426868438721,-2.911576986312866,1.159546971321106
1788862326841957000,0.37495703125,4.496888160705566,-3.157658576965332,0.7004849314689636
1788862326851963100,0.384963134765625,2.235819101333618,-2.6564207077026367,-0.4512331783771515
1788862326861969000,0.394968994140625,1.0892621278762817,-1.563133955001831,-0.386034220457077
1788862326871976200,0.40497607421875,1.0057077407836914,-1.397974967956543,-0.18049322068691254
1788862326881982200,0.414982177734375,1.1418297290802002,-1.5646322965621948,-0.3889979422092438
1788862326891989000,0.424989013671875,1.2002952098846436,-0.6321717500686646,-0.7188456058502197
1788862326901995000,0.4349951171875,1.2326582670211792,0.5245477557182312,-0.7721240520477295
1788862326912001000,0.4450009765625,1.394137978553772,0.8462756872177124,-0.68871009349823
1788862326922008000,0.455008056640625,1.557990550994873,0.7477089166641235,-0.6269872784614563
1788862326932014000,0.46501416015625,1.4923774003982544,-0.04554131254553795,-0.5234038829803467
1788862326942021000,0.475021240234375,1.1921758651733398,-1.0545345544815063,-0.2901628613471985
1788862326952027100,0.485027099609375,0.9824936389923096,-1.6012359857559204,-0.0011425022967159748
1788862326962033200,0.495033203125,0.9301204681396484,-1.685051441192627,0.10728272795677185
1788862326972040000,0.5050400390625,0.8737940788269043,-1.5471686124801636,-0.02768813446164131
1788862326982046200,0.515046142578125,0.8185718655586243,-1.382534384727478,-0.30382832884788513
1788862326992053000,0.525052978515625,0.9601497650146484,-1.3170920610427856,-0.5289410948753357
1788862327002059000,0.53505908203125,1.2603713274002075,-1.6520426273345947,-0.6338976621627808
1788862327012065000,0.54506494140625,1.7319329977035522,-2.3078131675720215,-0.5054853558540344
1788862327022072000,0.555072021484375,2.3168928623199463,-3.263352870941162,-0.0900769904255867
1788862327032078000,0.565078125,2.832003355026245,-4.613959312438965,0.5438941121101379
1788862327042084900,0.5750849609375,3.1194214820861816,-5.896520137786865,1.1806964874267578
1788862327052091100,0.585091064453125,3.2916104793548584,-6.74395751953125,1.6606911420822144
1788862327062097200,0.59509716796875,3.5592377185821533,-7.207529544830322,1.9583814144134521
1788862327072104000,0.60510400390625,3.8220603466033936,-7.252212047576904,2.02946138381958
1788862327082110000,0.61510986328125,4.133500576019287,-7.212850570678711,1.8771367073059082
1788862327092117000,0.625116943359375,4.4373016357421875,-7.5027384757995605,1.6026101112365723
1788862327102123000,0.635123046875,4.7634406089782715,-7.741968631744385,1.3050934076309204
1788862327112129000,0.64512890625,4.973165512084961,-7.619498252868652,1.1055240631103516
1788862327122136000,0.655135986328125,5.046247959136963,-7.12888240814209,1.0596760511398315
1788862327132142000,0.66514208984375,5.02778434753418,-6.665004253387451,1.2482584714889526
1788862327142148900,0.67514892578125,4.87563943862915,-6.579044818878174,1.5351563692092896
1788862327152155000,0.68515478515625,4.740779876708984,-6.756629943847656,1.8279412984848022
1788862327162161200,0.6951611328125,4.682254791259766,-6.771164417266846,2.2284560203552246
1788862327172168000,0.70516796875,4.59849214553833,-6.362551212310791,2.8086464405059814
1788862327182174000,0.715174072265625,4.104409217834473,-5.447972774505615,3.403761625289917
1788862327192181000,0.725180908203125,2.9453125,-4.036744594573975,3.7378365993499756
1788862327202187000,0.73518701171875,1.6984739303588867,-2.5207183361053467,3.6605424880981445
1788862327212193000,0.745193115234375,1.1089116334915161,-1.7574784755706787,3.270296335220337
1788862327222199800,0.75519970703125,1.064622402191162,-2.2564523220062256,3.231610059738159
1788862327232206000,0.7652060546875,1.4118179082870483,-2.9866678714752197,3.523038148880005
1788862327242213000,0.775213134765625,1.983514428138733,-3.378908395767212,3.951683521270752
1788862327252219000,0.785218994140625,2.411479949951172,-3.8791871070861816,4.2945475578308105
1788862327262226200,0.79522607421875,2.19341778755188,-5.169271945953369,3.912168264389038
1788862327272232000,0.80523193359375,1.7044869661331177,-6.184656620025635,2.9291956424713135
1788862327282238000,0.815238037109375,1.370322823524475,-5.837751865386963,1.962822437286377
1788862327292245200,0.825245361328125,1.3920893669128418,-3.4405710697174072,0.9563084840774536
1788862327302251000,0.8352509765625,2.117055654525757,-1.2626535892486572,0.20822826027870178
1788862327312258000,0.845258056640625,2.8964216709136963,-0.295085608959198,-0.17889495193958282
1788862327322264000,0.85526416015625,3.179755210876465,-0.14046651124954224,-0.34201014041900635
1788862327332270000,0.86527001953125,3.405487060546875,-0.5667658448219299,-0.39848247170448303
1788862327342277000,0.875277099609375,3.7941529750823975,-1.1753593683242798,-0.3854433298110962
1788862327352283000,0.885282958984375,4.189518928527832,-1.66495680809021,-0.32044968008995056
1788862327362290200,0.895290283203125,4.283205032348633,-1.7844222784042358,-0.16975559294223785
1788862327372296200,0.905296142578125,3.587716817855835,-1.7770402431488037,-0.13116639852523804
1788862327382302000,0.915302001953125,2.9056739807128906,-1.3600757122039795,0.03100884146988392
1788862327392309000,0.92530908203125,2.5545051097869873,-0.4515881836414337,0.26159438490867615
1788862327402315300,0.935315185546875,2.245197296142578,0.3961263597011566,0.1395428478717804
1788862327412322000,0.945322021484375,2.192355155944824,0.5288404226303101,-0.3013852834701538
1788862327422328000,0.955328125,2.2177014350891113,-0.1128808781504631,-0.8224623203277588
1788862327432333800,0.965333740234375,2.3486168384552,-1.3162180185317993,-1.370288372039795
1788862327442341000,0.975341064453125,2.267422676086426,-2.0772645473480225,-1.625215768814087
1788862327452347100,0.98534716796875,2.2254180908203125,-2.688593626022339,-1.6877562999725342
1788862327462354000,0.99535400390625,2.148968458175659,-3.069627523422241,-1.5735599994659424
1788862327472360200,1.005360107421875,1.6814846992492676,-1.9544556140899658,-1.1493895053863525
1788862327482366200,1.0153662109375,0.7337127327919006,-1.1509042978286743,-1.0975315570831299
1788862327492373000,1.025373046875,-0.35628050565719604,-1.3430681228637695,-1.4068585634231567
1788862327502379000,1.03537890625,-0.6628816723823547,-1.6757405996322632,-1.2851744890213013
1788862327512386000,1.045385986328125,0.19205531477928162,-2.4679675102233887,-0.7999781966209412
1788862327522392000,1.05539208984375,0.8660529255867004,-2.48759388923645,-0.5063364505767822
1788862327532398000,1.065398193359375,0.9501870274543762,-1.6541863679885864,-0.22375307977199554
1788862327542404600,1.075404541015625,0.5818074941635132,-0.6115384697914124,0.04774044454097748
1788862327552410600,1.08541064453125,0.6472080945968628,-0.1088968962430954,0.23510394990444183
1788862327562417400,1.09541748046875,1.1302356719970703,0.0748719796538353,0.37764206528663635
1788862327572423400,1.10542333984375,1.5608562231063843,0.08415442705154419,0.5172466039657593
1788862327582429700,1.1154296875,2.00400972366333,-0.07361480593681335,0.7262030839920044
1788862327592436500,1.1254365234375,2.226151704788208,-0.2551718056201935,0.9830257892608643
1788862327602442500,1.1354423828125,1.7805349826812744,-0.733660101890564,1.0502642393112183
1788862327612449500,1.145449462890625,0.8219791650772095,-0.963039219379425,0.7623015642166138
1788862327622455600,1.15545556640625,0.16902793943881989,-1.01138436794281,0.6286818385124207
1788862327632461600,1.165461669921875,-0.3411865830421448,-1.1462236642837524,0.6688314080238342
1788862327642468400,1.17546826171875,-0.5157402753829956,-1.3688337802886963,0.7212018966674805
1788862327652474600,1.185474609375,-0.5750464797019958,-1.1728501319885254,0.591827929019928
1788862327662481700,1.195481689453125,-0.4373655915260315,-0.708794891834259,0.3146671652793884
1788862327672487400,1.2054873046875,0.023770026862621307,-0.14516137540340424,0.017295585945248604
1788862327682494700,1.21549462890625,0.3511379361152649,0.7008122205734253,0.05527634918689728
1788862327692500500,1.22550048828125,0.37660840153694153,1.3236082792282104,0.05903620272874832
1788862327702506500,1.235506591796875,0.3442924916744232,1.7853411436080933,-0.0930461436510086
1788862327712513500,1.245513427734375,0.27210432291030884,1.5304005146026611,-0.282113254070282
1788862327722519600,1.25551953125,0.047349393367767334,0.38822242617607117,-0.38134658336639404
1788862327732525600,1.265525634765625,-0.26545029878616333,-0.3428560495376587,-0.2916127145290375
1788862327742532600,1.27553271484375,-0.5638737082481384,-0.00016801152378320694,-0.11580035835504532
1788862327752538400,1.285538330078125,-0.7273907661437988,0.7381877899169922,-0.5037031173706055
1788862327762545700,1.295545654296875,0.3643423020839691,0.3765009343624115,-1.4543391466140747
1788862327772551400,1.305551513671875,1.2144944667816162,-0.9645335674285889,-0.23292185366153717
1788862327782557400,1.315557373046875,1.6456222534179688,-0.49706411361694336,0.3585396409034729
1788862327792564700,1.325564697265625,1.6524388790130615,-0.4255845844745636,0.5946794152259827
1788862327802570500,1.335570556640625,1.5481059551239014,-0.9635699391365051,0.429636150598526
1788862327812577500,1.34557763671875,1.372930645942688,-1.5936533212661743,0.3451068699359894
1788862327822583600,1.35558349609375,1.0552864074707031,-1.6722882986068726,0.6094008684158325
1788862327832590600,1.365590576171875,1.0760247707366943,-1.7033051252365112,1.094130039215088
1788862327842596600,1.3755966796875,1.290672779083252,-1.7855415344238281,1.437370777130127
1788862327852602400,1.385602294921875,0.9782211184501648,-1.7128300666809082,1.2113916873931885
1788862327862609700,1.395609619140625,0.7596130967140198,-2.011509656906128,1.441820502281189
1788862327872615700,1.40561572265625,0.7765960693359375,-1.7253119945526123,0.9701137542724609
1788862327882622500,1.41562255859375,0.40529492497444153,-1.7881052494049072,0.7381451725959778
1788862327892628500,1.42562841796875,0.04410344362258911,-2.7323741912841797,0.5477158427238464
1788862327902634500,1.435634521484375,0.07225213944911957,-3.303814649581909,0.8733049035072327
1788862327912641500,1.4456416015625,0.14944493770599365,-3.7290899753570557,1.0874608755111694
1788862327922647600,1.4556474609375,0.22529812157154083,-3.3489840030670166,0.7909641861915588
1788862327932654600,1.465654541015625,0.4276629388332367,-1.8343567848205566,0.39110225439071655
1788862327942660600,1.47566064453125,0.47609686851501465,-0.8644694685935974,-0.019646495580673218
1788862327952666600,1.48566650390625,0.49394136667251587,-0.7084699869155884,-0.4430589973926544
1788862327962673400,1.49567333984375,0.5250023603439331,-0.6417309045791626,-0.840327262878418
1788862327972679700,1.5056796875,0.545320451259613,-0.6562147736549377,-0.8771241903305054
1788862327982686500,1.5156865234375,0.45039016008377075,-0.7985141277313232,-0.44078385829925537
1788862327992692500,1.5256923828125,0.4419839084148407,-0.9839745163917542,0.1495305448770523
1788862328002699500,1.535699462890625,0.36514437198638916,-1.1984895467758179,0.4119296371936798
1788862328012705500,1.54570556640625,0.1344677358865738,-1.2452114820480347,0.34307682514190674
1788862328022711600,1.555711669921875,0.02309427224099636,-0.9351643919944763,0.17354142665863037
1788862328032718300,1.56571826171875,-0.012189417146146297,-0.4866265654563904,-0.08181551098823547
1788862328042724600,1.575724609375,-0.07579644024372101,-0.1692955493927002,-0.395127534866333
1788862328052731400,1.5857314453125,-0.09200071543455124,0.028736568987369537,-0.7685186862945557
1788862328062737400,1.5957373046875,-0.19771023094654083,0.2559320032596588,-1.2654038667678833
1788862328072743400,1.605743408203125,-0.3792097270488739,0.5302354693412781,-1.8386263847351074
1788862328082750500,1.61575048828125,-0.4914233386516571,0.9164558053016663,-2.3648412227630615
1788862328092756500,1.625756591796875,-0.48973968625068665,1.2857271432876587,-2.546382427215576
1788862328102763800,1.635763671875,-0.3189857602119446,1.4379401206970215,-2.0523574352264404
1788862328112769500,1.64576953125,0.01211599726229906,0.8181825280189514,-1.0746495723724365
1788862328122775600,1.655775634765625,0.2556407153606415,-0.08665011823177338,-0.09490148723125458
1788862328132782300,1.6657822265625,0.29701584577560425,-0.32952961325645447,0.21879225969314575
1788862328142788600,1.67578857421875,0.014891236089169979,-0.003649547230452299,0.07675768435001373
1788862328152795600,1.685795654296875,-0.11766600608825684,0.4068644940853119,-0.03709378093481064
1788862328162801400,1.695801513671875,-0.09206314384937286,0.5105791091918945,0.07682059705257416
1788862328172807400,1.705807373046875,0.078097403049469,0.19070151448249817,0.030887464061379433
1788862328182814700,1.715814697265625,0.18085713684558868,0.06011713668704033,-0.06125696003437042
1788862328192820500,1.725820556640625,0.23975108563899994,-0.014628211036324501,-0.02929982729256153
1788862328202827500,1.73582763671875,0.24034014344215393,-0.008119938895106316,0.01336661260575056
1788862328212833500,1.74583349609375,0.18739277124404907,-0.06739151477813721,0.014793801121413708
1788862328222840600,1.755840576171875,0.33953484892845154,-0.3115900158882141,-0.08739502727985382
1788862328232846600,1.7658466796875,0.4443422257900238,-0.46886059641838074,-0.17931242287158966
1788862328242852400,1.775852294921875,0.38059133291244507,-0.6096209287643433,-0.23806411027908325
1788862328252859600,1.785859619140625,0.37746134400367737,-0.4488951563835144,-0.20069889724254608
1788862328262865700,1.79586572265625,0.5245620012283325,-0.22961078584194183,-0.07721149176359177
1788862328272872400,1.80587255859375,0.7584573030471802,-0.3026743531227112,-0.10772093385457993
1788862328282878700,1.815878662109375,0.8428519368171692,-0.38933947682380676,-0.31358280777931213
1788862328292884500,1.825884521484375,0.5901842713356018,-0.4281417429447174,-0.5258380174636841
1788862328302891500,1.8358916015625,0.5170606374740601,-0.7201147079467773,-0.8488569855690002
1788862328312897500,1.8458974609375,0.6043553352355957,-1.1714643239974976,-1.3733538389205933
1788862328322904600,1.855904541015625,0.48536261916160583,-1.1537553071975708,-1.837308645248413
1788862328332910600,1.86591064453125,0.42537757754325867,-1.0633748769760132,-1.9574692249298096
1788862328342916600,1.87591650390625,0.03515979275107384,-1.4053454399108887,-1.889794945716858
1788862328352923600,1.885923583984375,-0.34114566445350647,-1.5920772552490234,-1.847564697265625
1788862328362929700,1.8959296875,-0.5513376593589783,-1.1855604648590088,-1.412175178527832
1788862328372936400,1.9059365234375,-0.5671434998512268,-0.9813176989555359,-1.3941378593444824
1788862328382942500,1.9159423828125,-0.8005654811859131,-0.5404084324836731,-1.190805196762085
1788862328392949500,1.925949462890625,-1.215774655342102,-0.12509456276893616,-0.9414190649986267
1788862328402955500,1.93595556640625,-1.6688140630722046,0.5179359912872314,-1.2052428722381592
1788862328412961500,1.94596142578125,-2.0673811435699463,0.25673288106918335,-1.726869821548462
1788862328422968600,1.955968505859375,-1.8790165185928345,-0.16568061709403992,-1.2972023487091064
1788862328432974600,1.965974609375,-1.7648612260818481,-0.6013317108154297,-1.682788610458374
1788862328442981400,1.9759814453125,-1.687243938446045,0.6968327164649963,-1.6805158853530884
1788862328452987400,1.9859873046875,-1.137555480003357,0.8443915247917175,-1.6734572649002075
1788862328462993700,1.99599365234375,-0.7819889783859253,-0.6589194536209106,-1.77500319480896
1788862328473000400,2.00600048828125,-0.38431355357170105,0.43473297357559204,-1.0775871276855469
1788862328483006500,2.01600634765625,0.002331393538042903,0.7088600397109985,-0.5503527522087097
1788862328493013500,2.026013427734375,-0.055955346673727036,0.21880967915058136,-0.19482876360416412
1788862328503019500,2.03601953125,0.36955228447914124,-0.1197955459356308,0.37082985043525696
1788862328513025500,2.046025634765625,0.7710643410682678,-0.22472089529037476,0.5616245865821838
1788862328523032300,2.0560322265625,0.995789647102356,-0.032475605607032776,0.5648249387741089
1788862328533038600,2.06603857421875,1.1811590194702148,-0.14235763251781464,0.3246501088142395
1788862328543046100,2.076046142578125,1.28862464427948,-0.10490281134843826,0.1504814475774765
1788862328553052200,2.08605224609375,1.319477915763855,-0.17468054592609406,0.09042263776063919
1788862328563058400,2.096058349609375,1.1263278722763062,-0.3525945544242859,-0.015307515859603882
1788862328573065200,2.106065185546875,0.8707333207130432,-0.5163169503211975,-0.15847425162792206
1788862328583071200,2.1160712890625,0.7906717658042908,-0.5943077206611633,-0.2486085146665573
1788862328593078300,2.126078369140625,0.7496830224990845,-0.6585841774940491,-0.2752492129802704
1788862328603084300,2.136084228515625,0.5304720997810364,-0.48499029874801636,-0.12480083853006363
1788862328613091300,2.14609130859375,0.4332113265991211,-0.4067935049533844,-0.023849986493587494
1788862328623097000,2.15609716796875,0.3546326458454132,-0.309135764837265,-0.04454784095287323
1788862328633103400,2.166103271484375,0.3025995194911957,-0.2797355353832245,-0.24467933177947998
1788862328643110400,2.1761103515625,0.23537582159042358,-0.2836146354675293,-0.4516645669937134
1788862328653116200,2.1861162109375,0.17803876101970673,-0.27642250061035156,-0.5619271993637085
1788862328663123500,2.19612353515625,0.1379706859588623,-0.26122480630874634,-0.675536036491394
1788862328673129200,2.206129150390625,0.09510444104671478,-0.271261990070343,-0.7832406759262085
1788862328683135200,2.21613525390625,0.036321014165878296,-0.2980150580406189,-0.7939534783363342
1788862328693142300,2.226142333984375,-0.013322705402970314,-0.03819096088409424,-0.8954785466194153
1788862328703148300,2.236148193359375,-0.23906168341636658,-0.060075003653764725,-0.691592812538147
1788862328713155300,2.2461552734375,-0.5715141892433167,-0.23151201009750366,-0.2691381871700287
1788862328723161300,2.256161376953125,-0.8379805088043213,-0.02874261513352394,-0.06760374456644058
1788862328733167000,2.2661669921875,-0.9226557612419128,-0.10257290303707123,-0.12806734442710876
1788862328743174400,2.27617431640625,-0.3192899227142334,-0.8925802111625671,-0.45529288053512573
1788862328753180200,2.28618017578125,0.28470754623413086,-0.69676673412323,-0.15531760454177856
1788862328763187200,2.296187255859375,0.2366103082895279,-0.32605186104774475,-0.17694276571273804
1788862328773193500,2.306193359375,-0.02034132368862629,-0.5521315932273865,-0.3122790455818176
1788862328783199200,2.31619921875,-0.09888607263565063,-0.8162148594856262,-0.35375991463661194
1788862328793206300,2.326206298828125,0.05789128318428993,-0.8515214323997498,-0.42132455110549927
1788862328803212300,2.33621240234375,0.09094034880399704,-0.8215385675430298,-0.49409404397010803
1788862328813219300,2.34621923828125,-0.04265979304909706,-0.7230958938598633,-0.5325295925140381
1788862328823225300,2.356225341796875,-0.0866398811340332,-0.7029181122779846,-0.46588417887687683
1788862328833231000,2.366231201171875,-0.03378225117921829,-0.6499747037887573,-0.42916133999824524
1788862328843238400,2.37623828125,0.010481946170330048,-0.6248862147331238,-0.4090364873409271
1788862328853244400,2.386244384765625,0.061608511954545975,-0.499973326921463,-0.34415575861930847
1788862328863251200,2.396251220703125,0.10291137546300888,-0.28006377816200256,-0.23493734002113342
1788862328873257500,2.406257568359375,0.14569613337516785,-0.08097785711288452,-0.15244059264659882
1788862328883263200,2.41626318359375,0.1871567666530609,0.05152685195207596,-0.1291714459657669
1788862328893270300,2.426270263671875,0.20923464000225067,0.1345628798007965,-0.14617545902729034
1788862328903276300,2.4362763671875,0.19857105612754822,0.2201891839504242,-0.15469442307949066
1788862328913283300,2.446283447265625,0.17318607866764069,0.25460493564605713,-0.17386412620544434
1788862328923289300,2.456289306640625,0.14467650651931763,0.26131471991539,-0.19806912541389465
1788862328933295400,2.46629541015625,0.08637059479951859,0.3393977880477905,-0.19074197113513947
1788862328943302400,2.476302490234375,0.02510080859065056,0.49137967824935913,-0.1856766939163208
1788862328953308400,2.486308349609375,-0.025281671434640884,0.5844907164573669,-0.19801805913448334
1788862328963315200,2.496315185546875,-0.053297821432352066,0.5606849789619446,-0.1938200294971466
1788862328973321200,2.5063212890625,-0.05808405578136444,0.4419388473033905,-0.1747661828994751
1788862328983327500,2.516327392578125,-0.09482826292514801,0.3254338502883911,-0.21741890907287598
1788862328993334300,2.526334228515625,-0.23710496723651886,0.1306433081626892,-0.25079846382141113
1788862329003340300,2.53634033203125,-0.4134215712547302,-0.15753281116485596,-0.17271699011325836
1788862329013347300,2.546347412109375,-0.40208715200424194,-0.22413846850395203,-0.12388741225004196
1788862329023353300,2.556353271484375,-0.35036030411720276,0.03174174576997757,-0.23720625042915344
1788862329033360100,2.566360107421875,-0.3388277590274811,0.2208450883626938,-0.2713008224964142
1788862329043366100,2.5763662109375,-0.2770492434501648,0.14653046429157257,-0.2554510235786438
1788862329053372400,2.586372314453125,-0.21101108193397522,0.10688851028680801,-0.16916196048259735
1788862329063379200,2.596379150390625,-0.16945643723011017,0.09169161319732666,-0.03112681768834591
1788862329073385200,2.60638525390625,-0.11275292932987213,0.06218111887574196,0.034251391887664795
1788862329083392300,2.616392333984375,-0.061360497027635574,-0.020288662984967232,0.051339998841285706
1788862329093398300,2.626398193359375,-0.042658716440200806,-0.05277789756655693,0.023903580382466316
1788862329103404300,2.636404296875,-0.04181331768631935,-0.05194647237658501,-0.019092930480837822
1788862329113411000,2.6464111328125,-0.04533854499459267,-0.12567421793937683,-0.08189240097999573
1788862329123417300,2.656417236328125,-0.06258700042963028,-0.13630633056163788,-0.12385175377130508
1788862329133424400,2.66642431640625,-0.06199710816144943,-0.06940107047557831,-0.10939078778028488
1788862329143430100,2.67643017578125,-0.06585849821567535,0.04919935762882233,-0.09490972757339478
1788862329153436200,2.686436279296875,-0.1039654091000557,0.11004646867513657,-0.12337865680456161
1788862329163443200,2.696443115234375,-0.14660269021987915,0.0864204689860344,-0.16688872873783112
1788862329173449200,2.70644921875,-0.16967178881168365,-0.0070247892290353775,-0.18338727951049805
1788862329183456300,2.716456298828125,-0.1677715927362442,-0.1490485519170761,-0.18592548370361328
1788862329193462300,2.726462158203125,-0.15348108112812042,-0.24577376246452332,-0.18263913691043854
1788862329203468300,2.73646826171875,-0.1392192244529724,-0.29324910044670105,-0.12803538143634796
1788862329213475300,2.746475341796875,-0.1614004373550415,-0.3088650703430176,-0.07807742059230804
1788862329223481000,2.756481201171875,-0.21446935832500458,-0.26383504271507263,-0.053086016327142715
1788862329233488400,2.76648828125,-0.2675357758998871,-0.15888147056102753,-0.035271067172288895
1788862329243494400,2.776494384765625,-0.30712783336639404,-0.08079671859741211,0.027853744104504585
1788862329253500200,2.786500244140625,-0.32287484407424927,-0.056238651275634766,0.044808223843574524
1788862329263507500,2.796507568359375,-0.3336503207683563,-0.09005236625671387,-0.009979498572647572
1788862329273513200,2.80651318359375,-0.3298175036907196,-0.14364342391490936,-0.04633324593305588
1788862329283520300,2.816520263671875,-0.3159635066986084,-0.2252117544412613,-0.045147668570280075
1788862329293526300,2.8265263671875,-0.30054619908332825,-0.28178662061691284,-0.07935917377471924
1788862329303532300,2.8365322265625,-0.27022066712379456,-0.25965461134910583,-0.0938182920217514
1788862329313539300,2.846539306640625,-0.22191090881824493,-0.19107475876808167,-0.09122117608785629
1788862329323545300,2.85654541015625,-0.15590396523475647,-0.15565046668052673,-0.09909754991531372
1788862329333552400,2.866552490234375,-0.08567295223474503,-0.1698560267686844,-0.06969918310642242
1788862329343558400,2.876558349609375,-0.025895876809954643,-0.1583874672651291,-0.015658263117074966
1788862329353565200,2.886565185546875,0.012270951643586159,-0.06302578747272491,-0.008581711910665035
1788862329363571200,2.8965712890625,0.04791538044810295,-0.006427776534110308,-0.002208469435572624
1788862329373577500,2.906577392578125,0.09754125773906708,0.016052231192588806,0.037742406129837036
1788862329383584300,2.916584228515625,0.15863560140132904,0.08781679719686508,0.07869481295347214
1788862329393590300,2.92659033203125,0.21933090686798096,0.24140608310699463,0.1426144242286682
1788862329403597300,2.936597412109375,0.29542049765586853,0.3875231146812439,0.2644255757331848
1788862329413603300,2.946603271484375,0.36234334111213684,0.5082524418830872,0.32601624727249146
1788862329423609300,2.956609375,0.3844606578350067,0.5536680817604065,0.378120481967926
1788862329433616400,2.966616455078125,0.3772765100002289,0.5433605909347534,0.4443354606628418
1788862329443622400,2.976622314453125,0.34887808561325073,0.5590997934341431,0.43562355637550354
1788862329453629200,2.986629150390625,0.30764275789260864,0.5001672506332397,0.4085610508918762
1788862329463635200,2.99663525390625,0.269563227891922,0.4159393012523651,0.40767180919647217
1788862329473641500,3.006641357421875,0.20161029696464539,0.3927682042121887,0.40131884813308716
1788862329483648300,3.016648193359375,0.11082637310028076,0.35343432426452637,0.40572428703308105
1788862329493654300,3.026654296875,0.030628733336925507,0.3178020119667053,0.4121994972229004
1788862329503661300,3.036661376953125,-0.04226502403616905,0.306086003780365,0.3949289321899414
1788862329513667300,3.046667236328125,-0.1157352477312088,0.2506544291973114,0.4093044102191925
1788862329523673300,3.05667333984375,-0.18003205955028534,0.1897909939289093,0.5422667264938354
1788862329533680000,3.06668017578125,-0.21539245545864105,0.23823602497577667,0.6959004998207092
1788862329543685400,3.076685302734375,-0.21373148262500763,0.23594823479652405,0.8269581198692322
1788862329553692400,3.0866923828125,-0.19371914863586426,0.3468547761440277,0.9660515785217285
1788862329563698200,3.0966982421875,-0.19082915782928467,0.7462183833122253,1.0940852165222168
1788862329573705500,3.10670556640625,-0.20206424593925476,1.0314420461654663,1.1112889051437378
1788862329583711500,3.11671142578125,-0.22395659983158112,1.2037405967712402,1.1529911756515503
1788862329593717200,3.12671728515625,-0.29183152318000793,1.3736348152160645,1.1361629962921143
1788862329603724300,3.136724365234375,-0.3681820034980774,1.4694958925247192,1.0942615270614624
1788862329613730300,3.146730224609375,-0.3680104911327362,1.492835521697998,1.1957035064697266
1788862329623737300,3.1567373046875,-0.31658902764320374,1.586863398551941,1.277482271194458
1788862329633743400,3.166743408203125,-0.30993831157684326,1.7552717924118042,1.318593978881836
1788862329643749000,3.1767490234375,-0.3384547531604767,1.8796675205230713,1.3624193668365479
1788862329653756400,3.18675634765625,-0.34215787053108215,1.9877625703811646,1.3926843404769897
1788862329663762400,3.196762451171875,-0.2762191891670227,2.0338804721832275,1.3409801721572876
1788862329673769200,3.206769287109375,-0.200883150100708,2.01338529586792,1.2648100852966309
1788862329683775500,3.216775390625,-0.17917326092720032,1.9177206754684448,1.2726044654846191
1788862329693781200,3.22678125,-0.21083398163318634,1.790035605430603,1.3153886795043945
1788862329703788300,3.236788330078125,-0.2409944087266922,1.6297756433486938,1.311768651008606
1788862329713794300,3.246794189453125,-0.21612393856048584,1.4290587902069092,1.3066908121109009
1788862329723801300,3.25680126953125,-0.20439410209655762,1.255115270614624,1.3503683805465698
1788862329733807400,3.266807373046875,-0.2768193185329437,1.2421358823776245,1.387096643447876
1788862329743813400,3.2768134765625,-0.40349772572517395,1.2057064771652222,1.3907442092895508
1788862329753820400,3.2868203125,-0.507908046245575,1.1307951211929321,1.4823812246322632
1788862329763826400,3.296826416015625,-0.6026319265365601,1.1736077070236206,1.599955677986145
1788862329773833200,3.306833251953125,-0.6947163343429565,1.244903564453125,1.6400508880615234
1788862329783839200,3.316839111328125,-0.7352563142776489,1.2388213872909546,1.7107529640197754
1788862329793846300,3.32684619140625,-0.7119094133377075,1.1395336389541626,1.7678438425064087
1788862329803852300,3.336852294921875,-0.6726462841033936,0.992138147354126,1.682531476020813
1788862329813858300,3.3468583984375,-0.6170520186424255,0.8809759616851807,1.5770798921585083
1788862329823865300,3.356865234375,-0.549038290977478,0.8211540579795837,1.519717812538147
1788862329833871400,3.366871337890625,-0.5115237236022949,0.7088770270347595,1.4505113363265991
1788862329843878100,3.376878173828125,-0.5334941148757935,0.5068053007125854,1.3566316366195679
1788862329853884200,3.38688427734375,-0.583824098110199,0.30099430680274963,1.3107796907424927
1788862329863890400,3.396890380859375,-0.6044937372207642,0.045632392168045044,1.300678014755249
1788862329873897200,3.406897216796875,-0.5951537489891052,-0.2184130996465683,1.2609401941299438
1788862329883903200,3.4169033203125,-0.583088755607605,-0.3748743236064911,1.257398247718811
1788862329893910500,3.42691064453125,-0.6059882044792175,-0.3767947554588318,1.3110138177871704
1788862329903916300,3.436916259765625,-0.6589100360870361,-0.3638100326061249,1.3475682735443115
1788862329913923300,3.44692333984375,-0.7212618589401245,-0.4503800570964813,1.351291298866272
1788862329923929000,3.45692919921875,-0.7481179237365723,-0.5888644456863403,1.360945701599121
1788862329933935400,3.466935302734375,-0.6850951910018921,-0.5195929408073425,1.324181318283081
1788862329943942400,3.4769423828125,-0.5032486319541931,-0.3512919545173645,1.2293113470077515
1788862329953948200,3.4869482421875,-0.2927483916282654,-0.2043171525001526,1.1057136058807373
1788862329963955500,3.49695556640625,-0.1280890852212906,0.014555925503373146,0.9933215975761414
1788862329973961500,3.50696142578125,-0.01431723777204752,0.3305932581424713,0.8853509426116943
1788862329983967200,3.51696728515625,0.13311924040317535,0.8195089101791382,0.7344576716423035
1788862329993974300,3.526974365234375,0.30722394585609436,1.1306535005569458,0.5518614649772644
1788862330003980300,3.536980224609375,0.4272470772266388,1.1862949132919312,0.4896794557571411
1788862330013987300,3.5469873046875,0.48113828897476196,1.2319939136505127,0.5327281355857849
1788862330023993300,3.556993408203125,0.4971042573451996,1.2616053819656372,0.5599113702774048
1788862330033999400,3.566999267578125,0.5209611058235168,1.4536999464035034,0.5880740284919739
1788862330044006400,3.57700634765625,0.5671007633209229,1.6638671159744263,0.5430359244346619
1788862330054012400,3.587012451171875,0.6240537762641907,1.74958336353302,0.4777061641216278
1788862330064019500,3.59701953125,0.6053879261016846,1.7596449851989746,0.4579736888408661
1788862330074025500,3.607025390625,0.4710833728313446,1.7135329246520996,0.3731061816215515
1788862330084032300,3.6170322265625,0.2846177816390991,1.5873363018035889,0.28475621342658997
1788862330094038300,3.627038330078125,0.12241052091121674,1.6893316507339478,0.3285156786441803
1788862330104044500,3.63704443359375,0.03964867815375328,2.074903726577759,0.4323931038379669
1788862330114051300,3.64705126953125,0.024317393079400063,2.2360005378723145,0.5280554294586182
1788862330124057300,3.657057373046875,0.07199417799711227,2.2384891510009766,0.46930038928985596
1788862330134064400,3.667064453125,0.12037236243486404,1.7287358045578003,0.20958282053470612
1788862330144070400,3.6770703125,0.16094961762428284,0.7086969017982483,-0.16514070332050323
1788862330154076400,3.687076416015625,0.21982598304748535,0.48882612586021423,-0.49888989329338074
1788862330164083200,3.697083251953125,0.3524652123451233,1.2465345859527588,-0.7064309120178223
1788862330174089500,3.70708935546875,0.5390592813491821,1.8631359338760376,-0.8168538808822632
1788862330184096300,3.71709619140625,0.5811060667037964,1.4686310291290283,-0.7725111842155457
1788862330194102300,3.727102294921875,0.4520091116428375,0.3989590108394623,-0.6373962163925171
1788862330204108300,3.7371083984375,0.13682734966278076,-0.3979463279247284,-0.5356452465057373
1788862330214115300,3.747115234375,-0.2759479582309723,-0.7594448328018188,-0.5034431219100952
1788862330224121300,3.757121337890625,-0.5458203554153442,-0.6070462465286255,-0.5879648327827454
1788862330234128100,3.767128173828125,-0.571021318435669,-0.14501367509365082,-0.7216733694076538
1788862330244134400,3.777134521484375,-0.6531092524528503,0.29178231954574585,-0.8405298590660095
1788862330254141400,3.787141357421875,-0.8828790783882141,0.6156916618347168,-0.9725816249847412
1788862330264147200,3.797147216796875,-1.0695464611053467,0.697109580039978,-1.1573704481124878
1788862330274153200,3.8071533203125,-1.1377167701721191,0.41472527384757996,-1.3548729419708252
1788862330284160300,3.81716015625,-1.156169056892395,0.01513306237757206,-1.5187143087387085
1788862330294166300,3.827166259765625,-1.1576104164123535,-0.3675088584423065,-1.6199696063995361
1788862330304173300,3.83717333984375,-1.1066960096359253,-0.7115691900253296,-1.6637815237045288
1788862330314179300,3.847179443359375,-0.9937571883201599,-1.0473600625991821,-1.6721843481063843
1788862330324185300,3.857185302734375,-0.8354899883270264,-1.3908885717391968,-1.6847256422042847
1788862330334192400,3.8671923828125,-0.6780750751495361,-1.5780971050262451,-1.7098737955093384
1788862330344198100,3.8771982421875,-0.5608728528022766,-1.4036496877670288,-1.7170114517211914
1788862330354205400,3.887205322265625,-0.5243774056434631,-0.9489554762840271,-1.6340081691741943
1788862330364211200,3.897211181640625,-0.517210841178894,-0.4490342438220978,-1.486707329750061
1788862330374218200,3.90721826171875,-0.5131894946098328,-0.22248658537864685,-1.299074411392212
1788862330384224500,3.917224609375,-0.5291737914085388,-0.22897358238697052,-1.1301733255386353
1788862330394230300,3.927230224609375,-0.5605266690254211,-0.31056299805641174,-1.0100282430648804
1788862330404237300,3.9372373046875,-0.4948837459087372,-0.29706159234046936,-0.8277695178985596
1788862330414243300,3.947243408203125,-0.4356529116630554,-0.1737053096294403,-0.5469053983688354
1788862330424250400,3.95725048828125,-0.4961243271827698,-0.08826138824224472,-0.25276684761047363
1788862330434256400,3.96725634765625,-0.5682278275489807,0.03264345973730087,-0.08244093507528305
1788862330444262100,3.97726220703125,-0.5453118681907654,0.003980019595474005,-0.07190797477960587
1788862330454269400,3.98726953125,-0.43064072728157043,-0.26791006326675415,-0.10349839180707932
1788862330464275500,3.997275390625,-0.3372856676578522,-0.5170503258705139,-0.11345577239990234
1788862330474282200,4.0072822265625,-0.342158704996109,-0.684025228023529,-0.14672636985778809
1788862330484288300,4.017288330078125,-0.42145639657974243,-0.7540865540504456,-0.2342454344034195
1788862330494295300,4.02729541015625,-0.5567502975463867,-0.7040276527404785,-0.3381803333759308
1788862330504301300,4.03730126953125,-0.7148300409317017,-0.5783545970916748,-0.3807421028614044
1788862330514307300,4.047307373046875,-0.8175796270370483,-0.4051170349121094,-0.3157905340194702
1788862330524314400,4.057314453125,-0.8701866269111633,-0.3168013393878937,-0.19923385977745056
1788862330534320400,4.0673203125,-0.9022181034088135,-0.30713725090026855,-0.13132591545581818
1788862330544327700,4.07732763671875,-0.9007230997085571,-0.35201799869537354,-0.1378992646932602
1788862330554333700,4.087333740234375,-0.8546155691146851,-0.43030986189842224,-0.18935127556324005
1788862330564340500,4.097340576171875,-0.7732607126235962,-0.531022310256958,-0.21939203143119812
1788862330574346500,4.107346435546875,-0.6975667476654053,-0.6058984398841858,-0.250340074300766
1788862330584352800,4.117352783203125,-0.6436660885810852,-0.5829223394393921,-0.3416362702846527
1788862330594359600,4.127359619140625,-0.5959627628326416,-0.4568760097026825,-0.44050559401512146
1788862330604365600,4.137365478515625,-0.5523473620414734,-0.33978134393692017,-0.48175811767578125
1788862330614372600,4.14737255859375,-0.5086214542388916,-0.2864728271961212,-0.4751393795013428
1788862330624378600,4.157378662109375,-0.4811166822910309,-0.36245033144950867,-0.4765518307685852
1788862330634384600,4.167384521484375,-0.47154608368873596,-0.43945109844207764,-0.50547856092453
1788862330644391700,4.1773916015625,-0.4995116889476776,-0.2895228862762451,-0.548529863357544
1788862330654397700,4.187397705078125,-0.5664775967597961,-0.12618696689605713,-0.5549478530883789
1788862330664404700,4.19740478515625,-0.5988302826881409,-0.054165467619895935,-0.5609686970710754
1788862330674410500,4.207410400390625,-0.5945410132408142,-0.16919486224651337,-0.5844314098358154
1788862330684417800,4.217417724609375,-0.5683811902999878,-0.4225694537162781,-0.6175039410591125
1788862330694423600,4.227423583984375,-0.5585434436798096,-0.5004064440727234,-0.6432218551635742
1788862330704429600,4.2374296875,-0.5796560049057007,-0.4608471393585205,-0.6068481206893921
1788862330714436900,4.247436767578125,-0.5752918720245361,-0.41420960426330566,-0.5430817008018494
1788862330724442600,4.257442626953125,-0.5804376602172852,-0.3309820592403412,-0.5464717149734497
1788862330734449700,4.26744970703125,-0.6085883378982544,-0.33637815713882446,-0.6130550503730774
1788862330744455700,4.27745556640625,-0.62237548828125,-0.39778032898902893,-0.663774311542511
1788862330754462700,4.287462646484375,-0.6249643564224243,-0.5201475024223328,-0.6401821970939636
1788862330764468700,4.29746875,-0.5706194043159485,-0.5825815796852112,-0.6095325946807861
1788862330774474500,4.307474609375,-0.5032310485839844,-0.5474808812141418,-0.6188733577728271
1788862330784481800,4.317481689453125,-0.4428233802318573,-0.4855078160762787,-0.6542696952819824
1788862330794487800,4.32748779296875,-0.37758341431617737,-0.4438498616218567,-0.6553357839584351
1788862330804494600,4.33749462890625,-0.2843455970287323,-0.5400309562683105,-0.6043686866760254
1788862330814500600,4.34750048828125,-0.19504395127296448,-0.8119950890541077,-0.5433002710342407
1788862330824507600,4.357507568359375,-0.1701628714799881,-0.9127135276794434,-0.5448935031890869
1788862330834513700,4.367513671875,-0.18250156939029694,-0.836755633354187,-0.5564966201782227
1788862330844519700,4.377519775390625,-0.17055492103099823,-0.6416824460029602,-0.5868359804153442
1788862330854526700,4.387526611328125,-0.1318272352218628,-0.5815059542655945,-0.6367470622062683
1788862330864532700,4.39753271484375,-0.047126274555921555,-0.7804412841796875,-0.6972843408584595
1788862330874539500,4.40753955078125,0.04773871600627899,-0.9734700918197632,-0.7520802021026611
1788862330884545500,4.417545654296875,0.10239188373088837,-1.1127862930297852,-0.767892599105835
1788862330894551800,4.4275517578125,0.13384461402893066,-1.1407349109649658,-0.7504337430000305
1788862330904558600,4.43755859375,0.15925073623657227,-1.0247703790664673,-0.7622672319412231
1788862330914564600,4.447564697265625,0.20415963232517242,-0.9549249410629272,-0.8134020566940308
1788862330924571600,4.457571533203125,0.2584981620311737,-1.0175820589065552,-0.843513548374176
1788862330934577700,4.46757763671875,0.255488783121109,-1.1444436311721802,-0.8707507848739624
1788862330944584700,4.477584716796875,0.2349437177181244,-1.089773416519165,-0.8891662359237671
1788862330954590500,4.487590576171875,0.2626911997795105,-1.0400687456130981,-0.8790611624717712
1788862330964596700,4.4975966796875,0.288260281085968,-1.0834016799926758,-0.8852948546409607
1788862330974603800,4.507603759765625,0.2711329460144043,-1.129718542098999,-0.9171825051307678
1788862330984609500,4.517609619140625,0.23423607647418976,-1.2466458082199097,-1.067575454711914
1788862330994616800,4.527616943359375,0.2929039001464844,-1.3505074977874756,-1.2581706047058105
1788862331004622600,4.53762255859375,0.35200804471969604,-1.012435793876648,-1.3799034357070923
1788862331014629600,4.547629638671875,0.33254194259643555,-0.44042715430259705,-1.6155731678009033
1788862331024635600,4.5576357421875,0.27825239300727844,0.02661149762570858,-1.866538166999817
1788862331034641700,4.5676416015625,0.2450142651796341,0.3931175768375397,-1.914656400680542
1788862331044648700,4.577648681640625,0.3599512577056885,0.10647642612457275,-1.5444772243499756
1788862331054654700,4.58765478515625,0.4553326368331909,-0.4963599145412445,-1.2644206285476685
1788862331064661800,4.597661865234375,0.36957061290740967,-0.19600248336791992,-1.4873234033584595
1788862331074667800,4.607667724609375,0.3076242208480835,0.500617265701294,-1.556840181350708
1788862331084674600,4.617674560546875,0.27452489733695984,0.26681122183799744,-1.3207051753997803
1788862331094680600,4.6276806640625,0.16606315970420837,0.03328315541148186,-1.290441870689392
1788862331104686800,4.637686767578125,-0.01786905899643898,0.15258701145648956,-1.1568615436553955
1788862331114693600,4.647693603515625,-0.23443810641765594,0.3328547775745392,-1.1189732551574707
1788862331124699600,4.65769970703125,-0.3416156470775604,0.47994643449783325,-1.1084115505218506
1788862331134706700,4.667706787109375,-0.44761157035827637,0.4569971561431885,-1.0266830921173096
1788862331144712700,4.677712646484375,-0.6298370957374573,0.4495243728160858,-0.9136103987693787
1788862331154719500,4.687719482421875,-0.7873939275741577,0.453776091337204,-0.8354753851890564
1788862331164725500,4.6977255859375,-0.7697053551673889,0.6492028832435608,-0.7542306780815125
1788862331174731800,4.707731689453125,-0.7125666737556458,0.49630361795425415,-0.6872153878211975
1788862331184738600,4.717738525390625,-0.709067702293396,0.5258159637451172,-0.5598968267440796
1788862331194744600,4.72774462890625,-0.6864414811134338,0.8269880414009094,-0.3586382567882538
1788862331204751600,4.737751708984375,-0.6034311056137085,1.169689416885376,-0.1878909319639206
1788862331214757600,4.747757568359375,-0.5218563079833984,0.9971021413803101,0.03706628829240799
1788862331224764700,4.7577646484375,-0.4660896956920624,0.9677018523216248,0.3245360851287842
1788862331234770700,4.767770751953125,-0.40402844548225403,1.219336986541748,0.5310583710670471
1788862331244776700,4.777776611328125,-0.33689558506011963,1.4456853866577148,0.5594934821128845
1788862331254783700,4.78778369140625,-0.2759350538253784,1.2915823459625244,0.5714529156684875
1788862331264789500,4.79778955078125,-0.31190112233161926,0.8886141180992126,0.6373640894889832
1788862331274796800,4.807796875,-0.3962905704975128,0.6286443471908569,0.7382616996765137
1788862331284802600,4.817802490234375,-0.3615049421787262,0.9409772157669067,0.799176037311554
1788862331294809600,4.8278095703125,-0.27906280755996704,1.092797875404358,0.814042329788208
1788862331304815900,4.83781591796875,-0.13084818422794342,0.7358032464981079,0.8168548941612244
1788862331314822700,4.84782275390625,-0.03448862582445145,0.4032233953475952,0.9385895729064941
1788862331324828700,4.85782861328125,0.020273955538868904,0.381797730922699,1.0806246995925903
1788862331334834700,4.867834716796875,0.07191424816846848,0.617965817451477,1.2078231573104858
1788862331344841700,4.877841796875,0.12810666859149933,0.830277681350708,1.3019417524337769
1788862331354847700,4.88784765625,0.19542445242404938,0.9128561615943909,1.337577223777771
1788862331364854500,4.8978544921875,0.2977154552936554,0.7045215368270874,1.4270416498184204
1788862331374860800,4.90786083984375,0.3739878535270691,0.38661283254623413,1.497014045715332
1788862331384867600,4.91786767578125,0.3923541307449341,0.5202427506446838,1.5657410621643066
1788862331394873600,4.92787353515625,0.3485073149204254,0.8753995299339294,1.5748586654663086
1788862331404879600,4.937879638671875,0.3295726776123047,0.9886007905006409,1.605898141860962
1788862331414886700,4.94788671875,0.42402008175849915,0.892367959022522,1.6888949871063232
1788862331424892700,4.957892578125,0.5709690451622009,0.8814194202423096,1.7183164358139038
1788862331434899500,4.9678994140625,0.6602725386619568,0.9022378921508789,1.6771652698516846
1788862331444905700,4.97790576171875,0.6750112175941467,0.7624700665473938,1.6654107570648193
1788862331454912800,4.987912841796875,0.7013975381851196,0.6671379208564758,1.7522541284561157
1788862331464918500,4.99791845703125,0.7789785861968994,0.7446151375770569,1.790236234664917
1788862331474924500,5.007924560546875,0.8485864400863647,0.7639177441596985,1.7273595333099365
1788862331484931600,5.017931640625,0.8586366772651672,0.6943118572235107,1.6433783769607544
1788862331494937600,5.0279375,0.8742145895957947,0.7449731230735779,1.6589293479919434
1788862331504944600,5.037944580078125,0.9878273010253906,0.7704654335975647,1.7524958848953247
1788862331514950700,5.04795068359375,1.1194379329681396,0.7519785761833191,1.846778392791748
1788862331524957700,5.057957763671875,1.1571626663208008,0.8639488220214844,1.8648333549499512
1788862331534963700,5.067963623046875,1.1078959703445435,0.7090966105461121,1.826357364654541
1788862331544971000,5.077970947265625,1.1095343828201294,0.4794866740703583,1.818239688873291
1788862331554977000,5.08797705078125,1.1609888076782227,0.6932170987129211,1.8319134712219238
1788862331564983000,5.097983154296875,1.174432635307312,0.7968618869781494,1.8083457946777344
1788862331574990000,5.107989990234375,1.1708980798721313,0.638851523399353,1.7890032529830933
1788862331584996000,5.11799609375,1.1943520307540894,0.7695178985595703,1.7598880529403687
1788862331595003100,5.128003173828125,1.2234649658203125,1.049501657485962,1.6979939937591553
1788862331605009200,5.138009033203125,1.263824701309204,0.9143177270889282,1.6752915382385254
1788862331615016000,5.148015869140625,1.3010066747665405,0.7418087720870972,1.701766014099121
1788862331625022000,5.15802197265625,1.293471097946167,0.7864562273025513,1.7127734422683716
1788862331635028200,5.1680283203125,1.2291815280914307,0.6900793313980103,1.7130540609359741
1788862331645035000,5.178034912109375,1.1790235042572021,0.5584092736244202,1.736151099205017
1788862331655041000,5.188041015625,1.125110387802124,0.7408277988433838,1.765748381614685
1788862331665048000,5.198048095703125,1.0328097343444824,1.1190290451049805,1.7399705648422241
1788862331675054000,5.20805419921875,0.9093953967094421,1.212161660194397,1.6726820468902588
1788862331685060900,5.218060791015625,0.768767774105072,0.8730770349502563,1.5920586585998535
1788862331695067000,5.22806689453125,0.6985508799552917,0.5539216995239258,1.5159649848937988
1788862331705074200,5.23807421875,0.6777995228767395,0.595216691493988,1.422749400138855
1788862331715080000,5.248079833984375,0.6435922980308533,0.8029760122299194,1.2550485134124756
1788862331725086000,5.2580859375,0.5824038982391357,0.8773078322410583,1.0104756355285645
1788862331735093000,5.268093017578125,0.5433382391929626,0.8001216650009155,0.7476325631141663
1788862331745099000,5.27809912109375,0.5181041955947876,0.45289739966392517,0.5002872347831726
1788862331755106000,5.28810595703125,0.4420032501220703,0.13127197325229645,0.22151392698287964
1788862331765111800,5.29811181640625,0.3261745870113373,0.16830235719680786,-0.07272186130285263
1788862331775119000,5.308119140625,0.22837133705615997,0.3375406563282013,-0.2974628508090973
1788862331785125000,5.318125,0.1201038733124733,0.32329726219177246,-0.3946700692176819
1788862331795132000,5.3281318359375,-0.034686505794525146,0.22169871628284454,-0.45595312118530273
1788862331805138200,5.33813818359375,-0.15714003145694733,0.09714009612798691,-0.5508384108543396
1788862331815144000,5.34814404296875,-0.25339439511299133,0.06926718354225159,-0.6926352381706238
1788862331825151000,5.35815087890625,-0.3772730231285095,0.09541863948106766,-0.8416798114776611
1788862331835157000,5.368156982421875,-0.48536354303359985,-0.04994095116853714,-0.9801217913627625
1788862331845164000,5.3781640625,-0.5038033127784729,-0.2780959904193878,-1.1312941312789917
1788862331855170000,5.388170166015625,-0.4478404223918915,-0.36710041761398315,-1.3481417894363403
1788862331865176800,5.3981767578125,-0.3755793869495392,-0.4502527415752411,-1.5593127012252808
1788862331875183000,5.40818310546875,-0.3568163514137268,-0.6023756861686707,-1.689681053161621
1788862331885190000,5.41818994140625,-0.4052729308605194,-0.6428825855255127,-1.7359092235565186
1788862331895196000,5.42819580078125,-0.43675094842910767,-0.4905540347099304,-1.7540887594223022
1788862331905202200,5.4382021484375,-0.45666810870170593,-0.21609486639499664,-1.7464439868927002
1788862331915209000,5.448208984375,-0.5454413890838623,0.14378447830677032,-1.7110695838928223
1788862331925215000,5.458215087890625,-0.6986091732978821,0.30739477276802063,-1.6317142248153687
1788862331935222300,5.46822216796875,-0.7407510280609131,0.25263512134552,-1.5874228477478027
1788862331945228000,5.47822802734375,-0.6042417883872986,0.22061005234718323,-1.6352028846740723
1788862331955235000,5.488235107421875,-0.3584820628166199,0.044496800750494,-1.6577656269073486
1788862331965240800,5.49824072265625,-0.12006384134292603,-0.2940202057361603,-1.5749988555908203
1788862331975248100,5.508248046875,-0.004299692809581757,-0.585546612739563,-1.3493796586990356
1788862331985254100,5.518254150390625,-0.0316946841776371,-0.8223892450332642,-0.9628620147705078
1788862331995260000,5.528260009765625,-0.12146184593439102,-0.6427896618843079,-0.5941590666770935
1788862332005267200,5.53826708984375,-0.26301664113998413,-0.06925580650568008,-0.428206205368042
1788862332015273200,5.548273193359375,-0.41992583870887756,0.02842361479997635,-0.40582314133644104
1788862332025280000,5.558280029296875,-0.48617538809776306,-0.3855333924293518,-0.4893941581249237
1788862332035286000,5.5682861328125,-0.44927170872688293,-0.72084641456604,-0.6757110357284546
1788862332045293000,5.57829296875,-0.40535202622413635,-0.8738915920257568,-0.8636200428009033
1788862332055299000,5.588299072265625,-0.42717981338500977,-0.8241599798202515,-0.9427452683448792
1788862332065305900,5.598305908203125,-0.4530639052391052,-0.5455278754234314,-0.8950718641281128
1788862332075312000,5.60831201171875,-0.4292752146720886,-0.22089248895645142,-0.7860199213027954
1788862332085318100,5.618318115234375,-0.3753199875354767,-0.13420280814170837,-0.7106436491012573
1788862332095325000,5.628324951171875,-0.3407686650753021,-0.35646358132362366,-0.6810852289199829
1788862332105331000,5.6383310546875,-0.3281729817390442,-0.6382855176925659,-0.7279518842697144
1788862332115338000,5.648337890625,-0.3231332302093506,-0.8005492091178894,-0.8336348533630371
1788862332125344000,5.658343994140625,-0.31329941749572754,-0.8779768347740173,-0.9387333989143372
1788862332135351000,5.66835107421875,-0.28571438789367676,-0.8658283352851868,-1.0235047340393066
1788862332145357000,5.678357177734375,-0.28996196389198303,-0.8283485770225525,-1.063175082206726
1788862332155364000,5.688364013671875,-0.3051683306694031,-0.8887469172477722,-1.09037184715271
1788862332165370000,5.6983701171875,-0.3000161051750183,-1.007119059562683,-1.126321792602539
1788862332175377200,5.708377197265625,-0.27528226375579834,-1.053382158279419,-1.1709438562393188
1788862332185383200,5.718383056640625,-0.27812686562538147,-0.9636584520339966,-1.2103112936019897
1788862332195389000,5.728388916015625,-0.2932613492012024,-0.657437801361084,-1.2640039920806885
1788862332205396000,5.73839599609375,-0.28014570474624634,-0.5940280556678772,-1.327989101409912
1788862332215402200,5.74840234375,-0.2099711149930954,-0.9829169511795044,-1.3866373300552368
1788862332225409000,5.758408935546875,-0.12805064022541046,-1.3738515377044678,-1.4420323371887207
1788862332235415000,5.7684150390625,-0.1057216227054596,-1.4538781642913818,-1.4819999933242798
1788862332245422000,5.778422119140625,-0.10576014965772629,-1.5097283124923706,-1.4588541984558105
1788862332255428000,5.788427978515625,-0.07607442885637283,-1.5171241760253906,-1.3848193883895874
1788862332265435000,5.798434814453125,-0.025602778419852257,-1.5248255729675293,-1.3392876386642456
1788862332275441000,5.80844091796875,0.022439848631620407,-1.610990285873413,-1.3555124998092651
1788862332285447200,5.818447265625,0.017301538959145546,-1.6915456056594849,-1.4123611450195312
1788862332295454000,5.828453857421875,-0.03135920688509941,-1.6554592847824097,-1.448296308517456
1788862332305460000,5.8384599609375,-0.0888829156756401,-1.4554390907287598,-1.4847971200942993
1788862332315467000,5.848467041015625,-0.127248153090477,-1.3350192308425903,-1.5146160125732422
1788862332325473000,5.85847314453125,-0.15747474133968353,-1.5213255882263184,-1.5528708696365356
1788862332335480000,5.86847998046875,-0.18449117243289948,-1.6182273626327515,-1.7119747400283813
1788862332345485800,5.87848583984375,-0.19444231688976288,-1.3366613388061523,-1.8709673881530762
1788862332355493000,5.8884931640625,-0.2499849498271942,-0.6455236673355103,-2.164412260055542
1788862332365499100,5.8984990234375,-0.40893593430519104,0.13794754445552826,-2.2928383350372314
1788862332375506000,5.908505859375,-0.45584166049957275,0.25555166602134705,-1.8188153505325317
1788862332385512200,5.91851220703125,-0.23671410977840424,-0.5518277287483215,-1.2455247640609741
1788862332395518000,5.92851806640625,-0.18809384107589722,-0.7525573372840881,-1.362380862236023
1788862332405525000,5.93852490234375,-0.4032664895057678,-0.3627408444881439,-1.5150949954986572
1788862332415531000,5.948531005859375,-0.5259559154510498,-0.4959540367126465,-1.3300220966339111
1788862332425538000,5.9585380859375,-0.5817782878875732,-0.47384926676750183,-1.2838877439498901
1788862332435544000,5.9685439453125,-0.6534420847892761,-0.48881223797798157,-1.1809037923812866
1788862332445550800,5.97855078125,-0.7148747444152832,-0.5278938412666321,-0.9109430313110352
1788862332455557000,5.98855712890625,-0.7690487504005432,-0.31445053219795227,-0.7601674199104309
1788862332465564000,5.99856396484375,-0.7732293605804443,-0.093622587621212,-0.5894989371299744
1788862332475570000,6.00856982421875,-0.777588963508606,0.02278205193579197,-0.4976731538772583
1788862332485576200,6.018576171875,-0.8073132038116455,0.15834471583366394,-0.4117090702056885
1788862332495583000,6.0285830078125,-0.8063510060310364,0.4101119637489319,-0.20025300979614258
1788862332505589000,6.038589111328125,-0.7906346321105957,0.5409149527549744,-0.0018539940938353539
1788862332515596000,6.048595947265625,-0.7557618618011475,0.5534115433692932,0.20732451975345612
1788862332525602000,6.05860205078125,-0.7181283831596375,0.7104687690734863,0.4964999854564667
1788862332535609000,6.068609130859375,-0.6838809251785278,0.9018933176994324,0.7286557555198669
1788862332545614800,6.07861474609375,-0.6721459031105042,1.2530159950256348,0.8291476964950562
1788862332555622000,6.088621826171875,-0.60491544008255,1.5375683307647705,0.9749405980110168
1788862332565628000,6.0986279296875,-0.47903114557266235,1.5711150169372559,1.1983575820922852
1788862332575635000,6.108635009765625,-0.3469274342060089,1.7255131006240845,1.4622610807418823
1788862332585641000,6.118640869140625,-0.2451344132423401,1.9043314456939697,1.6544146537780762
1788862332595647700,6.128647705078125,-0.21873928606510162,1.7517024278640747,1.6627730131149292
1788862332605654000,6.138654052734375,-0.23377078771591187,1.283719778060913,1.7151625156402588
1788862332615660000,6.148659912109375,-0.22574561834335327,1.0233005285263062,1.9006421566009521
1788862332625666800,6.158666748046875,-0.24102498590946198,1.0670732259750366,2.008617401123047
1788862332635672800,6.1686728515625,-0.27466869354248047,1.197792887687683,2.023473024368286
1788862332645679900,6.178679931640625,-0.21207912266254425,1.123702883720398,2.1060376167297363
1788862332655686000,6.188685791015625,-0.060942068696022034,0.7804617881774902,2.1769556999206543
1788862332665693000,6.19869287109375,0.11443892866373062,0.7426702380180359,2.215367078781128
1788862332675699000,6.208698974609375,0.28727248311042786,0.7582390904426575,2.241105794906616
1788862332685706000,6.2187060546875,0.4459596276283264,0.48733288049697876,2.278801918029785
1788862332695711700,6.228711669921875,0.5821462273597717,0.27536097168922424,2.3329243659973145
1788862332705719000,6.238718994140625,0.6761023998260498,0.33924785256385803,2.295114040374756
1788862332715725000,6.24872509765625,0.6660878658294678,0.4153527319431305,2.206294298171997
1788862332725730800,6.258730712890625,0.6142271757125854,0.32410332560539246,2.234823226928711
1788862332735737900,6.26873779296875,0.6002543568611145,0.3706226348876953,2.3650286197662354
1788862332745744000,6.278743896484375,0.6225861310958862,0.5583574175834656,2.4597458839416504
1788862332755751000,6.2887509765625,0.6388183832168579,0.6047901511192322,2.4694042205810547
1788862332765757000,6.2987568359375,0.613377571105957,0.517386257648468,2.4873626232147217
1788862332775764000,6.308763916015625,0.5631915926933289,0.5387203097343445,2.5780162811279297
1788862332785770000,6.31877001953125,0.5224853157997131,0.7528408765792847,2.611696243286133
1788862332795776800,6.32877685546875,0.4961642324924469,0.9523209929466248,2.60571026802063
1788862332805782800,6.33878271484375,0.5189873576164246,0.9143664240837097,2.6368749141693115
1788862332815789800,6.348789794921875,0.5859693288803101,0.6908835172653198,2.733325242996216
1788862332825795800,6.3587958984375,0.6603232622146606,0.5585173964500427,2.8167777061462402
1788862332835801900,6.3688017578125,0.6807422637939453,0.5847945213317871,2.809847354888916
1788862332845809000,6.378808837890625,0.6233548521995544,0.6802619099617004,2.6799004077911377
1788862332855815000,6.38881494140625,0.5074841380119324,0.7275721430778503,2.45666241645813
1788862332865822000,6.398822021484375,0.4225221574306488,0.7412529587745667,2.1822826862335205
1788862332875828000,6.408827880859375,0.46832212805747986,0.6745826005935669,1.943280577659607
1788862332885835000,6.4188349609375,0.612494707107544,0.6041440367698669,1.7493484020233154
1788862332895840800,6.4288408203125,0.7183782458305359,0.5677386522293091,1.507821798324585
1788862332905848000,6.43884814453125,0.7041504979133606,0.694191038608551,1.2072644233703613
1788862332915854000,6.44885400390625,0.5109418630599976,0.9561768770217896,0.8842993378639221
1788862332925860900,6.45886083984375,0.2511005401611328,1.104303002357483,0.505611002445221
1788862332935867000,6.468866943359375,0.06377432495355606,0.8161247968673706,0.08573304116725922
1788862332945874000,6.4788740234375,-0.025254331529140472,0.47552958130836487,-0.2921295762062073
1788862332955880000,6.4888798828125,-0.0638965293765068,0.1595849245786667,-0.5642727017402649
1788862332965886000,6.498885986328125,0.03519474342465401,0.061580363661050797,-0.8044203519821167
1788862332975893000,6.50889306640625,0.07828495651483536,0.026386683806777,-0.9712745547294617
1788862332985899000,6.51889892578125,0.021150663495063782,-0.21208494901657104,-1.108200192451477
1788862332995905800,6.52890576171875,-0.025763316079974174,-0.561322808265686,-1.2814092636108398
1788862333005911800,6.538911865234375,-0.0754278376698494,-0.6665113568305969,-1.437222957611084
1788862333015918800,6.5489189453125,-0.17047153413295746,-0.4645041823387146,-1.5767267942428589
1788862333025924900,6.5589248046875,-0.28983214497566223,-0.10133432596921921,-1.709545612335205
1788862333035932000,6.568931884765625,-0.37803682684898376,0.1780424565076828,-1.8371176719665527
1788862333045938000,6.57893798828125,-0.433743953704834,0.3461975157260895,-1.881895899772644
1788862333055945000,6.588945068359375,-0.4342222511768341,0.3115284740924835,-1.7432551383972168
1788862333065951000,6.598950927734375,-0.3645884096622467,-0.004389824345707893,-1.5279837846755981
1788862333075958000,6.6089580078125,-0.26992449164390564,-0.35436275601387024,-1.328726053237915
1788862333085964000,6.618964111328125,-0.2293146252632141,-0.28670960664749146,-1.1978739500045776
1788862333095969800,6.6289697265625,-0.30993250012397766,0.14348599314689636,-1.0802186727523804
1788862333105976800,6.638976806640625,-0.47100168466567993,0.637214183807373,-0.961431622505188
1788862333115983000,6.648983154296875,-0.6036809086799622,0.8338689208030701,-0.9094845652580261
1788862333125990000,6.658989990234375,-0.6508285403251648,0.648639976978302,-0.9757707715034485
1788862333135996000,6.668995849609375,-0.5835645794868469,0.06412298232316971,-1.0991071462631226
1788862333146003000,6.6790029296875,-0.4037160873413086,-0.4860643148422241,-1.1939793825149536
1788862333156009000,6.689009033203125,-0.25988754630088806,-0.6977161169052124,-1.1981043815612793
1788862333166015700,6.699015625,-0.26099032163619995,-0.6175035834312439,-1.1206315755844116
1788862333176021800,6.709021728515625,-0.42107558250427246,-0.3187571167945862,-1.0213308334350586
1788862333186029000,6.719029052734375,-0.6356805562973022,-0.04075845703482628,-0.941455066204071
1788862333196034800,6.729034912109375,-0.7725968956947327,0.14178580045700073,-0.953342616558075
1788862333206041900,6.739041748046875,-0.8430028557777405,0.041565217077732086,-1.0251553058624268
1788862333216048000,6.749048095703125,-0.869727373123169,-0.3467563986778259,-1.092178225517273
1788862333226055000,6.759054931640625,-0.8371422290802002,-0.679366409778595,-1.1160212755203247
1788862333236061000,6.76906103515625,-0.7731070518493652,-0.9436633586883545,-1.0940659046173096
1788862333246066700,6.779066650390625,-0.7061140537261963,-1.1183478832244873,-1.1190921068191528
1788862333256074000,6.789073974609375,-0.6435977220535278,-0.9529946446418762,-1.1864410638809204
1788862333266080000,6.799080078125,-0.5854668617248535,-0.5697104930877686,-1.2212928533554077
1788862333276086800,6.809086669921875,-0.5529749989509583,-0.39389050006866455,-1.2129875421524048
1788862333286093000,6.819093017578125,-0.5359037518501282,-0.4481694996356964,-1.2011661529541016
1788862333296099800,6.829099853515625,-0.5576441884040833,-0.6109954118728638,-1.2235784530639648
1788862333306105900,6.83910595703125,-0.5999716520309448,-0.890887975692749,-1.2784972190856934
1788862333316113000,6.84911279296875,-0.6071432828903198,-1.2655278444290161,-1.3172798156738281
1788862333326119000,6.859118896484375,-0.6041373014450073,-1.5604697465896606,-1.3715866804122925
1788862333336126000,6.8691259765625,-0.5859889388084412,-1.7295235395431519,-1.4529390335083008
1788862333346131700,6.879131591796875,-0.5531627535820007,-1.7089250087738037,-1.5388002395629883
1788862333356139000,6.889138916015625,-0.5310795307159424,-1.687232255935669,-1.6130666732788086
1788862333366144800,6.899144775390625,-0.5478897094726562,-1.5395532846450806,-1.6953946352005005
1788862333376150800,6.90915087890625,-0.6201905608177185,-1.1495146751403809,-1.8058117628097534
1788862333386158000,6.919157958984375,-0.6948015689849854,-0.7517478466033936,-1.8808766603469849
1788862333396163800,6.929163818359375,-0.7142658233642578,-0.7576283812522888,-1.9018418788909912
1788862333406171000,6.9391708984375,-0.6966361403465271,-1.0221000909805298,-1.9391889572143555
1788862333416177000,6.949177001953125,-0.620059609413147,-1.2257544994354248,-2.0663299560546875
1788862333426184000,6.959183837890625,-0.4809788465499878,-1.1814966201782227,-2.146442174911499
1788862333436190000,6.96918994140625,-0.40669530630111694,-0.7008247375488281,-2.042271614074707
1788862333446196700,6.97919677734375,-0.4726080298423767,-0.07689008861780167,-1.8547718524932861
1788862333456203000,6.989203125,-0.5505717992782593,0.13565945625305176,-1.695770502090454
1788862333466209800,6.999209716796875,-0.5745366811752319,-0.1412467360496521,-1.5179765224456787
1788862333476215800,7.0092158203125,-0.6394179463386536,-0.44849562644958496,-1.2325769662857056
1788862333486223000,7.01922314453125,-0.7738173604011536,-0.4053044617176056,-0.9144178032875061
1788862333496228900,7.029228759765625,-0.8612998127937317,-0.0637601837515831,-0.7439072728157043
1788862333506236000,7.03923583984375,-0.8234111070632935,0.08648054301738739,-0.6893219947814941
1788862333516242000,7.049241943359375,-0.6720410585403442,0.03210066258907318,-0.5341371893882751
1788862333526249000,7.0592490234375,-0.4896984398365021,0.010879380628466606,-0.3182283043861389
1788862333536255000,7.0692548828125,-0.42679405212402344,0.11356554925441742,-0.12617790699005127
1788862333546260500,7.079260498046875,-0.4352703392505646,0.13073129951953888,0.020836956799030304
1788862333556267800,7.089267822265625,-0.4343677759170532,0.1576172411441803,0.17093004286289215
1788862333566273800,7.099273681640625,-0.4173178970813751,0.2020229548215866,0.2642914652824402
1788862333576280600,7.109280517578125,-0.3697890043258667,0.2663995623588562,0.3225579559803009
1788862333586286600,7.11928662109375,-0.29917997121810913,0.20094124972820282,0.348943293094635
1788862333596293600,7.129293701171875,-0.24873168766498566,0.1443016678094864,0.37854859232902527
1788862333606299600,7.139299560546875,-0.2243632972240448,0.13649043440818787,0.3880174160003662
1788862333616306400,7.149306396484375,-0.207575261592865,0.1264047771692276,0.45723190903663635
1788862333626312700,7.159312744140625,-0.13225440680980682,0.3024328052997589,0.573029100894928
1788862333636319700,7.16931982421875,-0.027080092579126358,0.4626372754573822,0.7045024633407593
1788862333646325500,7.179325439453125,0.08257430791854858,0.4469302296638489,0.8853147625923157
1788862333656332800,7.189332763671875,0.16363826394081116,0.41580721735954285,1.127974510192871
1788862333666338600,7.199338623046875,0.2309001386165619,0.5197110176086426,1.358583927154541
1788862333676345600,7.209345703125,0.3018997609615326,0.6777081489562988,1.516911506652832
1788862333686352000,7.219351806640625,0.3771404027938843,0.8891194462776184,1.5887738466262817
1788862333696357600,7.229357666015625,0.45968297123908997,1.238207221031189,1.6662143468856812
1788862333706364700,7.23936474609375,0.5700114965438843,1.582423448562622,1.7491142749786377
1788862333716370700,7.24937060546875,0.6865575313568115,1.719083309173584,1.774256706237793
1788862333726377700,7.259377685546875,0.7726513147354126,1.7326451539993286,1.7467998266220093
1788862333736383700,7.2693837890625,0.8588738441467285,1.733886480331421,1.802047610282898
1788862333746390500,7.279390625,0.9885658621788025,1.7770329713821411,2.0041489601135254
1788862333756396800,7.289396728515625,1.1245170831680298,1.7717770338058472,2.1740262508392334
1788862333766403600,7.299403564453125,1.2147232294082642,1.6825224161148071,2.1685917377471924
1788862333776409600,7.30940966796875,1.2410253286361694,1.3797588348388672,2.024749279022217
1788862333786417000,7.3194169921875,1.2289563417434692,0.9233914613723755,1.9413652420043945
1788862333796422700,7.329422607421875,1.2042171955108643,0.6491524577140808,1.9477349519729614
1788862333806429700,7.3394296875,1.1750755310058594,0.46614956855773926,2.0099501609802246
1788862333816435500,7.349435546875,1.200291395187378,0.4677559733390808,2.2081947326660156
1788862333826442800,7.35944287109375,1.2720268964767456,0.4778757095336914,2.42152738571167
1788862333836448800,7.36944873046875,1.2764803171157837,0.4084995687007904,2.505801200866699
1788862333846455600,7.37945556640625,1.1988354921340942,0.23506206274032593,2.5515944957733154
1788862333856461800,7.3894619140625,1.0929639339447021,0.13707157969474792,2.551877498626709
1788862333866468600,7.399468505859375,1.0335135459899902,0.26320794224739075,2.4304378032684326
1788862333876474600,7.409474609375,1.045644760131836,0.4638954997062683,2.343628168106079
1788862333886480600,7.419480712890625,1.1346052885055542,0.7062806487083435,2.354299306869507
1788862333896487700,7.42948779296875,1.266631841659546,1.1794546842575073,2.388485908508301
1788862333906493700,7.43949365234375,1.351293921470642,1.4665738344192505,2.351719617843628
1788862333916500500,7.44950048828125,1.258360505104065,1.3451653718948364,2.2151236534118652
1788862333926506800,7.4595068359375,1.0166411399841309,1.177106499671936,1.9774233102798462
1788862333936513500,7.469513427734375,0.8118097186088562,1.2898727655410767,1.682296872138977
1788862333946519600,7.47951953125,0.6584854125976562,1.268194317817688,1.5008692741394043
1788862333956526800,7.48952685546875,0.5642790198326111,0.9707538485527039,1.4548509120941162
1788862333966532600,7.49953271484375,0.5524845719337463,0.6539087891578674,1.4280908107757568
1788862333976539600,7.50953955078125,0.547735869884491,0.4975407123565674,1.345144271850586
1788862333986545700,7.519545654296875,0.49285081028938293,0.4276573657989502,1.2233220338821411
1788862333996552700,7.529552734375,0.42221152782440186,0.2290193736553192,1.106982707977295
1788862334006558700,7.539558837890625,0.3406467139720917,-0.057484690099954605,0.9744669795036316
1788862334016565500,7.5495654296875,0.2555619180202484,-0.045804597437381744,0.7578774094581604
1788862334026571800,7.55957177734375,0.11799412965774536,0.2984391450881958,0.4451008439064026
1788862334036578600,7.56957861328125,-0.04279901087284088,0.3170376121997833,0.12279204279184341
1788862334046584600,7.57958447265625,-0.1572582870721817,-0.08930594474077225,-0.14461931586265564
1788862334056590600,7.589590576171875,-0.19056645035743713,-0.5163561105728149,-0.3124365508556366
1788862334066597600,7.59959765625,-0.18286409974098206,-0.5186668634414673,-0.45490026473999023
1788862334076603600,7.609603759765625,-0.20284579694271088,-0.11509861797094345,-0.6136699318885803
1788862334086610400,7.6196103515625,-0.33725640177726746,0.3426766097545624,-0.7945871353149414
1788862334096616700,7.62961669921875,-0.4502495229244232,0.6722899079322815,-1.0454356670379639
1788862334106623700,7.639623779296875,-0.42630499601364136,1.02385675907135,-1.292791485786438
1788862334116629500,7.64962939453125,-0.5035110712051392,0.9324912428855896,-1.4783786535263062
1788862334126636800,7.65963671875,-0.5559536218643188,0.3315112888813019,-1.623779296875
1788862334136642800,7.669642822265625,-0.43810686469078064,-0.11408188194036484,-1.7555620670318604
1788862334146649600,7.679649658203125,-0.327938437461853,-0.21380282938480377,-1.8276143074035645
1788862334156655600,7.689655517578125,-0.5008084774017334,-0.3803824782371521,-1.789833903312683
1788862334166662700,7.69966259765625,-0.8938032984733582,-0.6313914060592651,-1.6862356662750244
1788862334176668700,7.709668701171875,-1.129934310913086,-0.277142196893692,-1.604089617729187
1788862334186675500,7.719675537109375,-1.041893720626831,1.2305774688720703,-1.5839930772781372
1788862334196681700,7.729681640625,-0.9514970183372498,1.7880274057388306,-1.3160645961761475
1788862334206688800,7.739688720703125,-0.9443030953407288,0.5971880555152893,-0.8603225350379944
1788862334216694500,7.749694580078125,-0.6700276136398315,-0.9511442184448242,-0.486835241317749
1788862334226701800,7.759701904296875,-0.23409554362297058,-1.4218827486038208,-0.4324897229671478
1788862334236707600,7.76970751953125,-0.07002510875463486,-1.1490408182144165,-0.58823561668396
1788862334246714600,7.779714599609375,-0.3114994764328003,-1.0524938106536865,-0.7545521259307861
1788862334256720600,7.789720703125,-0.8766486048698425,-0.991042971611023,-0.9112557172775269
1788862334266726700,7.7997265625,-1.4038193225860596,-0.5070946216583252,-1.122132658958435
1788862334276733700,7.809733642578125,-1.6483784914016724,0.19525976479053497,-1.3311455249786377
1788862334286739700,7.81973974609375,-1.7223798036575317,0.570336103439331,-1.488676905632019
1788862334296746800,7.829746826171875,-1.6454112529754639,0.22990262508392334,-1.5163002014160156
1788862334306752800,7.839752685546875,-1.345748782157898,-0.260901540517807,-1.4913344383239746
1788862334316759600,7.849759521484375,-0.9612218141555786,-0.33539122343063354,-1.5620903968811035
1788862334326765800,7.859765869140625,-0.6313044428825378,-0.34492364525794983,-1.6569310426712036
1788862334336772600,7.869772705078125,-0.46482354402542114,-0.8574713468551636,-1.6366989612579346
1788862334346778600,7.879778564453125,-0.3708471357822418,-1.002702236175537,-1.6053518056869507
1788862334356785700,7.88978564453125,-0.2682592272758484,-0.6293359398841858,-1.6647831201553345
1788862334366791700,7.899791748046875,-0.18798083066940308,-0.38524329662323,-1.6106072664260864
1788862334376798700,7.909798828125,-0.15707404911518097,-0.659447431564331,-1.3801213502883911
1788862334386804500,7.919804443359375,-0.16822680830955505,-0.9700559377670288,-1.331944465637207
1788862334396811800,7.929811767578125,-0.19255691766738892,-1.0660624504089355,-1.5593401193618774
1788862334406817800,7.93981787109375,-0.22312882542610168,-1.1674691438674927,-1.7184149026870728
1788862334416824600,7.949824462890625,-0.3422509729862213,-1.3944045305252075,-1.638590693473816
1788862334426830800,7.959830810546875,-0.4486011564731598,-1.721341848373413,-1.5237653255462646
1788862334436837600,7.969837646484375,-0.4376771152019501,-1.679198145866394,-1.6655384302139282
1788862334446843600,7.97984375,-0.37124553322792053,-0.7017594575881958,-2.022322177886963
1788862334456850700,7.9898505859375,-0.3242495357990265,-0.009041938930749893,-2.1760478019714355
1788862334466856700,7.999856689453125,-0.24481651186943054,0.008086679503321648,-2.0015602111816406
1788862334476863700,8.00986376953125,0.06260175257921219,0.0011555359233170748,-1.7541803121566772
1788862334486869500,8.019869384765625,0.3516923785209656,-0.2694751024246216,-1.3891023397445679
1788862334496875800,8.029875732421875,0.2189369797706604,-0.4666939079761505,-0.9281602501869202
1788862334506882600,8.039882568359374,-0.1819135695695877,-0.5417719483375549,-0.6987046003341675
1788862334516888600,8.049888671875,-0.45271068811416626,-0.5898260474205017,-0.8391069769859314
1788862334526895900,8.059895751953125,-0.6121415495872498,-0.6158216595649719,-0.999445915222168
1788862334536901600,8.069901611328126,-0.643957257270813,-0.4595838189125061,-0.9754828214645386
1788862334546909200,8.0799091796875,-0.47521334886550903,-0.3229435980319977,-0.8361867070198059
1788862334556915000,8.0899150390625,-0.17023107409477234,-0.29585447907447815,-0.7092719078063965
1788862334566922200,8.099922119140626,0.07938334345817566,-0.3882531523704529,-0.663142204284668
1788862334576928300,8.10992822265625,0.1971145123243332,-0.22426529228687286,-0.6955227851867676
1788862334586935000,8.11993505859375,0.2244250625371933,-0.1754617691040039,-0.7669453024864197
1788862334596941000,8.129941162109375,0.2049325853586197,-0.18783774971961975,-0.7392135262489319
1788862334606948000,8.139947998046875,0.19586282968521118,0.07160551846027374,-0.6722968220710754
1788862334616954000,8.1499541015625,0.3612472712993622,0.5690200924873352,-0.6325706839561462
1788862334626961000,8.1599609375,0.5922031998634338,0.2557089626789093,-0.5060970783233643
1788862334636967200,8.16996728515625,0.6779135465621948,-0.3122178316116333,-0.22734855115413666
1788862334646974200,8.17997412109375,0.5766852498054504,-0.4245871901512146,0.15302106738090515
1788862334656980000,8.18997998046875,0.4624239504337311,-0.6284095644950867,0.549435019493103
1788862334666987300,8.1999873046875,0.40510094165802,-0.892414391040802,0.852168083190918
1788862334676993000,8.209992919921875,0.43047767877578735,-0.6557278633117676,0.8987017273902893
1788862334687000000,8.22,0.5494041442871094,-0.03918599337339401,0.7031445503234863
1788862334697006000,8.230006103515626,0.6559159755706787,0.43234798312187195,0.5631027221679688
1788862334707012000,8.24001220703125,0.7451401948928833,1.1113040447235107,0.6193334460258484
1788862334717019100,8.25001904296875,0.7605535387992859,2.347771406173706,0.7888753414154053
1788862334727025200,8.260025146484375,0.8544520139694214,3.2919869422912598,0.9841977953910828
1788862334737032200,8.2700322265625,1.1089683771133423,3.105619430541992,1.257293701171875
1788862334747038200,8.2800380859375,1.5432502031326294,2.2126822471618652,1.524785041809082
1788862334757045000,8.290044921875,1.8099851608276367,1.3952510356903076,1.7826792001724243
1788862334767051000,8.300051025390625,1.7368279695510864,1.2881113290786743,2.008024215698242
1788862334777058000,8.31005810546875,1.406599998474121,1.6655036211013794,2.130781412124634
1788862334787064000,8.32006396484375,1.113057255744934,1.4566375017166138,2.120394229888916
1788862334797071000,8.330071044921874,0.9769404530525208,0.7656482458114624,1.973729133605957
1788862334807077000,8.3400771484375,0.9652854204177856,0.49599993228912354,1.9209481477737427
1788862334817084200,8.350084228515625,1.1274384260177612,0.563057005405426,2.106410026550293
1788862334827090000,8.36008984375,1.4486501216888428,0.7176811695098877,2.4942212104797363
1788862334837097200,8.37009716796875,1.624662160873413,0.6291166543960571,2.632802963256836
1788862334847103200,8.380103271484375,1.5773578882217407,0.45543965697288513,2.464487075805664
1788862334857110000,8.390110107421876,1.4994316101074219,0.5319967269897461,2.1435024738311768
1788862334867116000,8.400115966796875,1.5150508880615234,0.6792488098144531,1.8879766464233398
1788862334877123000,8.410123046875,1.4780107736587524,0.6886740326881409,1.8468869924545288
1788862334887129000,8.420129150390625,1.402243733406067,0.8943302631378174,1.9118525981903076
1788862334897135900,8.430135986328125,1.3628891706466675,1.2300832271575928,1.970016360282898
1788862334907142100,8.44014208984375,1.3740798234939575,1.4596656560897827,1.9672436714172363
1788862334917149200,8.450149169921875,1.404686450958252,1.4050415754318237,1.953209638595581
1788862334927155000,8.460155029296875,1.3920989036560059,1.094666838645935,1.9839081764221191
1788862334937162200,8.470162353515626,1.3096258640289307,0.824895977973938,2.012057065963745
1788862334947168000,8.48016796875,1.174330472946167,0.8206422328948975,1.9483823776245117
1788862334957174000,8.490174072265624,0.9930757284164429,0.8391072750091553,1.787179946899414
1788862334967181000,8.50018115234375,0.8309321999549866,0.418856143951416,1.635602355003357
1788862334977187000,8.51018701171875,0.7745384573936462,-0.24022188782691956,1.4826029539108276
1788862334987194000,8.520194091796874,0.7476624250411987,-0.5588299632072449,1.276632308959961
1788862334997200100,8.5302001953125,0.6980647444725037,-0.4168057143688202,1.0202194452285767
1788862335007207200,8.540207275390625,0.6146010756492615,-0.23134346306324005,0.728553056716919
1788862335017213200,8.550213134765626,0.4946107566356659,-0.1626671850681305,0.4270398020744324
1788862335027220000,8.560219970703125,0.30461907386779785,0.2429877370595932,0.12936176359653473
1788862335037226000,8.57022607421875,0.08246615529060364,1.0118439197540283,-0.23630276322364807
1788862335047233000,8.58023291015625,-0.05050124600529671,1.8178051710128784,-0.6242140531539917
1788862335057239000,8.590239013671875,-0.1339399367570877,2.395329475402832,-0.9430554509162903
1788862335067246000,8.60024609375,-0.23660136759281158,1.89697265625,-1.1462061405181885
1788862335077252000,8.610252197265625,-0.12207505851984024,0.07254814356565475,-1.071008563041687
1788862335087259100,8.620259033203125,0.2790217697620392,-1.4233546257019043,-0.6742326021194458
1788862335097265000,8.630264892578126,0.33175769448280334,-1.3596510887145996,-0.6067332029342651
1788862335107272200,8.640272216796875,-0.2707895040512085,0.06729517877101898,-1.3272393941879272
1788862335117278200,8.6502783203125,-0.9315642714500427,1.4717211723327637,-1.8524562120437622
1788862335127285000,8.660284912109375,-1.134539246559143,1.4309055805206299,-1.7661218643188477
1788862335137291300,8.670291259765625,-0.9837678074836731,-0.016309432685375214,-1.5292845964431763
1788862335147298000,8.680298095703124,-0.6813392043113708,-1.211856484413147,-1.3146111965179443
1788862335157304000,8.690303955078125,-0.3964451849460602,-1.2701747417449951,-1.0985231399536133
1788862335167311000,8.70031103515625,-0.2660752534866333,-0.7310861349105835,-0.7413493394851685
1788862335177317000,8.710317138671876,-0.3140544891357422,-0.15225821733474731,-0.3980703055858612
1788862335187324200,8.72032421875,-0.480373352766037,0.009394858032464981,-0.3019185960292816
1788862335197330000,8.730329833984374,-0.6439498066902161,-0.3130665421485901,-0.4852455258369446
1788862335207337200,8.740337158203126,-0.7601718306541443,-0.7516846656799316,-0.7394437193870544
1788862335217343000,8.750343017578125,-0.7957798838615417,-1.0660194158554077,-0.8365992903709412
1788862335227350000,8.76035009765625,-0.782935380935669,-1.2531431913375854,-0.76702481508255
1788862335237356300,8.770356201171875,-0.7994222044944763,-1.1745240688323975,-0.6512992978096008
1788862335247363000,8.780363037109375,-0.8483087420463562,-0.8815457224845886,-0.5567548871040344
1788862335257369000,8.790369140625,-0.8938213586807251,-0.476274698972702,-0.5295161008834839
1788862335267375000,8.800375,-0.9319918751716614,-0.04899655282497406,-0.6676373481750488
1788862335277382100,8.810382080078124,-0.9586150050163269,0.06611032783985138,-0.9424468278884888
1788862335287388200,8.82038818359375,-0.9558422565460205,-0.23329629004001617,-1.2217432260513306
1788862335297395000,8.83039501953125,-0.89311283826828,-0.8256546854972839,-1.4401956796646118
1788862335307401200,8.840401123046876,-0.7946910858154297,-1.2973741292953491,-1.6225519180297852
1788862335317408000,8.850407958984375,-0.7132641077041626,-1.5179352760314941,-1.7269986867904663
1788862335327414000,8.8604140625,-0.6694095134735107,-1.3478622436523438,-1.6649084091186523
1788862335337421000,8.870421142578126,-0.7028857469558716,-0.6399765014648438,-1.5031481981277466
1788862335347427000,8.880427001953125,-0.7880803942680359,0.21671508252620697,-1.4125698804855347
1788862335357434000,8.89043408203125,-0.8524476885795593,0.4693540036678314,-1.466709852218628
1788862335367440000,8.90043994140625,-0.8477211594581604,-0.03660651668906212,-1.6132885217666626
1788862335377447200,8.910447265625,-0.7114444971084595,-0.888302743434906,-1.7337017059326172
1788862335387453200,8.920453125,-0.5225376486778259,-1.415676236152649,-1.7613388299942017
1788862335397460000,8.9304599609375,-0.4673178195953369,-1.3074136972427368,-1.7534693479537964
1788862335407466200,8.94046630859375,-0.5262889266014099,-0.9643457531929016,-1.8358324766159058
1788862335417473000,8.95047314453125,-0.5138806700706482,-0.9299917817115784,-1.8521366119384766
1788862335427479000,8.96047900390625,-0.4351387321949005,-1.0967817306518555,-1.7154854536056519
1788862335437486000,8.970486083984374,-0.45452681183815,-1.1594504117965698,-1.6318925619125366
1788862335447492000,8.9804921875,-0.5021776556968689,-1.0323705673217773,-1.6647511720657349
1788862335457499100,8.9904990234375,-0.5004498362541199,-0.9459304809570312,-1.6981879472732544
1788862335467505000,9.0005048828125,-0.46426627039909363,-1.0152112245559692,-1.664282202720642
1788862335477512200,9.01051220703125,-0.43950313329696655,-1.1381454467773438,-1.6044654846191406
1788862335487518000,9.02051806640625,-0.4498535692691803,-1.0831071138381958,-1.5919245481491089
1788862335497525000,9.03052490234375,-0.5173225998878479,-0.9589625000953674,-1.589350938796997
1788862335507531300,9.04053125,-0.5867560505867004,-0.9534940719604492,-1.5213842391967773
1788862335517538000,9.0505380859375,-0.5567914843559265,-1.0036163330078125,-1.422829270362854
1788862335527544000,9.0605439453125,-0.44124525785446167,-1.0559052228927612,-1.314272165298462
1788862335537551000,9.070551025390625,-0.3569522202014923,-0.9833367466926575,-1.1902124881744385
1788862335547557400,9.080557373046876,-0.3367336392402649,-0.8727232217788696,-1.1316890716552734
1788862335557563400,9.0905634765625,-0.2920849621295929,-0.8607248663902283,-1.0400294065475464
1788862335567570200,9.100570068359374,-0.1512557715177536,-0.8823363780975342,-1.0112183094024658
1788862335577576400,9.110576416015626,-0.009451228193938732,-0.6214778423309326,-1.067090630531311
1788862335587583200,9.120583251953125,0.08972364664077759,-0.2674051821231842,-0.9612631797790527
1788862335597589200,9.13058935546875,0.19910286366939545,-0.03683056682348251,-0.7171695828437805
1788862335607596300,9.14059619140625,0.3416374921798706,0.27910253405570984,-0.5264149308204651
1788862335617602300,9.150602294921875,0.37276503443717957,0.1538868099451065,-0.3494659960269928
1788862335627609300,9.160609375,0.3118976354598999,-0.14526265859603882,-0.11072788387537003
1788862335637615000,9.170614990234375,0.1351795792579651,-0.006774564739316702,0.15688997507095337
1788862335647622400,9.180622314453124,0.06464973837137222,0.21820563077926636,0.2399611920118332
1788862335657628400,9.19062841796875,0.0792611688375473,0.5489649176597595,0.1393594890832901
1788862335667635200,9.20063525390625,0.10925599932670593,0.8189715147018433,0.023233670741319656
1788862335677641500,9.210641357421874,0.15868107974529266,1.1317521333694458,0.019298585131764412
1788862335687648300,9.220648193359375,0.22184310853481293,1.1996290683746338,0.09925077110528946
1788862335697654300,9.230654296875,0.3035707175731659,1.053333044052124,0.2764436900615692
1788862335707661300,9.240661376953126,0.4031345844268799,0.9480764269828796,0.5710065364837646
1788862335717667300,9.250667236328125,0.5354958176612854,0.9728643298149109,0.9820132255554199
1788862335727674400,9.26067431640625,0.6649477481842041,1.187116265296936,1.3152408599853516
1788862335737680100,9.27068017578125,0.7557862997055054,1.421424388885498,1.4173297882080078
1788862335747687400,9.2806875,0.8230518698692322,1.5558663606643677,1.4596894979476929
1788862335757693200,9.290693115234374,0.9272065162658691,1.3118425607681274,1.5015701055526733
1788862335767700200,9.3007001953125,1.0252457857131958,1.0053091049194336,1.6568357944488525
1788862335777706500,9.31070654296875,1.0710703134536743,1.0256636142730713,1.9076488018035889
1788862335787713300,9.32071337890625,1.1071592569351196,0.9999586939811707,2.0495471954345703
1788862335797719300,9.33071923828125,1.0996832847595215,0.9660332202911377,2.177604913711548
1788862335807726300,9.340726318359375,1.0619782209396362,0.9760273098945618,2.2868075370788574
1788862335817732400,9.350732421875,0.9798761010169983,1.0116268396377563,2.292133331298828
1788862335827739100,9.3607392578125,0.8913254141807556,1.149238109588623,2.288222551345825
1788862335837745200,9.3707451171875,0.9610973596572876,1.1599643230438232,2.385524034500122
1788862335847752400,9.38075244140625,1.158760905265808,0.841232419013977,2.572697401046753
1788862335857758200,9.39075830078125,1.350415825843811,0.279475599527359,2.9074203968048096
1788862335867764200,9.40076416015625,1.4386969804763794,0.015422633849084377,3.3229269981384277
1788862335877771300,9.410771240234375,1.4949277639389038,0.306531697511673,3.4353554248809814
1788862335887777300,9.42077734375,1.5020302534103394,0.5663403272628784,3.210038185119629
1788862335897784300,9.430784423828126,1.4173294305801392,0.3078264892101288,2.864849328994751
1788862335907790000,9.4407900390625,1.2474316358566284,-0.21914078295230865,2.575852632522583
1788862335917797400,9.45079736328125,1.110222339630127,-0.3528892695903778,2.425737142562866
1788862335927803400,9.460803466796875,1.2075952291488647,0.10677078366279602,2.399730920791626
1788862335937810200,9.47081005859375,1.4365432262420654,0.6749300956726074,2.358503818511963
1788862335947816400,9.48081640625,1.5377177000045776,0.8612676858901978,2.2016143798828125
1788862335957823200,9.4908232421875,1.388851284980774,0.7468974590301514,1.9461352825164795
1788862335967829200,9.500829345703124,1.130934476852417,0.8249973058700562,1.7816745042800903
1788862335977836300,9.510836181640625,0.9405314922332764,0.9985856413841248,1.7167010307312012
1788862335987842300,9.52084228515625,0.8537440299987793,1.0074392557144165,1.635238766670227
1788862335997849300,9.530849365234374,0.8122823238372803,0.8192766904830933,1.492611289024353
1788862336007855000,9.540855224609375,0.7719487547874451,0.44057032465934753,1.4234117269515991
1788862336017862400,9.5508623046875,0.7317294478416443,-0.025601645931601524,1.4416546821594238
1788862336027868200,9.5608681640625,0.6540083885192871,-0.17096686363220215,1.4056062698364258
1788862336037875200,9.570875244140625,0.49727046489715576,0.28302595019340515,1.2952523231506348
1788862336047881500,9.580881591796874,0.2831408381462097,0.7860465049743652,1.1342846155166626
1788862336057888300,9.59088818359375,0.04509763792157173,0.8784800171852112,0.8744437098503113
1788862336067894300,9.600894287109375,-0.1417253166437149,0.5858864784240723,0.5166816711425781
1788862336077901300,9.6109013671875,-0.2969322204589844,0.23189139366149902,0.08965153247117996
1788862336087907300,9.6209072265625,-0.4239874482154846,0.11897280812263489,-0.35125598311424255
1788862336097914000,9.6309140625,-0.4636666774749756,0.07900675386190414,-0.8041422367095947
1788862336107920100,9.640920166015626,-0.4641464650630951,0.12370549142360687,-1.2157106399536133
1788862336117927400,9.650927490234375,-0.5116263031959534,0.2999897003173828,-1.49787437915802
1788862336127933200,9.66093310546875,-0.6069658994674683,0.14767926931381226,-1.6227912902832031
1788862336137940200,9.670940185546876,-0.6592831611633301,-0.4693050980567932,-1.6400505304336548
1788862336147946200,9.6809462890625,-0.6344305276870728,-1.0113633871078491,-1.61371648311615
1788862336157953300,9.690953369140624,-0.6471540331840515,-1.1349859237670898,-1.6305842399597168
1788862336167959300,9.700959228515625,-0.7420076727867126,-0.5995267629623413,-1.7077537775039673
1788862336177966300,9.71096630859375,-0.790328860282898,-0.13500460982322693,-1.7141364812850952
1788862336187972400,9.720972412109376,-0.7993521690368652,-0.3935381770133972,-1.5640836954116821
1788862336197979100,9.730979248046875,-0.7388092875480652,-1.1755342483520508,-1.2745481729507446
1788862336207985400,9.7409853515625,-0.5517359375953674,-1.6441388130187988,-1.063244104385376
1788862336217991400,9.750991455078125,-0.517403244972229,-1.0373122692108154,-1.1575067043304443
1788862336227998200,9.760998291015625,-0.786469578742981,0.030249962583184242,-1.3636597394943237
1788862336238004200,9.771004150390626,-1.077107310295105,0.49466076493263245,-1.386435866355896
1788862336248011300,9.78101123046875,-1.139258861541748,0.5767489075660706,-1.2035894393920898
1788862336258017300,9.791017333984374,-0.9730038046836853,0.5395112633705139,-1.018056035041809
1788862336268024300,9.8010244140625,-0.7552670240402222,0.16006149351596832,-0.9052693247795105
1788862336278030300,9.8110302734375,-0.5491654872894287,-0.39121952652931213,-0.7849130630493164
1788862336288037400,9.821037353515624,-0.42040160298347473,-0.9556076526641846,-0.6643499732017517
1788862336298043100,9.831043212890625,-0.3946925103664398,-1.4192821979522705,-0.5932003855705261
1788862336308050400,9.841050537109375,-0.44526761770248413,-1.600122332572937,-0.5279740691184998
1788862336318056400,9.851056396484376,-0.5677594542503357,-1.5716638565063477,-0.46386855840682983
1788862336328063200,9.861063232421875,-0.7104021906852722,-1.4303505420684814,-0.4952234625816345
1788862336338069200,9.8710693359375,-0.7978830337524414,-1.3711206912994385,-0.6073601245880127
1788862336348076300,9.881076171875,-0.8253577947616577,-1.4673998355865479,-0.7282602787017822
1788862336358082300,9.891082275390625,-0.8211164474487305,-1.3951497077941895,-0.8685113787651062
1788862336368089000,9.901089111328124,-0.8334338068962097,-0.9124358296394348,-1.0434969663619995
1788862336378095400,9.911095458984375,-0.879210889339447,-0.3522636294364929,-1.2149616479873657
1788862336388102400,9.921102294921875,-0.9482603073120117,0.04143427312374115,-1.3678388595581055
1788862336398108200,9.931108154296876,-0.9579270482063293,0.1610802561044693,-1.5179088115692139
1788862336408115500,9.941115478515625,-0.8565401434898376,0.060028791427612305,-1.7423326969146729
1788862336418121200,9.951121337890624,-0.6693668365478516,-0.16461710631847382,-1.9854726791381836
1788862336428128300,9.961128173828126,-0.4990394711494446,-0.22098591923713684,-2.090186357498169
1788862336438134300,9.97113427734375,-0.44167500734329224,0.11688905954360962,-2.0566771030426025
1788862336448141300,9.981141357421874,-0.46952083706855774,0.40134114027023315,-1.9948068857192993
1788862336458147300,9.991147216796875,-0.4962216913700104,0.20646749436855316,-1.94342041015625
1788862336468154000,10.001154052734375,-0.4431743025779724,-0.3635629713535309,-1.8699196577072144
1788862336478160400,10.011160400390626,-0.25443926453590393,-0.9838427305221558,-1.8182982206344604
1788862336488167200,10.021167236328125,-0.15120583772659302,-1.230771541595459,-1.8186864852905273
1788862336498173200,10.031173095703124,-0.362284779548645,-1.2614012956619263,-1.781646728515625
1788862336508180500,10.041180419921876,-0.6110807657241821,-1.150710940361023,-1.7790403366088867
1788862336518186200,10.051186279296875,-0.6312278509140015,-1.0275779962539673,-1.769012451171875
1788862336528193300,10.061193359375,-0.5086649656295776,-1.0314794778823853,-1.7105932235717773
1788862336538199300,10.07119921875,-0.4283522665500641,-0.9018386602401733,-1.6714154481887817
1788862336548205800,10.081205810546875,-0.4556446373462677,-0.7407644987106323,-1.6972459554672241
1788862336558212000,10.091212158203126,-0.49066999554634094,-0.7793084383010864,-1.6061681509017944
1788862336568219000,10.101218994140625,-0.4207260012626648,-0.914773166179657,-1.4137364625930786
1788862336578225000,10.111224853515624,-0.34611037373542786,-1.1813886165618896,-1.2864106893539429
1788862336588231000,10.12123095703125,-0.3405819833278656,-1.1494765281677246,-1.1796125173568726
1788862336598238000,10.131238037109375,-0.38586530089378357,-0.7711949944496155,-1.1035898923873901
1788862336608244000,10.141243896484376,-0.30504414439201355,-0.6363101005554199,-0.9426910877227783
1788862336618250800,10.151250732421875,-0.07853831350803375,-0.7746173739433289,-0.764962911605835
1788862336628257000,10.161257080078125,0.14113600552082062,-0.7386229038238525,-0.7210612893104553
1788862336638264000,10.17126416015625,0.24162879586219788,-0.44328418374061584,-0.6908969879150391
1788862336648269800,10.181269775390625,0.29933691024780273,-0.3239085078239441,-0.5278730392456055
1788862336658277000,10.191277099609374,0.3624591529369354,-0.3184705972671509,-0.34086742997169495
1788862336668283000,10.201282958984375,0.42019715905189514,-0.22861206531524658,-0.16781145334243774
1788862336678290000,10.2112900390625,0.5241373777389526,0.09071079641580582,0.011326612904667854
1788862336688296000,10.2212958984375,0.6145547032356262,0.1889132559299469,0.22508272528648376
1788862336698303000,10.231302978515625,0.6275405287742615,0.07450545579195023,0.4755365252494812
1788862336708309000,10.24130908203125,0.5713913440704346,0.2705254852771759,0.7151740789413452
1788862336718315800,10.251315673828126,0.5322085022926331,0.574652373790741,0.8397277593612671
1788862336728322000,10.261322021484375,0.5101558566093445,0.7720469832420349,0.8801560997962952
1788862336738328800,10.271328857421874,0.49051740765571594,0.9029262065887451,0.8890891671180725
1788862336748334800,10.2813349609375,0.47107425332069397,0.9600480794906616,0.9301575422286987
1788862336758342100,10.291342041015625,0.4226371943950653,1.129944920539856,1.0153604745864868
1788862336768348000,10.301347900390626,0.4011986255645752,1.3329194784164429,1.0872471332550049
1788862336778355000,10.31135498046875,0.44610726833343506,1.228772521018982,1.1823887825012207
1788862336788361000,10.32136083984375,0.5412485003471375,1.0075658559799194,1.429254412651062
1788862336798368000,10.331367919921876,0.607335090637207,0.6664902567863464,1.6450128555297852
1788862336808374000,10.3413740234375,0.6139504909515381,0.5870053172111511,1.7369146347045898
1788862336818380800,10.351380859375,0.625013530254364,0.9290065765380859,1.740402340888977
1788862336828387000,10.361386962890625,0.614780068397522,0.9718906283378601,1.6695184707641602
1788862336838393900,10.371393798828125,0.6412409543991089,0.6161500811576843,1.6112533807754517
1788862336848400000,10.38139990234375,0.6963605284690857,0.4662286937236786,1.6770179271697998
1788862336858407000,10.391406982421875,0.7126068472862244,0.48893827199935913,1.8723154067993164
1788862336868413000,10.401412841796875,0.7179608941078186,0.41424790024757385,2.1325786113739014
1788862336878420000,10.411419921875,0.7418925762176514,0.4576142728328705,2.418584108352661
1788862336888426000,10.421426025390625,0.8250585198402405,0.6103296875953674,2.58074688911438
1788862336898433000,10.43143310546875,0.8813896775245667,0.4099728763103485,2.606637716293335
1788862336908439000,10.44143896484375,0.8779875636100769,0.2039705216884613,2.568678379058838
1788862336918444800,10.45144482421875,0.8244484066963196,0.30743035674095154,2.511258602142334
1788862336928452000,10.4614521484375,0.7842548489570618,0.5484596490859985,2.4394946098327637
1788862336938457900,10.471457763671875,0.8155595064163208,0.7077795267105103,2.4423961639404297
1788862336948465000,10.48146484375,0.9250165224075317,0.7020651698112488,2.569913387298584
1788862336958471200,10.49147119140625,1.0530189275741577,0.656622588634491,2.706420660018921
1788862336968478000,10.50147802734375,1.112352728843689,0.7826621532440186,2.7207984924316406
1788862336978484000,10.51148388671875,1.0144027471542358,0.8070026636123657,2.7227184772491455
1788862336988491000,10.521490966796875,0.8206576704978943,0.7410895824432373,2.74184513092041
1788862336998497000,10.5314970703125,0.7100653648376465,0.5729304552078247,2.75228214263916
1788862337008503800,10.54150390625,0.7504640221595764,0.3856111466884613,2.7115485668182373
1788862337018509800,10.551509765625,0.8829365968704224,0.18792390823364258,2.6219124794006348
1788862337028517000,10.56151708984375,1.0622421503067017,0.14800378680229187,2.509735584259033
1788862337038523000,10.57152294921875,1.114378571510315,0.6078507304191589,2.2667653560638428
1788862337048530000,10.581530029296875,0.9351577758789062,1.158329725265503,1.8198046684265137
1788862337058536000,10.591535888671874,0.5010656714439392,1.4396573305130005,1.252591609954834
1788862337068543000,10.60154296875,-0.021647464483976364,1.3855115175247192,0.7193816304206848
1788862337078549000,10.611549072265625,-0.361269474029541,1.04152512550354,0.28991392254829407
1788862337088556000,10.62155615234375,-0.5002626180648804,0.6109094619750977,-0.035454437136650085
1788862337098562000,10.63156201171875,-0.5326999425888062,0.4710140824317932,-0.2324330061674118
1788862337108568800,10.64156884765625,-0.4704461395740509,0.3813921809196472,-0.25497227907180786
1788862337118574800,10.651574951171876,-0.35735154151916504,-0.005392000079154968,-0.14245720207691193
1788862337128582000,10.661581787109375,-0.26708850264549255,-0.5364996194839478,-0.07687181234359741
1788862337138588000,10.671587890625,-0.19580258429050446,-0.5994399189949036,-0.1403956562280655
1788862337148595000,10.681594970703125,-0.22268320620059967,-0.34383052587509155,-0.2864718735218048
1788862337158601000,10.69160107421875,-0.34923848509788513,-0.4089943468570709,-0.3955296576023102
1788862337168608000,10.70160791015625,-0.441156268119812,-0.4736838638782501,-0.5311449766159058
1788862337178614000,10.711614013671875,-0.5208377838134766,-0.36065396666526794,-0.7085445523262024
1788862337188621000,10.72162109375,-0.6361923813819885,-0.22896651923656464,-0.8846749663352966
1788862337198627000,10.731626953125,-0.802996814250946,-0.1447315216064453,-1.0012176036834717
1788862337208633900,10.7416337890625,-0.9238696098327637,-0.25589168071746826,-1.0754977464675903
1788862337218640000,10.751639892578124,-0.9829236268997192,-0.4396817684173584,-1.1203320026397705
1788862337228647000,10.76164697265625,-0.9684327840805054,-0.2324472963809967,-1.0864988565444946
1788862337238653000,10.77165283203125,-0.8828696608543396,0.21203801035881042,-0.9424945712089539
1788862337248660000,10.781659912109374,-0.722505509853363,0.24272672832012177,-0.7862604260444641
1788862337258666000,10.791666015625,-0.4899580478668213,-0.2689080834388733,-0.6722097396850586
1788862337268673000,10.801673095703125,-0.25912946462631226,-0.7383760213851929,-0.632292628288269
1788862337278678800,10.8116787109375,-0.12918050587177277,-0.8147331476211548,-0.6924055814743042
1788862337288684800,10.821684814453125,-0.16083016991615295,-0.7546341419219971,-0.7530656456947327
1788862337298692000,10.831692138671874,-0.29118284583091736,-0.6227975487709045,-0.7044395208358765
1788862337308697900,10.84169775390625,-0.4170165956020355,-0.3111354112625122,-0.6422773599624634
1788862337318705000,10.851704833984375,-0.49381574988365173,-0.0987323597073555,-0.68503338098526
1788862337328711000,10.8617109375,-0.529208779335022,-0.07995149493217468,-0.7783820033073425
1788862337338718000,10.871718017578125,-0.4880933165550232,-0.2513014078140259,-0.8959419131278992
1788862337348724000,10.881723876953124,-0.4326678216457367,-0.4188900887966156,-0.9771055579185486
1788862337358731000,10.89173095703125,-0.4394375681877136,-0.31330880522727966,-0.9711898565292358
1788862337368737000,10.901737060546875,-0.5263165235519409,-0.1202520951628685,-1.0120898485183716
1788862337378743800,10.911743896484374,-0.6239237785339355,-0.08791998773813248,-1.2220430374145508
1788862337388749800,10.921749755859375,-0.6950286030769348,-0.298580527305603,-1.4185353517532349
1788862337398756900,10.9317568359375,-0.7593935132026672,-0.7426432371139526,-1.5048563480377197
1788862337408763000,10.941762939453126,-0.8360673785209656,-1.0899808406829834,-1.6223427057266235
1788862337418770000,10.95177001953125,-0.8809871673583984,-0.8499717712402344,-1.850962519645691
1788862337428776000,10.96177587890625,-0.9028657674789429,-0.14828690886497498,-2.0841166973114014
1788862337438783000,10.971782958984376,-0.9236109852790833,0.2970210611820221,-2.211650848388672
1788862337448789000,10.9817890625,-0.9270870089530945,0.21227215230464935,-2.2465178966522217
1788862337458796000,10.991796142578124,-0.8702101707458496,-0.1409226655960083,-2.277251958847046
1788862337468802000,11.001802001953125,-0.7259092330932617,-0.654717743396759,-2.2566652297973633
1788862337478808800,11.011808837890625,-0.5238579511642456,-0.9287029504776001,-2.188631057739258
1788862337488815000,11.021815185546876,-0.4020673632621765,-0.857171356678009,-2.143231153488159
1788862337498822000,11.03182177734375,-0.4210706353187561,-0.6635704636573792,-2.1823267936706543
1788862337508828000,11.041827880859374,-0.5188524723052979,-0.5222882032394409,-2.2398481369018555
1788862337518835000,11.0518349609375,-0.5720046162605286,-0.6570998430252075,-2.243364095687866
1788862337528841000,11.061841064453125,-0.5691826939582825,-0.9095562696456909,-2.2421512603759766
1788862337538848000,11.071847900390624,-0.5147023797035217,-1.093142032623291,-2.270664930343628
1788862337548854300,11.081854248046875,-0.4495627284049988,-1.1668237447738647,-2.29244327545166
1788862337558861600,11.091861572265625,-0.4372834265232086,-1.0441560745239258,-2.239138603210449
1788862337568867300,11.101867431640626,-0.48234641551971436,-0.7911579608917236,-2.0767199993133545
1788862337578874400,11.111874267578125,-0.495147168636322,-0.3944966495037079,-1.853254795074463
1788862337588880400,11.12188037109375,-0.37517091631889343,0.08748884499073029,-1.6442985534667969
1788862337598887400,11.131887451171876,-0.24571146070957184,0.20088091492652893,-1.4165031909942627
1788862337608893400,11.1418935546875,-0.20733146369457245,-0.2561623752117157,-1.12217116355896
1788862337618900200,11.151900146484374,-0.29994797706604004,-0.6397497653961182,-0.8707743287086487
1788862337628906500,11.161906494140625,-0.4687822163105011,-0.44851720333099365,-0.67529296875
1788862337638913300,11.171913330078125,-0.5623590350151062,-0.3178180456161499,-0.6070164442062378
1788862337648919300,11.181919189453126,-0.5600476264953613,-0.23165421187877655,-0.6041355729103088
1788862337658925300,11.19192529296875,-0.4976081848144531,-0.09064116328954697,-0.5211259126663208
1788862337668932400,11.201932373046875,-0.3805692493915558,-0.1148250550031662,-0.4545122981071472
1788862337678938400,11.2119384765625,-0.23976577818393707,0.048851486295461655,-0.41818225383758545
1788862337688945400,11.2219453125,-0.07721031457185745,0.26317328214645386,-0.3657841980457306
1788862337698951400,11.231951416015624,0.08961941301822662,0.3671231269836426,-0.3143513798713684
1788862337708958500,11.24195849609375,0.23807194828987122,0.29538989067077637,-0.15319180488586426
1788862337718964200,11.251964111328125,0.32727107405662537,0.1518409699201584,0.05542878061532974
1788862337728971500,11.261971435546876,0.33059144020080566,0.04954501986503601,0.20712530612945557
1788862337738977500,11.2719775390625,0.33993032574653625,0.020149044692516327,0.32607701420783997
1788862337748984300,11.281984375,0.34260615706443787,-0.051048725843429565,0.4034421145915985
1788862337758990600,11.291990478515626,0.43684664368629456,-0.011756446212530136,0.354428768157959
1788862337768997400,11.301997314453125,0.5816655158996582,0.19141213595867157,0.314255028963089
1788862337779003400,11.31200341796875,0.6558576822280884,0.46377041935920715,0.3831019997596741
1788862337789010400,11.322010498046875,0.7356554269790649,0.7409658432006836,0.6130841970443726
1788862337799016400,11.332016357421875,0.8516650795936584,0.9713263511657715,0.891000509262085
1788862337809023500,11.3420234375,0.9604461193084717,1.2104781866073608,1.08174467086792
1788862337819029200,11.352029296875,1.0428234338760376,1.5234489440917969,1.216166377067566
1788862337829036500,11.36203662109375,1.1437721252441406,1.732071876525879,1.359636902809143
1788862337839042300,11.372042236328125,1.2291454076766968,1.7810351848602295,1.482601523399353
1788862337849049300,11.38204931640625,1.2545557022094727,1.7744032144546509,1.5175526142120361
1788862337859055600,11.3920556640625,1.2383933067321777,1.689431071281433,1.5248353481292725
1788862337869062400,11.4020625,1.247244954109192,1.4808096885681152,1.6569424867630005
1788862337879068400,11.412068359375,1.3032283782958984,1.2342896461486816,1.919240117073059
1788862337889075500,11.422075439453126,1.3300429582595825,1.0114561319351196,2.1110827922821045
1788862337899081500,11.43208154296875,1.3599246740341187,0.8929780721664429,2.2528419494628906
1788862337909088300,11.442088134765624,1.3626817464828491,0.707706868648529,2.3829615116119385
1788862337919094300,11.45209423828125,1.3114979267120361,0.3666395843029022,2.380458354949951
1788862337929101600,11.4621015625,1.2574396133422852,0.31717967987060547,2.336148977279663
1788862337939107300,11.472107421875,1.2423275709152222,0.5292602181434631,2.388061046600342
1788862337949114400,11.4821142578125,1.2593473196029663,0.4383728802204132,2.48050594329834
1788862337959120600,11.49212060546875,1.2816576957702637,0.3122008442878723,2.509575843811035
1788862337969127400,11.50212744140625,1.3115407228469849,0.6455475687980652,2.4167404174804688
1788862337979133400,11.512133544921875,1.3087068796157837,1.0177552700042725,2.3101606369018555
1788862337989140500,11.522140380859375,1.2837989330291748,0.9622792601585388,2.3294074535369873
1788862337999146500,11.532146484375,1.2940614223480225,0.8203971982002258,2.409205198287964
1788862338009152500,11.542152587890625,1.3322845697402954,0.956314206123352,2.4261715412139893
1788862338019159300,11.5521591796875,1.387024998664856,1.2763813734054565,2.3843915462493896
1788862338029165600,11.56216552734375,1.4523085355758667,1.3543270826339722,2.3863003253936768
1788862338039172400,11.57217236328125,1.5142754316329956,1.0958784818649292,2.471135139465332
1788862338049178400,11.582178466796876,1.5150465965270996,0.7851622104644775,2.537585496902466
1788862338059185400,11.592185302734375,1.3828654289245605,0.8022421002388,2.4278404712677
1788862338069191400,11.60219140625,1.1256037950515747,0.9938725829124451,2.179356813430786
1788862338079198500,11.612198486328126,0.8421515226364136,0.8192957043647766,1.95418381690979
1788862338089204200,11.622204345703125,0.6906681060791016,0.27189841866493225,1.6991420984268188
1788862338099211500,11.63221142578125,0.7067107558250427,-0.09478476643562317,1.397141695022583
1788862338109217300,11.64221728515625,0.8090168833732605,0.07343593239784241,1.177163004875183
1788862338119224300,11.652224365234375,0.8640279769897461,0.24976672232151031,1.0485869646072388
1788862338129230600,11.662230712890626,0.8249950408935547,0.26135072112083435,0.8320272564888
1788862338139237400,11.6722373046875,0.7004091739654541,0.6125303506851196,0.5869508981704712
1788862338149243400,11.682243408203124,0.5308564305305481,1.2220044136047363,0.37992992997169495
1788862338159250400,11.69225048828125,0.3707871735095978,1.2640609741210938,0.16669966280460358
1788862338169256400,11.70225634765625,0.2784743010997772,0.720260500907898,-0.07560356706380844
1788862338179263200,11.71226318359375,0.23495987057685852,0.22734907269477844,-0.3905564546585083
1788862338189269200,11.722269287109375,0.15200462937355042,0.1691468209028244,-0.7319097518920898
1788862338199276500,11.732276611328125,0.00864746980369091,0.34695863723754883,-0.9920673370361328
1788862338209282300,11.7422822265625,-0.1279047727584839,0.2984118163585663,-1.146491289138794
1788862338219289300,11.752289306640625,-0.18187852203845978,-0.06825778633356094,-1.223739504814148
1788862338229295600,11.762295654296874,-0.21241021156311035,-0.33033302426338196,-1.224214792251587
1788862338239302400,11.772302490234376,-0.2322414368391037,-0.08858057856559753,-1.1710597276687622
1788862338249308400,11.782308349609375,-0.22321327030658722,0.2247217893600464,-1.1035982370376587
1788862338259315500,11.7923154296875,-0.2358747273683548,0.09358187764883041,-0.9803282022476196
1788862338269321500,11.802321533203125,-0.21052227914333344,-0.3433259427547455,-0.8142313957214355
1788862338279328300,11.812328369140625,-0.20133304595947266,-0.6576095819473267,-0.723641574382782
1788862338289334300,11.822334228515626,-0.24875760078430176,-0.544928252696991,-0.7829669713973999
1788862338299341600,11.832341552734375,-0.4514758288860321,-0.42825937271118164,-0.8870153427124023
1788862338309347300,11.842347412109374,-0.740662693977356,-0.4936233162879944,-1.0464439392089844
1788862338319354400,11.852354248046876,-0.9087015390396118,-0.5253905653953552,-1.2800183296203613
1788862338329360400,11.8623603515625,-0.8895393013954163,-0.10643529891967773,-1.5169484615325928
1788862338339367400,11.872367431640624,-0.8338879942893982,0.4100392460823059,-1.6120814085006714
1788862338349373400,11.88237353515625,-0.8100707530975342,0.35484418272972107,-1.540269374847412
1788862338359380500,11.89238037109375,-0.7307493090629578,-0.0978253111243248,-1.426758885383606
1788862338369386500,11.902386474609376,-0.6260496973991394,-0.37929290533065796,-1.4207442998886108
1788862338379392500,11.912392578125,-0.6033776998519897,-0.33139941096305847,-1.5332410335540771
1788862338389399600,11.922399658203124,-0.6565315127372742,-0.2873544991016388,-1.667486548423767
1788862338399405600,11.932405517578125,-0.7347187399864197,-0.36338773369789124,-1.7806851863861084
1788862338409412400,11.942412353515625,-0.7899128794670105,-0.43321770429611206,-1.8722732067108154
1788862338419418400,11.95241845703125,-0.807346761226654,-0.3812415897846222,-1.95149827003479
1788862338429425400,11.96242529296875,-0.8038171529769897,-0.2862780690193176,-1.9980181455612183
1788862338439431400,11.972431396484374,-0.8103687763214111,-0.20124681293964386,-1.978014349937439
1788862338449438200,11.982438232421876,-0.8041395545005798,-0.20746636390686035,-1.8680870532989502
1788862338459444500,11.992444580078125,-0.7640328407287598,-0.37399595975875854,-1.7215602397918701
1788862338469451500,12.002451416015624,-0.632026195526123,-0.6764418482780457,-1.641716480255127
1788862338479457300,12.012457275390625,-0.43582794070243835,-0.9361242651939392,-1.6887508630752563
1788862338489464600,12.022464599609375,-0.32340186834335327,-1.0009857416152954,-1.791735053062439
1788862338499470600,12.032470703125,-0.39294230937957764,-0.9464120268821716,-1.7995226383209229
1788862338509477400,12.042477294921875,-0.59892737865448,-0.9308817982673645,-1.6599971055984497
1788862338519483400,12.0524833984375,-0.7518223524093628,-1.0593758821487427,-1.510915756225586
1788862338529490400,12.062490478515626,-0.715479850769043,-1.2462162971496582,-1.499790072441101
1788862338539496400,12.072496337890625,-0.613185703754425,-1.2732484340667725,-1.4642012119293213
1788862338549503200,12.082503173828124,-0.6882151961326599,-1.136634111404419,-1.3536922931671143
1788862338559509500,12.092509521484375,-0.8510677814483643,-1.082759976387024,-1.2024623155593872
1788862338569516500,12.1025166015625,-0.8347224593162537,-1.0097346305847168,-1.1520406007766724
1788862338579522300,12.112522216796876,-0.7605031132698059,-0.7857425212860107,-1.1997531652450562
1788862338589529600,12.122529541015625,-0.7989091277122498,-0.7290653586387634,-1.0778934955596924
1788862338599535400,12.132535400390625,-0.6890409588813782,-0.9627708196640015,-0.757544219493866
1788862338609542400,12.14254248046875,-0.4157431125640869,-1.2999788522720337,-0.5563889741897583
1788862338619548400,12.15254833984375,-0.305934876203537,-1.411017656326294,-0.4209251403808594
1788862338629555500,12.162555419921874,-0.25596532225608826,-1.6873726844787598,-0.4153837263584137
1788862338639561500,12.1725615234375,-0.26437318325042725,-2.052553653717041,-0.6495741009712219
1788862338649568300,12.182568359375,-0.3670184314250946,-2.2103331089019775,-1.0324451923370361
1788862338659574500,12.192574462890626,-0.5663242936134338,-1.8823623657226562,-1.357251763343811
1788862338669581300,12.202581298828125,-0.7829781174659729,-1.399576187133789,-1.5237071514129639
1788862338679587300,12.21258740234375,-0.8736798167228699,-1.3610639572143555,-1.5292739868164062
1788862338689593300,12.22259326171875,-0.8169598579406738,-1.5110446214675903,-1.3151646852493286
1788862338699600400,12.232600341796875,-0.6561273336410522,-1.2533118724822998,-0.9869920611381531
1788862338709606400,12.2426064453125,-0.509893536567688,-0.8240293860435486,-0.8104786276817322
1788862338719613400,12.252613525390625,-0.3702765107154846,-0.5251390933990479,-0.7502336502075195
1788862338729619500,12.262619384765625,-0.2599589228630066,-0.5364775657653809,-0.6269195079803467
1788862338739626500,12.27262646484375,-0.2470356523990631,-0.6867184638977051,-0.5233147740364075
1788862338749632300,12.28263232421875,-0.32449662685394287,-0.6486560106277466,-0.5416573286056519
1788862338759639600,12.2926396484375,-0.37343594431877136,-0.6217077374458313,-0.5285722017288208
1788862338769645600,12.3026455078125,-0.30861255526542664,-0.6787910461425781,-0.4515223205089569
1788862338779652400,12.31265234375,-0.12600012123584747,-0.17766188085079193,-0.4864288866519928
1788862338789658400,12.322658447265624,0.13216975331306458,0.5476018786430359,-0.6219417452812195
1788862338799665400,12.33266552734375,0.3455829620361328,1.1381244659423828,-0.7201393842697144
1788862338809671400,12.34267138671875,0.45872169733047485,1.6663106679916382,-0.6865081787109375
1788862338819678200,12.35267822265625,0.46575936675071716,2.1724257469177246,-0.5808747410774231
1788862338829684500,12.3626845703125,0.4055778682231903,2.2781286239624023,-0.3875938653945923
1788862338839691500,12.37269140625,0.28954288363456726,1.4734596014022827,-0.147584468126297
1788862338849697300,12.382697265625,0.24374939501285553,0.8740138411521912,0.1750246286392212
1788862338859704600,12.39270458984375,0.23323416709899902,0.9626814126968384,0.410054475069046
1788862338869710300,12.40271044921875,0.12463424354791641,1.360342025756836,0.7259255051612854
1788862338879717400,12.41271728515625,0.049929648637771606,1.637980580329895,1.0065196752548218
1788862338889723400,12.422723388671875,0.15813663601875305,1.4927645921707153,1.0445384979248047
1788862338899730400,12.43273046875,0.37096768617630005,0.9895622730255127,1.1612662076950073
1788862338909736400,12.442736328125,0.5538605451583862,0.764335572719574,1.5776081085205078
1788862338919743200,12.4527431640625,0.6624581217765808,0.6235925555229187,1.9925693273544312
1788862338929749500,12.46274951171875,0.7374127507209778,0.3864501714706421,2.118898391723633
1788862338939756300,12.47275634765625,0.8129733204841614,0.35545098781585693,2.066500663757324
1788862338949762300,12.48276220703125,0.914626955986023,0.5746603608131409,2.009315013885498
1788862338959768300,12.492768310546875,0.9624727964401245,0.6804587244987488,1.9662320613861084
1788862338969775400,12.502775390625,0.9440430998802185,0.48521387577056885,2.0252559185028076
1788862338979781400,12.512781494140626,0.9611470103263855,0.35099586844444275,2.208756685256958
1788862338989788400,12.522788330078125,1.0336036682128906,0.4454786479473114,2.391341209411621
