time,seconds_elapsed,z,y,x
1788860699166986800,0.05798681640625,-0.36630642426311966,0.38322248775064943,0.6953783657617867
1788860699177027600,0.068027587890625,-0.5155588280975818,-0.690149086806178,0.27037673755437136
1788860699187068700,0.078068603515625,0.1387982298374176,-0.6337389250591396,-0.021242694514989852
1788860699197109800,0.08810986328125,1.120353690484166,-0.5808575219601393,-0.17809432130679487
1788860699207150600,0.098150634765625,1.4285305818617342,-0.848863146468997,0.0751907039321959
1788860699217191700,0.108191650390625,0.9636462944686413,-1.258698331335187,0.42907384608238935
1788860699227232800,0.118232666015625,0.40047231323719024,-1.4508283383876084,0.44023733739256854
1788860699237274600,0.128274658203125,-0.16108897210061549,-1.3846981621369718,0.7245965692006051
1788860699247315700,0.138315673828125,0.08270867834687233,-1.2863017930537461,0.6469562801592051
1788860699257356500,0.1483564453125,0.6272814194828271,-0.53941550450325,1.099353864814341
1788860699267397600,0.158397705078125,0.7408592833459376,-0.08043634950071572,1.3248334760218858
1788860699277438700,0.168438720703125,0.7066530623614787,0.4419079009532928,1.0237006579369305
1788860699287479600,0.1784794921875,0.5350456188559531,1.0887293026864528,0.7117255433201789
1788860699297520600,0.188520751953125,0.3819400467246771,1.4197317738562822,0.98055505143255
1788860699307561700,0.198561767578125,0.27916531642675396,1.0623194346666336,1.814065438207984
1788860699317602600,0.2086025390625,-0.5886679034501314,0.14212123678028582,2.816319695751369
1788860699327643600,0.2186435546875,-1.4240379466176032,-0.597130026847124,2.9318197598487137
1788860699337684700,0.228684814453125,-1.857847881311178,-1.2886942411482334,2.6206717437058686
1788860699347725600,0.2387255859375,-2.593353528669476,-1.667235293084383,2.071262083932757
1788860699357766700,0.2487666015625,-4.774733691400289,-1.1093529885202646,1.7197383643902837
1788860699367807700,0.258807861328125,-5.088806655079126,0.39541678341329095,1.8935737130783497
1788860699377849900,0.268849853515625,-2.894652935492992,0.5683019917696714,1.7796220474667845
1788860699387890700,0.278890625,-0.8212205217838286,0.3036392479479313,1.2813830413520335
1788860699397931800,0.288931884765625,1.153418340218067,0.18861352336406706,0.855622703731805
1788860699407972900,0.298972900390625,1.490275967156887,-0.0017126491367816924,0.5268156967796385
1788860699418013700,0.309013671875,1.1541408092737198,0.19140286182165145,0.05094210559949278
1788860699428054800,0.3190546875,0.8280155887514352,0.4023270011931658,-0.3403736722357571
1788860699438096000,0.329095947265625,1.158154136568308,0.30645430536866186,-1.5566918284811078
1788860699448136700,0.33913671875,2.0047692118495704,0.5055640883058309,-5.222253587016463
1788860699458177800,0.349177734375,2.5339608439803123,0.3418453522235155,-5.674259103614092
1788860699468219000,0.359218994140625,0.8300947331130504,-1.475434371855855,-1.6887281629681585
1788860699478259700,0.369259765625,0.28931495451927186,-1.8976725266993044,-0.0458938822992146
1788860699488300800,0.37930078125,1.0463660787314175,-1.2747674226045609,-1.4464650286115706
1788860699498342000,0.389341796875,0.7755915740311146,-1.677033633521199,-1.201906038402766
1788860699508382700,0.3993828125,0.47081835361719127,-2.0593331612080332,-0.5541325966417789
1788860699518423800,0.409423828125,0.28472236603200435,-1.546641997501254,-0.004293897801637649
1788860699528466000,0.4194658203125,0.028671383211016654,-0.9001794922083616,-0.1990560069233179
1788860699538507000,0.429507080078125,-0.4148895456463098,-0.13262509416043758,0.0970291723832488
1788860699548548000,0.439548095703125,-0.5037374574005603,0.4773492166906595,0.37526327237449586
1788860699558589000,0.4495888671875,-0.07629296608567238,0.7667085948735475,0.29044249724447724
1788860699568630000,0.459630126953125,0.2091033536851406,0.8704138840198516,-0.11225859795808792
1788860699578671000,0.469671142578125,0.15308803647458552,0.7100634553268551,-0.4029517820280045
1788860699588712000,0.4797119140625,-0.07389876442551613,0.48975657058209177,-0.7503869170825928
1788860699598753000,0.4897529296875,-0.03561725682616233,0.3276002615109086,-1.0854212010517716
1788860699608793900,0.4997939453125,0.3766413557946682,0.10733867721259593,-1.2366954661026597
1788860699618835000,0.5098349609375,0.8889134173065424,-0.10284574970752,-0.9050265669133514
1788860699628876000,0.5198759765625,1.030206971091032,-0.5427002252623438,-0.674499974514544
1788860699638916900,0.529916748046875,0.647371436831355,-0.7888654816240072,-0.5756158219143748
1788860699648958000,0.5399580078125,-0.23607144010961054,-0.6258607390299439,-0.3538546467080712
1788860699658999000,0.5499990234375,-0.7648685199648141,-0.22929566236436366,-0.06810677355322986
1788860699669041000,0.560041015625,-0.6024561903059482,0.039295945338904854,0.15862543153129516
1788860699679082000,0.57008203125,0.08698971666693688,-0.009933364993333816,0.21241835998464376
1788860699689122800,0.580122802734375,1.339859780240059,0.07346972535848617,0.19293714045053348
1788860699699164000,0.590163818359375,2.1764818692952392,0.019274901573359964,0.2816953280947171
1788860699709205000,0.600205078125,2.0768243942350146,-0.21410686106085777,0.4289195688361302
1788860699719245800,0.610245849609375,1.4425608607798814,-0.23419278675615787,0.3916340865368023
1788860699729287000,0.620286865234375,0.37066754208207126,-0.5115168592303991,0.33607831312939523
1788860699739328000,0.630327880859375,0.2813216176778078,-1.0930755151972174,0.20114565441263837
1788860699749368800,0.640368896484375,1.0377706843435763,-1.3500807300031183,-0.06397411246160045
1788860699759410000,0.650409912109375,1.0114221911221741,-1.0362418673411011,-0.33177140971571206
1788860699769451000,0.660450927734375,-0.1135141509771347,-0.6748004187658428,-0.39621808985881507
1788860699779491800,0.670491943359375,-1.5591642099440097,-0.5625099643647671,-0.6138948452956974
1788860699789533000,0.680532958984375,-2.320992631560564,-0.6784533883154392,-0.9657636519487947
1788860699799574000,0.690573974609375,-2.3476667034745216,-1.0216513241916894,-1.1381309008456766
1788860699809616000,0.700615966796875,-1.6524977426797152,-1.0092886862248183,-0.8674440744288265
1788860699819657000,0.710656982421875,-0.7892594493776559,-1.0336381145834923,-0.14793006918951868
1788860699829697800,0.72069775390625,0.033365678507089616,-1.4742302567631005,0.5937713640689849
1788860699839739000,0.73073876953125,-0.05628478180170059,-1.477344004869461,0.656666796182096
1788860699849780000,0.740780029296875,-0.566020018312335,-1.9853052174448966,0.5148183849938214
1788860699859820800,0.75082080078125,-0.83337799256742,-2.3367338060498235,0.2595543147668242
1788860699869862000,0.76086181640625,-1.1755179438233374,-2.3922417582601305,-0.22658581888377666
1788860699879902700,0.77090283203125,-1.025180667361617,-2.774114000445604,0.1566314081698656
1788860699889943800,0.78094384765625,-1.0694657992899417,-2.391163899895549,-0.4435124135404825
1788860699899985000,0.79098486328125,-1.7250497686713933,-1.991960583680868,-1.1407359687775374
1788860699910025700,0.801025634765625,-1.9297148476481436,-2.0888059239298102,-1.0890545891180634
1788860699920066800,0.81106689453125,-1.1307014814972878,-2.282987018293142,-0.5602618931770325
1788860699930108000,0.82110791015625,-0.22894787184000015,-2.2820208036094902,-0.08392185352891683
1788860699940148700,0.831148681640625,-0.3506944291114807,-1.53070383913517,0.3526274430006742
1788860699950189800,0.84118994140625,-0.8819406556844711,-1.0945020408689976,0.424354124084115
1788860699960231700,0.851231689453125,-1.1125421399503945,-1.2092319973766803,-0.1441530348688364
1788860699970272800,0.861272705078125,-1.305440793287754,-1.2499573909968138,-0.6325707580626011
1788860699980314000,0.871314208984375,-1.2800795575380324,-1.0903092653542756,-0.6825912187725305
1788860699990355000,0.88135498046875,-1.0529513023406267,-0.9831734172374009,-0.6521352902323008
1788860700000396000,0.89139599609375,-0.6300292568862438,-1.0469880100220441,-0.6998749465286731
1788860700010437000,0.90143701171875,0.49692310121059413,-1.3739227933615445,-0.2735948228180408
1788860700020478000,0.91147802734375,0.8870002771615981,-0.26469080087244506,0.2942319526553154
1788860700030519000,0.92151904296875,0.4670189613342285,0.5274240379363299,1.0842091949135064
1788860700040560000,0.93156005859375,0.38969080698192116,0.8303028229057788,1.7858856379061936
1788860700050601000,0.94160107421875,-0.4155786969542503,1.6290256816774606,1.2693278618991375
1788860700060642000,0.95164208984375,-1.0606465330183505,1.3863231329903005,0.3886667246311903
1788860700070683000,0.961682861328125,-1.104005197751522,0.8596256557628512,-0.39697336520552634
1788860700080724000,0.971723876953125,0.005797288101911545,0.40637393849641085,-0.15581366204619407
1788860700090765000,0.98176513671875,1.239033261400461,0.650426440487802,0.05115384865403175
1788860700100806000,0.991805908203125,1.5137369222432373,1.0051739443823695,0.11148878262937069
1788860700110848000,1.001847900390625,1.782829757466912,0.6913198841512203,0.5644827257424593
1788860700120888800,1.011888916015625,1.2841577667623758,1.2901967546656727,0.7067518465608358
1788860700130930000,1.021929931640625,0.40300563110709187,1.5879156726539134,0.6644798080205917
1788860700140971000,1.031970947265625,0.00736906746327877,1.4040256706804037,0.5015004921287298
1788860700151011800,1.04201171875,0.21682079619467257,0.9461793191000819,0.06949965268373488
1788860700161053000,1.052052978515625,0.8013152133524417,-0.030154315245151518,-0.3504863393187523
1788860700171094000,1.062093994140625,1.5620324588567018,-1.0243681819349526,-0.8853805670052767
1788860700181134800,1.072134765625,1.7948083645522594,-1.2442261538684367,-0.6819406459093094
1788860700191176000,1.082176025390625,1.6179142128154635,-1.220122516964376,-0.6874497647196054
1788860700201217000,1.092217041015625,1.0409402542904018,-1.8600643883168697,-1.8023346684038637
1788860700211257900,1.1022578125,0.35481881556510925,-2.558773505936563,-3.111321755996346
1788860700221299000,1.112298828125,-0.04202010960578918,-2.6342539865955708,-3.490505782011151
1788860700231340000,1.122340087890625,-0.45359746196419,-2.2602526239156724,-2.890134581285715
1788860700241380900,1.132380859375,-0.5105182035818696,-2.0504595344007015,-2.426450901854038
1788860700251422000,1.142421875,-0.2350517416730523,-2.3602260330572724,-2.287441075092554
1788860700261463000,1.152463134765625,0.20555472129285335,-2.933715948858857,-2.398462824732065
1788860700271505000,1.1625048828125,1.2540582504443825,-3.380836031502485,-2.713179347011447
1788860700281546000,1.1725458984375,1.5256898103654384,-3.9865515158653255,-2.295872803351283
1788860700291586800,1.1825869140625,2.196978713878989,-3.521749938319623,-2.153095733010769
1788860700301628000,1.1926279296875,3.678643504557013,-2.3885541557885706,-1.0337152714729307
1788860700311669000,1.2026689453125,3.5006478213191032,-2.0309476092010734,0.05956161151528358
1788860700321709800,1.212709716796875,2.511172673588991,-1.507187208338827,0.4615560197532177
1788860700331751000,1.2227509765625,1.1314139406155794,-0.8218667107328772,0.22744272797405718
1788860700341791700,1.232791748046875,0.33701073514129964,-0.7722948705732822,-0.3075502839118242
1788860700351832800,1.242832763671875,1.0880307990282774,-1.196441343256086,-0.6568740091919899
1788860700361874000,1.2528740234375,2.660238614940643,-0.8568043147318065,0.0031558336824178694
1788860700371914800,1.262914794921875,3.886843771922588,0.498962973007746,1.7188988448262215
1788860700381955800,1.272955810546875,3.570938916641474,2.0105419500321147,3.4929233645468947
1788860700391997000,1.282996826171875,3.0529414632201193,2.2015403227061032,4.302351157206297
1788860700402037800,1.293037841796875,1.9346283386528491,0.5410322920501232,4.184761135092377
1788860700412078800,1.303078857421875,1.326157418102026,1.8392226758182049,5.562233145368099
1788860700422120000,1.313119873046875,0.23266433507986364,2.555099493598938,5.789971056896448
1788860700432161800,1.323161865234375,-1.5533303892239927,2.2926117557287213,5.001094469356537
1788860700442203000,1.333202880859375,-2.4075614924669266,2.1307969535715876,4.404422707670927
1788860700452243700,1.34324365234375,-1.253920887800306,1.544893546398729,4.820030046197772
1788860700462284800,1.353284912109375,-0.38490518014058467,2.2149898791268465,6.005510581108927
1788860700472325600,1.36332568359375,-0.2729612010896206,3.021255992884934,6.909077377668023
1788860700482366500,1.373366455078125,0.29138211618214843,2.9698078374594448,7.699463785248994
1788860700492407600,1.383407470703125,-0.2596655200563371,2.8764135144472123,7.702740030440688
1788860700502448600,1.39344873046875,-1.9462215996824204,2.6948639381200072,6.355111954286694
1788860700512489500,1.403489501953125,-2.691960617893934,1.8126675541087984,4.177173456442356
1788860700522530600,1.413530517578125,-4.237650429236889,1.3693221676982938,2.009023362162709
1788860700532571600,1.423571533203125,-12.02658230396509,0.38271899520792063,-2.468196870693564
1788860700542612500,1.433612548828125,-21.51334685461521,-2.0893220567584034,-7.818084903976321
1788860700552653600,1.443653564453125,-16.49524981253147,-1.928732120221108,-6.948671136909723
1788860700562694700,1.453694580078125,-4.1989696931868785,-0.8170496658399701,-1.6415695214301347
1788860700572735500,1.463735595703125,3.3246929962590337,1.8071403151199221,0.5777922891706228
1788860700582776600,1.473776611328125,3.9315868767514823,3.789914552782476,-1.665124000018835
1788860700592818400,1.483818359375,0.3434317446321249,3.6213217809230085,-4.749095976796746
1788860700602859500,1.493859619140625,-0.5139651291653513,1.6732124677978455,-6.895203750616312
1788860700612900600,1.503900634765625,-0.4247521834909916,0.5509570353455842,-9.870649301701784
1788860700622941400,1.51394140625,-0.12214753928780556,-0.18544103080779312,-11.438412997686862
1788860700632982500,1.523982421875,0.858923060451448,-2.9252652236387133,-8.746407956129312
1788860700643023600,1.534023681640625,1.5953960915371774,-6.771863786673546,1.9555039534211158
1788860700653064400,1.544064453125,2.8614646593794224,-2.0187936455488202,6.988175464302301
1788860700663105500,1.55410546875,0.5313727755621075,-1.247774786260724,8.909641539043188
1788860700673146400,1.564146484375,-4.339554514180124,-5.231126044780016,5.686262845140695
1788860700683187500,1.5741875,-7.719177370500564,-5.3527971987277265,-3.8803696074724194
1788860700693228500,1.584228515625,-5.010097275501489,0.7107178275823592,-6.058811963185668
1788860700703269400,1.594269287109375,9.417318673980235,0.5305377860426902,-4.140306491816044
1788860700713310500,1.604310546875,14.182341118705272,6.923633726286888,-6.066214932918548
1788860700723351600,1.6143515625,17.716427099245784,15.26020649755001,16.685485968661308
1788860700733392400,1.624392333984375,0.1709440111607313,7.912527274736761,20.499556765317916
1788860700743433500,1.63443359375,-16.350612209016084,2.47859259250164,5.399230448600649
1788860700753475300,1.644475341796875,-6.298024623930454,-8.19938899088502,-8.54240046427846
1788860700763516400,1.654516357421875,-0.4095911469772458,-15.567010347008704,-8.241201010698079
1788860700773557500,1.6645576171875,3.490594044816494,-7.0431976788222785,-1.3891127637088299
1788860700783598300,1.674598388671875,5.9686523843109605,0.6107815355807542,4.7939825817495585
1788860700793639400,1.684639404296875,2.8434342049092054,2.386339840739965,7.332227971181273
1788860700803680500,1.694680419921875,-0.07070844395160675,1.636415791928768,5.9641316920161245
1788860700813721300,1.704721435546875,-3.6647304222777484,1.1172428649872541,5.00782114726305
1788860700823762400,1.714762451171875,-3.102911070525646,1.3875281248658895,4.756417697986961
1788860700833803500,1.724803466796875,-2.3543550951972603,-0.2907429414957762,2.8198937548458574
1788860700843844400,1.73484423828125,-1.209380173675716,-0.4317658616453409,2.4882073930650948
1788860700853885400,1.744885498046875,1.4706509369716048,0.12793372147381304,3.2894074556052684
1788860700863926500,1.754926513671875,2.4180881471782922,-1.2482371430754662,0.13385142108500003
1788860700873967400,1.76496728515625,1.7767486839875577,-1.4749223306804895,-2.7120219936698673
1788860700884008400,1.775008544921875,0.35027766500413415,-0.8323059794217348,-4.825352702525258
1788860700894049300,1.78504931640625,1.752204609839618,2.1398960596978664,-2.1898984002292154
1788860700904090400,1.79509033203125,3.133792238740623,5.332422519218921,-0.013741525104641914
1788860700914132500,1.805132568359375,-4.4725683153972025,2.1561995442450046,-2.0279232929438353
1788860700924173600,1.815173583984375,-6.964238123875856,-2.747332961025834,-5.154528542789817
1788860700934214700,1.825214599609375,1.9119979891717434,-5.36310465773046,-6.271589036947488
1788860700944255500,1.83525537109375,-0.4190262070596218,-6.789211227315664,-3.0470769551008936
1788860700954296600,1.845296630859375,0.3000824322491884,-3.53726344153285,1.6999574129909276
1788860700964337700,1.855337646484375,3.965204484193027,-2.1891005278497935,1.7096756739288568
1788860700974378500,1.86537841796875,-0.30424685845226046,-0.6032639995574951,0.6906535291969775
1788860700984419600,1.875419677734375,-1.2722709296137094,1.443273977485299,0.2704717223614454
1788860700994460700,1.885460693359375,0.7057429617792368,1.4862310756802557,-0.3486947797268629
1788860701004501500,1.89550146484375,1.7158718982204795,0.5512433049410581,-0.5097007497191429
1788860701014542600,1.90554248046875,1.0564558033302425,-0.5268886158853769,-1.3149194002509117
1788860701024583700,1.915583740234375,0.6153378837108612,0.9101309773802757,-1.1002847159236668
1788860701034624500,1.92562451171875,0.14349749356955288,2.9860458555549383,-1.0297732558488846
1788860701044665600,1.93566552734375,-0.7986585613638162,3.894628434449434,-1.6298334909290075
1788860701054706700,1.945706787109375,-1.9872502140328288,5.071440509736537,-1.2312573667019604
1788860701064747500,1.95574755859375,-1.9498688701435922,5.19818239107728,-1.8123966282129287
1788860701074789600,1.96578955078125,-0.9725047237068414,3.9927310812830923,-2.1401929968178273
1788860701084830500,1.97583056640625,0.6548436724081635,3.8329531917810438,-3.423424880906939
1788860701094871600,1.98587158203125,0.844457897247374,4.7884033203125,-5.088845818045735
1788860701104912600,1.99591259765625,-0.08627747674435376,5.640341636443138,-4.244385290449857
1788860701114953500,2.005953369140625,0.19194880526661873,3.3256361223280426,-1.6317635822087526
1788860701124994600,2.01599462890625,1.2599649902701378,2.859602080377936,-1.8393220445394516
1788860701135035400,2.026035400390625,0.9842936534389853,1.82582192697525,-2.927904047709703
1788860701145076500,2.036076416015625,-0.14483838678449393,2.981421118363738,-1.1819412548691033
1788860701155117600,2.04611767578125,-2.7044123954489825,0.3683247783482074,3.240158563789725
1788860701165158400,2.056158447265625,-1.1946832475423812,-1.1776327440202234,2.6499977914333344
1788860701175199500,2.066199462890625,0.22885464059859512,-1.7435627459615468,-0.4909539636731147
1788860701185240600,2.076240478515625,-1.8617884356305001,6.82092329339683,-3.256621038290858
1788860701195281400,2.086281494140625,1.6911232414111494,10.717596969938278,2.342355737584829
1788860701205322500,2.096322509765625,0.5781099768176674,1.8474720332473515,5.4293771650612355
1788860701215363600,2.106363525390625,-1.190358662341535,-1.1841449023932218,2.4055413848161695
1788860701225404400,2.116404296875,1.3069582121133803,-4.02192268897593,0.12206687526702881
1788860701235445500,2.126445556640625,1.7804387706771492,-4.562796575593948,-1.7178303388118743
1788860701245487400,2.1364873046875,1.078752975334227,-10.774933891141414,-1.9815473262161016
1788860701255528400,2.146528564453125,0.14180062652379274,-11.246084253191947,-2.7778432501018044
1788860701265569500,2.156569580078125,0.6720487819701433,-6.3607806475728745,0.15282850875556467
1788860701275610400,2.1666103515625,-1.1496315151557326,2.980792172810435,3.5529175222605467
1788860701285651500,2.1766513671875,-1.73356040738523,1.3814876756578682,4.29365405600965
1788860701295692500,2.186692626953125,-0.04287818773984909,0.1868950290083885,3.102881844431162
1788860701305733400,2.1967333984375,1.354320851790905,0.13703122016489505,1.182467909091711
1788860701315774500,2.2067744140625,0.5234899133577943,-2.0845400831788776,0.10847498776614665
1788860701325815600,2.216815673828125,-0.7980868989557027,-0.47332419895827765,-0.12905308089256287
1788860701335856400,2.2268564453125,0.32596155439317226,-1.7549784584671257,-1.4357465045899152
1788860701345897500,2.2368974609375,0.5854571247100829,-3.7796032943874596,-3.0796307327032086
1788860701355938600,2.2469384765625,-0.15372399629056452,-4.392691353344917,-3.4816362468570468
1788860701365979400,2.2569794921875,-0.6861129631578922,-2.9641438203483816,-2.584297531032562
1788860701376020500,2.2670205078125,-0.8562658239409326,-2.076001387414336,-1.5514374150842427
1788860701386061300,2.277061279296875,-1.1733327087387442,-1.663233071705699,-2.288270219393074
1788860701396102400,2.287102294921875,-1.530459216724336,-3.104878571206331,-2.88637669005692
1788860701406144500,2.29714453125,-1.4566528067573905,-3.94120489218533,-3.149168671570718
1788860701416185600,2.307185546875,-1.3661723253652454,-3.8441198979616162,-1.2402446830168365
1788860701426226700,2.317226806640625,-0.963400503014028,-2.0821452969968317,2.4675007051229474
1788860701436267500,2.327267578125,-0.4504430895864963,-1.0610650506913661,3.894109671272337
1788860701446308600,2.33730859375,-0.17435352734327314,-0.06640811640918254,4.184018500031531
1788860701456349700,2.347349609375,-0.4751356322944164,-1.23342185125947,4.8033156427621835
1788860701466390000,2.35739013671875,-0.7859513477429747,-1.7399837184309959,3.4885642925545572
1788860701476431000,2.36743115234375,-1.1145672160372138,-2.1765508428782225,2.1313944810733196
1788860701486472200,2.37747216796875,-0.7444441560953855,-2.331128825649619,2.086527457603812
1788860701496513000,2.387512939453125,-0.45891222724616526,-2.201837259826064,3.2249002043813464
1788860701506554000,2.39755419921875,-0.08310060027390719,-2.0569640939891336,4.466413299898803
1788860701516595200,2.40759521484375,-0.09601765725314616,-2.894278841483593,4.41757474244982
1788860701526636000,2.417635986328125,-0.3673679160147905,-4.221923867794871,3.3510642858341333
1788860701536677000,2.427677001953125,-1.0656278285622596,-4.239675213062763,3.01125686917901
1788860701546718200,2.43771826171875,-1.3783838644236326,-3.8809383472710848,1.6059353134691714
1788860701556759000,2.447759033203125,0.029978958678245543,-3.454109942027926,-0.1163812308460474
1788860701566801200,2.45780126953125,-0.36373218986093997,-1.8203835353136062,-1.3736492371171711
1788860701576842000,2.467842041015625,0.46284664408564563,1.8210002059072254,-2.8095106002584096
1788860701586883000,2.477883056640625,3.162548085364699,3.074028090390563,-4.508944281636178
1788860701596924200,2.487924072265625,3.7104713059723373,3.696438688966632,-2.143742213732004
1788860701606965000,2.497965087890625,2.441072424663603,4.92870669401586,-3.7210993752315638
1788860701617006000,2.508006103515625,3.049198477299511,5.294361376371979,-4.058142295609414
1788860701627047200,2.518047119140625,5.522570997065305,5.1434167816668745,-1.9265368021339178
1788860701637088000,2.528087890625,2.94279240476191,3.7264930509686467,-0.819826729337871
1788860701647129000,2.538129150390625,-0.3866609377667308,2.311309441936016,0.9203305920943617
1788860701657170200,2.548170166015625,-3.1309958860203624,0.7782230915784836,2.0845070576921105
1788860701667211000,2.5582109375,-4.397364021331072,-1.5509154370367526,2.0073437385126947
1788860701677252000,2.568252197265625,-2.613671509554982,-2.055394652715325,1.3210033963397145
1788860701687293000,2.57829296875,-1.092055816760659,-0.5411234774649143,0.9102852911591529
1788860701697334000,2.588333984375,0.5583253721565008,2.0007792654305696,1.481174961334467
1788860701707375000,2.598375,0.14814941102862358,2.0292519111990925,1.835906098616123
1788860701717417000,2.6084169921875,-0.10113105474412441,1.0679390281140804,1.180093581175804
1788860701727458000,2.6184580078125,0.047261517390608784,0.5854769984543323,-0.020806348924338816
1788860701737499000,2.628498779296875,-0.3553539453551173,0.2635363701403141,-0.27863924672603607
1788860701747540000,2.6385400390625,0.9721785604923963,0.20947101795375345,-0.00104132574647665
1788860701757581000,2.6485810546875,0.6896265242367983,0.15185703337490558,0.2436833764180541
1788860701767622000,2.658621826171875,0.1370768128722906,0.6660428195536137,1.050167809101939
1788860701777663000,2.6686630859375,-0.16935674196928738,0.9282207608222961,1.5823913562744856
1788860701787704000,2.6787041015625,-0.08827274221479892,0.12467442741692066,2.011509626020491
1788860701797745000,2.688744873046875,-0.1443380360469222,-0.6143623166769743,2.2282395290613173
1788860701807786000,2.698785888671875,-0.44737961036264895,-1.2978998763889074,2.4636232791677117
1788860701817827300,2.708827392578125,-0.825867470806837,-1.8124235162198543,3.134256349121034
1788860701827868200,2.7188681640625,-1.0147679944187402,-1.3145908989489077,4.061710217224062
1788860701837909200,2.7289091796875,-0.8357114039510488,-0.4675619821697473,4.9238235981494185
1788860701847950300,2.738950439453125,1.3147010813251137,1.1786410442799329,5.28591094341278
1788860701857991200,2.7489912109375,1.39613433290869,2.0769833841890097,4.268881433802843
1788860701868032300,2.7590322265625,1.0770417875021696,1.8935569080740213,3.3468098432600497
1788860701878074000,2.76907421875,2.2398580706626174,1.006832525244355,1.5197357242666183
1788860701888115200,2.779115234375,2.337550090868771,0.6381225469708443,0.16485183176547288
1788860701898156300,2.78915625,1.437056125883758,1.304103407204151,1.0167816723287104
1788860701908197000,2.799197021484375,2.4769997703522444,3.1548306428551673,3.0433190638720986
1788860701918238200,2.80923828125,0.231805307097733,4.305505237323046,3.4560119762569665
1788860701928279000,2.819279052734375,-2.1246774477779864,3.2610102131605148,1.4430083122864366
1788860701938320100,2.829320068359375,-1.8483055614620445,2.9256583146095276,-2.9645360345363616
1788860701948361200,2.839361328125,-0.23410540073364972,4.662561018159986,-5.231550992193818
1788860701958402000,2.849402099609375,1.669281119698286,4.310003717786073,-4.35031293182075
1788860701968443100,2.859443115234375,1.984312114754319,2.782270418894291,-5.06429297606945
1788860701978484200,2.869484130859375,2.7954472958534953,1.3971686443924902,-6.264846576949954
1788860701988525000,2.879525146484375,3.370012147410214,-0.6885276230841875,-6.547385169202089
1788860701998566100,2.889566162109375,3.52869347384721,-1.8387638261348007,-5.5120683077514165
1788860702008607200,2.899607177734375,3.745151281948387,-2.6655723771840334,-4.508470234383642
1788860702018648000,2.90964794921875,3.3318729708909984,-4.754389407029747,-3.4805595575362442
1788860702028690200,2.919690185546875,0.7209206571668386,-2.108264073115587,-0.0020690613590180875
1788860702038731000,2.92973095703125,-2.127176863378286,2.0467279466569424,2.583715931752324
1788860702048772000,2.939772216796875,-3.1741204497367144,1.9842770434409378,2.886573673933744
1788860702058813200,2.949813232421875,-2.560153854379058,-0.18244038768708704,0.926864231646806
1788860702068854000,2.95985400390625,-2.163119698897004,-1.5151023653775453,-2.1355185752660035
1788860702078895000,2.96989501953125,-2.548573891222477,-3.0987644722402092,-3.8047479647770523
1788860702088936200,2.979936279296875,-2.0831901298746467,-2.8549194755196567,-3.3026153122246265
1788860702098977000,2.98997705078125,-1.78574301456511,-1.8614894526839256,-1.8013905194215476
1788860702109018000,3.00001806640625,-1.32277420540452,-4.059863420313596,-0.7525706908624619
1788860702119059200,3.01005908203125,0.1833332448735833,-2.944667550984025,1.056368271177262
1788860702129100000,3.02010009765625,0.2632069920554757,-1.7825170382559299,0.9702491998650133
1788860702139141000,3.03014111328125,-0.47277942455708977,-0.5070628024309873,0.37471374873295427
1788860702149182200,3.04018212890625,-0.5805956561535597,-0.6529565434873104,0.16762425562087446
1788860702159223000,3.05022314453125,-0.27267887701690197,0.424676780167222,0.4126796875771135
1788860702169264000,3.06026416015625,-0.5158709627866744,1.3488684316039086,-0.04098006250094622
1788860702179305000,3.070304931640625,0.0435182392090559,-0.6765221279919147,0.3106820060662925
1788860702189347000,3.08034716796875,0.1249757484510541,-0.5228975004225969,1.3817074558883904
1788860702199388000,3.090387939453125,-0.15302958428561686,0.7101496723055839,2.3313255172654985
1788860702209429000,3.100428955078125,0.6058887951031326,0.608747399404645,2.3206205833777784
1788860702219470000,3.110469970703125,0.9257061476528644,-0.18453531413972377,1.8079941554702816
1788860702229511000,3.120510986328125,0.061496086709201335,-0.8657201732456684,1.3200254912182687
1788860702239552000,3.130552001953125,0.3867234816089272,-0.37092706980109214,0.5641179110180586
1788860702249593000,3.140593017578125,0.21329875954836605,-0.44335751523971556,-0.775272863470763
1788860702259634000,3.150634033203125,-0.33641689743399616,-0.1723480327397585,-1.5660867026835679
1788860702269675000,3.160675048828125,-0.6648220455870032,0.003260463100671768,-2.4036400812394914
1788860702279716000,3.170716064453125,-0.19849603495299814,-0.06776011554002762,-1.5451571657709777
1788860702289757000,3.1807568359375,-0.5488923579007386,-0.4110252714335918,-0.29269816721677777
1788860702299798000,3.190798095703125,0.08739420581459999,-0.8334604101538657,1.1583623724915086
1788860702309839000,3.200839111328125,-0.9864771349579096,-1.9419687645435333,1.6369743025943635
1788860702319880000,3.2108798828125,-1.3127952477037905,-1.7938497486531733,1.4335064705781637
1788860702329922300,3.22092236328125,-0.5296189176321029,-0.5615332282871007,1.731799827453494
1788860702339963100,3.230963134765625,-0.2939993129432201,-0.7196738719761371,0.985808734177053
1788860702350004200,3.241004150390625,0.0997328783839941,-0.662856590732932,0.27923589744493366
1788860702360045300,3.25104541015625,0.9698159230142831,-0.5636000976890325,-0.04754793311655521
1788860702370086100,3.261086181640625,1.244613691881299,-0.8897557133495807,-0.268255946008116
1788860702380127200,3.271127197265625,0.5748299322336912,-1.1058955415427685,-0.7688837469555437
1788860702390168000,3.28116796875,0.19447393983006475,-1.3638666787713765,-1.304830844695866
1788860702400209200,3.291209228515625,0.0939595556795597,-1.4328835163742304,-1.1307228896114974
1788860702410250200,3.301250244140625,-0.9151607882410288,-1.0053624526917935,-0.5671117590717971
1788860702420291000,3.311291015625,-0.5791542251735925,-1.1307786383867262,-0.692088457370922
1788860702430332200,3.321332275390625,-0.13239946871101854,-1.9525825130164622,-0.756963518993929
1788860702440373200,3.331373291015625,-0.2788859149634838,-2.600719089001417,-0.10964834239445626
1788860702450414000,3.3414140625,-0.75571899882555,-2.8015385984659193,0.0208723998978734
1788860702460455200,3.351455078125,-0.08271978426277637,-2.4337048185050487,0.5379919014409185
1788860702470497000,3.3614970703125,0.18979016592800615,-1.4663596695184706,0.6988970414072275
1788860702480538000,3.3715380859375,0.1923936264246702,-0.3904138605594635,1.0291266285084186
1788860702490579200,3.3815791015625,-0.47811844749748705,-0.14216858305335045,0.37483876335211097
1788860702500620000,3.3916201171875,-1.034942182919383,0.3956681278258562,-0.21788820623047647
1788860702510661000,3.4016611328125,-0.6867056683540343,-0.4437175807237625,-0.21983946816241368
1788860702520702200,3.4117021484375,0.8618336872011423,-2.518380997532606,1.3814254240766166
1788860702530743000,3.421742919921875,0.41492753956913947,-1.2366337990432976,1.960774733430892
1788860702540784000,3.4317841796875,0.3650117082774639,0.9473287813961505,1.9033420967683194
1788860702550825200,3.4418251953125,0.6877338423579931,2.5747107875198125,1.3647431693449616
1788860702560866000,3.451865966796875,0.688866061258316,3.4070085836350916,0.46018337969314305
1788860702570907100,3.4619072265625,0.07001753907799721,4.400536221626401,0.12733630356993525
1788860702580948200,3.4719482421875,-0.5767208605468273,3.950290115916729,0.11826136377053334
1788860702590989000,3.481989013671875,-0.5942945111602544,2.81604701628983,0.19031795266177504
1788860702601030100,3.492030029296875,0.3910398835033178,1.529485695517063,-0.171268640005216
1788860702611072000,3.502072021484375,0.763673172700405,0.5866162316173315,-0.72697922655344
1788860702621113000,3.512113037109375,0.6995546285331249,0.005059036955237389,-1.0202216567147522
1788860702631154200,3.522154296875,0.7031418393701314,-0.05429565381109714,-0.8823286320887506
1788860702641195000,3.532195068359375,0.6073340254753827,0.3098556382447481,-0.8759322821151465
1788860702651236000,3.542236083984375,0.8586328453332185,0.7139519871979951,-0.863491245149821
1788860702661277000,3.55227685546875,0.4527285701751709,1.5672008014053105,-1.4861051112130284
1788860702671318000,3.562318115234375,-0.23926000701785086,3.112655050426721,-2.3528245246291157
1788860702681359000,3.572359130859375,-0.1699509084701538,3.858210382634401,-3.8407477911800143
1788860702691400000,3.58239990234375,1.2536515693396328,3.350791021850705,-3.7354324364885687
1788860702701441000,3.59244091796875,1.8065087392181156,3.21836583417654,-2.502424426726997
1788860702711482000,3.602482177734375,1.9850620563387869,4.530710415503383,-2.6141385425448416
1788860702721523000,3.61252294921875,1.7294634934604167,5.403816022825241,-3.525269929139316
1788860702731564000,3.62256396484375,1.2489040825515985,7.69697255295515,-2.673605461513996
1788860702741605000,3.632605224609375,-0.4010802160024643,8.143657166790963,-0.7313878367759287
1788860702751647000,3.64264697265625,-1.5827005683541298,4.444764654931426,0.2548063165221363
1788860702761688000,3.65268798828125,-2.057588363367319,-0.1302022509276867,1.7462968471005558
1788860702771729000,3.66272900390625,-1.7534867586046456,-5.9697156296283005,1.66514241245836
1788860702781770000,3.67277001953125,-0.2931955953449011,-9.933353302896021,1.2457538018271326
1788860702791811000,3.68281103515625,-0.3691670743912458,-8.504055243793129,2.021773684272915
1788860702801852000,3.692851806640625,-1.9562986109301446,-5.004784556046128,2.631347451499104
1788860702811893200,3.702893310546875,-2.6533576232552525,-3.495589953407645,1.8452333144098518
1788860702821934300,3.712934326171875,-2.4315163685500623,-2.9519150378942487,0.4761088612407446
1788860702831975200,3.72297509765625,-0.051399055586755275,-2.3598142373859883,-0.18731252376809715
1788860702842016300,3.733016357421875,2.045088655017316,-1.1332003125756978,0.506583348350972
1788860702852057300,3.743057373046875,0.1795966886937618,0.027308862686157225,0.8097710531391203
1788860702862098200,3.75309814453125,-1.1254401999682186,-0.11328151126503944,0.6978149452589452
1788860702872140300,3.763140380859375,-1.8670050012350081,-0.31293022338449955,0.6131684307172894
1788860702882181000,3.77318115234375,-1.7314765868484974,-0.6040811611592769,0.3568127658613026
1788860702892222200,3.78322216796875,-0.5789689317345619,-1.668794212964177,0.030950434058904647
1788860702902263000,3.793262939453125,-0.16783961540460585,-1.965378866225481,-0.6858857302732765
1788860702912304000,3.80330419921875,-0.5698766937404871,-1.2390198173969984,-1.1454881317406893
1788860702922345200,3.81334521484375,-0.7668851204842329,-1.2236819630116225,-1.6027967231824993
1788860702932386000,3.823385986328125,-0.6501783109456301,-0.8956646451324224,-1.5750684660404919
1788860702942427100,3.83342724609375,-0.35035949806869027,-0.5739835445374251,-0.516009786735475
1788860702952468200,3.84346826171875,-0.3813666307508945,-0.6505985821843147,0.5075310044646263
1788860702962509000,3.853509033203125,-0.7410229494750499,-1.0163789367467164,0.6237462310940027
1788860702972550100,3.863550048828125,-0.7974111916512251,-1.38075702329576,0.27447248243540523
1788860702982591200,3.87359130859375,-1.1602625070244073,-1.7798644779205322,-0.3483203934565186
1788860702992633000,3.883633056640625,-1.1821201185673476,-1.7887778522163629,-0.7967571116566657
1788860703002674200,3.893674072265625,-0.8720745107084512,-2.129779154831171,-0.9171163062229752
1788860703012715000,3.903715087890625,-0.5504729050904512,-2.547098557972908,-0.6709568950802087
1788860703022756000,3.913756103515625,-0.5694102452725172,-2.631607563740015,-0.20217589250952003
1788860703032797200,3.923797119140625,-0.9011088820129632,-3.1378608033537865,0.19016396767646074
1788860703042838000,3.933838134765625,-1.1061077229887246,-2.84637259644866,0.5431219578057527
1788860703052879000,3.943879150390625,0.1699941630899906,-1.2830541894346474,0.6093821901768446
1788860703062920200,3.953920166015625,0.9895552272289991,-0.6932955681383609,0.08795549295917153
1788860703072961000,3.9639609375,0.4721037172526121,-0.7154232287943363,-0.8367068447291851
1788860703083002000,3.974002197265625,0.40382103914320466,0.32196751632094384,-0.30044878134354946
1788860703093043200,3.984043212890625,-1.1880471705287694,1.633088693332672,0.14059753434434533
1788860703103084000,3.994083984375,-2.553073540729284,2.1972756509989497,0.21509835631623864
1788860703113125000,4.004125,-1.2787719820708037,1.7337018616825342,0.20211188736259936
1788860703123167000,4.0141669921875,0.5185673622637987,1.8957161319345235,0.7366594935685395
1788860703133208000,4.0242080078125,0.9506213932007551,2.398800678384304,1.5748831726014614
1788860703143249200,4.034249267578125,1.018558034351468,2.142716377815604,1.9476681452289222
1788860703153290000,4.0442900390625,0.18997019867002962,0.24489479803442954,1.5160320474430917
1788860703163331000,4.0543310546875,-1.0183487755149603,-2.451070963847637,0.7952551826611161
1788860703173372000,4.064371826171875,-1.4183897115975617,-3.7544665150433776,0.45724224820733067
1788860703183413000,4.0744130859375,-1.2007862405925989,-3.6924364675879477,0.020666063670814035
1788860703193454000,4.0844541015625,-1.2518635168790817,-2.425244448673725,-0.36869887235760684
1788860703203495000,4.094494873046875,-1.994769211360812,-0.5604302354812621,-0.03790887489467859
1788860703213536000,4.104535888671875,-1.592019600841403,0.7082119822412729,1.0899924544900654
1788860703223577000,4.1145771484375,0.5002162975370884,1.3834715429514646,2.003182527180016
1788860703233619200,4.124619140625,1.8330092081308365,-0.2955588173449039,1.2057210666462779
1788860703243660300,4.134660400390625,-0.05222878440916538,-1.5764999601483345,0.32041414939910173
1788860703253701000,4.144701171875,0.20482348440885542,-1.7608476427614688,0.3238043763592839
1788860703263742200,4.1547421875,1.2052736151397228,-2.1959818117961287,-0.13621961152106524
1788860703273783300,4.164783203125,0.5911743333131074,-2.1313015420928596,-0.5286363363355397
1788860703283824000,4.17482421875,-0.22497546107769012,-1.7304545503243802,-0.5427534167543053
1788860703293865200,4.184865234375,-0.3484253151357174,-1.8683207600086926,-0.5187003409937024
1788860703303906300,4.19490625,0.13110124559402464,-1.5608192836746573,-0.37025545414984223
1788860703313947100,4.204947021484375,1.0431173060685395,-0.8276452941343188,-0.11301204667389392
1788860703323988200,4.21498828125,1.697795266520977,-0.08532236797660589,0.18445348107516765
1788860703334029300,4.225029296875,1.764925851985812,0.26713293332755567,0.3958998907551169
1788860703344070100,4.235070068359375,0.8644733880549669,0.4038935198575258,0.7027762209281325
1788860703354112300,4.2451123046875,0.6932178267270326,0.2789391064554453,0.7866741090595721
1788860703364153000,4.255153076171875,0.47809214401245115,-0.3069441347122192,0.7143190669447184
1788860703374194200,4.265194091796875,0.4137228399544954,-0.6139899762332439,0.8154349241197109
1788860703384235300,4.2752353515625,0.663323039200902,-0.528479392208159,0.9917518604904413
1788860703394276000,4.285276123046875,0.8777075481593608,-0.25800503949820996,0.9002864597141742
1788860703404317200,4.295317138671875,1.1439303809046744,0.03711597095131874,0.4312555740356445
1788860703414358000,4.30535791015625,1.025503323444724,0.3656166884332895,0.14878653988838195
1788860703424399000,4.315399169921875,1.344710142880678,0.234705412453413,0.17594985662400722
1788860703434440200,4.325440185546875,2.0179086794078347,0.19228665891885757,0.6762836430609226
1788860703444481000,4.33548095703125,2.4741999105006456,0.4987867031253874,1.3303075235188007
1788860703454522000,4.345522216796875,2.2422306450128553,1.2362797249086201,1.9969635065346956
1788860703464564000,4.35556396484375,2.702106748855114,1.6146711392410098,2.0462632517546413
1788860703474605600,4.36560546875,3.2159856610417363,1.6581857251882552,1.306718558138609
1788860703484646700,4.375646728515625,3.1555928593993183,1.4667536372721195,0.895976779821515
1788860703494687500,4.3856875,1.1255816542655228,0.2992749152585864,0.9919359848856926
1788860703504728600,4.395728515625,-1.0439525878489018,-0.8407881226934492,-0.07161153027117252
1788860703514769700,4.405769775390625,-0.8651087633490562,-1.0858156071968377,-1.5421166290313004
1788860703524810500,4.415810546875,-1.211641981127858,0.3973585651308298,-1.0857745445340872
1788860703534851600,4.4258515625,-1.2207891641795634,0.7129134379304946,0.6565390781491994
1788860703544892700,4.435892578125,1.4690402869045733,0.09972177246809005,1.7515812172442673
1788860703554933500,4.44593359375,2.6999603844761846,0.7743363132730126,2.2762276071608065
1788860703564974600,4.455974609375,1.6027379787325857,1.8285367388918994,2.0183032316833733
1788860703575016400,4.466016357421875,0.9093447954386472,2.3021283566147086,1.4311246900081633
1788860703585057500,4.4760576171875,0.7541787836462259,2.57419231660366,0.7969494193583726
1788860703595098400,4.486098388671875,-0.9342162018448114,3.337732510574162,0.478008557382226
1788860703605139500,4.496139404296875,-0.5766834511458874,2.702447525116801,-0.20572540168464182
1788860703615180500,4.5061806640625,1.2328057651877402,1.6927309688687324,-0.30984979302585125
1788860703625221400,4.516221435546875,2.51389713011682,2.224655825355649,-0.011661211699247359
1788860703635262500,4.526262451171875,2.283058329963684,2.9987703125715255,0.5462216773867606
1788860703645303600,4.536303466796875,1.174261806282401,3.3648151632890104,1.0355623606443405
1788860703655344600,4.5463447265625,0.29255086770057676,2.8606477900385854,1.0874527068793773
1788860703665385700,4.5563857421875,0.10613339307606219,1.9608453144490718,-0.3143605484485626
1788860703675426800,4.5664267578125,-0.4794020575672388,1.006633933932334,-0.416136915358901
1788860703685468700,4.57646875,-0.9881740020036697,-0.025645459518581628,-0.013884732967615127
1788860703695509800,4.586509765625,-1.0731301670163869,-1.5480898582220077,-0.24050679220855234
1788860703705550600,4.596550537109375,-1.948974259391427,-1.9825529961273074,-1.3686299476504324
1788860703715591700,4.606591796875,-2.185391736459732,-1.8529453500919042,-2.0562521463274956
1788860703725632800,4.6166328125,-2.4983652144640685,-1.46368460509032,-1.4629291105479
1788860703735673600,4.626673583984375,-2.7326357426315546,-1.0554910499513148,-0.9282885653614997
1788860703745714700,4.636714599609375,-1.017278515934944,-0.5528257518269122,-0.812995129752159
1788860703755755800,4.646755859375,0.710580464938283,0.07379998022615909,-1.2548808188736438
1788860703765796600,4.656796630859375,1.3292460317671297,0.996220457271859,-1.4032687148332594
1788860703775837700,4.666837646484375,1.6729285362899302,1.6757250351406632,-0.9076116880357264
1788860703785879600,4.676879638671875,1.5609353112697602,1.3906589702375232,-0.36436288897991176
1788860703795920600,4.686920654296875,1.313689566195011,0.737391607235372,-0.5921165825992822
1788860703805961700,4.696961669921875,1.11969376527071,0.7293112496975809,-0.3941472018688917
1788860703816002600,4.70700244140625,1.10283381588459,1.2406802979551255,0.5954921965122223
1788860703826043600,4.717043701171875,0.9284411255747079,1.7700715443111954,0.6158411570578813
1788860703836084500,4.72708447265625,0.2108896525800228,1.7156136856757103,0.21415128472447395
1788860703846125600,4.73712548828125,-0.2273638175189495,1.2482986640043556,0.11307751312553882
1788860703856166700,4.747166748046875,-0.3655646659851074,1.177808977369964,0.3218500274211168
1788860703866207500,4.75720751953125,-0.8388730828523635,1.1850393670149146,0.35218612897396084
1788860703876248600,4.76724853515625,-0.8681815949231386,1.3377479026526211,0.04808803134262561
1788860703886289700,4.77728955078125,-0.8145020271837711,1.8597883478544652,0.08151216203868389
1788860703896330500,4.78733056640625,-0.4887871410280466,2.311479391675442,0.25559154861569405
1788860703906372600,4.79737255859375,0.39954701508581636,2.4598195029705763,-0.16734452536404132
1788860703916413400,4.807413330078125,1.1936439676225186,2.474400693769753,-0.2952840920567512
1788860703926454500,4.81745458984375,0.6385036552429199,2.047677502466738,-0.44856092910170553
1788860703936495600,4.82749560546875,0.4176788841038942,1.2829811241984366,0.03392214334607124
1788860703946536400,4.837536376953125,0.9285960238754749,0.44869354250542814,0.3097194446444511
1788860703956577500,4.84757763671875,0.946803880739212,0.32972982088550923,0.026180735439062117
1788860703966618600,4.85761865234375,-0.15547931552529334,0.8186540322966873,-0.5920856029391288
1788860703976659500,4.867659423828125,0.2742366278529167,1.5788148129619657,-0.022415829947590827
1788860703986700500,4.877700439453125,0.5583166043281554,2.290452824129164,0.7742758152574301
1788860703996741600,4.88774169921875,0.06373743589520454,2.5887372670456767,0.8639116625189781
1788860704006783700,4.89778369140625,0.09340075275301933,2.4611563045322895,0.4799064999580383
1788860704016824800,4.907824951171875,0.06357552333176136,2.102655877844989,-0.03498831127285957
1788860704026865700,4.91786572265625,-0.19829203681349752,1.6063761891044674,0.23414894761443136
1788860704036906800,4.92790673828125,-0.10150982492864132,1.1419820233158766,0.6625029549896717
1788860704046947800,4.93794775390625,-0.1999322052359581,0.7100798219397664,0.14250117600858211
1788860704056988700,4.94798876953125,-0.35290041472315786,0.3554768410824239,-0.6111994687318801
1788860704067029800,4.95802978515625,-0.10265139617919922,0.24248554493561386,-1.042066335710883
1788860704077070600,4.968070556640625,-0.16468202815651892,0.20605814077034593,-1.2640946374207733
1788860704087111700,4.978111572265625,-0.29355273821949956,0.264626649595052,-1.473127263957262
1788860704097152800,4.98815283203125,-0.1943546973645687,0.5711619112454355,-1.2036959905594586
1788860704107194600,4.998194580078125,-0.2296598195016384,0.8444593585520982,-0.8342202886104583
1788860704117235700,5.008235595703125,0.07115852580666542,0.9131298669353127,-0.410747039014101
1788860704127276500,5.018276611328125,0.5386813450098037,0.8174186452828347,-0.39424832415580746
1788860704137317600,5.028317626953125,1.0333072751939296,0.5892410271629691,-0.6898983269155025
1788860704147358700,5.038358642578125,0.9814473240971565,0.2863397381007671,-0.9908014278978109
1788860704157399600,5.048399658203125,0.02045242092013359,0.06811740454509854,-1.3227449793100357
1788860704167440600,5.058440673828125,-0.10621756422817706,-0.023807284305989742,-1.08776484156847
1788860704177481700,5.068481689453125,0.19796821168661116,0.14479834703505037,-0.6184457865983247
1788860704187522600,5.0785224609375,0.623422990489006,0.5415026860408485,-0.29163609094321724
1788860704197563600,5.088563720703125,0.9723299516618251,1.0216242900542913,-0.4580775299876928
1788860704207604700,5.098604736328125,1.0324410137534141,1.294102676063031,-0.7639747859954834
1788860704217646600,5.108646484375,0.7427583949655294,1.3704374354638158,-0.9263374312937259
1788860704227687700,5.118687744140625,0.4471025469869375,1.3217830024100838,-0.6800622848168015
1788860704237728500,5.128728515625,0.44112814875245093,1.2517447128050028,-0.07938128748983145
1788860704247769600,5.13876953125,0.3841162217199802,1.0962648127578198,0.5078323254987597
1788860704257810700,5.148810791015625,0.2821849565088749,0.914321122546494,0.8407733635157346
1788860704267851500,5.1588515625,0.38884266571998594,0.7840870151758194,0.9656491587236523
1788860704277892600,5.168892578125,0.14783727633953095,0.5089448167853057,0.9178785227671266
1788860704287933700,5.17893359375,-0.442440984916687,0.019357173029333354,0.7662064905703068
1788860704297974500,5.188974609375,-0.6072656364142894,-0.3808841079309582,0.8043830764904618
1788860704308015600,5.199015625,-0.2217033075392246,-0.31105624620616434,1.0621423245340584
1788860704318057500,5.209057373046875,0.20112813702225685,0.07790478519648313,1.0196823622062803
1788860704328098600,5.2190986328125,0.4374696262449026,0.7538266092076897,0.6212298643589019
1788860704338139600,5.2291396484375,0.2736240489125252,1.5545342120558023,0.23473873020112512
1788860704348180500,5.239180419921875,-0.3788233760088682,1.9981173527449367,-0.11464315500706433
1788860704358221600,5.2492216796875,-0.9505027352571487,2.02115365267843,-0.12039105100929737
1788860704368262700,5.2592626953125,-1.016224622967839,1.6773276480317114,0.22199732204973696
1788860704378303500,5.269303466796875,-1.1964847440063953,1.0337813224464654,0.19186141924411057
1788860704388344600,5.279344482421875,-1.4116414063811302,0.35945758128166194,-0.23511866942942142
1788860704398385400,5.289385498046875,-1.4937223082184792,-0.27930151002705095,-0.4030345649406314
1788860704408426500,5.299426513671875,-1.0350152481555939,-0.598702390730381,-0.2772124287933111
1788860704418468600,5.309468505859375,-0.5836807626873255,-0.370802274377644,-0.11306377686113118
1788860704428509700,5.319509765625,-0.6766320181071758,0.36135669290125366,-0.11114829862862825
1788860704438550800,5.32955078125,-1.177768353098631,1.2551537905961274,-0.16111381428092716
1788860704448591600,5.339591552734375,-1.781828471469879,1.9797835314139722,0.11756722576022148
1788860704458632700,5.3496328125,-1.9009271445810794,2.369626314087212,0.8340443475216627
1788860704468673300,5.35967333984375,-1.6706676056206224,2.4762162187591192,1.8033736560627818
1788860704478714000,5.369714111328125,-1.0779115560740231,2.2973227098986504,2.451852469614148
1788860704488755200,5.379755126953125,-0.2508048988610506,2.0622455415233967,2.58114929613471
1788860704498796300,5.38979638671875,0.11102467224895954,1.8226137785837053,2.1720260589301583
1788860704508837000,5.399837158203125,-0.04547112684249878,1.519623642194271,1.0939853235185146
1788860704518879200,5.409879150390625,-0.4910562550038099,1.3414403274297713,0.049337154620885844
1788860704528920000,5.419920166015625,-0.7803881606578826,1.3513745692059398,-0.2465741294234991
1788860704538961200,5.429961181640625,-0.44975452280044553,1.3464435425445436,-0.15539982054829596
1788860704549002200,5.440002197265625,-0.2930038721650839,1.2825351339966058,-0.058548342819511885
1788860704559043000,5.45004296875,-0.4774439092367887,0.9827852947026491,-0.40414164939969777
1788860704569084200,5.460084228515625,-0.5592927558839321,0.5715706381767988,-0.9145195677280425
1788860704579125200,5.470125244140625,-0.4087649252861738,0.23541063811331986,-1.211231646761298
1788860704589166000,5.480166015625,0.21226795519590377,0.1432923263862729,-1.131213814933598
1788860704599207200,5.490207275390625,0.5794979240447282,0.16707944468706845,-0.9079746761292219
1788860704609248300,5.500248291015625,0.4845476037621498,0.3619119886964559,-0.34694559797197577
1788860704619290000,5.5102900390625,0.271761177650094,0.6470502420529722,0.32525925134271383
1788860704629331500,5.52033154296875,-0.23795710772573947,0.9300339477241039,0.9506915358275174
1788860704639372300,5.530372314453125,-1.1539993549764156,1.0512406990304588,1.07030809533298
1788860704649413400,5.540413330078125,-1.8433949930667877,1.149371110653877,0.5929352055057883
1788860704659454500,5.550454345703125,-1.0877157417297363,1.3598571508690713,0.13818214376568794
1788860704669495300,5.560495361328125,0.05354980387985706,1.7633675166279077,0.028837387427687645
1788860704679536400,5.570536376953125,0.1573509546160698,2.178550784523785,0.2468874331563711
1788860704689577200,5.5805771484375,-0.35042028834521766,2.4676275463730097,0.6938894423782825
1788860704699618300,5.590618408203125,-0.821190126645565,2.536699036772549,1.1316074904263018
1788860704709659400,5.600659423828125,-1.494537131732702,2.385586684285104,1.3366387723669408
1788860704719700200,5.6107001953125,-1.7872703702628612,1.9940245304733513,1.4885343841865657
1788860704729742300,5.620742431640625,-1.5564011749714612,1.4040835383474826,1.472494811272621
1788860704739783200,5.630783203125,-0.9124024294435977,0.8325842118412256,1.0406477010846138
1788860704749824300,5.64082421875,-0.5843862806081771,0.5419055677533149,0.22647899750843642
1788860704759865300,5.650865234375,-1.1895967380583286,0.795288792669773,-0.4357153299234807
1788860704769906200,5.66090625,-1.5530150396645068,1.3229291037052868,-0.6966286580838262
1788860704779947300,5.670947265625,-0.9326245487391949,1.8535031301051377,-0.5635225024081766
1788860704789988400,5.68098828125,-0.420236167371273,2.4280782107949257,-0.3002580810770392
1788860704800029200,5.691029296875,-0.48622284349799155,2.873192798835039,0.1710756747163832
1788860704810070300,5.7010703125,-0.24376316365599632,2.8866362177759406,0.7642778605952858
1788860704820111400,5.711111328125,0.35861703880429263,2.439450084158778,0.9686649994134903
1788860704830153200,5.7211533203125,0.47326107059419154,1.7049404621005058,0.42237756331413984
1788860704840194300,5.7311943359375,-0.5434644876331091,0.9735913498997688,-0.19159663082808254
1788860704850235100,5.741235107421875,-1.4548130241096018,0.4316261609137058,-0.4802203882128
1788860704860276200,5.751276123046875,-1.1097300051391124,0.1441524503469467,-0.5063245512843132
1788860704870317300,5.7613173828125,0.03369476433098316,0.31814123603105543,-0.5828831825688481
1788860704880358100,5.771358154296875,0.4001952498614788,0.819271141281724,-0.6020462943308055
1788860704890399200,5.781399169921875,-0.2370586975812912,1.2138526429146528,-0.5674398219823837
1788860704900440300,5.7914404296875,-0.7693231612861156,1.213404314625263,-0.311109145437181
1788860704910481200,5.801481201171875,-0.5759194810360669,1.0894809978365898,0.13617445720508695
1788860704920522200,5.811522216796875,0.04395721514821052,1.0216419718414544,0.4828627194151282
1788860704930564000,5.821564208984375,0.2745733124613762,1.0323042356312275,0.5511557727880776
1788860704940605200,5.831605224609375,-0.3246656693637371,1.0869371585726737,0.44949338764622804
1788860704950646300,5.841646240234375,-1.180377074292302,0.9631167176365851,0.20049568433761594
1788860704960687000,5.85168701171875,-1.4345593406319617,0.7260323010921478,-0.18751096894964575
1788860704970728200,5.861728271484375,-1.2585346652060747,0.5312070636063814,-0.488268816242367
1788860704980769300,5.871769287109375,-1.1703326501399278,0.1946463737875223,-0.6566201805613935
1788860704990810000,5.88181005859375,-0.9465256483197212,-0.2540425656080246,-0.6299630597822368
1788860705000851200,5.891851318359375,-0.41502281663715834,-0.6813713215887546,-0.6150577515952289
1788860705010892000,5.90189208984375,-0.12229074715077877,-0.7691425440222025,-0.5231539594016968
1788860705020933000,5.91193310546875,-0.26472353409826754,-0.7694143467009067,-0.29484825792275365
1788860705030975200,5.921975341796875,-0.23743922133147716,-0.8680489084541797,0.012789412011578679
1788860705041016300,5.932016357421875,0.13979951583445072,-0.9928636211246251,0.05643317729644477
1788860705051057400,5.942057373046875,0.7897212216705083,-0.9540157118141651,-0.2563854024071246
1788860705061098200,5.95209814453125,1.1276070226132868,-0.7134902149051428,-0.7214540333911776
1788860705071139300,5.962139404296875,0.7614619263917207,-0.35079555139839647,-1.0176436959855257
1788860705081180400,5.972180419921875,0.007167407411336898,-0.07884615769982338,-1.223291940780729
1788860705091221200,5.98222119140625,-0.541955836635828,0.12750234431922436,-1.2451841852456331
1788860705101262300,5.992262451171875,-0.7948813809126615,0.33840544090270996,-1.311013332723081
1788860705111303400,6.002303466796875,-0.9675006318092345,0.4354682232946157,-1.2548343493834138
1788860705121344300,6.01234423828125,-1.0169365706294775,0.48408641599118707,-0.8698007205575704
1788860705131386400,6.022386474609375,-1.0706097086280584,0.5050912100970745,-0.39191783538162706
1788860705141427200,6.03242724609375,-0.9292518574357033,0.47570378757119175,-0.04486256649009883
1788860705151468300,6.04246826171875,-0.6220125391691923,0.5017670341104269,0.03352686041817069
1788860705161509400,6.05250927734375,-0.51134734788239,0.5616098006546497,-0.24065811031274495
1788860705171550200,6.06255029296875,-0.8069535115003585,0.43662090046107765,-0.5706888869062066
1788860705181591300,6.07259130859375,-1.2065011111080646,0.03725976333618164,-0.6875364931549877
1788860705191632400,6.08263232421875,-1.2407301284462213,-0.3997767321884632,-0.9000424948904663
1788860705201673200,6.092673095703125,-1.0979600723683833,-0.3695300624847412,-0.95099672931917
1788860705211714300,6.10271435546875,-1.342224171283841,0.02168108593225479,-0.8422145022347569
1788860705221755400,6.11275537109375,-1.3892472037434578,0.16665186692476272,-0.76054466541633
1788860705231797200,6.12279736328125,-1.4459440734773874,0.06602467004954815,-0.521914334604144
1788860705241838300,6.13283837890625,-1.3965811998933553,-0.1978489692211151,-0.13052929092496632
1788860705251879200,6.142879150390625,-1.0444225434482097,-0.4088245465189218,0.32869587472788986
1788860705261920300,6.152920166015625,-0.5077028539001941,-0.4223766865313053,0.3833379308238625
1788860705271961000,6.162961181640625,-0.059117959401011465,-0.30434184325933455,0.2171239438597113
1788860705282002200,6.173002197265625,-0.023228899896144864,-0.3615478315591812,0.0766799195766449
1788860705292043300,6.183043212890625,-0.28684242692589756,-0.6972837609916925,0.02109773308634758
1788860705302084000,6.193083984375,-0.2922124295264482,-1.106946511900425,-0.015238924055546521
1788860705312125200,6.203125244140625,-0.007670096236467361,-1.4862784219533205,-0.11263159598894416
1788860705322166300,6.213166259765625,-0.0006289455533027648,-1.7585019564181565,-0.41217780246958136
1788860705332208000,6.2232080078125,-0.22222820819616315,-1.5950018315225838,-0.9242159821603446
1788860705342249200,6.233249267578125,-0.47889761517643925,-1.1840934644669294,-1.5840473067879677
1788860705352290000,6.2432900390625,-0.6957575743377208,-0.7134796935111284,-2.04753458686471
1788860705362331100,6.2533310546875,-0.6536649840176105,-0.025225042149424552,-2.174402724933624
1788860705372372200,6.263372314453125,-0.3328174116373062,0.7085626953750849,-1.5676409463882446
1788860705382413000,6.2734130859375,0.3380278397619724,1.2522726822018622,-0.9219282365493476
1788860705392454100,6.2834541015625,1.0712450839221477,1.808143646943569,-0.7368913295630365
1788860705402495200,6.2934951171875,1.460861072102189,2.1147774005323647,-0.932422888687253
1788860705412536000,6.3035361328125,1.3040163134425877,1.3194716567277907,-0.9707534230601041
1788860705422577200,6.3135771484375,0.2686421688467264,-0.1861328124642372,-0.7096796436410396
1788860705432619300,6.323619384765625,-1.0737485911756752,-1.3622358626991509,-0.14932948765866458
1788860705442660400,6.333660400390625,-1.9846581517130135,-1.9708529137223958,0.22761486967056987
1788860705452701400,6.343701416015625,-2.3199188648492095,-2.0081348888903854,-0.24093027831763028
1788860705462742300,6.3537421875,-1.6458517287939787,-1.339848089802265,-1.303444212643057
1788860705472783400,6.363783447265625,-0.33862229852378367,-0.24336627329289912,-1.776524519842863
1788860705482824400,6.373824462890625,0.5447036740392446,0.6960112568378448,-1.2337170348137616
1788860705492865300,6.383865234375,0.9429635719239711,1.1487070937871933,-0.2799702761340886
1788860705502906400,6.39390625,1.2958897056102752,1.1280734710812568,0.5559319742139428
1788860705512947200,6.403947265625,1.2216074948251248,1.0367670602589845,1.0895379887208343
1788860705522988300,6.41398828125,0.6926812356323003,0.8542121062815189,1.0872826840747147
1788860705533030100,6.424030029296875,0.008825111490488051,0.6144605163544417,0.4744917083676904
1788860705543071200,6.4340712890625,-0.645206367751956,0.5930161617875099,-0.1972412856515497
1788860705553112300,6.4441123046875,-1.281583532360196,0.7307838795334101,-0.5452144731055945
1788860705563153200,6.454153076171875,-1.7921949671834707,0.8214794649809598,-0.5663431858520954
1788860705573194200,6.4641943359375,-1.6906418876349925,0.7533610375225543,-0.39815884866304696
1788860705583235300,6.4742353515625,-1.3476555486828088,0.7274228786677122,-0.005791223687306046
1788860705593276200,6.484276123046875,-1.2259101604551077,0.6716659201323986,0.46326779210716484
1788860705603317200,6.494317138671875,-1.1908622279495,0.44492929460108277,0.5707055457800626
1788860705613358300,6.5043583984375,-1.2909195159822702,0.03667348788082599,0.14993074148744343
1788860705623399200,6.514399169921875,-1.3418138369172812,-0.20561083539426325,0.06570398672781884
1788860705633440300,6.524440185546875,-1.0746809035897253,-0.1185854628920555,0.24956637004204094
1788860705643482000,6.534482177734375,-0.9557692774832248,0.21066285808682442,0.3940292745776474
1788860705653523200,6.544523193359375,-0.9525187512546777,0.5964385374516248,0.632368367358297
1788860705663564300,6.554564208984375,-0.5626993494570255,0.8286433652609586,0.7856191931791603
1788860705673605000,6.564605224609375,0.03223813578188419,0.9481792607456445,0.795280828559026
1788860705683646200,6.574646240234375,0.5728811362534761,1.0003361489623785,0.8081251856282353
1788860705693687300,6.584687255859375,0.9413590593367814,1.060115787142515,0.6365884692713618
1788860705703728000,6.59472802734375,1.1334738688200712,1.0117010080635547,0.4188844605013728
1788860705713769200,6.604769287109375,0.8343892154365777,0.8683832549750804,0.2834315225038677
1788860705723810300,6.614810302734375,-0.01912789431810379,0.7222673956006765,0.35348018737249076
1788860705733851100,6.62485107421875,-0.972431073948741,0.37085108195543287,0.3987362832248211
1788860705743893200,6.634893310546875,-1.6194430298179388,0.013508300870656966,0.3099459468767047
1788860705753934000,6.64493408203125,-1.8130887021303175,-0.10785714812874793,0.12850092690251766
1788860705763975200,6.65497509765625,-1.524202202156186,-0.1098328321158886,-0.31767676032446324
1788860705774016300,6.665016357421875,-0.9755711255401373,0.05531681355237961,-0.9129092829871922
1788860705784057000,6.67505712890625,-0.4326449825674295,0.11588964793682098,-1.3858996468812226
1788860705794098200,6.68509814453125,0.024469839867949483,-0.07918751848340035,-1.590286055047065
1788860705804139300,6.69513916015625,0.4592623558580875,-0.3514601527869701,-1.6746566752567886
1788860705814180000,6.70518017578125,0.6690840869456529,-0.6050409461021423,-1.609492713689804
1788860705824221200,6.71522119140625,0.4465373143196106,-0.7372580439835786,-1.3918223149284719
1788860705834262000,6.725261962890625,-0.017983400458097456,-0.7058826625108718,-1.1513032477602363
1788860705844304400,6.735304443359375,-0.432004346576333,-0.54206397318542,-0.9344527870796621
1788860705854345200,6.74534521484375,-0.7253945877104997,-0.35760055523812767,-0.7133902616620064
1788860705864386300,6.75538623046875,-0.8358931902587413,-0.20256839895844458,-0.47762847202345726
1788860705874427400,6.765427490234375,-0.8985387392640113,-0.09605623569786548,-0.2593772046342492
1788860705884468200,6.77546826171875,-1.1937936052262783,0.020494506496191025,-0.14508702778331933
1788860705894509300,6.78550927734375,-1.6145201864629983,0.05823766943514347,-0.22842545540109274
1788860705904550400,6.79555029296875,-1.7546856130003927,0.053799979248642917,-0.4197486030500382
1788860705914591200,6.80559130859375,-1.445513865366578,0.14978081162273882,-0.5998397972624748
1788860705924632300,6.81563232421875,-0.9177835379600524,0.4215302988350391,-0.4962582806263119
1788860705934674200,6.825674072265625,-0.49866614548563953,0.622151070857048,-0.0660365066178143
1788860705944715300,6.83571533203125,-0.19708909076452255,0.6748182466834783,0.4808415888510644
1788860705954756400,6.84575634765625,-0.03882803556621074,0.6748305216431617,0.970322557362169
1788860705964797200,6.855797119140625,-0.35328093847334385,0.5477116236835717,1.127114270660281
1788860705974838300,6.86583837890625,-1.0242471859037876,0.4344914872169494,0.9856034208633006
1788860705984879400,6.87587939453125,-1.8124807993650436,0.4242266983121633,0.5908467087939381
1788860705994920200,6.885920166015625,-2.2728362111568448,0.45929158195257186,-0.024524054273217914
1788860706004961300,6.895961181640625,-2.1763620423078534,0.529598459365964,-0.5378422638371586
1788860706015002400,6.90600244140625,-1.4923621257811783,0.6759492965400219,-0.6904945392429829
1788860706025043200,6.916043212890625,-0.49384734702706334,0.9252671717137098,-0.5206469450168312
1788860706035084300,6.926084228515625,0.2467342884212732,1.1570055510550736,-0.05576791832074523
1788860706045126100,6.936126220703125,0.5747592050850391,1.4340747719854117,0.40903745861724017
1788860706055167200,6.946167236328125,0.9063263244003057,1.6390134072065352,0.7163276302881538
1788860706065208300,6.956208251953125,0.9537105913877486,1.4501687054350971,0.8326042317159473
1788860706075249200,6.966249267578125,0.2990653641611338,0.8652093011140823,0.7548737801730633
1788860706085290200,6.976290283203125,-0.39003859750628467,0.36265491601824756,0.4714057981163263
1788860706095331000,6.9863310546875,-0.8321253621578216,-0.1859162471041083,0.35083179175555707
1788860706105372200,6.9963720703125,-0.9933569575995206,-0.9014718701064586,0.29335473142936824
1788860706115413200,7.006413330078125,-1.101110645353794,-1.13119160310179,0.16623597960025072
1788860706125454000,7.0164541015625,-1.189752805402875,-0.9973001422673463,-0.049139147830754515
1788860706135496200,7.02649609375,-1.0355044929772614,-0.7905603028431535,-0.31736002252548934
1788860706145537000,7.036537109375,-0.5364543166100979,-0.6086237730249762,-0.6470949579775332
1788860706155578000,7.046578125,0.1802425853818655,-0.3760232238963246,-0.7605427657201885
1788860706165619200,7.056619140625,0.8156699019193648,0.09854396086037158,-0.5892433652505278
1788860706175660000,7.066659912109375,1.267566112923622,0.5609250332608818,-0.30812954510450363
1788860706185701000,7.076701171875,1.2810732447504996,0.6106576169401406,-0.26915684037059545
1788860706195742200,7.0867421875,1.266253276759386,0.15482435874789952,-0.12745850517749785
1788860706205783000,7.096782958984375,1.1202157433182,-0.47230625408738847,0.02558803024291992
1788860706215824100,7.10682421875,0.9601824177503585,-0.7098711476251482,0.01712006162703037
1788860706225865200,7.116865234375,0.6866098067641258,-0.5597445913046598,-0.1816886925369501
1788860706235906000,7.126906005859375,0.3525193064510822,-0.25708587882667777,-0.24210195244550703
1788860706245948400,7.136948486328125,0.09866729497909546,-0.10373393071889876,-0.2920940638437867
1788860706255989200,7.1469892578125,-0.24809505538046359,-0.2686012523144483,-0.19820640435665846
1788860706266030300,7.1570302734375,0.09469488421678543,-0.6296046017333865,-0.24012188454419373
1788860706276071400,7.167071533203125,0.4817781390488147,-0.7478364288821816,-0.47545653481185435
1788860706286112300,7.1771123046875,0.7585778953880071,-0.5922060144484043,-0.6448281820893287
1788860706296153300,7.1871533203125,0.804953277593851,-0.3714586924597621,-0.6709072107195854
1788860706306194400,7.1971943359375,0.3246212457001209,-0.4097086358770728,-0.40824645437002177
1788860706316235300,7.2072353515625,-0.3069809595912695,-0.8022130389750003,-0.0895484612390399
1788860706326276400,7.2172763671875,-0.5385071574866771,-1.1185419648870825,-0.07834726826697587
1788860706336317200,7.227317138671875,0.1839279958963394,-0.8720105055615306,-0.4551847311556339
1788860706346359300,7.237359375,0.45441666939258574,-0.23944267010837791,-0.6580673106297851
1788860706356400000,7.247400146484375,0.433852604791522,-0.1217293138757348,-0.015467033722996711
1788860706366441200,7.257441162109375,0.5699333923637867,-0.8056015123695135,0.38851913285404444
1788860706376482300,7.267482421875,1.1132570102214812,-1.1509314918383955,0.1371490013256669
1788860706386523100,7.277523193359375,1.6117255873084066,-0.4419191529996693,-0.2760407546654343
1788860706396564200,7.287564208984375,1.4605033447057008,0.35039515390396114,0.023661738355457783
1788860706406605300,7.297605224609375,1.3379285199165343,0.4002241836950183,0.4436556214034557
1788860706416646100,7.307646240234375,1.3826561349153519,-0.12363134810477494,0.5048296365514398
1788860706426687200,7.317687255859375,1.7271125464200971,-0.4103426959969103,0.2967316605165601
1788860706436728300,7.327728271484375,1.9348679926276207,-0.4261585431575775,0.34384120221585035
1788860706446770200,7.337770263671875,1.5513012214839457,-0.41217940990477797,0.4857978960841894
1788860706456811300,7.347811279296875,1.4181255077034234,-0.3003288082256913,0.6978998470634221
1788860706466852000,7.35785205078125,1.4369617255985736,-0.19995003315359353,0.8897618508294224
1788860706476894500,7.36789453125,1.2357494174242019,-0.3485125550277531,0.8811822385326027
1788860706486935300,7.377935302734375,0.9685574473857879,-0.18778759393393993,0.27086013715714213
1788860706496976400,7.387976318359375,0.3634907823204994,0.2824023986518383,-0.4133993070885539
1788860706507017500,7.398017578125,-0.08922902002632617,0.49705147683061657,-0.6702002314940094
1788860706517058300,7.408058349609375,-0.48799511386752126,0.33530608664788303,-0.3173836956620216
1788860706527099400,7.418099365234375,0.0841302355825901,-0.1681071802996099,-0.16292670892179012
1788860706537140500,7.428140380859375,0.5728127471923827,-0.5380116290546954,-0.46270752787590025
1788860706547182600,7.4381826171875,-0.2175608009070158,-1.148836638450995,-0.7459697582274675
1788860706557223700,7.4482236328125,-0.4486486073851585,-1.3077426404893397,-0.814490921267867
1788860706567264500,7.458264404296875,0.12582768910527228,-0.6294301950145512,-0.28118162468522784
1788860706577305600,7.4683056640625,0.8714677769869565,0.24481267270892856,0.1579822382569313
1788860706587346400,7.478346435546875,1.006612745013833,0.617566957937181,0.2960042230248451
1788860706597387500,7.488387451171875,1.2950690368771551,0.32414493342526257,0.20568097802102564
1788860706607428600,7.4984287109375,1.658396737590432,0.4210692571945488,-0.5000339267075061
1788860706617469400,7.508469482421875,1.2399147204101084,0.8249534247018396,-1.0125082327932118
1788860706627510500,7.518510498046875,1.0680056636095046,0.9584962912943213,-0.8961421995162964
1788860706637551600,7.528551513671875,1.4145277754724024,0.8830668101701885,-0.4928364164188504
1788860706647593500,7.538593505859375,1.5938088223457336,0.8457257982913404,-0.12917320014089345
1788860706657634600,7.548634521484375,1.2155541861355303,0.7690382068648934,0.22828356271237132
1788860706667675400,7.55867529296875,0.8374737374484539,0.8261500871405005,0.2223115025654435
1788860706677716500,7.568716552734375,1.0047580570578574,1.141137608380988,-0.004323708418011665
1788860706687757600,7.578757568359375,0.9122738346278667,1.2535761660158633,0.08763824370354413
1788860706697798400,7.58879833984375,0.5388830050617456,0.908190656967461,0.2238007182098925
1788860706707839500,7.598839599609375,0.2818985407829285,0.5291384406387806,0.2721998613283038
1788860706717880600,7.608880615234375,0.06620470279157162,0.37026451423913237,0.1882167791314423
1788860706727921400,7.61892138671875,-0.42735915111899375,0.5152332494050264,-0.1746495876803994
1788860706737962500,7.62896240234375,-0.5397954437315464,0.7125019345201552,-0.3800378663651645
1788860706748003600,7.639003662109375,0.1602344010978937,0.7265908117577433,-0.41551615311205387
1788860706758045400,7.64904541015625,0.34678280862569805,0.7138157935976982,-0.4459526462994516
1788860706768086500,7.65908642578125,0.1710486405789852,0.5827097256980837,-0.7097146418891846
1788860706778127400,7.66912744140625,0.22954992938637733,0.5790837902858853,-0.8809918305270373
1788860706788168400,7.67916845703125,0.6843073750406503,0.7238298226118087,-0.9881703487418592
1788860706798209500,7.68920947265625,0.9707996733546257,0.8827313676707446,-0.962737509060651
1788860706808250400,7.69925048828125,0.9371423184245824,0.9431082410916686,-0.8624510884471237
1788860706818291500,7.70929150390625,0.8808511068820953,0.876351457375288,-0.6029882513560354
1788860706828332500,7.71933251953125,1.2625906625986099,0.8023514245323836,-0.44398017718270416
1788860706838373400,7.729373291015625,1.9075386716753244,0.8807793568201363,-0.44448768831342456
1788860706848414500,7.73941455078125,1.9953391202032564,1.0478399506762623,-0.3136355951748788
1788860706858456300,7.749456298828125,1.5921628087043762,1.2000558804914354,-0.015374971525371074
1788860706868497400,7.759497314453125,1.5243074160963297,1.2971186628833413,0.2653267606884241
1788860706878538500,7.76953857421875,1.599574546265602,1.3206839551270007,0.14725743062496185
1788860706888579300,7.779579345703125,1.337725690820813,1.4287258121728896,0.10847162676528095
1788860706898620400,7.789620361328125,0.8722843540668487,1.4975719693839549,0.32035423590540885
1788860706908661200,7.7996611328125,0.3513385722339153,1.3231027067065237,0.5087232829891145
1788860706918702300,7.809702392578125,0.012169161221385002,1.0273156335636973,0.5144393225483596
1788860706928743400,7.819743408203125,-0.44427755269408226,0.7482640066444873,0.6560621082872152
1788860706938784500,7.829784423828125,-0.6428928301125765,0.5306102667570114,0.8613717687778174
1788860706948825600,7.83982568359375,-0.12766717949211598,0.4915957687079906,1.0866953126408159
1788860706958867500,7.849867431640625,0.19416648131608963,0.7243401102215051,1.004311190073192
1788860706968908500,7.859908447265625,-0.2677718157529831,1.1277867630943654,0.7461205648750067
1788860706978949600,7.86994970703125,-0.9150105661153792,1.304515787397325,0.36579876700192687
1788860706988990500,7.879990478515625,-1.090957500129938,1.1188535150542855,-0.15552549275457858
1788860706999031600,7.890031494140625,-0.8930138383626938,0.7240729837179184,-0.6898955504365265
1788860707009072600,7.90007275390625,-0.9688532154619693,0.36460838817358016,-1.0253731942590325
1788860707019113500,7.910113525390625,-1.5387199723303318,0.013725158491730689,-0.9881173764456063
1788860707029154600,7.920154541015625,-1.6041180349141357,-0.3383741689816117,-0.545424681790173
1788860707039195600,7.930195556640625,-0.785249629214406,-0.5651818139225244,-0.29881475040093064
1788860707049236500,7.940236572265625,-0.2322913370490074,-0.5974328091859817,-0.3202498987480998
1788860707059278600,7.950278564453125,-0.48615153182744975,-0.5375386047154664,-0.5306889580164105
1788860707069319400,7.9603193359375,-1.1010194599390029,-0.5305085599482059,-0.48002778825014825
1788860707079360500,7.970360595703125,-1.0496037454783915,-0.520237925824523,-0.4032634052604437
1788860707089401600,7.980401611328125,-0.3539560612559318,-0.28876491942107674,-0.3998140685241669
1788860707099442400,7.9904423828125,0.18521277500987052,0.11683306626677513,-0.22584880984611808
1788860707109483500,8.0004833984375,-0.05480944855213165,0.4903852238744497,-0.05549100107550621
1788860707119524400,8.0105244140625,-0.24464520718753335,0.7550766092687845,0.11443185034394264
1788860707129565400,8.0205654296875,0.07852817779183387,0.7176859130293131,0.12240721313729881
1788860707139606500,8.0306064453125,0.5676642783880234,0.6199018306255341,0.06278181567080318
1788860707149647400,8.0406474609375,0.9095096306115389,0.5168897844403982,-0.0100500501755625
1788860707159688400,8.0506884765625,0.8831938706159591,0.3954886796057224,-0.013153349953144789
1788860707169730300,8.060730224609374,0.5689484729796648,0.1915221042871475,-0.019550211383402346
1788860707179771400,8.070771484375,0.03739303432703018,-0.05550269151329994,-0.04759074934497475
1788860707189812500,8.0808125,-0.4940180274188518,-0.292968216329813,0.12610077042561024
1788860707199853300,8.090853271484375,-0.8724094417512417,-0.4318751672387123,0.31784970573857424
1788860707209894400,8.100894287109375,-0.8144879986584186,-0.5563058490276336,0.6081017949774861
1788860707219935500,8.110935546875,-0.6012228491187095,-0.7832698535740376,0.5711257804861292
1788860707229976300,8.120976318359375,-0.5795721583247184,-0.8324334051936865,0.3025910540692508
1788860707240017400,8.131017333984374,-0.6392074195981026,-0.797920310217142,0.005890775071643293
1788860707250058500,8.14105859375,-0.6390706414759159,-0.6685586017668247,-0.4132095201374963
1788860707260099300,8.151099365234375,-0.5566413645923137,-0.49387014338076113,-0.7016286583282053
1788860707270141400,8.161141357421876,-0.5658569367051124,-0.41110651997625824,-0.7325310885269194
1788860707280182500,8.1711826171875,-0.6700204910129308,-0.514407904496789,-0.6542218141827731
1788860707290223600,8.1812236328125,-0.758650960624218,-0.6995891153246164,-0.5763911171358078
1788860707300264700,8.1912646484375,-0.9744605339497328,-0.9805033212453126,-0.5885758412525057
1788860707310305500,8.201305419921875,-1.3706857111364603,-1.2564800707638264,-0.5445636079814284
1788860707320346600,8.2113466796875,-1.670012356582284,-1.4569225636094807,-0.3814592044051736
1788860707330387700,8.2213876953125,-1.5804074889808892,-1.5210498756051063,-0.2174937452864833
1788860707340428500,8.231428466796874,-1.3936597594887017,-1.4144640625864267,-0.23199072840092702
1788860707350469600,8.2414697265625,-1.174827038949728,-1.080403372889757,-0.4484237491207197
1788860707360510500,8.251510498046875,-1.0403186152607202,-0.719269382828474,-0.7442901345774531
1788860707370551600,8.261551513671876,-1.0194897622436285,-0.5360948356479406,-0.9082310620430857
1788860707380593700,8.27159375,-1.1744313176304102,-0.482725064510107,-0.7648683738343417
1788860707390634500,8.281634521484374,-1.1338187367349863,-0.5036895266056061,-0.43202823890857395
1788860707400675600,8.291675537109375,-0.734970809829235,-0.5183364761173724,-0.2653187965776771
1788860707410716400,8.30171630859375,-0.3050485302239656,-0.4172825782626867,-0.27212272270517424
1788860707420757500,8.311757568359376,-0.20022972687780857,-0.2040881558716297,-0.24946144836284218
1788860707430798600,8.321798583984375,-0.15519173075556755,0.040676878303289414,-0.35106757327280935
1788860707440839400,8.33183935546875,-0.07241466334760188,0.22052491140961647,-0.3047219103517942
1788860707450880500,8.341880615234375,-0.037027708145976064,0.2238829896658659,-0.1593645777271129
1788860707460921600,8.351921630859374,0.004679682248830795,-0.06972761622071266,0.24432697155121713
1788860707470962000,8.3619619140625,0.2426040567487478,-0.46149990565180776,0.6611966216314583
1788860707481004000,8.372004150390625,0.28717034370601174,-0.6965764895051717,0.646196547833085
1788860707491045000,8.382045166015626,0.22221944036781788,-0.6907365313053131,0.5298453467991203
1788860707501086000,8.3920859375,0.025387539234757422,-0.6538812571167946,0.41396402829922735
1788860707511127000,8.402126953125,-0.015506196689605713,-0.6268295840620994,0.23958538478100672
1788860707521168000,8.41216796875,-0.12240180630981921,-0.5832265891790389,0.013426595670264213
1788860707531209000,8.422208984375,-0.48303427658975123,-0.3861480198085308,-0.13108634028583765
1788860707541250000,8.43225,-0.9647481182307004,-0.13915595723390578,-0.2350858814046718
1788860707551291000,8.442290771484375,-1.4382669629782436,-0.1333043085962534,-0.4197566402260214
1788860707561332000,8.45233203125,-1.877309537628293,-0.3937877209067344,-0.5563698907071725
1788860707571373000,8.462373046875,-2.0086925227731465,-0.6569108340710401,-0.6186924548357725
1788860707581414000,8.472413818359374,-1.7098802565902471,-0.6257540637850761,-0.6595704086691141
1788860707591456000,8.4824560546875,-1.3217811027139426,-0.34787528003752227,-0.6165938751213252
1788860707601496800,8.492496826171875,-0.8804705831319093,-0.014040800312161445,-0.5214790849920362
1788860707611538000,8.502537841796874,-0.48835693291723725,0.311702142894268,-0.20124958971114829
1788860707621579000,8.5125791015625,-0.16097615937590598,0.5357125583320855,0.21818901580795644
1788860707631619800,8.522619873046875,0.060576926037669176,0.7367723062932491,0.5447704191325232
1788860707641661000,8.532660888671876,-0.09245791894495486,0.9751970315307378,0.8656453544437884
1788860707651702000,8.542701904296875,-0.5196592491537332,1.0586883846879005,1.1202820865526795
1788860707661742800,8.552742919921876,-0.7820651539593935,0.8757757033139467,1.2120545074515043
1788860707671784000,8.562783935546875,-0.661092503669858,0.47182139317989347,0.988179993353039
1788860707681825000,8.572824951171874,-0.3261263895660639,0.20237199960350988,0.5363823838850483
1788860707691867000,8.582866943359376,0.03652618836462498,0.19298866970837114,0.26724497886728493
1788860707701908000,8.592907958984375,0.22617782260477542,0.2362865441650152,0.3012975071273744
1788860707711948800,8.60294873046875,0.3078314389407635,0.18803426217138766,0.5089960355158895
1788860707721990000,8.612989990234375,0.3081277915388346,0.2121925518721342,0.619415946804732
1788860707732031000,8.623031005859374,0.028879473003745076,0.3652718205183744,0.7290195002093911
1788860707742071800,8.63307177734375,-0.6411223133087158,0.4369289434969425,0.7789017945576459
1788860707752113000,8.64311279296875,-1.4148311423331499,0.205730662381649,0.7540748118150978
1788860707762154000,8.653154052734376,-1.8206757962584494,-0.32244623974859715,0.5833483889278024
1788860707772194800,8.66319482421875,-1.9838252080202101,-0.9609007951527834,0.3193357795778662
1788860707782236200,8.673236083984374,-1.6726818680524824,-1.4262287346601485,0.05179258494898677
1788860707792277000,8.683277099609375,-0.9423428096771239,-1.5240870513439178,-0.11430486296340822
1788860707802319000,8.693319091796875,-0.05316928012967109,-1.1490566378772258,0.1383993667129427
1788860707812360000,8.70335986328125,0.2809428474932909,-0.5935995146334171,0.7118262272156775
1788860707822401000,8.713401123046875,-0.0447293685644865,-0.033007951110601425,1.0815252895917742
1788860707832442000,8.723442138671874,-0.5048983178734779,0.09754676651656627,1.0408145820841193
1788860707842483000,8.73348291015625,-0.5894307045161724,-0.037620997864007945,0.8133014192223549
1788860707852524000,8.74352392578125,-0.5697451763153076,-0.24692951873242855,0.7330881378877907
1788860707862565000,8.753565185546876,-0.5002782568573951,-0.5755208371073007,0.6975976492464542
1788860707872606000,8.76360595703125,-0.2949982608526945,-1.0788286709189414,0.6146769355840981
1788860707882647000,8.77364697265625,-0.09435878413021564,-1.5074457131445407,0.48022404147461056
1788860707892688100,8.783688232421875,0.1406108322173357,-1.4680109438568352,0.41107217931523915
1788860707902729000,8.79372900390625,0.22170681467056272,-1.0998626911193132,0.37005291731506584
1788860707912771000,8.80377099609375,0.372098451668024,-0.6673907270312309,0.33930648139566183
1788860707922812000,8.81381201171875,0.19603928945064544,-0.44967853495478627,0.3960018898248672
1788860707932853000,8.82385302734375,-0.3011778262704611,-0.4262167030856013,0.4022511594779789
1788860707942894000,8.83389404296875,-0.08518295950591563,-0.4754582883775234,0.4414586958810687
1788860707952935000,8.843934814453124,0.609961451369524,-0.5351905802845954,0.30231048356220125
1788860707962976000,8.85397607421875,1.016280737069249,-0.3854007085725665,0.3157841515108943
1788860707973017000,8.86401708984375,0.951119405850768,-0.14423632923811674,0.530996927987039
1788860707983058000,8.874057861328126,0.3273094618707895,-0.15359803182333706,0.8322875669822096
1788860707993099000,8.88409912109375,-0.3813701378822326,-0.6573655921012163,0.9140680245682596
1788860708003140000,8.89414013671875,-0.20336685585975645,-1.2088158177912234,0.6848173703894018
1788860708013182000,8.904181884765626,0.15237784237861632,-1.3823171122193336,0.3253659265875816
1788860708023223000,8.91422314453125,0.4897895960688591,-1.2267033566594123,-0.09760931035876273
1788860708033263900,8.924263916015626,0.4575584745496511,-1.0011220386430622,-0.2246148110717535
1788860708043305000,8.934304931640625,0.44432197635769843,-0.8783534448474645,-0.19433935366496444
1788860708053345800,8.944345703125,0.9204945504844189,-0.6074313483700156,-0.12665595662295817
1788860708063387000,8.954386962890625,0.6758569420814514,-0.2580737208202481,-0.20732728392332792
1788860708073428000,8.964427978515625,0.8981377572476863,0.0865612621217966,-0.16320640264600514
1788860708083468800,8.97446875,1.1439233666419981,0.1980515060558915,0.017770342229306697
1788860708093510000,8.984510009765625,1.0839514207601546,0.05950958906710147,0.16733254266530273
1788860708103551000,8.994551025390624,1.1212941862046717,-0.2606245743468404,0.21683570150285958
1788860708113591800,9.004591796875,1.1991712066113949,-0.577569878591597,-0.19705460397303104
1788860708123634200,9.01463427734375,1.0331488697618245,-0.5168798475682735,-0.9216974965333938
1788860708133675000,9.024675048828126,1.085409218353033,0.03833484522178769,-1.010928270125389
1788860708143716000,9.034716064453125,0.6366635803341865,0.3148096073903143,-0.46072336832135913
1788860708153757200,9.044757080078124,1.0383972918093205,0.11355725946649908,0.38609921223074195
1788860708163798000,9.054798095703125,1.142470829746127,0.10601473513245582,0.9156818895056843
1788860708173839000,9.064839111328125,1.2405717230141162,0.1810292057149112,1.111064468613267
1788860708183880200,9.074880126953126,0.8483604576438665,0.5430127983428538,1.3093936225667595
1788860708193921000,9.084921142578125,0.58210547619462,0.6589362024188041,1.3020029277935623
1788860708203962000,9.094962158203124,0.9346376421272754,0.3373741981588304,1.2412886391118167
1788860708214003200,9.105003173828125,1.2499468696027993,-0.27399522031247614,1.1565867411211133
1788860708224044000,9.1150439453125,0.9777467160135507,-0.4587896237798035,1.0768266834467648
1788860708234086100,9.125086181640626,0.6920055283278227,-0.32988990681804714,1.1118956587404012
1788860708244127000,9.135126953125,0.5469897391498089,-0.005574585261940956,1.2749857415303587
1788860708254168000,9.14516796875,0.16845803956389427,0.06501556607224047,1.4704498614415527
1788860708264209200,9.155209228515625,0.3193640558242798,0.09030278673768043,1.6637097493067383
1788860708274250000,9.16525,0.16860533908009528,-0.03202982679344713,1.4198407871887087
1788860708284291000,9.175291015625,0.09310498467683792,0.24332740258723495,0.9443333989724516
1788860708294332000,9.185331787109375,0.46465749289989466,0.3313302418194711,0.9122916625455021
1788860708304373000,9.195373046875,0.10458265650272369,0.22034071394912896,1.0633049385726452
1788860708314414000,9.2054140625,0.17203823613822458,-0.019291158588416873,1.2480968578219414
1788860708324455000,9.215454833984374,0.6839923177421092,-0.24525986848715692,0.8390537001162767
1788860708334496000,9.22549609375,0.9795084649890661,-0.0046984600145369764,0.0679132602751255
1788860708344537900,9.235537841796875,1.4969780951440332,0.44297074441183354,-0.27659371237307784
1788860708354579000,9.245578857421876,1.3527005571126938,0.6284624459609389,-0.207867966671288
1788860708364620000,9.2556201171875,1.3898445851147174,0.5806507473416627,0.09647738371938466
1788860708374660900,9.265660888671874,1.663314904770255,0.36656595198214054,0.3935580038040876
1788860708384702000,9.275701904296875,1.7158721904814243,0.06432396707888692,0.13923662125468253
1788860708394743000,9.285742919921875,1.5568565175235272,0.0034454277461394667,-0.375901351082325
1788860708404783900,9.295783935546876,1.5469704988032578,0.3773369368433952,-0.6177019824936986
1788860708414825000,9.305824951171875,1.8022154259383678,0.7451026200041174,-0.20070815804451703
1788860708424866000,9.315865966796874,1.9555349330812692,0.8461910777155309,0.1395011174097657
1788860708434907000,9.325906982421875,2.1175579711616037,0.6117100486025214,0.32462153796106574
1788860708444948000,9.335947998046874,2.1842472425997257,0.2591559630990028,0.11828823351114988
1788860708454989800,9.34598974609375,1.4173247127145527,0.10737053365558386,-0.497016624712944
1788860708465031000,9.356031005859375,0.9566764554560184,0.09150544052571058,-1.0548580127447842
1788860708475071000,9.366071044921876,1.0720341884732245,0.17015227626115081,-0.9205224614046513
1788860708485112000,9.376112060546875,1.229482758244872,0.2577257841654122,-0.31264322313666343
1788860708495153000,9.38615283203125,1.3108861992120742,0.29430545628294347,0.16153963847756383
1788860708505194000,9.396194091796875,1.3500947585284708,0.36298341732025147,0.06658391136750579
1788860708515235000,9.406235107421875,0.951160322383046,0.43035731002166866,-0.6281760302349925
1788860708525276000,9.41627587890625,0.4234931233406067,0.40529374204427,-1.2319171457849443
1788860708535317000,9.42631689453125,-0.1055623151898384,0.14300912553071976,-1.247585839559883
1788860708545357800,9.43635791015625,0.1868038435935974,-0.19294015439152717,-0.7800120208218694
1788860708555399000,9.44639892578125,1.6773551205605268,-0.24297376684397456,-0.3699620241612196
1788860708565440800,9.456440673828125,2.183518928325176,0.1112614036142826,-0.23096637205556034
1788860708575481900,9.46648193359375,1.0553355671286582,0.5674862914726138,-0.46970410876497626
1788860708585523000,9.47652294921875,0.22592472462654112,0.9553148117139935,-0.679142978014797
1788860708595563800,9.486563720703124,0.6649135232627391,1.2781912595734,-0.610081716748327
1788860708605604900,9.49660498046875,1.1498609399974344,1.40319331150949,-0.4418456493720412
1788860708615646000,9.50664599609375,0.6552572216451168,1.195405132076144,-0.2514253688469529
1788860708625686800,9.516686767578125,-0.10111059647798537,0.8329439850643277,0.06304916137009858
1788860708635728000,9.526727783203125,-0.18711714732646942,0.4854124038979411,0.4453865368492901
1788860708645769000,9.53676904296875,-0.009801263046264648,0.05570435156524181,0.7437341081298887
1788860708655809800,9.546809814453125,-0.14964344897866247,-0.35565000569224353,0.9832644565217197
1788860708665851000,9.556850830078124,-0.38777883588075635,-0.6167936354771256,0.9576428162701427
1788860708675892700,9.566892822265626,-0.7941220869779586,-0.7240367433607577,0.7643621778778731
1788860708685933800,9.576933837890625,-1.2829682647168636,-0.7804729163318872,0.5711428412187844
1788860708695975000,9.586974853515626,-1.1095949805825949,-0.7339446816518902,0.5446143152553587
1788860708706015700,9.597015625,-0.47310617229342455,-0.5991375672772526,0.5779551515821367
1788860708716056800,9.607056884765624,-0.058525838726758955,-0.4062792459502816,0.5598389915898442
1788860708726098000,9.617097900390625,0.08822714950740337,-0.16256430535018443,0.4968519356705248
1788860708736138800,9.627138671875,0.13157470832467077,0.17258359506130216,0.42274164738617837
1788860708746179800,9.637179931640626,0.14147475557029246,0.542955369067192,0.31635888265892864
1788860708756221000,9.647220947265625,0.08004442757368087,0.8082114026069641,0.19737894055657088
1788860708766261800,9.65726171875,-0.02331365557014942,0.8833715652704238,0.24145247556082902
1788860708776302800,9.667302734375,0.07798866408765316,0.6394517497479916,0.29474282478690145
1788860708786345000,9.677344970703125,0.4587251802414655,0.2992594254285097,0.2818370198540389
1788860708796386000,9.687385986328126,0.6794681183159351,-0.11717910322546958,0.11945282031111419
1788860708806427000,9.697427001953125,0.4353559950917959,-0.6350117214739323,-0.040610388938337565
1788860708816468000,9.707468017578124,0.08406827626228332,-0.989318495863676,-0.03242478092778474
1788860708826509000,9.717509033203125,-0.17037877849340438,-1.1249527087122202,0.016520415233448146
1788860708836550000,9.7275498046875,-0.26024025120437144,-0.993272201925516,0.13203604222610593
1788860708846591000,9.737591064453126,-0.3387421255111694,-0.8346364681959152,0.04421758311744779
1788860708856632000,9.747632080078125,-0.3812456347197294,-0.6308131007403135,-0.19043018086459487
1788860708866673000,9.7576728515625,-0.5642448253333568,-0.49011751284897326,-0.33690727476682514
1788860708876714000,9.7677138671875,-0.7365431737124919,-0.4676818091571331,-0.539433149757795
1788860708886755000,9.777755126953124,-0.7746370497852564,-0.5360305382400751,-0.6804385707832873
1788860708896797000,9.787796875,-0.883768455633521,-0.6217921744167805,-0.7040171608999372
1788860708906838000,9.797838134765625,-1.1108242301166058,-0.7455997558712959,-0.6615886896889657
1788860708916878800,9.80787890625,-1.2646335666030644,-0.8514379653930664,-0.581798017680645
1788860708926920000,9.817919921875,-1.313214349898696,-0.9572638999551534,-0.42998869590498506
1788860708936961000,9.8279609375,-1.3078536996483803,-1.0478484262436627,-0.18477801858810708
1788860708947001900,9.838001953125,-1.3954974963098763,-1.1869897704303265,0.13976628941828384
1788860708957043000,9.84804296875,-1.5751590669333935,-1.3201304128974676,0.4044267499513924
1788860708967084000,9.858083984375,-1.8356033162772654,-1.4090993206828832,0.5522240596067161
1788860708977124900,9.868124755859375,-2.2390210353165863,-1.4841741431504487,0.5759843629658222
1788860708987166000,9.878166015625,-2.6001047564953566,-1.5206021318376064,0.4554690645223483
1788860708997207000,9.88820703125,-2.705062676051259,-1.320569973358512,0.19013326201094313
1788860709007249000,9.898248779296875,-2.4341700979292393,-0.9710615391612052,-0.24378546681934965
1788860709017290000,9.9082900390625,-2.1232938844650984,-0.5446463908940553,-0.5506866939716041
1788860709027330800,9.918330810546875,-1.8774673585385082,-0.1600122827798128,-0.5278530039381235
1788860709037372000,9.928371826171874,-1.4080886823356151,0.1775759965211153,-0.22643855590019374
1788860709047413000,9.9384130859375,-0.7057698497861623,0.21668810972571373,-0.040718361091148104
1788860709057453800,9.948453857421875,-0.029452888977527618,-0.013819266515970229,0.0075333181142807
1788860709067495000,9.958494873046876,0.30982699667215347,-0.27541560850441454,0.2864632914151996
1788860709077535700,9.96853564453125,0.5797650505483151,-0.49326750131249425,0.6104907359406352
1788860709087576800,9.978576904296874,0.7534422860652208,-0.5664496419012546,0.7185054857838898
1788860709097618000,9.988617919921875,0.8638684078991412,-0.34455285761654375,0.6623058249823749
1788860709107658800,9.99865869140625,0.9742711488574742,-0.1331686995178461,0.470430450278148
1788860709117700900,10.008700927734376,1.0136866289228201,0.08165653894543647,0.18554511223677544
1788860709127741700,10.01874169921875,0.7665998738020658,0.19736030892133713,-0.15752779075400902
1788860709137782800,10.02878271484375,0.28370763603150845,0.14613748668432236,-0.42220892874896526
1788860709147823900,10.038823974609375,-0.15112696553468705,-0.13264379886090755,-0.5362090366121381
1788860709157864700,10.04886474609375,-0.60989423135221,-0.6445353366225958,-0.7301159171439707
1788860709167905800,10.05890576171875,-1.0647791027784348,-1.3082120115667581,-1.0100345361560583
1788860709177947000,10.06894677734375,-1.3099901271551846,-1.9091344164341688,-1.1432383069872856
1788860709187987700,10.07898779296875,-1.343542852666974,-1.9416373406320808,-0.8170311072699725
1788860709198028800,10.08902880859375,-1.1636258459776638,-1.5707891812860966,-0.4435550471058115
1788860709208070000,10.09906982421875,-1.006983916413784,-1.0264818130880593,-0.2801677714675665
1788860709218110700,10.10911083984375,-1.089950368914008,-0.5771183354318141,-0.2041387900803238
1788860709228151800,10.11915185546875,-0.9804179810494184,-0.4489151493668556,-0.15373711150046437
1788860709238194000,10.12919384765625,-0.469656908622384,-0.38723932217657564,-0.014820515980385243
1788860709248235000,10.139235107421875,-0.040621348723769185,-0.23518413588106632,0.23247955309748647
1788860709258276000,10.149276123046874,0.1549538303464651,-0.20325871931016443,0.40466402930598705
1788860709268317000,10.15931689453125,0.14830781646072863,-0.3006266221284866,0.3689893066715449
1788860709278358000,10.16935791015625,0.08676584478318691,-0.5267109212309122,0.3042154404006898
1788860709288399000,10.179399169921876,0.17876725213229655,-0.6757528971850871,0.33152587398942557
1788860709298440000,10.18943994140625,0.1964250738978386,-0.6433908427625894,0.4876858287226408
1788860709308481000,10.19948095703125,-0.2654214532345533,-0.47634500808417796,0.6617248102240264
1788860709318521900,10.20952197265625,-1.0904694243520499,-0.3281289615601301,0.7929176796242594
1788860709328563000,10.21956298828125,-1.730889726871252,-0.24221944134533405,0.95776454295367
1788860709338604000,10.22960400390625,-1.9835265173345804,-0.46976504517197604,0.8496260936655103
1788860709348646000,10.23964599609375,-1.7657377528905867,-0.7897253133237362,0.5111097397342323
1788860709358687000,10.24968701171875,-1.0204372722268105,-0.9229156401515006,0.21413086299095302
1788860709368727800,10.259727783203125,0.1392336986452341,-0.844062468189001,0.06522285214737057
1788860709378769000,10.269768798828125,1.1580658737629652,-0.47517421073913574,0.0768156747855246
1788860709388810000,10.27981005859375,1.4409411506235599,0.10694470945894717,0.3037393473215401
1788860709398850800,10.289850830078125,0.9305494960308074,0.5431511839002371,0.2835710771050304
1788860709408892000,10.299891845703126,0.131952893987298,0.6065133567422628,0.3569701483801007
1788860709418933000,10.30993310546875,-0.751571231496334,0.5627537099927663,0.3092451051309705
1788860709428973800,10.319973876953124,-1.824298662930727,0.25330022280812264,0.2878820721719414
1788860709439015000,10.330014892578125,-2.340207619640231,-0.44471126793622967,0.2615214501213282
1788860709449056000,10.340055908203125,-1.705481144848466,-1.2011679333865641,0.32084852222837507
1788860709459096800,10.350096923828126,-0.5682184051394462,-1.3695003007441757,0.34552447912767525
1788860709469139000,10.360138916015625,0.10004793568253517,-0.8644184429973364,0.538641597521305
1788860709479180000,10.370179931640624,0.5497469289034604,-0.05294073207080364,0.8164441011622547
1788860709489221000,10.38022119140625,0.6135451550751924,0.3967407254934311,1.1240013993367552
1788860709499262200,10.39026220703125,0.6181576173067093,0.3307134250953793,1.102380519159138
1788860709509303000,10.400302978515626,0.4858920041084289,0.14959259557425975,0.7897196142353117
1788860709519344000,10.41034423828125,0.43103111763000485,-0.023731296460330484,0.33357115261405706
1788860709529385200,10.42038525390625,0.48514147800207136,-0.18435674270242453,0.041499446732550856
1788860709539426000,10.430426025390625,0.3803086461305618,-0.5144277782410382,-0.0065614043422043316
1788860709549467100,10.440467041015625,0.2679354818820953,-0.9252017052620649,-0.09970336002856492
1788860709559508000,10.450508056640626,-0.12501987985372542,-1.0306088298901914,-0.22009075777605175
1788860709569549000,10.460549072265625,-0.836589355829358,-0.9922799760177731,-0.07563377152457833
1788860709579591000,10.4705908203125,-0.8089572525382042,-0.9614058220654725,0.34672844808995723
1788860709589632000,10.480632080078125,-0.22100363483726976,-0.9046896631091833,0.8458889529637992
1788860709599673000,10.490673095703125,0.6185831492424011,-0.7617889663890004,1.148944701935351
1788860709609714000,10.5007138671875,1.0130839868545531,-0.4957826990038156,1.1286870729349552
1788860709619755000,10.510755126953125,0.7286690793365239,-0.2709884397119284,0.6963675229296088
1788860709629796000,10.520796142578124,0.35393794107735155,-0.19287118080854415,0.22013006687313316
1788860709639837000,10.5308369140625,-0.23573650906682014,0.009061550594866276,0.07735095070600509
1788860709649878000,10.5408779296875,0.05965922667086124,0.080038582354784,0.1671890425413847
1788860709659919000,10.550919189453126,0.6307423735916614,-0.11103285555541514,0.17540858935415743
1788860709669960000,10.5609599609375,0.5035585937023163,-0.38787937364578245,0.1900827191337943
1788860709680001000,10.5710009765625,0.22010405564904212,-0.8576990716144443,0.19791443567276
1788860709690042000,10.5810419921875,0.7567267145633697,-1.1398511487670242,0.08484481359273195
1788860709700083000,10.5910830078125,0.6847048499256372,-1.1067182561025022,0.0867684751316905
1788860709710125300,10.601125244140626,0.5875719249069691,-1.1037344179861246,0.311573548078537
1788860709720166100,10.611166259765625,1.0407575911998748,-0.8914847290992737,0.5214002476021647
1788860709730207200,10.621207275390624,1.506203019607067,-0.4357563925862312,0.7304653151035309
1788860709740248300,10.631248291015625,1.36413965049386,-0.07549465531483292,0.801378049455583
1788860709750289200,10.6412890625,1.4834627800107,0.16735767710655927,0.5171975352153182
1788860709760330200,10.651330322265625,1.6130758328735828,0.12575111673772335,0.32294717500805853
1788860709770371000,10.66137109375,2.0528782859802246,-0.2367071076646447,0.3012435849830508
1788860709780412200,10.671412109375,2.5968197434753177,-0.4225917905867099,0.7865200875416397
1788860709790453200,10.681453369140625,2.8007307892143727,-0.5374361672542989,1.3815785688117146
1788860709800494000,10.691494140625,2.591826757493615,-0.5429466012388467,1.7383081864342091
1788860709810535200,10.70153515625,2.1673674194693566,0.23322423398494718,1.3241519234985113
1788860709820577000,10.711576904296875,1.8840929141581058,0.7398381966698915,0.3043848056182265
1788860709830618000,10.7216181640625,1.7648598010122776,0.6459787403639405,0.029938334406912324
1788860709840659200,10.7316591796875,1.444706640636921,0.2977159953787923,-0.04370967012792826
1788860709850700000,10.741699951171874,1.2672177378773688,0.14555289172939956,0.09617255555391312
1788860709860741000,10.7517412109375,1.0611223338365554,0.13884133832678197,0.153596278257668
1788860709870782200,10.7617822265625,0.9383201300323009,0.46702283379174764,-0.1973217304766178
1788860709880823000,10.771822998046876,0.965888520437479,0.6745891871679573,-0.2614084182009101
1788860709890864000,10.781864013671875,1.0989245334863662,0.4515344284871593,-0.10840718322694301
1788860709900905200,10.7919052734375,0.7935001556873321,0.2533708038263023,0.16637334224432707
1788860709910946000,10.801946044921875,0.176090141877532,0.07649071714747696,0.06166384449154138
1788860709920987100,10.811987060546874,0.5169505747169256,-0.08507365391254425,-0.2737801162570715
1788860709931028200,10.8220283203125,0.5534264941990376,-0.007743599864095449,-0.46869829272329805
1788860709941070000,10.832070068359375,0.23231939409971236,0.1545778366409242,-0.4550368471175432
1788860709951111200,10.842111083984374,0.9026596185863017,0.3955982409274205,-0.4502206790074706
1788860709961152000,10.852152099609375,1.8455787668466568,0.5939635256402194,-0.4698045003995299
1788860709971193000,10.862193115234374,1.387324126726389,0.6733236242115497,-0.6228925368741154
1788860709981234200,10.872234130859376,1.3076198908925056,0.5359405218690634,-0.48301235701888795
1788860709991275000,10.88227490234375,1.6130571281731128,0.43508784567490216,-0.015912147141993044
1788860710001316000,10.892316162109376,1.076729652813077,0.3567836858972907,0.3650724985539913
1788860710011357200,10.902357177734375,0.9723650229752063,0.22274141841530798,0.37429537719041106
1788860710021398000,10.91239794921875,1.3012883497834205,0.2517066700063646,0.15496230591386556
1788860710031439000,10.922439208984375,1.0536322703421115,0.271730344120413,-0.18358736576512455
1788860710041480200,10.932480224609375,0.9456476964414119,0.282308729019016,-0.5470277330726385
1788860710051521000,10.94252099609375,0.7602852838277816,0.41446766697242854,-0.7438458979412913
1788860710061563100,10.952563232421875,1.0235071811914442,0.5133166021287441,-0.7375251704871654
1788860710071604000,10.96260400390625,0.979644658589363,0.43736207421720025,-0.6817208656787872
1788860710081645000,10.97264501953125,0.688534052824974,0.45210371627509593,-0.6350520534843206
1788860710091686000,10.982685791015625,0.24691958186030386,0.4732096326678991,-0.42775735665634274
1788860710101727000,10.99272705078125,0.37005730122923847,0.14030088948532937,-0.20983809770047662
1788860710111768000,11.00276806640625,1.0901531980097294,-0.1356523330271244,-0.11760478129163383
1788860710121809000,11.012808837890624,1.5169593914210795,0.042839609295129776,-0.08357640109211206
1788860710131850000,11.02285009765625,1.2196692202389239,0.29976883625537154,-0.10045374000445008
1788860710141891000,11.03289111328125,0.9803466693788766,0.391173739016056,-0.2202024014569819
1788860710151932000,11.042931884765625,1.1794383321374655,0.4349450762033462,-0.13890315151661634
1788860710161973000,11.052972900390625,1.3012637998640537,0.5443745882153511,-0.0796753020003438
1788860710172014000,11.06301416015625,1.000439609336853,0.6100412386074662,0.16694895017519593
1788860710182056200,11.07305615234375,0.7731774986267089,0.5553481099113822,0.5090390709400177
1788860710192097300,11.08309716796875,0.9191536572694778,0.36889644075632094,0.8929870964862405
1788860710202138000,11.09313818359375,1.2535130376517771,0.22736849369406698,1.1343196719944477
1788860710212179200,11.10317919921875,1.150453060671687,0.14983371085375546,1.1436974489316343
1788860710222220300,11.11322021484375,0.8591501472055911,0.17963789748698472,0.9949044062372296
1788860710232261000,11.12326123046875,0.8835001600861548,0.33321079486906524,0.7830650517169385
1788860710242302200,11.13330224609375,0.8660241246283054,0.5503606768876314,0.7234742141071706
1788860710252343300,11.14334326171875,0.6481956126958132,0.6587631839394569,0.6038679568000137
1788860710262384000,11.153384033203125,0.33725977799892426,0.6267278772532939,0.502488626383245
1788860710272425200,11.16342529296875,0.1642524045675993,0.541077300235629,0.4924214058771729
1788860710282466000,11.173466064453125,0.18901508990228175,0.3390571828097105,0.32933826428465546
1788860710292507100,11.183507080078124,0.3313379867345094,0.08183657168745995,-0.018964410852082073
1788860710302549200,11.19354931640625,0.22419453983306883,-0.23200550584495067,-0.5284924708854407
1788860710312590000,11.203590087890625,-0.3653074763536453,-0.5992705460071563,-1.0407152133628725
1788860710322631200,11.213631103515626,-0.9260615369617938,-0.9380226083904504,-1.565657663616538
1788860710332672000,11.223672119140625,-1.3618120843291281,-1.119960307252407,-1.7867292491234839
1788860710342713000,11.233713134765624,-1.7212743417859075,-1.1955857493400572,-1.6729764670848846
1788860710352754200,11.243754150390625,-1.5567793606340885,-1.1733230641275643,-1.2957073347806929
1788860710362795000,11.253794921875,-0.987272669249773,-1.1273375580221414,-0.9859816065259277
1788860710372836000,11.263836181640626,-0.9529244094461202,-1.0812941842496395,-0.8774611721828579
1788860710382877200,11.273877197265625,-1.61899294796288,-1.195511515060067,-0.8163948551930487
1788860710392918000,11.28391796875,-2.36706523142755,-1.3856179073303938,-0.4917574620757252
1788860710402959000,11.293958984375,-2.3158289651870727,-1.6951742703676222,-0.24482392475530504
1788860710413000200,11.304000244140624,-1.7113187649607657,-1.8082535370588302,-0.17079598099216817
1788860710423042000,11.3140419921875,-1.2526567130833863,-1.6159125176042317,-0.04056609313888475
1788860710433083100,11.324083251953125,-1.0351531953215598,-1.2633067019134758,0.14135616155876776
1788860710443124000,11.3341240234375,-0.9091565793901681,-0.9647072016984224,0.280798360988684
1788860710453165000,11.3441650390625,-0.6768956374794244,-0.7928080817699432,0.33455355124752967
1788860710463206100,11.3542060546875,-0.6038678106695413,-0.6248755273848772,0.4564235887682065
1788860710473247000,11.3642470703125,-0.7964742030620574,-0.4485463160544634,0.5390808657214046
1788860710483288600,11.37428857421875,-1.1566612676620482,-0.40754269001483917,0.3995950920112431
1788860710493329400,11.384329345703126,-1.6666209605783222,-0.42177287541925906,0.1585888806468807
1788860710503370500,11.39437060546875,-2.080026405146718,-0.5840688852220773,-0.025088983263156842
1788860710513411600,11.40441162109375,-2.1315683763355016,-0.7050882972627878,-0.18616001099841667
1788860710523452400,11.414452392578125,-1.8877268867462873,-0.7014367890179157,-0.3534313797947019
1788860710533493500,11.424493408203125,-1.5065169078618288,-0.6611047786295413,-0.5591934967605396
1788860710543534600,11.43453466796875,-1.0522264951974152,-0.5245259784072637,-0.7051626046080142
1788860710553576400,11.444576416015625,-0.6396282753586768,-0.3168254772573709,-0.7092646330993622
1788860710563617500,11.454617431640624,-0.39563948625326156,-0.27264789735674855,-0.6479460949141532
1788860710573658400,11.464658447265625,-0.21551029811799524,-0.44849370908439157,-0.46621608398612585
1788860710583699500,11.474699462890625,-0.06866904707849025,-0.6608610330015421,-0.23119760526185854
1788860710593740500,11.484740478515626,-0.09547697450518608,-0.7910141840904951,-0.07595872002947143
1788860710603781400,11.494781494140625,-0.3387684289962053,-0.8367056756854057,-0.015612328511779195
1788860710613822500,11.504822509765624,-0.6743792707443237,-0.9106196376800536,-0.023966724067844915
1788860710623863600,11.514863525390625,-0.8968418722182512,-0.9356050258547067,-0.11608747206386177
1788860710633904400,11.524904296875,-1.070977957418561,-0.8413175533950328,-0.35080669384691865
1788860710643945500,11.534945556640626,-1.4922709403663872,-0.6425310110628605,-0.47423371501863
1788860710653986600,11.544986572265625,-1.8232050224751233,-0.789611916077137,-0.390334329049848
1788860710664027400,11.55502734375,-1.350514445245266,-1.2363555666238069,-0.31567802425529806
1788860710674069500,11.565069580078125,-0.6968313410490751,-1.3514397433966396,-0.3876619680354371
1788860710684110300,11.5751103515625,-0.48714697260558604,-0.9258680602163076,-0.5076299347944557
1788860710694151400,11.5851513671875,-0.32052433177530765,-0.6103764619112014,-0.5062916719280183
1788860710704192500,11.595192626953125,0.009040215545892715,-0.3684259006351232,-0.3722773884315043
1788860710714233300,11.6052333984375,0.4500006065160036,0.03146305975615978,-0.2763214165040292
1788860710724274400,11.6152744140625,0.47613224211633204,0.35599604265093804,-0.11530090652974322
1788860710734315500,11.6253154296875,0.41243513823151584,0.3983060751140117,0.35036337052620947
1788860710744356400,11.6353564453125,0.6026677872300148,0.22558687097430227,0.7794852204687893
1788860710754397400,11.6453974609375,0.47522857127487655,-0.003679565295577049,0.979776687471196
1788860710764438300,11.655438232421876,-0.19188100072741507,-0.1435872176796198,1.0125509759563953
1788860710774479400,11.665479248046875,-1.030813120290637,-0.34568858364820476,0.9730659377861768
1788860710784520400,11.6755205078125,-1.6177122605025767,-0.6391273400992155,0.8543821290861815
1788860710794561300,11.685561279296875,-1.8050415892750025,-0.874853912293911,0.6070427874438464
1788860710804603600,11.695603759765625,-1.4959762246251105,-0.8890443502098322,0.2552497494406998
1788860710814644500,11.70564453125,-0.8525672616839408,-0.6272843420922756,0.01457205764465034
1788860710824685600,11.715685546875,-0.22305530667006968,-0.18653204091489314,-0.18220212195180355
1788860710834726700,11.7257265625,0.22952187233567237,0.13137071018517016,-0.1664802366849035
1788860710844767500,11.735767578125,0.5501929191052913,0.13638590799868106,-0.06493734973687679
1788860710854808600,11.74580859375,0.6538473548471927,0.12928455156087876,-0.1300126466397196
1788860710864849700,11.755849609375,0.5604004248648882,0.036869887235760686,-0.1458535917090252
1788860710874890500,11.765890380859375,0.30132337222099304,0.021974515920877454,-0.005640855431184172
1788860710884931600,11.775931640625,0.0005015197813510895,-0.13265782738626003,0.1056163103993982
1788860710894972700,11.78597265625,-0.4161193797022104,-0.40184827776551246,0.2413792641941458
1788860710905013500,11.796013427734374,-0.7529635626375675,-0.6897919439315795,0.2596737033627927
1788860710915054600,11.8060546875,-1.0145049595683813,-0.871649563294649,0.15454166934899985
1788860710925095700,11.816095703125,-1.61252170612216,-0.9507716153264045,0.14458879593759774
1788860710935137500,11.826137451171874,-1.8553093027442693,-1.0370932234734296,0.12075878834314643
1788860710945178600,11.8361787109375,-1.4809382299691438,-0.9860755684196948,0.1755797812025994
1788860710955219500,11.846219482421875,-0.5834972228139639,-0.79583532063663,0.4336364047575742
1788860710965260500,11.856260498046876,0.21679157010018824,-0.572478400671482,0.8004587426535785
1788860710975301600,11.866301513671875,0.7629436893820762,-0.3640951779544353,1.1065664265416562
1788860710985342500,11.876342529296876,0.44115795936882496,-0.3081429891079664,0.9756579270407557
1788860710995383600,11.886383544921875,-0.29990941376984115,-0.4121829170361161,0.8992547785788774
1788860711005424400,11.89642431640625,-0.7590414212465286,-0.7448793326422571,0.6119919342838227
1788860711015465500,11.906465576171875,-0.48397301874458787,-1.1101777489066122,0.26646803967803717
1788860711025506600,11.916506591796875,-0.3278986599355936,-1.3019053126379847,0.12417100793942808
1788860711035547400,11.92654736328125,0.06616437078118324,-1.425435538455844,0.22921441382169722
1788860711045588500,11.93658837890625,0.8749123644828796,-1.292900460666418,0.48071255564391613
1788860711055630300,11.94663037109375,1.095558856445551,-0.8533657185852527,0.5102558993838727
1788860711065671400,11.95667138671875,0.6183738904058933,-0.3116521662726998,0.5802551721528172
1788860711075712500,11.96671240234375,0.3174409788072109,0.0033428806871175763,0.720658060707897
1788860711085753300,11.97675341796875,0.3493126193642616,-0.21540683774352073,0.8226756890282034
1788860711095794400,11.98679443359375,0.8204150506198405,-0.6915685982152819,0.8510460434660315
1788860711105835500,11.99683544921875,1.2495265983641146,-0.9643599956959485,0.7882081867590546
1788860711115876400,12.00687646484375,1.3432137668430804,-0.8058587020009755,0.7128130462959409
1788860711125917400,12.01691748046875,1.2567840221464632,-0.44271074176877734,0.5657438317194581
1788860711135958500,12.02695849609375,0.7158534369051456,-0.2773610434837639,0.4489531432896852
1788860711145999400,12.036999267578125,0.39151217719018455,-0.23201690402179956,0.3277726954683661
1788860711156040400,12.04704052734375,0.4472375715434551,-0.14049626592695713,0.2713283391907811
1788860711166081500,12.05708154296875,0.6564087297677993,-0.28795024203732605,0.3168111564710736
1788860711176122400,12.067122314453124,0.6773948191732168,-0.4891692722134292,0.435109619115293
1788860711186163500,12.07716357421875,0.6620388446092605,-0.6640127750307321,0.5215677131235599
1788860711196205300,12.087205322265625,0.7292915951490402,-0.6025248716279864,0.6579273176372051
1788860711206246400,12.097246337890626,0.6493441982090473,-0.5259041348926723,0.7905483201444149
1788860711216287500,12.10728759765625,0.8170902901113033,-0.43126784899532794,0.8709744405120611
1788860711226328300,12.117328369140624,1.2027595864921807,-0.5010829973690212,0.7688742484748363
1788860711236369400,12.127369384765625,1.6910744338333605,-0.5707561799887567,0.5599073806509375
1788860711246410500,12.137410400390625,1.8549165040343998,-0.5460250588361174,0.5987450608283281
1788860711256451300,12.147451416015626,1.7485826199501753,-0.15697854110710321,0.7075631629437208
1788860711266492400,12.157492431640625,1.767054096186161,-0.26461897774524984,0.5664467192918062
1788860711276533200,12.167533203125,1.4461866500616072,-0.4916529057227075,0.275761645463109
1788860711286574300,12.17757421875,1.2538485532164574,-0.3251963421743363,0.1613651586934924
1788860711296615700,12.18761572265625,1.0316279438048601,-0.3933290173538029,0.04592880748212337
1788860711306656500,12.197656494140626,1.3345038061648606,-0.6467928332258015,0.4132514230504632
1788860711316698600,12.20769873046875,1.0900801327735186,-1.1685935513876378,0.7792842910692095
1788860711326739500,12.217739501953124,0.08680617679357529,-1.8006394087933002,0.6879188435360789
1788860711336780500,12.227780517578125,-0.10963409467339515,-1.982034379080683,-0.262633868342638
1788860711346821600,12.237821533203125,-0.1368061792373657,-1.4173092228844761,-1.8767054342553018
1788860711356862500,12.247862548828126,0.17535948951542377,-0.8081903598189354,-1.7318641248613595
1788860711366903600,12.257903564453125,0.5589712688446045,-1.0745613688632845,-0.0946326326355338
1788860711376944600,12.267944580078124,0.8701695538699626,-1.2985568789929152,0.707775344389677
1788860711386985500,12.2779853515625,1.154742866820097,-0.5446454410459846,0.06672521953433752
1788860711397026600,12.288026611328124,1.9145634557455777,0.5972240252735093,-0.69479866617769
1788860711407067600,12.298067626953125,3.0651766754150387,1.121989767253399,-0.6641878393366932
1788860711417108500,12.3081083984375,3.2886183510541915,1.2804483908504247,-0.3495382448136806
1788860711427149600,12.318149658203126,3.352732219046354,1.5535734041996299,0.09372019396573304
1788860711437190700,12.328190673828125,3.5922669513523577,1.6918489253371953,0.9689826870605349
1788860711447231500,12.3382314453125,3.9288223804742097,1.649804558072984,1.5265812062472104
1788860711457273600,12.348273681640626,3.6921897993505,1.7209133995190262,1.230818098501861
1788860711467314400,12.358314453125,2.941994532382488,1.763594311121106,0.38635435603559015
1788860711477355500,12.36835546875,2.247998122498393,1.5076938426867126,-0.1915124596759677
1788860711487396400,12.378396240234375,1.598643987417221,1.2264473360717296,0.025226795715093613
1788860711497437400,12.3884375,1.3308838621020316,1.0894390583910047,0.6892614903166889
1788860711507478500,12.398478515625,1.8798539614140986,1.0156573444738983,1.1095195772588253
1788860711517519400,12.408519287109375,1.9147820669323206,0.8539223295547068,1.0112886278703808
1788860711527560400,12.418560546875,0.9139292006194591,0.481399076603353,0.6220557937890291
1788860711537601500,12.4286015625,0.07966098121404647,0.12549056610539555,0.27361791143268344
1788860711547642400,12.438642333984374,0.21469372103810308,-0.22025632360130548,-0.00037511692270636557
1788860711557683500,12.448683349609375,0.22767829029560088,-0.5531260499477386,-0.36538594841733574
1788860711567724500,12.458724609375,0.15707739837169646,-0.6540064909316599,-0.5737459363892674
1788860711577765400,12.468765380859375,0.06624503480195999,-0.45251258933693167,-0.6477145511806011
1788860711587807500,12.478807373046875,0.04931260470151901,-0.03748042034953832,-0.5861743330687285
1788860711597848300,12.488848388671874,0.36553660893440243,0.4841869537562132,-0.1986313517704606
1788860711607889400,12.498889404296875,0.6252291631281376,0.9800473941713571,0.18482859799787402
1788860711617930500,12.508930419921874,0.5673100581228733,1.17726624879539,0.2980190699785948
1788860711627971300,12.518971435546876,0.061442018434405325,0.9801040927946567,0.3832702724151313
1788860711638012400,12.529012451171875,0.24651801532208917,0.8122121626809239,0.37476971670389175
1788860711648053500,12.539053466796876,-0.06351765566468238,0.8820455773636698,0.46724283321797844
1788860711658094300,12.54909423828125,-1.9435908127874135,0.47229660947620866,0.6286363412231206
1788860711668135400,12.559135498046874,-3.328303880232572,-0.5970081540331245,0.8040655349738896
1788860711678176500,12.569176513671875,-2.334953936895728,-1.4725278367593884,1.1504328946664928
1788860711688217300,12.57921728515625,-0.493739794999361,-1.8952073056295513,1.5526576045289635
1788860711698258400,12.589258544921876,-0.1643167019754648,-2.185727252024412,1.5488868538185954
1788860711708299500,12.599299560546875,-1.5526830312311648,-2.537759651741385,1.1559563342630863
1788860711718340400,12.60934033203125,-2.377204932647943,-2.886305378386378,0.6914991131756454
