time,seconds_elapsed,z,y,x
1789635184179592000,0.049592041015625,-0.5340567231178284,-0.1693032681941986,1.8414549827575684
1789635184189630700,0.059630615234375,-0.39589354395866394,-0.33882972598075867,1.9336016178131104
1789635184199670800,0.0696708984375,-0.2834245264530182,-0.6552206873893738,1.9054968357086182
1789635184209710800,0.0797109375,-0.30501291155815125,-1.042602777481079,1.7658443450927734
1789635184219749600,0.08974951171875,-0.34083321690559387,-1.2841110229492188,1.5857515335083008
1789635184229789700,0.099789794921875,-0.22942599654197693,-1.5056391954421997,1.4040395021438599
1789635184239829800,0.109829833984375,0.04573020339012146,-1.6464133262634277,1.2203469276428223
1789635184249868800,0.119868896484375,0.4079504609107971,-1.5901402235031128,1.0643373727798462
1789635184259908900,0.129908935546875,0.6928945779800415,-1.405431866645813,0.9081757664680481
1789635184269948700,0.13994873046875,0.8278390765190125,-1.2508798837661743,0.8072879910469055
1789635184279988700,0.14998876953125,0.8542273044586182,-1.403130054473877,0.8143885135650635
1789635184290027800,0.16002783203125,0.8974365592002869,-1.858217716217041,0.9207472205162048
1789635184300067800,0.17006787109375,0.9689783453941345,-2.550391912460327,1.0882195234298706
1789635184310107600,0.180107666015625,1.130232810974121,-3.2333014011383057,1.1793715953826904
1789635184320146700,0.190146728515625,1.4044585227966309,-3.8406260013580322,1.0829107761383057
1789635184330186800,0.200186767578125,1.7597060203552246,-4.5671892166137695,0.8568882942199707
1789635184340226800,0.210226806640625,2.2148356437683105,-5.415197849273682,0.6339201927185059
1789635184350265900,0.220265869140625,2.848594903945923,-6.067276477813721,0.48584580421447754
1789635184360305700,0.2303056640625,3.813952684402466,-6.241490840911865,0.6213812828063965
1789635184370345700,0.240345703125,4.83869743347168,-5.7675700187683105,1.1964964866638184
1789635184380384800,0.250384765625,5.0939178466796875,-4.7207841873168945,1.8530604839324951
1789635184390424800,0.2604248046875,4.542277812957764,-4.119992256164551,2.130802869796753
1789635184400465000,0.27046484375,3.99163556098938,-4.113889694213867,2.14778208732605
1789635184410504000,0.28050390625,3.870481014251709,-4.659658908843994,2.1303117275238037
1789635184420544000,0.2905439453125,4.0387797355651855,-5.292340278625488,2.254570722579956
1789635184430583800,0.300583740234375,4.377466678619385,-5.533078193664551,2.5247910022735596
1789635184440622800,0.310622802734375,4.766591548919678,-5.546141624450684,2.7740516662597656
1789635184450663000,0.320662841796875,5.089544773101807,-5.315730094909668,2.851144552230835
1789635184460703000,0.330702880859375,5.3064422607421875,-4.753854274749756,2.6762688159942627
1789635184470741800,0.34074169921875,5.427695274353027,-4.366223335266113,2.662956476211548
1789635184480781800,0.35078173828125,5.551074981689453,-3.9191277027130127,2.7577126026153564
1789635184490822000,0.36082177734375,5.59616756439209,-3.3234455585479736,2.8576607704162598
1789635184500860700,0.370860595703125,5.431615352630615,-2.8324525356292725,2.9395220279693604
1789635184510900700,0.380900634765625,5.17496919631958,-2.6015501022338867,2.9497628211975098
1789635184520940800,0.39094091796875,4.860650539398193,-2.4459025859832764,2.847090005874634
1789635184530979800,0.400979736328125,4.5324578285217285,-2.1005496978759766,2.768641710281372
1789635184541020000,0.41102001953125,4.11495304107666,-1.5844117403030396,2.7267229557037354
1789635184551059700,0.421059814453125,3.6092114448547363,-1.0324169397354126,2.623385429382324
1789635184561098800,0.4310986328125,3.1142654418945312,-0.7625617980957031,2.534050226211548
1789635184571138800,0.441138916015625,2.7843425273895264,-0.7074900269508362,2.4816954135894775
1789635184581179000,0.451178955078125,2.5553739070892334,-0.7530154585838318,2.372767925262451
1789635184591217700,0.4612177734375,2.381544589996338,-0.8860422372817993,2.2003121376037598
1789635184601257700,0.4712578125,2.2502810955047607,-1.037298321723938,2.0067858695983887
1789635184611297800,0.4812978515625,2.235314130783081,-1.2871073484420776,1.7942142486572266
1789635184621336600,0.491336669921875,2.0816478729248047,-1.7488605976104736,1.023261308670044
1789635184631376600,0.501376708984375,1.4538604021072388,-1.9540650844573975,-1.5644800662994385
1789635184641416700,0.511416748046875,1.4978693723678589,-0.48116475343704224,-3.2462069988250732
1789635184651456000,0.5214560546875,1.9651556015014648,1.0597426891326904,-2.8036587238311768
1789635184661495800,0.531495849609375,2.4479849338531494,0.7519429922103882,-2.075864315032959
1789635184671535600,0.54153564453125,2.983659029006958,-0.46992728114128113,-1.1075162887573242
1789635184681575000,0.551574951171875,3.6125707626342773,-1.3087809085845947,0.11681529879570007
1789635184691615000,0.561614990234375,4.290349960327148,-1.6482617855072021,0.74919193983078
1789635184701654800,0.57165478515625,4.498467922210693,-2.1554133892059326,0.6857607960700989
1789635184711693800,0.58169384765625,4.190968990325928,-2.1425626277923584,0.41277503967285156
1789635184721734000,0.59173388671875,3.7751002311706543,-1.61822509765625,0.2619176208972931
1789635184731774000,0.60177392578125,3.4370338916778564,-1.168940782546997,0.16451305150985718
1789635184741812700,0.611812744140625,3.205491781234741,-0.913199245929718,-0.024895496666431427
1789635184751852800,0.621852783203125,2.8559629917144775,-1.0134321451187134,-0.07616347819566727
1789635184761892900,0.631892822265625,2.9177136421203613,-1.3686366081237793,0.19210632145404816
1789635184771932000,0.641931884765625,3.1855642795562744,-1.7264583110809326,0.0481419637799263
1789635184781971700,0.6519716796875,3.1288156509399414,-2.132683515548706,-0.1362214833498001
1789635184792011800,0.66201171875,2.81168794631958,-1.7047687768936157,-0.19866915047168732
1789635184802050800,0.67205078125,2.5836942195892334,-0.8679819703102112,-0.2330409735441208
1789635184812091000,0.6820908203125,2.087789297103882,-0.8822746276855469,-0.07864873856306076
1789635184822130700,0.692130615234375,1.2603739500045776,-1.5123540163040161,0.08061255514621735
1789635184832169700,0.702169677734375,0.5585327744483948,-1.8854587078094482,0.46857306361198425
1789635184842209800,0.712209716796875,0.478453129529953,-1.7495143413543701,0.6255240440368652
1789635184852249900,0.722249755859375,0.7005261182785034,-1.7996371984481812,0.6136636734008789
1789635184862288600,0.73228857421875,0.5822969675064087,-1.774092674255371,0.5524842143058777
1789635184872328700,0.74232861328125,0.4673389494419098,-1.5535968542099,0.36516332626342773
1789635184882368800,0.75236865234375,0.8534664511680603,-1.358426809310913,0.2133687436580658
1789635184892408800,0.762408935546875,1.310776948928833,-1.1027945280075073,0.2272784262895584
1789635184902447600,0.772447509765625,1.6738361120224,-1.0795615911483765,0.38159823417663574
1789635184912487700,0.78248779296875,1.9178320169448853,-1.0875303745269775,0.4980824887752533
1789635184922527700,0.79252783203125,1.7311484813690186,-1.1926921606063843,0.6177992820739746
1789635184932566800,0.80256689453125,1.1897392272949219,-1.0455408096313477,0.6936419010162354
1789635184942606600,0.812606689453125,0.7237515449523926,-0.6650866866111755,0.5021374225616455
1789635184952646700,0.822646728515625,0.5574781894683838,-0.38534876704216003,0.17142395675182343
1789635184962686000,0.83268603515625,0.5371870398521423,-0.12548547983169556,-0.07320443540811539
1789635184972726000,0.84272607421875,0.6744149327278137,-0.023370036855340004,-0.1147335097193718
1789635184982766000,0.85276611328125,0.9138088822364807,0.3468434512615204,-0.2515003979206085
1789635184992805000,0.86280517578125,0.9633529782295227,0.627333402633667,-0.5907871127128601
1789635185002845000,0.872844970703125,0.845808207988739,0.6688494682312012,-0.8120476007461548
1789635185012885000,0.882885009765625,0.6300272345542908,0.5544314980506897,-0.8503007292747498
1789635185022924000,0.892924072265625,0.4554593861103058,0.4148446023464203,-0.72812420129776
1789635185032964000,0.902964111328125,0.3562571704387665,0.5067681074142456,-0.6700137853622437
1789635185043004200,0.913004150390625,0.24507740139961243,0.6226880550384521,-0.6662419438362122
1789635185053043200,0.923043212890625,0.00669252360239625,0.6720263361930847,-0.6613203883171082
1789635185063083000,0.9330830078125,-0.18206354975700378,0.8087836503982544,-0.7229158878326416
1789635185073123000,0.943123046875,-0.08443472534418106,0.7862594127655029,-0.6633758544921875
1789635185083162000,0.953162109375,0.0009978864109143615,0.45717501640319824,-0.3756873309612274
1789635185093202200,0.9632021484375,0.019418438896536827,0.2546975314617157,-0.1763654500246048
1789635185103242200,0.9732421875,0.06461893767118454,-0.0007749798824079335,-0.06172515079379082
1789635185113281000,0.983281005859375,0.16700176894664764,-0.32794803380966187,0.007036071736365557
1789635185123321000,0.993321044921875,0.2523113489151001,-0.6424332857131958,0.09647780656814575
1789635185133361200,1.003361083984375,0.31316056847572327,-1.0744047164916992,0.19996877014636993
1789635185143400000,1.01339990234375,0.38585928082466125,-1.1445566415786743,0.12442980706691742
1789635185153440000,1.02343994140625,0.3778325021266937,-0.951739490032196,0.050700195133686066
1789635185163480000,1.03347998046875,0.3658064901828766,-0.6824443340301514,-0.06686345487833023
1789635185173519000,1.04351904296875,0.32365182042121887,-0.4332611560821533,-0.1014789566397667
1789635185183559000,1.053558837890625,0.2839432954788208,-0.24186588823795319,-0.045027926564216614
1789635185193599000,1.063598876953125,0.19336280226707458,-0.09292887151241302,0.040403880178928375
1789635185203638000,1.073637939453125,0.07689611613750458,0.03674549609422684,0.013027118518948555
1789635185213678000,1.083677978515625,-0.049315351992845535,0.1295798271894455,-0.042097121477127075
1789635185223718100,1.09371826171875,-0.24760180711746216,-0.1639772206544876,0.011510981246829033
1789635185233757000,1.1037568359375,-0.4288288652896881,-0.5617597103118896,0.15940004587173462
1789635185243797000,1.113796875,-0.6006131172180176,-0.8748329877853394,0.10425157099962234
1789635185253837000,1.123837158203125,-0.6287803053855896,-0.9533562660217285,-0.05799166485667229
1789635185263875800,1.133875732421875,-0.5357398390769958,-0.8442233800888062,-0.2093076854944229
1789635185273916000,1.143916015625,-0.26796966791152954,-0.8581386804580688,-0.38077637553215027
1789635185283956000,1.1539560546875,0.1619657278060913,-1.109944224357605,-0.4116743803024292
1789635185293995300,1.163995361328125,0.6624978184700012,-1.0077779293060303,-0.1661468893289566
1789635185304035000,1.17403515625,0.6682294607162476,-0.7310992479324341,-0.14943049848079681
1789635185314075000,1.184074951171875,0.3907581567764282,-0.5127946138381958,-0.3422127366065979
1789635185324115000,1.194114990234375,0.07932838052511215,-0.1678052395582199,-0.6599081158638
1789635185334154200,1.204154296875,-0.16878502070903778,-1.3950047492980957,-0.6271488666534424
1789635185344194000,1.214194091796875,-0.08013584464788437,-2.8863227367401123,-0.6331889033317566
1789635185354233900,1.22423388671875,0.1968451589345932,-2.970960855484009,-0.24060462415218353
1789635185364273200,1.234273193359375,0.25027960538864136,-3.2277495861053467,-0.3855266571044922
1789635185374313200,1.244313232421875,0.4582251012325287,-3.1356685161590576,-1.1671266555786133
1789635185384353300,1.254353271484375,0.3241482377052307,-1.5985195636749268,-1.0919690132141113
1789635185394392000,1.26439208984375,0.6887722611427307,-0.8813042044639587,-0.761817991733551
1789635185404432100,1.27443212890625,0.9460757374763489,-0.5679718255996704,-0.7271433472633362
1789635185414472200,1.28447216796875,0.8861173391342163,-0.01619281806051731,-0.8176032304763794
1789635185424511000,1.294510986328125,1.1542595624923706,-0.016169115900993347,-1.1535764932632446
1789635185434551000,1.304551025390625,0.7953908443450928,0.890783965587616,-0.5520080327987671
1789635185444591000,1.314591064453125,0.8656277656555176,1.1177515983581543,-0.33283281326293945
1789635185454630100,1.324630126953125,0.890175461769104,1.1112064123153687,-0.331367552280426
1789635185464670000,1.334669921875,0.8428143262863159,0.8955821990966797,-0.33819374442100525
1789635185474710000,1.3447099609375,0.5981667637825012,0.23319756984710693,-0.2387622445821762
1789635185484749000,1.3547490234375,0.35130661725997925,-0.12835824489593506,-0.14349457621574402
1789635185494789000,1.3647890625,0.29684072732925415,-0.09719685465097427,-0.09963657706975937
1789635185504829000,1.374828857421875,0.2942958176136017,-0.2419833391904831,0.01678750291466713
1789635185514868000,1.384867919921875,0.32225367426872253,-0.38230210542678833,0.0686269998550415
1789635185524908000,1.394907958984375,0.49380171298980713,-0.4854561686515808,0.05650109425187111
1789635185534948000,1.404947998046875,0.6935214996337891,-0.38660362362861633,0.03544667363166809
1789635185544987000,1.41498681640625,0.6978152990341187,-0.10669528692960739,0.04025048390030861
1789635185555027000,1.42502685546875,0.6222276091575623,0.22704832255840302,0.12058393657207489
1789635185565067000,1.43506689453125,0.5285030007362366,0.5328580737113953,0.29974836111068726
1789635185575106000,1.44510595703125,0.3889016807079315,0.666713297367096,0.4972715675830841
1789635185585145900,1.455145751953125,0.26902881264686584,0.2536381185054779,0.4432229697704315
1789635185595186000,1.46518603515625,0.21005603671073914,-0.2212785929441452,0.24536661803722382
1789635185605225000,1.475224853515625,0.0918620154261589,-0.3380270302295685,0.16676607728004456
1789635185615265000,1.48526513671875,-0.10202410072088242,-0.4523291289806366,0.19086316227912903
1789635185625304800,1.495304931640625,-0.10736986249685287,-0.44726139307022095,0.048779524862766266
1789635185635344100,1.50534423828125,-0.17584532499313354,-0.14347966015338898,-0.16619589924812317
1789635185645384200,1.51538427734375,-0.09677580744028091,-0.5533838272094727,-0.22078324854373932
1789635185655424000,1.525424072265625,0.4078806936740875,-1.1586564779281616,-0.15120816230773926
1789635185665463000,1.535463134765625,0.7275004982948303,-1.4724146127700806,0.019813651219010353
1789635185675503000,1.545503173828125,0.7949327826499939,-1.3096730709075928,0.13560017943382263
1789635185685543200,1.555543212890625,0.8385782837867737,-1.0649358034133911,0.18575868010520935
1789635185695583200,1.565583251953125,0.8156788349151611,-0.9439968466758728,0.0711093321442604
1789635185705622000,1.5756220703125,0.8793967962265015,-1.022423505783081,-0.05776103585958481
1789635185715662000,1.585662109375,0.965725302696228,-1.1128332614898682,-0.1660986989736557
1789635185725702100,1.5957021484375,1.0792646408081055,-1.0495845079421997,-0.19774210453033447
1789635185735741200,1.6057412109375,1.075564980506897,-1.0632684230804443,-0.21980586647987366
1789635185745781000,1.615781005859375,1.1235575675964355,-1.102523684501648,-0.22497132420539856
1789635185755821000,1.625821044921875,1.11770498752594,-1.2062995433807373,-0.08756313472986221
1789635185765860000,1.635860107421875,0.9197604656219482,-1.2270197868347168,0.19782918691635132
1789635185775900200,1.645900146484375,0.39873433113098145,-0.9456645250320435,0.4387155771255493
1789635185785940000,1.65593994140625,-0.05331195890903473,-0.7236157655715942,0.3633297383785248
1789635185795979000,1.66597900390625,-0.657147228717804,-0.6198959946632385,0.25424906611442566
1789635185806019000,1.67601904296875,-0.5199148058891296,-1.1286731958389282,0.006101035512983799
1789635185816059100,1.68605908203125,-0.19444963335990906,-1.3612004518508911,-0.18658985197544098
1789635185826098000,1.696097900390625,-0.07801491022109985,-1.5305628776550293,-0.10105577856302261
1789635185836138000,1.706137939453125,-0.016412794589996338,-1.7616482973098755,0.09095946699380875
1789635185846178000,1.716177978515625,0.18334798514842987,-1.4068769216537476,0.1835722178220749
1789635185856217000,1.726217041015625,0.015420767478644848,-0.7456917762756348,0.1377386897802353
1789635185866257000,1.7362568359375,-0.0881359875202179,-0.40433070063591003,0.0593075305223465
1789635185876297000,1.746296875,-0.05198570340871811,-0.26248329877853394,-0.06765254586935043
1789635185886336000,1.7563359375,0.05465046316385269,-0.313293993473053,-0.13476847112178802
1789635185896376000,1.7663759765625,0.11444056034088135,-0.39741021394729614,-0.07837123423814774
1789635185906415900,1.776415771484375,0.16565901041030884,-0.32424038648605347,-0.04638347774744034
1789635185916455000,1.786454833984375,0.3340727686882019,-0.20218506455421448,-0.2346029132604599
1789635185926495000,1.796494873046875,0.5072754621505737,-0.10342518985271454,-0.4139505624771118
1789635185936535000,1.80653515625,0.6973937153816223,-0.2252589464187622,-0.44942840933799744
1789635185946574000,1.816573974609375,0.8199827671051025,-0.28740355372428894,-0.3953622281551361
1789635185956614100,1.8266142578125,0.8266670107841492,-0.3096848726272583,-0.3435896039009094
1789635185966654200,1.836654296875,0.769433856010437,-0.33090975880622864,-0.2813349962234497
1789635185976694000,1.846694091796875,0.7011711597442627,-0.2568858563899994,-0.2759109437465668
1789635185986733300,1.8567333984375,0.6526539325714111,-0.21673710644245148,-0.30549973249435425
1789635185996773000,1.866773193359375,0.6356299519538879,-0.24493491649627686,-0.3037950396537781
1789635186006813200,1.876813232421875,0.5819377303123474,-0.30044451355934143,-0.26921895146369934
1789635186016852200,1.886852294921875,0.5234043598175049,-0.24542440474033356,-0.286575585603714
1789635186026892300,1.896892333984375,0.5151166319847107,-0.23488228023052216,-0.33312204480171204
1789635186036932400,1.906932373046875,0.504490077495575,-0.2577503025531769,-0.31485089659690857
1789635186046971400,1.916971435546875,0.4690537750720978,-0.17846427857875824,-0.28241226077079773
1789635186057011200,1.92701123046875,0.4305734932422638,-0.14514920115470886,-0.262818306684494
1789635186067051300,1.93705126953125,0.35774776339530945,-0.1622416377067566,-0.28363171219825745
1789635186077090300,1.94709033203125,0.31986427307128906,-0.22505255043506622,-0.32144060730934143
1789635186087130400,1.95713037109375,0.3367471396923065,-0.27686116099357605,-0.3100571930408478
1789635186097170200,1.967170166015625,0.39248204231262207,-0.25573670864105225,-0.2805379331111908
1789635186107209200,1.977209228515625,0.45994096994400024,-0.20549936592578888,-0.2607325315475464
1789635186117249300,1.987249267578125,0.5949988961219788,-0.2964300811290741,-0.2580411434173584
1789635186127289300,1.997289306640625,0.5180569887161255,-0.40357357263565063,-0.18011224269866943
1789635186137328000,2.007328125,0.3555682301521301,-0.18905913829803467,-0.12709030508995056
1789635186147368200,2.0173681640625,0.18193331360816956,0.024750620126724243,-0.180685356259346
1789635186157408300,2.027408203125,0.13151541352272034,0.06615212559700012,-0.29903197288513184
1789635186167447300,2.037447265625,0.17445702850818634,0.007163370493799448,-0.3681146502494812
1789635186177487000,2.047487060546875,0.20817157626152039,-0.013205017894506454,-0.4020062983036041
1789635186187527200,2.057527099609375,0.23314963281154633,-0.016862336546182632,-0.46517008543014526
1789635186197566200,2.067566162109375,0.2526050806045532,-0.016140621155500412,-0.49209409952163696
1789635186207606300,2.077606201171875,0.2522050738334656,0.012202071025967598,-0.48501089215278625
1789635186217646000,2.08764599609375,0.2451583594083786,-0.007447796408087015,-0.4834582805633545
1789635186227686100,2.09768603515625,0.27662014961242676,-0.017115071415901184,-0.5074579119682312
1789635186237725200,2.10772509765625,0.3166525065898895,-0.14288578927516937,-0.558742880821228
1789635186247765200,2.11776513671875,0.33331936597824097,-0.19281579554080963,-0.5850115418434143
1789635186257805000,2.12780517578125,0.4595404267311096,-0.4041946232318878,-0.6037420630455017
1789635186267844000,2.137843994140625,0.5296385288238525,-0.4651658236980438,-0.6170770525932312
1789635186277884200,2.14788427734375,0.5544261932373047,-0.504043698310852,-0.6093109846115112
1789635186287924200,2.15792431640625,0.6353527307510376,-0.5809736251831055,-0.6057685017585754
1789635186297963300,2.16796337890625,0.6720196604728699,-0.6011207103729248,-0.5837388038635254
1789635186308003000,2.178003173828125,0.42765066027641296,-0.6172965168952942,-0.5576571226119995
1789635186318043100,2.188043212890625,0.16876132786273956,-0.32337433099746704,-0.48773717880249023
1789635186328082400,2.19808251953125,0.3807377517223358,-0.18928897380828857,-0.35333356261253357
1789635186338122200,2.208122314453125,0.19417347013950348,-0.05446723476052284,-0.348858118057251
1789635186348162000,2.218162109375,-0.004156928043812513,0.18135274946689606,-0.47611114382743835
1789635186358201300,2.228201416015625,-0.10712538659572601,0.24519138038158417,-0.48244282603263855
1789635186368241400,2.238241455078125,-0.2877036929130554,0.4003237187862396,-0.37823545932769775
1789635186378281200,2.24828125,-0.5123812556266785,0.5743154883384705,-0.23894813656806946
1789635186388320300,2.2583203125,-0.5849699974060059,0.6337955594062805,-0.16991446912288666
1789635186398360300,2.2683603515625,-0.3647603988647461,0.2769221365451813,-0.3394233286380768
1789635186408400400,2.278400390625,-0.2141122967004776,-0.15795688331127167,-0.3822866380214691
1789635186418439200,2.288439208984375,-0.028426315635442734,-0.2835451662540436,-0.2232338786125183
1789635186428479200,2.298479248046875,0.027050260454416275,-0.3220408856868744,-0.1163303405046463
1789635186438519300,2.308519287109375,0.016805078834295273,-0.28256726264953613,-0.13660578429698944
1789635186448558300,2.318558349609375,-0.02448483742773533,-0.30182990431785583,-0.1784682720899582
1789635186458598100,2.32859814453125,-0.11786910891532898,-0.6553469300270081,-0.11548452079296112
1789635186468638200,2.33863818359375,-0.12023000419139862,-1.1315268278121948,0.008052600547671318
1789635186478678300,2.34867822265625,0.10657837241888046,-0.9119582176208496,0.0467081181704998
1789635186488717300,2.35871728515625,0.3161182701587677,-0.07042010128498077,0.017532387748360634
1789635186498757000,2.368757080078125,0.40623220801353455,0.21700768172740936,-0.02496899850666523
1789635186508797200,2.378797119140625,0.40442338585853577,0.10037187486886978,-0.057609766721725464
1789635186518836200,2.388836181640625,0.29178231954574585,0.05493222549557686,-0.0660858079791069
1789635186528876300,2.398876220703125,0.12744717299938202,-0.008016914129257202,0.05223151296377182
1789635186538916000,2.408916015625,0.1297508031129837,-0.17569512128829956,0.2059081643819809
1789635186548955100,2.418955078125,0.04146914556622505,-0.23173628747463226,0.35488325357437134
1789635186558995200,2.4289951171875,-0.025020398199558258,-0.26967063546180725,0.45551079511642456
1789635186569035300,2.43903515625,0.058273959904909134,-0.21070903539657593,0.5120118856430054
1789635186579074000,2.449073974609375,0.05024665966629982,-0.15739548206329346,0.6505290269851685
1789635186589114000,2.459114013671875,-0.03201945126056671,-0.086736761033535,0.7265742421150208
1789635186599154200,2.469154296875,-0.08002825826406479,-0.11203546077013016,0.8619579076766968
1789635186609193200,2.479193115234375,-0.15732145309448242,-0.06969865411520004,0.9511631727218628
1789635186619233000,2.48923291015625,-0.18210428953170776,0.007843808270990849,1.008022427558899
1789635186629273000,2.499273193359375,-0.1651729792356491,0.14797161519527435,1.0696866512298584
1789635186639312400,2.5093125,-0.1395712047815323,0.20462211966514587,1.1646125316619873
1789635186649352200,2.519352294921875,-0.08909019827842712,0.20199304819107056,1.2722299098968506
1789635186659392000,2.52939208984375,-0.04695046320557594,0.15233494341373444,1.3575154542922974
1789635186669431300,2.539431396484375,-0.020375579595565796,0.09939476102590561,1.437187671661377
1789635186679471400,2.549471435546875,-0.004593420308083296,0.1307489573955536,1.5225236415863037
1789635186689511400,2.559511474609375,0.010914965532720089,0.24724920094013214,1.618452787399292
1789635186699551200,2.56955126953125,0.04583113640546799,0.3679788112640381,1.7172209024429321
1789635186709590300,2.57959033203125,0.09173204749822617,0.4516572058200836,1.8167104721069336
1789635186719630300,2.58963037109375,0.1368260234594345,0.48126596212387085,1.87526535987854
1789635186729670400,2.59967041015625,0.16468216478824615,0.47300297021865845,1.88295578956604
1789635186739709200,2.609709228515625,0.19762253761291504,0.4683986306190491,1.8432440757751465
1789635186749749200,2.619749267578125,0.2074141800403595,0.474192351102829,1.7711293697357178
1789635186759789300,2.629789306640625,0.19491036236286163,0.47130733728408813,1.675466537475586
1789635186769828400,2.639828369140625,0.15332351624965668,0.4182225465774536,1.5525187253952026
1789635186779868200,2.6498681640625,0.10294422507286072,0.3552166819572449,1.4378633499145508
1789635186789908200,2.659908203125,0.04333575442433357,0.3431136906147003,1.3376471996307373
1789635186799947300,2.669947265625,-0.018547052517533302,0.3796144425868988,1.2402714490890503
1789635186809987300,2.6799873046875,-0.04210830479860306,0.4372292757034302,1.1441651582717896
1789635186820027100,2.690027099609375,-0.039749011397361755,0.5392725467681885,1.0480175018310547
1789635186830066200,2.700066162109375,-0.015659386292099953,0.6474168300628662,0.9605015516281128
1789635186840106200,2.710106201171875,0.03284343332052231,0.6621196269989014,0.8758628368377686
1789635186850146300,2.720146240234375,0.09919475764036179,0.6106221079826355,0.7722139358520508
1789635186860185000,2.73018505859375,0.14721927046775818,0.5502852201461792,0.6736063957214355
1789635186870225200,2.74022509765625,0.15664073824882507,0.4472760260105133,0.5637651085853577
1789635186880265200,2.75026513671875,0.14409005641937256,0.24612854421138763,0.3981420397758484
1789635186890305300,2.76030517578125,0.1623782515525818,-0.015508918091654778,0.183505117893219
1789635186900344000,2.770343994140625,0.22865821421146393,-0.26490676403045654,-0.018439726904034615
1789635186910384000,2.780384033203125,0.28323811292648315,-0.4406610131263733,-0.1583385020494461
1789635186920424200,2.790424072265625,0.2607165575027466,-0.6007531881332397,-0.23189528286457062
1789635186930463200,2.800463134765625,0.15012265741825104,-0.7597731947898865,-0.2764779329299927
1789635186940503000,2.8105029296875,0.01884612627327442,-0.7628300189971924,-0.3298324942588806
1789635186950543000,2.820543212890625,-0.08418891578912735,-0.5746920704841614,-0.42594224214553833
1789635186960582100,2.83058203125,-0.16715410351753235,-0.3552726209163666,-0.5897902846336365
1789635186970622000,2.8406220703125,-0.21285314857959747,-0.13229785859584808,-0.7060455679893494
1789635186980662000,2.850662109375,-0.20237627625465393,0.05308345705270767,-0.7332228422164917
1789635186990701300,2.860701416015625,-0.17436914145946503,0.040647562593221664,-0.722737193107605
1789635187000741000,2.8707412109375,-0.1760013848543167,-0.03358113020658493,-0.6927393078804016
1789635187010781000,2.880781005859375,-0.1862255334854126,-0.006056028418242931,-0.6239874362945557
1789635187020820200,2.8908203125,-0.18398341536521912,0.12114027142524719,-0.493545264005661
1789635187030860300,2.9008603515625,-0.17518939077854156,0.24066133797168732,-0.3326168358325958
1789635187040900000,2.910900146484375,-0.16557751595973969,0.26325932145118713,-0.16538603603839874
1789635187050940200,2.920940185546875,-0.14664563536643982,0.15541568398475647,-0.01486469991505146
1789635187060979200,2.930979248046875,-0.1077035591006279,0.04938672482967377,0.10652457922697067
1789635187071019300,2.941019287109375,-0.06965098530054092,0.006761233322322369,0.17244847118854523
1789635187081059000,2.95105908203125,-0.03814099356532097,-0.023628097027540207,0.137350395321846
1789635187091098000,2.96109814453125,-0.0413929782807827,-0.06701631844043732,0.01654621958732605
1789635187101138200,2.97113818359375,-0.07179030030965805,-0.1502411663532257,-0.06602641940116882
1789635187111178200,2.98117822265625,-0.046006638556718826,-0.22225597500801086,-0.049666088074445724
1789635187121217000,2.991217041015625,0.024579377844929695,-0.18305717408657074,-0.0070248860865831375
1789635187131257000,3.001257080078125,0.10529845952987671,-0.06579525768756866,0.008013451471924782
1789635187141297200,3.011297119140625,0.19356626272201538,0.03934261202812195,0.003555586328729987
1789635187151336200,3.021336181640625,0.3019050061702728,0.014397048391401768,0.01769830286502838
1789635187161376000,3.0313759765625,0.41463926434516907,-0.16033880412578583,0.04180310666561127
1789635187171416000,3.041416015625,0.48914679884910583,-0.35106906294822693,0.025065938010811806
1789635187181455000,3.051455078125,0.5545921325683594,-0.5240906476974487,-0.039212118834257126
1789635187191495200,3.0614951171875,0.5983667373657227,-0.565610408782959,-0.07482311129570007
1789635187201535000,3.071534912109375,0.6030584573745728,-0.46583428978919983,-0.03843926638364792
1789635187211574000,3.081573974609375,0.5692211389541626,-0.36921054124832153,0.01901869848370552
1789635187221614000,3.091614013671875,0.4980180561542511,-0.3471270799636841,0.0410960391163826
1789635187231654100,3.101654052734375,0.3827276825904846,-0.3437834680080414,0.0018881811993196607
1789635187241694000,3.11169384765625,0.23917582631111145,-0.3362131714820862,-0.11812824010848999
1789635187251733000,3.12173291015625,0.08783238381147385,-0.3179318904876709,-0.26017460227012634
1789635187261773000,3.13177294921875,-0.01251206360757351,-0.23640534281730652,-0.39271238446235657
1789635187271813000,3.141813232421875,-0.03936391696333885,-0.10976937413215637,-0.5383899807929993
1789635187281852000,3.151851806640625,-0.03618117421865463,0.03250680863857269,-0.6593235731124878
1789635187291892000,3.16189208984375,-0.015659119933843613,0.28145724534988403,-0.7840146422386169
1789635187301932000,3.17193212890625,-0.005312473513185978,0.492277055978775,-0.9200265407562256
1789635187311971000,3.18197119140625,-0.049248773604631424,0.43992143869400024,-1.0073680877685547
1789635187322011000,3.192010986328125,-0.13426139950752258,0.16641055047512054,-1.0271068811416626
1789635187332051000,3.202051025390625,-0.1926376223564148,-0.06054909899830818,-1.0329221487045288
1789635187342090200,3.21209033203125,-0.1388644129037857,-0.19571703672409058,-1.0480295419692993
1789635187352130000,3.222130126953125,-0.02726251445710659,-0.3221737742424011,-1.0414448976516724
1789635187362169900,3.232169921875,0.007366303354501724,-0.4473316967487335,-0.9891254305839539
1789635187372210000,3.2422099609375,-0.06616197526454926,-0.5551636219024658,-0.8852033019065857
1789635187382249200,3.252249267578125,-0.1773444265127182,-0.5974823236465454,-0.8314915895462036
1789635187392289300,3.262289306640625,-0.2756992280483246,-0.5155019760131836,-0.8560004234313965
1789635187402329000,3.2723291015625,-0.33808696269989014,-0.4006832242012024,-0.8548421859741211
1789635187412368100,3.2823681640625,-0.3357234001159668,-0.2768736779689789,-0.8415653109550476
1789635187422408200,3.292408203125,-0.3113802671432495,-0.23802614212036133,-0.8333081603050232
1789635187432448300,3.3024482421875,-0.27503421902656555,-0.33861133456230164,-0.8557493090629578
1789635187442487000,3.312487060546875,-0.20993618667125702,-0.5165325999259949,-0.8954857587814331
1789635187452527000,3.322527099609375,-0.10719489306211472,-0.6301345229148865,-0.9534260630607605
1789635187462567200,3.332567138671875,-0.034212563186883926,-0.6489476561546326,-0.9535722732543945
1789635187472606200,3.342606201171875,-0.010032660327851772,-0.5341947078704834,-0.843479573726654
1789635187482646000,3.35264599609375,-0.02261955849826336,-0.27368825674057007,-0.6730431318283081
1789635187492686000,3.36268603515625,-0.0270697008818388,-0.009817477315664291,-0.48823440074920654
1789635187502725000,3.37272509765625,0.004062385763972998,0.14345782995224,-0.3357585668563843
1789635187512765200,3.38276513671875,0.08052040636539459,0.20018981397151947,-0.21157748997211456
1789635187522805000,3.392804931640625,0.13964764773845673,0.2245103418827057,-0.09747808426618576
1789635187532845000,3.402844970703125,0.18799333274364471,0.24172820150852203,0.0071753547526896
1789635187542884000,3.412884033203125,0.24631710350513458,0.27923110127449036,0.12306839972734451
1789635187552924200,3.422924072265625,0.30116942524909973,0.309291809797287,0.2602267861366272
1789635187562964200,3.432964111328125,0.3285571038722992,0.28917908668518066,0.41296812891960144
1789635187573003000,3.4430029296875,0.3495769202709198,0.21829397976398468,0.5899801850318909
1789635187583043000,3.45304296875,0.3723874092102051,0.24952034652233124,0.8180487751960754
1789635187593083100,3.463083251953125,0.3874686360359192,0.4274485409259796,1.078690767288208
1789635187603122000,3.473121826171875,0.36404478549957275,0.590115487575531,1.311589241027832
1789635187613162000,3.483161865234375,0.3125650882720947,0.6048784255981445,1.488464117050171
1789635187623202000,3.4932021484375,0.2700309455394745,0.4509482681751251,1.600878357887268
1789635187633241000,3.503240966796875,0.2337733507156372,0.17189213633537292,1.6688193082809448
1789635187643281000,3.513281005859375,0.1881243735551834,-0.05657486245036125,1.7309292554855347
1789635187653321000,3.523321044921875,0.1376422792673111,-0.13656529784202576,1.811833381652832
1789635187663360000,3.533360107421875,0.059850551187992096,-0.08878499269485474,1.8770081996917725
1789635187673400000,3.543400146484375,-0.053644053637981415,0.04117060452699661,1.8272467851638794
1789635187683440000,3.553440185546875,-0.1855677366256714,0.14367647469043732,1.6438909769058228
1789635187693480000,3.56347998046875,-0.31082791090011597,0.21346913278102875,1.3761357069015503
1789635187703519200,3.573519287109375,-0.3848336935043335,0.3162511885166168,1.1016572713851929
1789635187713559000,3.58355908203125,-0.39583441615104675,0.39323756098747253,0.8611254096031189
1789635187723599000,3.59359912109375,-0.42844855785369873,0.40972253680229187,0.6372297406196594
1789635187733638100,3.60363818359375,-0.5347113609313965,0.609764575958252,0.5047531723976135
1789635187743678200,3.61367822265625,-0.640547513961792,0.8261450529098511,0.5144915580749512
1789635187753718000,3.623718017578125,-0.6038091778755188,0.8206712007522583,0.6534808874130249
1789635187763757000,3.633757080078125,-0.5173824429512024,0.7219286561012268,0.8558989763259888
1789635187773797000,3.643797119140625,-0.5213569402694702,0.5778287053108215,1.0773080587387085
1789635187783837200,3.653837158203125,-0.5480929017066956,0.22430634498596191,1.1937270164489746
1789635187793876200,3.663876220703125,-0.4693256914615631,-0.40341296792030334,1.0170111656188965
1789635187803916000,3.673916015625,-0.3240393102169037,-0.9557523131370544,0.6107059717178345
1789635187813956000,3.6839560546875,-0.27336016297340393,-0.945992112159729,0.18254823982715607
1789635187823996200,3.69399609375,-0.3668179512023926,-0.23297572135925293,-0.014665229246020317
1789635187834035200,3.70403515625,-0.4792422354221344,0.4774935841560364,-0.003638410707935691
1789635187844075300,3.7140751953125,-0.5266057252883911,0.6580476760864258,0.03901105001568794
1789635187854115000,3.724114990234375,-0.5110899209976196,0.44585204124450684,0.027393540367484093
1789635187864154000,3.734154052734375,-0.45191580057144165,0.11757376790046692,0.00857484620064497
1789635187874194200,3.744194091796875,-0.3637624979019165,-0.28224581480026245,0.06064177677035332
1789635187884234200,3.754234130859375,-0.2726142108440399,-0.632026731967926,0.21740102767944336
1789635187894273000,3.76427294921875,-0.13007117807865143,-0.8085053563117981,0.3361718952655792
1789635187904313000,3.77431298828125,0.047618117183446884,-0.8074195981025696,0.3565349578857422
1789635187914353200,3.784353271484375,0.12643836438655853,-0.6999940276145935,0.3653092682361603
1789635187924392000,3.794391845703125,0.149714395403862,-0.46645933389663696,0.4432631731033325
1789635187934432000,3.804431884765625,0.17803658545017242,-0.055624112486839294,0.5773094296455383
1789635187944472000,3.81447216796875,0.13005147874355316,0.21858081221580505,0.6571626663208008
1789635187954511000,3.824510986328125,0.04114610329270363,0.27836424112319946,0.6540971398353577
1789635187964551200,3.83455126953125,-0.01709003746509552,0.3141576647758484,0.6227533221244812
1789635187974591200,3.84459130859375,-0.04356265813112259,0.3953651785850525,0.5970881581306458
1789635187984631000,3.854631103515625,-0.031124362722039223,0.4808688759803772,0.5893540978431702
1789635187994670000,3.864670166015625,0.029336582869291306,0.5261572599411011,0.5998943448066711
1789635188004710100,3.874710205078125,0.11167619377374649,0.5053249597549438,0.5676645040512085
1789635188014750200,3.884750244140625,0.18073037266731262,0.42378324270248413,0.4944598078727722
1789635188024789000,3.8947890625,0.23001696169376373,0.3193894326686859,0.43511179089546204
1789635188034829000,3.9048291015625,0.26907646656036377,0.2568221986293793,0.3961806297302246
1789635188044869000,3.914869140625,0.3224153220653534,0.2433045357465744,0.3295153081417084
1789635188054908200,3.924908203125,0.3485769033432007,0.2289399802684784,0.25508689880371094
1789635188064948000,3.934947998046875,0.32961305975914,0.1898796558380127,0.19610878825187683
1789635188074988000,3.944988037109375,0.25887709856033325,0.09700244665145874,0.1776868999004364
1789635188085027300,3.95502734375,0.14234942197799683,0.01110484916716814,0.2220703512430191
1789635188095067100,3.965067138671875,0.04493977874517441,-0.004321777727454901,0.3553865849971771
1789635188105107000,3.97510693359375,0.010336793027818203,-0.12454352527856827,0.5057044625282288
1789635188115147000,3.98514697265625,0.054184142500162125,-0.3542102873325348,0.5348383784294128
1789635188125186300,3.995186279296875,0.10708624124526978,-0.2776654362678528,0.4790818989276886
1789635188135226400,4.005226318359375,0.0905461460351944,0.060800500214099884,0.4695424735546112
1789635188145266200,4.01526611328125,0.023551132529973984,0.21881623566150665,0.5560035705566406
1789635188155305200,4.02530517578125,-0.07693073153495789,0.14348872005939484,0.6542150974273682
1789635188165345300,4.03534521484375,-0.17045162618160248,0.12087316066026688,0.7348465919494629
1789635188175385300,4.04538525390625,-0.1924658566713333,0.12914574146270752,0.7565569281578064
1789635188185424100,4.055424072265625,-0.1160200759768486,0.013765347190201283,0.7597056031227112
1789635188195464200,4.065464111328125,-0.0474010705947876,-0.15217143297195435,0.7818756103515625
1789635188205504300,4.075504150390625,-0.006748716346919537,-0.2707446813583374,0.7775958776473999
1789635188215543300,4.085543212890625,0.007384945638477802,-0.30846062302589417,0.7405350804328918
1789635188225583000,4.0955830078125,0.0364842414855957,-0.27137479186058044,0.7183317542076111
1789635188235623200,4.105623046875,0.08111855387687683,-0.31064149737358093,0.7279316782951355
1789635188245662200,4.115662109375,0.1320515125989914,-0.4255654215812683,0.7922422289848328
1789635188255702300,4.125702392578125,0.1579803079366684,-0.5147192478179932,0.8411093354225159
1789635188265742000,4.1357421875,0.1595742106437683,-0.4934624433517456,0.7973469495773315
1789635188275782100,4.1457822265625,0.08648934960365295,-0.1363714188337326,0.7456803321838379
1789635188285821200,4.1558212890625,-0.06702164560556412,0.26121774315834045,0.7760280966758728
1789635188295861200,4.165861328125,-0.1934642642736435,0.28134244680404663,0.8515372276306152
1789635188305901300,4.1759013671875,-0.28948134183883667,0.06603920459747314,0.8700605630874634
1789635188315940000,4.185940185546875,-0.36287593841552734,-0.0713796392083168,0.8275525569915771
1789635188325980200,4.195980224609375,-0.3862345218658447,-0.04614752158522606,0.7862378358840942
1789635188336020200,4.206020263671875,-0.3905496299266815,0.17375288903713226,0.6962155699729919
1789635188346059000,4.21605908203125,-0.42473292350769043,0.38787636160850525,0.5485765337944031
1789635188356099000,4.22609912109375,-0.4474866986274719,0.49776798486709595,0.35432371497154236
1789635188366139100,4.23613916015625,-0.4475966691970825,0.5471717715263367,0.10960186272859573
1789635188376178200,4.24617822265625,-0.4087965488433838,0.6432583332061768,-0.17671804130077362
1789635188386218000,4.256218017578125,-0.3359481692314148,0.8347212076187134,-0.46882128715515137
1789635188396258000,4.266258056640625,-0.29368966817855835,0.9944384694099426,-0.7139207720756531
1789635188406298000,4.276298095703125,-0.3474423885345459,0.9978070855140686,-0.8930798768997192
1789635188416337200,4.286337158203125,-0.39190757274627686,0.8508890271186829,-1.0039845705032349
1789635188426377000,4.296376953125,-0.38905826210975647,0.7119615077972412,-1.0932992696762085
1789635188436417000,4.3064169921875,-0.36427703499794006,0.6865972876548767,-1.152374267578125
1789635188446456300,4.316456298828125,-0.3324061632156372,0.7054367661476135,-1.1936663389205933
1789635188456496000,4.32649609375,-0.31399255990982056,0.6919811367988586,-1.217880368232727
1789635188466536200,4.3365361328125,-0.3357950448989868,0.7657603025436401,-1.2081373929977417
1789635188476575200,4.3465751953125,-0.35359108448028564,0.9064558744430542,-1.1440210342407227
1789635188486615300,4.356615234375,-0.3181758522987366,1.0224980115890503,-1.0880125761032104
1789635188496655000,4.366655029296875,-0.24765054881572723,1.0238226652145386,-1.0604145526885986
1789635188506694100,4.376694091796875,-0.13422784209251404,0.9794523119926453,-1.0621280670166016
1789635188516734200,4.386734130859375,-0.02954004891216755,0.9116556644439697,-1.0577926635742188
1789635188526774300,4.396774169921875,0.06175577640533447,0.8017928600311279,-1.0564621686935425
1789635188536814300,4.406814453125,0.11067298799753189,0.7163437008857727,-1.0597401857376099
1789635188546853000,4.41685302734375,0.10650993138551712,0.5919709205627441,-1.0590318441390991
1789635188556893200,4.42689306640625,0.09074588119983673,0.41864892840385437,-1.0143903493881226
1789635188566933200,4.436933349609375,0.1251576542854309,0.2008225917816162,-0.9394984841346741
1789635188576972300,4.44697216796875,0.18491818010807037,-0.06646451354026794,-0.8429471850395203
1789635188587012400,4.457012451171875,0.180816650390625,-0.2263050377368927,-0.7621447443962097
1789635188597052200,4.46705224609375,0.010939999483525753,-0.19358491897583008,-0.7297788262367249
1789635188607091200,4.47709130859375,-0.27375510334968567,-0.015396267175674438,-0.7397153377532959
1789635188617131300,4.48713134765625,-0.5131016373634338,0.10547902435064316,-0.7647250890731812
1789635188627171300,4.49717138671875,-0.6073370575904846,0.07881545275449753,-0.7985184788703918
1789635188637210000,4.507210205078125,-0.5658460855484009,-0.07449793815612793,-0.8030309677124023
1789635188647250200,4.517250244140625,-0.4399352967739105,-0.27843189239501953,-0.6787508130073547
1789635188657290200,4.527290283203125,-0.31405991315841675,-0.4977884888648987,-0.4520244598388672
1789635188667330300,4.537330322265625,-0.2316843569278717,-0.7572501301765442,-0.22578652203083038
1789635188677369000,4.547369140625,-0.16924256086349487,-0.9743236303329468,-0.1006949171423912
1789635188687409200,4.5574091796875,-0.19326400756835938,-1.0817360877990723,-0.1362220197916031
1789635188697449200,4.56744921875,-0.28741180896759033,-0.9742162823677063,-0.2718091309070587
1789635188707488000,4.577488037109375,-0.4003452658653259,-0.7721987366676331,-0.4281441569328308
1789635188717528000,4.587528076171875,-0.5451636910438538,-0.6466597318649292,-0.524439811706543
1789635188727568100,4.597568115234375,-0.7438530921936035,-0.47775033116340637,-0.6035553812980652
1789635188737607200,4.607607177734375,-0.9266402125358582,-0.2569042146205902,-0.7324193716049194
1789635188747647200,4.617647216796875,-1.0483975410461426,-0.18015486001968384,-0.8839263319969177
1789635188757687000,4.62768701171875,-1.13511061668396,-0.2762773931026459,-1.0218160152435303
1789635188767726000,4.63772607421875,-1.222458004951477,-0.3653862178325653,-1.1261035203933716
1789635188777766100,4.64776611328125,-1.3248672485351562,-0.3334629237651825,-1.2396210432052612
1789635188787806200,4.65780615234375,-1.400125503540039,-0.15053677558898926,-1.3554086685180664
1789635188797845200,4.66784521484375,-1.401333212852478,0.08851761370897293,-1.4325127601623535
1789635188807885000,4.677885009765625,-1.3356858491897583,0.23969009518623352,-1.4818960428237915
1789635188817925000,4.687925048828125,-1.2046535015106201,0.20303966104984283,-1.5256235599517822
1789635188827965200,4.697965087890625,-1.0427998304367065,0.07086831331253052,-1.6166993379592896
1789635188838004200,4.708004150390625,-0.8677305579185486,-0.10222677141427994,-1.7472853660583496
1789635188848044000,4.7180439453125,-0.6914708614349365,-0.21402893960475922,-1.8563694953918457
1789635188858084000,4.728083984375,-0.5692312121391296,-0.13069435954093933,-1.9373782873153687
1789635188868123100,4.738123046875,-0.5540426969528198,0.07237006723880768,-1.9744926691055298
1789635188878163200,4.7481630859375,-0.6576966643333435,0.3899610936641693,-2.0126819610595703
1789635188888203300,4.758203369140625,-0.6834840178489685,0.6623966097831726,-2.0476884841918945
1789635188898242300,4.7682421875,-0.6316344141960144,0.8070818781852722,-2.0936827659606934
1789635188908282400,4.778282470703125,-0.6124953627586365,0.8911493420600891,-2.055925130844116
1789635188918322200,4.788322265625,-0.6086827516555786,0.8275107145309448,-1.9701021909713745
1789635188928362200,4.7983623046875,-0.5941110253334045,0.6076316237449646,-1.8582546710968018
1789635188938401300,4.8084013671875,-0.5875154137611389,0.1910242885351181,-1.7732322216033936
1789635188948441300,4.81844140625,-0.5587804317474365,-0.08715754002332687,-1.6866307258605957
1789635188958481200,4.828481201171875,-0.5553604364395142,-0.10026934742927551,-1.6130523681640625
1789635188968521200,4.838521240234375,-0.5524376034736633,-0.041920021176338196,-1.5899726152420044
1789635188978561300,4.848561279296875,-0.5273852348327637,-0.0018783274572342634,-1.6043561697006226
1789635188988601000,4.85860107421875,-0.4610576331615448,0.03510312736034393,-1.5801304578781128
1789635188998640000,4.86864013671875,-0.3483840823173523,0.16383446753025055,-1.494803786277771
1789635189008680200,4.87868017578125,-0.22740386426448822,0.3561440110206604,-1.3566699028015137
1789635189018720300,4.88872021484375,-0.10934433341026306,0.5130593180656433,-1.2160345315933228
1789635189028759000,4.898759033203125,0.015631424263119698,0.5290926098823547,-1.109755516052246
1789635189038799000,4.908799072265625,0.19474205374717712,0.3810504078865051,-1.0379880666732788
1789635189048839200,4.918839111328125,0.3839295506477356,0.22724780440330505,-0.9688057899475098
1789635189058878200,4.928878173828125,0.5391542911529541,0.19690720736980438,-0.8738782405853271
1789635189068918000,4.93891796875,0.6014496088027954,0.1604141741991043,-0.7945032119750977
1789635189078958000,4.9489580078125,0.5506503582000732,0.10905804485082626,-0.7564272284507751
1789635189088998100,4.958998046875,0.5132867693901062,0.11209245026111603,-0.6299302577972412
1789635189099037200,4.969037109375,0.4671112596988678,0.11554550379514694,-0.5015688538551331
1789635189109077000,4.979076904296875,0.44247543811798096,0.19809924066066742,-0.41812002658843994
1789635189119117000,4.989116943359375,0.4816987216472626,0.3484461307525635,-0.30767738819122314
1789635189129156000,4.999156005859375,0.5388320684432983,0.4420096278190613,-0.2264094352722168
1789635189139196200,5.009196044921875,0.5769445300102234,0.48918113112449646,-0.24153698980808258
1789635189149236200,5.019236328125,0.6091075539588928,0.43967270851135254,-0.27601373195648193
1789635189159275000,5.02927490234375,0.6586868166923523,0.302647203207016,-0.21081742644309998
1789635189169315000,5.039315185546875,0.6780280470848083,0.1726015955209732,-0.10375089943408966
1789635189179355100,5.049355224609375,0.6734239459037781,0.11265357583761215,-0.016680976375937462
1789635189189395200,5.059395263671875,0.6690409183502197,0.13583159446716309,0.05275615677237511
1789635189199434000,5.06943408203125,0.6510344743728638,0.14141252636909485,0.06516542285680771
1789635189209474000,5.07947412109375,0.6352150440216064,-0.08177981525659561,-0.03994022682309151
1789635189219514000,5.08951416015625,0.5844866037368774,-0.40418264269828796,-0.13890010118484497
1789635189229553000,5.099552978515625,0.5516112446784973,-0.33213719725608826,-0.09814654290676117
1789635189239593000,5.109593017578125,0.5416123867034912,-0.11894609779119492,-0.08055369555950165
1789635189249633000,5.119633056640625,0.5166503190994263,-0.10078972578048706,-0.1772240549325943
1789635189259672000,5.129672119140625,0.4806526303291321,-0.12348891794681549,-0.3073548972606659
1789635189269712000,5.1397119140625,0.3860560953617096,-0.1878676414489746,-0.4018712639808655
1789635189279752000,5.149751953125,0.2900392711162567,-0.33282962441444397,-0.47034966945648193
1789635189289791200,5.159791259765625,0.22350206971168518,-0.49285978078842163,-0.48134317994117737
1789635189299831000,5.1698310546875,0.175718292593956,-0.5351630449295044,-0.48632943630218506
1789635189309871000,5.17987109375,0.12801095843315125,-0.6028603315353394,-0.5499371886253357
1789635189319910100,5.18991015625,0.09155068546533585,-0.6292591691017151,-0.6047892570495605
1789635189329950200,5.1999501953125,0.040763940662145615,-0.6141933798789978,-0.6350240707397461
1789635189339990000,5.209989990234375,0.01344683300703764,-0.530418336391449,-0.5909919142723083
1789635189350030000,5.220030029296875,0.031064707785844803,-0.3089485168457031,-0.4475093185901642
1789635189360069000,5.230069091796875,0.09229983389377594,-0.18556374311447144,-0.33177635073661804
1789635189370109200,5.240109130859375,0.1398540437221527,-0.2735345959663391,-0.3277994394302368
1789635189380149200,5.250149169921875,0.10256818681955338,-0.41393059492111206,-0.3284947872161865
1789635189390188000,5.26018798828125,0.0293701384216547,-0.5345334410667419,-0.1857147365808487
1789635189400228000,5.27022802734375,-0.04350832849740982,-0.545293927192688,0.058812715113162994
1789635189410268200,5.28026806640625,-0.09410412609577179,-0.4211514890193939,0.31839609146118164
1789635189420307200,5.29030712890625,-0.134041428565979,-0.29076099395751953,0.4952102601528168
1789635189430347300,5.30034716796875,-0.18923251330852509,-0.2603873908519745,0.4683448374271393
1789635189440387000,5.310386962890625,-0.21064352989196777,-0.37098392844200134,0.2868320345878601
1789635189450426000,5.320426025390625,-0.16968996822834015,-0.3925166428089142,0.1529245674610138
1789635189460466200,5.330466064453125,-0.12336534261703491,-0.38927051424980164,-0.0007408913807012141
1789635189470506200,5.34050634765625,-0.13920556008815765,-0.45722612738609314,-0.21459218859672546
1789635189480546000,5.350546142578125,-0.16214682161808014,-0.37180206179618835,-0.4732474386692047
1789635189490585000,5.360585205078125,-0.15116608142852783,-0.24664200842380524,-0.7831485867500305
1789635189500625200,5.370625244140625,-0.14130333065986633,-0.34845200181007385,-1.046259880065918
1789635189510665200,5.380665283203125,-0.22605150938034058,-0.6563941240310669,-1.1773438453674316
1789635189520704000,5.3907041015625,-0.39377766847610474,-0.8901879787445068,-1.171647548675537
1789635189530744000,5.400744140625,-0.5305647850036621,-0.9406708478927612,-0.9968606233596802
1789635189540784000,5.4107841796875,-0.6039093136787415,-0.7991302013397217,-0.7031994462013245
1789635189550823000,5.420822998046875,-0.6459819674491882,-0.5728816390037537,-0.44849708676338196
1789635189560863000,5.430863037109375,-0.6671426296234131,-0.4217826724052429,-0.29938432574272156
1789635189570903000,5.440903076171875,-0.6804762482643127,-0.4167096018791199,-0.26304468512535095
1789635189580942000,5.450942138671875,-0.6696034073829651,-0.49547046422958374,-0.3248947262763977
1789635189590982100,5.460982177734375,-0.6280359625816345,-0.6272575259208679,-0.4672638475894928
1789635189601022000,5.47102197265625,-0.5740377306938171,-0.7109146118164062,-0.5962935090065002
1789635189611062000,5.48106201171875,-0.5285501480102539,-0.6066955327987671,-0.6448929905891418
1789635189621101000,5.49110107421875,-0.5112771391868591,-0.4878828525543213,-0.6428375244140625
1789635189631141000,5.50114111328125,-0.5121985673904419,-0.36323198676109314,-0.6251651048660278
1789635189641181000,5.511180908203125,-0.503290593624115,-0.15724848210811615,-0.6174980998039246
1789635189651220000,5.521219970703125,-0.4989682734012604,-0.047877244651317596,-0.5920832753181458
1789635189661260000,5.531260009765625,-0.4767386019229889,-0.03696520999073982,-0.5712012052536011
1789635189671300000,5.541300048828125,-0.4003479480743408,-0.04003157094120979,-0.5726014971733093
1789635189681339100,5.551339111328125,-0.30619508028030396,-0.15496881306171417,-0.6572042107582092
1789635189691379000,5.56137890625,-0.2586970627307892,-0.31571000814437866,-0.8636130690574646
1789635189701419000,5.5714189453125,-0.25935274362564087,-0.4036785066127777,-1.122870683670044
1789635189711458300,5.581458251953125,-0.20472757518291473,-0.34145453572273254,-1.2817274332046509
1789635189721498000,5.591498046875,-0.14476729929447174,-0.286246657371521,-1.3154468536376953
1789635189731538200,5.6015380859375,-0.1427755206823349,-0.2961099445819855,-1.2955889701843262
1789635189741578000,5.611577880859375,-0.1805628538131714,-0.209695965051651,-1.2258367538452148
1789635189751617300,5.6216171875,-0.21044804155826569,-0.06075229495763779,-1.1418741941452026
1789635189761657000,5.631656982421875,-0.19110311567783356,0.05825931206345558,-1.166871428489685
1789635189771697200,5.641697265625,-0.08452340960502625,0.4061318039894104,-1.3269684314727783
1789635189781736200,5.651736083984375,0.10120278596878052,0.7248639464378357,-1.5536601543426514
1789635189791776300,5.6617763671875,0.2719596028327942,0.7795312404632568,-1.7453473806381226
1789635189801816000,5.671816162109375,0.36238032579421997,0.6558436155319214,-1.7994670867919922
1789635189811855000,5.681855224609375,0.3370627164840698,0.5911868810653687,-1.6443581581115723
1789635189821895200,5.691895263671875,0.2211608737707138,0.5140148401260376,-1.3672293424606323
1789635189831935200,5.701935302734375,0.09212832897901535,0.5491557717323303,-1.1691348552703857
1789635189841974000,5.71197412109375,0.06174139305949211,0.7499895691871643,-1.0728331804275513
1789635189852014000,5.72201416015625,0.1495189219713211,0.6717206239700317,-1.0806481838226318
1789635189862054100,5.73205419921875,0.2635994255542755,0.4735976457595825,-1.0743615627288818
1789635189872094200,5.74209423828125,0.3194224536418915,0.32929614186286926,-0.9842356443405151
1789635189882133000,5.752133056640625,0.2870413661003113,0.13614904880523682,-0.7945985794067383
1789635189892173000,5.762173095703125,0.26198846101760864,0.0845111533999443,-0.5369212627410889
1789635189902213000,5.772213134765625,0.21927642822265625,0.09708766639232635,-0.3982541561126709
1789635189912252200,5.782252197265625,0.13188320398330688,0.030523020774126053,-0.44017231464385986
1789635189922292000,5.7922919921875,0.011376758106052876,-0.006779609248042107,-0.526905357837677
1789635189932332000,5.80233203125,-0.11493776738643646,0.13937707245349884,-0.5976151823997498
1789635189942371000,5.81237109375,-0.17247749865055084,0.11801718175411224,-0.6192395687103271
1789635189952411100,5.8224111328125,-0.18836058676242828,0.01750362664461136,-0.5547620058059692
1789635189962449700,5.83244970703125,-0.26782771944999695,-0.0034320156555622816,-0.4870314300060272
1789635189972489700,5.84248974609375,-0.3656933009624481,-0.08113959431648254,-0.4671429395675659
1789635189982529000,5.852529052734375,-0.4702194333076477,0.014814365655183792,-0.4268130958080292
1789635189992568800,5.86256884765625,-0.5312148928642273,0.22729893028736115,-0.3947601020336151
1789635190002609000,5.87260888671875,-0.507188081741333,0.419579416513443,-0.37046992778778076
1789635190012648000,5.88264794921875,-0.422454833984375,0.49469655752182007,-0.38078275322914124
1789635190022688000,5.89268798828125,-0.3261581361293793,0.5167925357818604,-0.3903011679649353
1789635190032728000,5.90272802734375,-0.3001110851764679,0.48756274580955505,-0.3621118664741516
1789635190042766800,5.912766845703125,-0.33237236738204956,0.4948422312736511,-0.3434412479400635
1789635190052807000,5.922806884765625,-0.37383192777633667,0.4169546067714691,-0.3204813301563263
1789635190062847000,5.932846923828125,-0.3661375045776367,0.4030151069164276,-0.2138638198375702
1789635190072885800,5.9428857421875,-0.3201676309108734,0.45392143726348877,-0.1122000440955162
1789635190082925800,5.95292578125,-0.23666660487651825,0.421293169260025,-0.18134981393814087
1789635190092966000,5.9629658203125,-0.1529378890991211,0.30472713708877563,-0.307949036359787
1789635190103006000,5.973005859375,-0.04742051288485527,0.30381688475608826,-0.3436034321784973
1789635190113044700,5.983044677734375,0.03892582654953003,0.3760215640068054,-0.38081151247024536
1789635190123084800,5.993084716796875,0.059661731123924255,0.36579182744026184,-0.39594972133636475
1789635190133124900,6.003124755859375,0.024472586810588837,0.20895694196224213,-0.30129513144493103
1789635190143164000,6.013163818359375,-0.009893910028040409,0.1472397893667221,-0.1078186109662056
1789635190153203700,6.02320361328125,-0.016802947968244553,0.2299858033657074,0.0893637016415596
1789635190163243800,6.033243896484375,0.06003936752676964,0.3397141695022583,0.2062237411737442
1789635190173282800,6.04328271484375,0.18615175783634186,0.40252479910850525,0.21672937273979187
1789635190183323000,6.053322998046875,0.2684144079685211,0.27481451630592346,0.24147707223892212
1789635190193363000,6.063363037109375,0.27918821573257446,0.13887318968772888,0.34615233540534973
1789635190203401700,6.073401611328125,0.22418862581253052,0.05975627526640892,0.4770464599132538
1789635190213441800,6.08344189453125,0.16455087065696716,0.07079853862524033,0.5577468872070312
1789635190223481900,6.09348193359375,0.15058498084545135,0.06692230701446533,0.5087114572525024
1789635190233522000,6.10352197265625,0.18431204557418823,0.05350184068083763,0.4560256004333496
1789635190243560700,6.113560791015625,0.19426961243152618,0.027464114129543304,0.4426184296607971
1789635190253600800,6.123600830078125,0.14158456027507782,-0.056588444858789444,0.44452792406082153
1789635190263640800,6.133640869140625,0.086448073387146,-0.0451754666864872,0.5055816769599915
1789635190273679600,6.1436796875,0.06342265009880066,0.053652308881282806,0.5890387892723083
1789635190283719700,6.1537197265625,0.07697494328022003,0.1466221958398819,0.6566729545593262
1789635190293759700,6.163759765625,0.10613416135311127,0.15612994134426117,0.7283034324645996
1789635190303799000,6.173799072265625,0.11953305453062057,0.0762588158249855,0.8523098230361938
1789635190313838800,6.1838388671875,0.14344078302383423,0.09683013707399368,1.0078022480010986
1789635190323878700,6.193878662109375,0.18897737562656403,0.21338126063346863,1.09813392162323
1789635190333918000,6.20391796875,0.23491691052913666,0.2980594038963318,1.0956172943115234
1789635190343958000,6.2139580078125,0.24285872280597687,0.2856903374195099,1.0714898109436035
1789635190353997800,6.223997802734375,0.20275923609733582,0.2668173015117645,1.0716698169708252
1789635190364037600,6.23403759765625,0.14432628452777863,0.212983638048172,1.057176113128662
1789635190374077000,6.244076904296875,0.08704648166894913,0.11452018469572067,1.0085678100585938
1789635190384117000,6.254116943359375,0.042688075453042984,0.013285711407661438,0.9825906157493591
1789635190394157000,6.264156982421875,0.04403110593557358,-0.07453175634145737,0.9556966423988342
1789635190404195800,6.27419580078125,0.0796748548746109,-0.09463995695114136,0.9281995296478271
1789635190414236000,6.28423583984375,0.11150575429201126,-0.0533047653734684,0.9421272873878479
1789635190424276000,6.29427587890625,0.14602963626384735,-0.021289043128490448,0.9612570405006409
1789635190434314800,6.304314697265625,0.18314531445503235,0.00392816262319684,0.9794080853462219
1789635190444354800,6.314354736328125,0.18517571687698364,0.1066976860165596,1.039760708808899
1789635190454395000,6.324394775390625,0.20184923708438873,0.18773767352104187,1.0671286582946777
1789635190464435000,6.33443505859375,0.26895609498023987,0.10758478194475174,1.0460129976272583
1789635190474474000,6.344473876953125,0.30977702140808105,0.034743066877126694,1.0857739448547363
1789635190484513800,6.354513671875,0.30615460872650146,0.13070900738239288,1.135258436203003
1789635190494553900,6.364553955078125,0.3070984184741974,0.30067408084869385,1.1142628192901611
1789635190504593000,6.374593017578125,0.3132766783237457,0.4061184823513031,1.053605079650879
1789635190514633000,6.384633056640625,0.3787771463394165,0.33772850036621094,0.9511407613754272
1789635190524672800,6.3946728515625,0.4942818880081177,0.06556276232004166,0.8744790554046631
1789635190534711800,6.4047119140625,0.4939146339893341,-0.09920994192361832,0.9601593017578125
1789635190544751900,6.414751953125,0.4015823304653168,0.017230119556188583,1.1566702127456665
1789635190554792000,6.4247919921875,0.3604370057582855,0.14685416221618652,1.2706143856048584
1789635190564830700,6.434830810546875,0.3139651119709015,0.12485325336456299,1.2328691482543945
1789635190574870800,6.444870849609375,0.32980960607528687,0.015812251716852188,1.1089708805084229
1789635190584910800,6.454910888671875,0.3896303176879883,-0.1669895201921463,0.9764770269393921
1789635190594949600,6.46494970703125,0.37829723954200745,-0.31808796525001526,0.9467170238494873
1789635190604989700,6.47498974609375,0.25561073422431946,-0.2141069620847702,1.074886441230774
1789635190615029800,6.48502978515625,0.16514314711093903,-0.202687069773674,1.1676081418991089
1789635190625069800,6.49506982421875,0.11851173639297485,-0.2883670926094055,1.1746442317962646
1789635190635108900,6.50510888671875,0.09572120010852814,-0.25193557143211365,1.1765209436416626
1789635190645148700,6.515148681640625,0.11129962652921677,-0.19049511849880219,1.1188608407974243
1789635190655188700,6.525188720703125,0.11029055714607239,-0.2851734161376953,1.0398900508880615
1789635190665227800,6.535227783203125,0.03221066668629646,-0.21066083014011383,1.1001214981079102
1789635190675267800,6.545267822265625,-0.13664066791534424,-0.09518484026193619,1.1641215085983276
1789635190685307600,6.5553076171875,-0.290205180644989,-0.12839952111244202,1.1256155967712402
1789635190695347000,6.565346923828125,-0.3347393870353699,-0.46762046217918396,1.0468097925186157
1789635190705386800,6.57538671875,-0.30299341678619385,-0.5435583591461182,1.097893476486206
1789635190715426800,6.5854267578125,-0.20723068714141846,-0.22457851469516754,1.264439582824707
1789635190725466600,6.595466552734375,-0.000678307143971324,-0.1318238079547882,1.2562191486358643
1789635190735506000,6.605505859375,0.2565372586250305,-0.525189995765686,1.0800484418869019
1789635190745546000,6.6155458984375,0.3635081648826599,-0.6619579792022705,1.0658495426177979
1789635190755585800,6.625585693359375,0.3503689467906952,-0.437956839799881,1.216753602027893
1789635190765624800,6.635624755859375,0.25607171654701233,-0.34995347261428833,1.28102445602417
1789635190775665000,6.645664794921875,0.129520446062088,-0.6057136058807373,1.22379732131958
1789635190785705000,6.655705078125,-0.05522570386528969,-0.896313488483429,1.1246814727783203
1789635190795744000,6.665743896484375,-0.15115197002887726,-0.986863911151886,1.0152499675750732
1789635190805783800,6.67578369140625,-0.11345013231039047,-0.6747877597808838,0.9413238167762756
1789635190815824000,6.685823974609375,-0.03184501454234123,-0.2432994693517685,0.8821236491203308
1789635190825863000,6.69586279296875,0.021854432299733162,-0.09831538796424866,0.7415406703948975
1789635190835903000,6.705903076171875,0.13525822758674622,-0.2038266360759735,0.660208523273468
1789635190845942800,6.71594287109375,0.27723294496536255,-0.18266382813453674,0.7446249127388
1789635190855981800,6.72598193359375,0.37552568316459656,-0.1032843068242073,0.8843316435813904
1789635190866022000,6.73602197265625,0.40463244915008545,-0.07259910553693771,1.0119348764419556
1789635190876062000,6.74606201171875,0.32808759808540344,-0.11660251021385193,1.0921857357025146
1789635190886101800,6.756101806640625,0.2201366275548935,-0.15557174384593964,1.0952543020248413
1789635190896140800,6.766140869140625,0.11605256795883179,-0.33734288811683655,1.0026484727859497
1789635190906180900,6.776180908203125,0.001657285145483911,-0.5179589986801147,0.8721264004707336
1789635190916221000,6.786220947265625,-0.11074914783239365,-0.28744617104530334,0.7869499921798706
1789635190926259700,6.796259765625,-0.20927758514881134,0.11745685338973999,0.7437926530838013
1789635190936299800,6.8062998046875,-0.21062514185905457,0.22676284611225128,0.673582136631012
1789635190946339800,6.81633984375,-0.09238212555646896,-0.004971855320036411,0.555756688117981
1789635190956379000,6.82637890625,-0.029473736882209778,-0.18150827288627625,0.4268852770328522
1789635190966419000,6.8364189453125,-0.0363345704972744,-0.13429762423038483,0.32535651326179504
1789635190976459000,6.846458984375,-0.09719419479370117,0.08445309847593307,0.2920779287815094
1789635190986498000,6.856498046875,-0.1535205841064453,0.10989640653133392,0.3213660418987274
1789635190996538000,6.8665380859375,-0.1423635333776474,-0.08370448648929596,0.3352104723453522
1789635191006578200,6.876578125,-0.11542779207229614,-0.13939757645130157,0.33580145239830017
1789635191016618000,6.886617919921875,-0.13161315023899078,-0.06503146141767502,0.3815881013870239
1789635191026657000,6.896656982421875,-0.12622158229351044,-0.08847367018461227,0.4398420751094818
1789635191036697000,6.906697021484375,-0.0977846160531044,-0.11532792448997498,0.4817112386226654
1789635191046737200,6.916737060546875,-0.07991880178451538,-0.0076334187760949135,0.5228570699691772
1789635191056776000,6.92677587890625,-0.024600418284535408,0.04463298246264458,0.5426406264305115
1789635191066816000,6.93681591796875,0.030460171401500702,0.042338401079177856,0.5290238857269287
1789635191076856000,6.94685595703125,0.05610241740942001,-0.03380456939339638,0.5011672377586365
1789635191086895000,6.95689501953125,0.08397852629423141,-0.20321224629878998,0.4458720088005066
1789635191096935000,6.966934814453125,0.07653418928384781,-0.2928478419780731,0.3459278345108032
1789635191106975000,6.97697509765625,0.008476574905216694,-0.21602924168109894,0.23222258687019348
1789635191117014300,6.98701416015625,-0.09752442687749863,-0.05914907529950142,0.15970417857170105
1789635191127054000,6.99705419921875,-0.11368395388126373,0.09489348530769348,0.1352105587720871
1789635191137094100,7.00709423828125,-0.05519401282072067,0.07372722029685974,0.12500478327274323
1789635191147134000,7.017134033203125,-0.0288846455514431,-0.07103396207094193,0.07775364816188812
1789635191157173200,7.02717333984375,-0.043784499168395996,-0.12082282453775406,-0.015272430144250393
1789635191167213300,7.03721337890625,-0.09360159188508987,-0.08768723905086517,-0.10727452486753464
1789635191177253000,7.047253173828125,-0.15870895981788635,0.05011962726712227,-0.20291583240032196
1789635191187292200,7.057292236328125,-0.2422584444284439,0.2472023367881775,-0.2913666069507599
1789635191197332200,7.067332275390625,-0.2320111244916916,0.14945447444915771,-0.3499651849269867
1789635191207372300,7.077372314453125,-0.24276497960090637,-0.1785886585712433,-0.3953031301498413
1789635191217411000,7.0874111328125,-0.32566651701927185,-0.31238746643066406,-0.467581570148468
1789635191227451100,7.097451171875,-0.3490016758441925,-0.36731594800949097,-0.5230280756950378
1789635191237491200,7.1074912109375,-0.35101979970932007,-0.27885985374450684,-0.5329185128211975
1789635191247530000,7.117530029296875,-0.3661830425262451,0.04237142577767372,-0.4529608190059662
1789635191257570000,7.127570068359375,-0.37264254689216614,0.22889310121536255,-0.29157325625419617
1789635191267610000,7.137610107421875,-0.3753722906112671,0.23165427148342133,-0.1440272182226181
1789635191277650200,7.147650146484375,-0.40906500816345215,0.3344264626502991,-0.07906472682952881
1789635191287689000,7.15768896484375,-0.41797834634780884,0.48838937282562256,-0.05524061992764473
1789635191297729000,7.16772900390625,-0.5274134874343872,0.8384073376655579,0.09264125674962997
1789635191307769000,7.17776904296875,-0.5223715901374817,0.08147195726633072,-0.06361759454011917
1789635191317808000,7.18780810546875,-0.4625234305858612,-0.36284637451171875,-0.2175522893667221
1789635191327848200,7.19784814453125,-0.407094806432724,-0.40530622005462646,-0.2825597822666168
1789635191337888000,7.207887939453125,-0.42703548073768616,-0.250342458486557,-0.339706689119339
1789635191347927000,7.217927001953125,-0.48307690024375916,0.08835995942354202,-0.39165937900543213
1789635191357967000,7.227967041015625,-0.5434845685958862,0.4949492812156677,-0.42062339186668396
1789635191368007200,7.238007080078125,-0.5606651902198792,0.8432955741882324,-0.39386501908302307
1789635191378046000,7.2480458984375,-0.5674695372581482,1.1590497493743896,-0.2861606478691101
1789635191388086000,7.2580859375,-0.6091863512992859,1.2880730628967285,-0.16869740188121796
1789635191398126000,7.2681259765625,-0.6380504965782166,1.5321266651153564,-0.02713281847536564
1789635191408166100,7.278166259765625,-0.8607072830200195,2.0095269680023193,0.13615970313549042
1789635191418205000,7.288204833984375,-0.8885437250137329,2.001054286956787,0.14481498301029205
1789635191428245000,7.298244873046875,-0.7457191944122314,1.6371394395828247,-0.02829155884683132
1789635191438285000,7.30828515625,-0.7304568886756897,1.1729767322540283,-0.307161808013916
1789635191448324000,7.318323974609375,-0.7520114183425903,0.7716557383537292,-0.5266464948654175
1789635191458364000,7.328364013671875,-0.6843594312667847,0.39640992879867554,-0.701511800289154
1789635191468404000,7.338404052734375,-0.6824110746383667,0.24113193154335022,-0.8211566805839539
1789635191478443300,7.348443359375,-0.7576544284820557,0.12491317093372345,-0.8952900171279907
1789635191488483000,7.358483154296875,-0.8655960559844971,-0.16748033463954926,-0.9149937033653259
1789635191498523000,7.36852294921875,-1.0229920148849487,-0.5756310820579529,-0.8757850527763367
1789635191508562200,7.378562255859375,-1.1331268548965454,-0.9451137781143188,-0.7975195646286011
1789635191518602200,7.388602294921875,-1.1922221183776855,-1.330798625946045,-0.7516908049583435
1789635191528642300,7.398642333984375,-1.319063425064087,-1.7375872135162354,-0.7295119762420654
1789635191538681900,7.408681884765625,-1.5229196548461914,-1.9492528438568115,-0.7185131311416626
1789635191548721200,7.41872119140625,-1.7623028755187988,-1.9282047748565674,-0.6988576650619507
1789635191558761200,7.42876123046875,-1.915611743927002,-1.6685659885406494,-0.6542268395423889
1789635191568801300,7.43880126953125,-1.8199819326400757,-1.3361073732376099,-0.5559396743774414
1789635191578840000,7.448840087890625,-1.5528892278671265,-1.0826224088668823,-0.4739241600036621
1789635191588880100,7.458880126953125,-1.2256075143814087,-0.8469579219818115,-0.46067893505096436
1789635191598920200,7.468920166015625,-0.9431811571121216,-0.6077602505683899,-0.5034599304199219
1789635191608959200,7.478959228515625,-0.6169827580451965,-0.29299724102020264,-0.5365582704544067
1789635191618999000,7.4889990234375,-0.16624011099338531,0.013913950882852077,-0.5523156523704529
1789635191629039000,7.4990390625,0.12165000289678574,0.23230195045471191,-0.5419381260871887
1789635191639078100,7.509078125,0.13432025909423828,0.26935049891471863,-0.6042102575302124
1789635191649118200,7.5191181640625,0.12175200134515762,0.2595772445201874,-0.7530508637428284
1789635191659158000,7.529157958984375,0.20577846467494965,0.15877287089824677,-0.9002994298934937
1789635191669198000,7.539197998046875,0.35639458894729614,-0.08379396796226501,-0.9701696038246155
1789635191679237000,7.549237060546875,0.3682139813899994,-0.15679094195365906,-0.9940136671066284
1789635191689277200,7.559277099609375,0.26201722025871277,-0.024213727563619614,-0.9674190878868103
1789635191699317000,7.56931689453125,0.18752062320709229,0.011659585870802402,-0.9733003973960876
1789635191709356000,7.57935595703125,0.2539430558681488,-0.1837834119796753,-1.029815912246704
1789635191719396000,7.58939599609375,0.41689175367355347,-0.6068209409713745,-1.150412917137146
1789635191729436200,7.599436279296875,0.4919114112854004,-0.9991482496261597,-1.2436262369155884
1789635191739475000,7.609474853515625,0.47658517956733704,-1.2162941694259644,-1.2377725839614868
1789635191749515000,7.619514892578125,0.5297810435295105,-1.2992331981658936,-1.1734106540679932
1789635191759555000,7.62955517578125,0.6418052911758423,-1.2930322885513306,-1.178439974784851
1789635191769594000,7.639593994140625,0.7739172577857971,-1.2195607423782349,-1.2773330211639404
1789635191779634000,7.649634033203125,0.9081709384918213,-1.0054810047149658,-1.3683372735977173
1789635191789674000,7.659674072265625,0.9267403483390808,-0.6988899111747742,-1.3910396099090576
1789635191799713000,7.669713134765625,0.8916934132575989,-0.6099661588668823,-1.3876858949661255
1789635191809753000,7.679753173828125,0.8118084669113159,-0.8374254107475281,-1.4724899530410767
1789635191819793000,7.68979296875,0.7040777206420898,-1.1430723667144775,-1.6239503622055054
1789635191829833000,7.6998330078125,0.675605058670044,-1.2611188888549805,-1.7109017372131348
1789635191839872000,7.7098720703125,0.730212926864624,-1.2528053522109985,-1.6825287342071533
1789635191849912000,7.719912109375,0.7367739081382751,-1.0221936702728271,-1.5108286142349243
1789635191859951900,7.729951904296875,0.5888081192970276,-0.9396031498908997,-1.4241461753845215
1789635191869991200,7.7399912109375,0.36510634422302246,-1.075261116027832,-1.4214049577713013
1789635191880031200,7.75003125,0.1841709017753601,-0.9566508531570435,-1.4025697708129883
1789635191890071000,7.760071044921875,0.0214749313890934,-0.6540438532829285,-1.3124006986618042
1789635191900110000,7.770110107421875,-0.06653667986392975,-0.6607204079627991,-1.2626006603240967
1789635191910150100,7.780150146484375,-0.04182680696249008,-0.7968095541000366,-1.2274115085601807
1789635191920190200,7.790190185546875,-0.0026770094409585,-0.8957979083061218,-1.1831849813461304
1789635191930230000,7.80022998046875,0.0070765516720712185,-0.8628367781639099,-1.0643352270126343
1789635191940269000,7.81026904296875,-0.022370286285877228,-0.495787113904953,-0.9748048186302185
1789635191950309000,7.82030908203125,-0.015238340944051743,-0.2181515097618103,-0.9646518230438232
1789635191960349200,7.83034912109375,0.03509540110826492,-0.296330988407135,-1.0364277362823486
1789635191970388500,7.840388427734375,0.042992208153009415,-0.44593966007232666,-1.1243101358413696
1789635191980428300,7.85042822265625,0.04153173044323921,-0.6213953495025635,-1.1759980916976929
1789635191990468400,7.86046826171875,0.02599564753472805,-0.7624329328536987,-1.1118346452713013
1789635192000507400,7.87050732421875,-0.03759664297103882,-0.5543897151947021,-0.9495018720626831
1789635192010547500,7.88054736328125,-0.12126784026622772,-0.21835550665855408,-0.7758477926254272
1789635192020587300,7.890587158203125,-0.1443670392036438,-0.06845149397850037,-0.7366111874580383
1789635192030626300,7.900626220703125,-0.13078278303146362,-0.20759207010269165,-0.843333899974823
1789635192040666400,7.910666259765625,-0.061636198312044144,-0.4956986904144287,-0.9766892790794373
1789635192050706400,7.92070654296875,-0.026090722531080246,-0.6513511538505554,-0.9744884371757507
1789635192060745200,7.9307451171875,-0.022769760340452194,-0.47338512539863586,-0.9044252038002014
1789635192070785300,7.940785400390625,-0.035843752324581146,-0.3613792359828949,-0.8623421788215637
1789635192080825300,7.950825439453125,-0.0775536447763443,-0.2579987943172455,-0.8545793294906616
1789635192090865400,7.960865478515625,-0.12416748702526093,-0.25979694724082947,-0.8610396385192871
1789635192100904200,7.970904296875,-0.10777147114276886,-0.2502245008945465,-0.8453600406646729
1789635192110944300,7.9809443359375,-0.019749736413359642,-0.04650891199707985,-0.8164793848991394
1789635192120984300,7.990984375,0.11203119903802872,0.008080030791461468,-0.8124931454658508
1789635192131023400,8.0010234375,0.20999984443187714,0.032880187034606934,-0.8068315386772156
1789635192141063200,8.011063232421876,0.23426735401153564,0.14926671981811523,-0.7856202721595764
1789635192151103200,8.021103271484375,0.19493353366851807,0.2160542607307434,-0.7842705845832825
1789635192161142300,8.031142333984375,0.18171493709087372,0.2148910015821457,-0.7974990010261536
1789635192171182300,8.041182373046874,0.17787732183933258,0.315976083278656,-0.7638068199157715
1789635192181222100,8.05122216796875,0.19630399346351624,0.4080476760864258,-0.7195062041282654
1789635192191262200,8.06126220703125,0.22211907804012299,0.34115999937057495,-0.6780096292495728
1789635192201301200,8.07130126953125,0.17213022708892822,0.20540376007556915,-0.6149364113807678
1789635192211341300,8.08134130859375,0.10306753218173981,0.26982882618904114,-0.5398054122924805
1789635192221381000,8.091381103515625,0.09074535220861435,0.4130118191242218,-0.5279868841171265
1789635192231420200,8.101420166015625,0.16885000467300415,0.5182013511657715,-0.6041260957717896
1789635192241460200,8.111460205078124,0.19341526925563812,0.31629619002342224,-0.550891101360321
1789635192251500300,8.121500244140625,0.06067613139748573,0.05217771604657173,-0.29904529452323914
1789635192261539300,8.131539306640626,-0.11851652711629868,-0.04235544800758362,-0.03476729989051819
1789635192271579400,8.141579345703125,-0.21863193809986115,0.12120312452316284,0.09606234729290009
1789635192281619200,8.151619140625,-0.1939239352941513,0.2327701300382614,0.06375128030776978
1789635192291658500,8.161658447265625,-0.13554397225379944,0.24622201919555664,-0.00002210423735959921
1789635192301698300,8.1716982421875,-0.145942822098732,0.18890734016895294,0.05036330595612526
1789635192311738400,8.18173828125,-0.2682407796382904,0.10409551113843918,0.28072088956832886
1789635192321777400,8.19177734375,-0.38072922825813293,0.17931409180164337,0.5804857611656189
1789635192331817500,8.2018173828125,-0.41976025700569153,0.3202650845050812,0.7748869061470032
1789635192341857300,8.211857177734375,-0.4007761776447296,0.29096606373786926,0.8406403660774231
1789635192351897300,8.2218974609375,-0.3336120545864105,0.3927885591983795,0.8787952065467834
1789635192361936400,8.231936279296875,-0.2656354010105133,0.5063481330871582,0.9158586859703064
1789635192371976400,8.2419765625,-0.26638615131378174,0.3282862603664398,0.9801692366600037
1789635192382016300,8.252016357421875,-0.3064587414264679,0.2465256303548813,1.121588945388794
1789635192392055300,8.26205517578125,-0.33845582604408264,0.3664086163043976,1.3040013313293457
1789635192402095400,8.272095458984374,-0.3171558380126953,0.6073014140129089,1.3897615671157837
1789635192412135400,8.282135498046875,-0.22592900693416595,0.6403536200523376,1.2614080905914307
1789635192422174200,8.29217431640625,-0.15804636478424072,0.37358105182647705,1.1474910974502563
1789635192432214300,8.30221435546875,-0.20329266786575317,0.36579689383506775,1.269728660583496
1789635192442254300,8.31225439453125,-0.2962591052055359,0.507484495639801,1.4169628620147705
1789635192452294400,8.32229443359375,-0.33212175965309143,0.5389617681503296,1.4220843315124512
1789635192462333200,8.332333251953125,-0.2777075171470642,0.49760711193084717,1.3957270383834839
1789635192472373200,8.342373291015624,-0.1722937375307083,0.29289764165878296,1.446000099182129
1789635192482413300,8.352413330078125,-0.10301213711500168,0.319751113653183,1.5357449054718018
1789635192492452400,8.362452392578126,-0.067573182284832,0.5137325525283813,1.5722589492797852
1789635192502492200,8.3724921875,-0.06090862303972244,0.5450177788734436,1.542332410812378
1789635192512532200,8.3825322265625,-0.0668402835726738,0.43498820066452026,1.5676857233047485
1789635192522571300,8.3925712890625,-0.07417702674865723,0.3710763454437256,1.6727253198623657
1789635192532611300,8.402611328125,-0.05296121910214424,0.37684741616249084,1.7653801441192627
1789635192542651400,8.4126513671875,0.023617444559931755,0.3676416575908661,1.8029768466949463
1789635192552690200,8.422690185546875,0.1464349776506424,0.37349823117256165,1.8053441047668457
1789635192562730200,8.432730224609376,0.28497955203056335,0.47864487767219543,1.8146095275878906
1789635192572770300,8.442770263671875,0.42611855268478394,0.5216184258460999,1.7419770956039429
1789635192582809000,8.45280908203125,0.5335283875465393,0.3643196225166321,1.632035493850708
1789635192592849200,8.46284912109375,0.5464028716087341,0.17208202183246613,1.591840386390686
1789635192602889200,8.47288916015625,0.5127615928649902,0.10812726616859436,1.5951170921325684
1789635192612929300,8.48292919921875,0.5227785110473633,0.13248534500598907,1.543363094329834
1789635192622968300,8.49296826171875,0.49668192863464355,-0.004456799943000078,1.4877169132232666
1789635192633008000,8.503008056640626,0.4794113337993622,-0.21265794336795807,1.4352622032165527
1789635192643048200,8.513048095703125,0.45468708872795105,-0.4479077458381653,1.3915938138961792
1789635192653087500,8.52308740234375,0.364324152469635,-0.5224552154541016,1.4030659198760986
1789635192663127300,8.533127197265625,0.22086580097675323,-0.3990831971168518,1.4685224294662476
1789635192673167000,8.5431669921875,0.06486421823501587,-0.21696266531944275,1.5615538358688354
1789635192683206400,8.553206298828124,-0.06569059938192368,-0.08409436792135239,1.608288049697876
1789635192693246500,8.56324658203125,-0.1337849646806717,-0.08795968443155289,1.5537047386169434
1789635192703286500,8.57328662109375,-0.18043315410614014,-0.29481804370880127,1.4020107984542847
1789635192713325300,8.5833251953125,-0.22004368901252747,-0.2403806447982788,1.3398672342300415
1789635192723365400,8.593365478515626,-0.23710735142230988,0.07867377251386642,1.4189460277557373
1789635192733405400,8.603405517578125,-0.21523241698741913,0.3362363278865814,1.5321791172027588
1789635192743445500,8.613445556640626,-0.20396405458450317,0.33501341938972473,1.5985568761825562
1789635192753484300,8.623484375,-0.20734067261219025,0.23655341565608978,1.5853263139724731
1789635192763524400,8.6335244140625,-0.2229665070772171,0.14922037720680237,1.5101475715637207
1789635192773564400,8.643564453125,-0.21039319038391113,0.0907895565032959,1.3944694995880127
1789635192783603200,8.653603271484375,-0.1714649647474289,0.07988231629133224,1.2939002513885498
1789635192793643300,8.663643310546876,-0.08744968473911285,0.12784957885742188,1.229036569595337
1789635192803683300,8.673683349609375,0.02111460641026497,0.197572723031044,1.1972557306289673
1789635192813722400,8.683722412109375,0.1332494020462036,0.3685641884803772,1.1715078353881836
1789635192823762400,8.693762451171875,0.2635248601436615,0.5817750096321106,1.0940572023391724
1789635192833802200,8.70380224609375,0.35084882378578186,0.4798387885093689,0.9654185175895691
1789635192843841300,8.71384130859375,0.34300556778907776,0.26261672377586365,0.8543471097946167
1789635192853881300,8.72388134765625,0.2676146626472473,0.23218663036823273,0.8152897357940674
1789635192863921400,8.73392138671875,0.18040679395198822,0.17849065363407135,0.8225324749946594
1789635192873961200,8.743961181640625,0.12675555050373077,0.1535424143075943,0.8579376339912415
1789635192884000300,8.754000244140625,0.10097881406545639,0.34105587005615234,0.8894127011299133
1789635192894040300,8.764040283203125,0.06689994037151337,0.433851033449173,0.8701125383377075
1789635192904080400,8.774080322265625,0.046247657388448715,0.31134510040283203,0.7752885222434998
1789635192914119200,8.784119140625,0.005119128152728081,0.23616699874401093,0.6595746874809265
1789635192924159200,8.7941591796875,-0.04460102319717407,0.27853310108184814,0.6186376810073853
1789635192934199300,8.80419921875,-0.07307873666286469,0.28946298360824585,0.6834992170333862
1789635192944238000,8.814238037109375,-0.06687037646770477,0.25521206855773926,0.7795668840408325
1789635192954278100,8.824278076171876,-0.06310573220252991,0.2317056655883789,0.8175531625747681
1789635192964318700,8.834318603515625,-0.056474726647138596,0.1505546271800995,0.7913892269134521
1789635192974357500,8.844357421875,-0.06987575441598892,0.07034660130739212,0.7233518362045288
1789635192984397600,8.8543974609375,-0.12799125909805298,0.020650150254368782,0.599983811378479
1789635192994437600,8.864437744140625,-0.21976538002490997,0.03057628497481346,0.4376322031021118
1789635193004476700,8.8744765625,-0.27044054865837097,0.0788857638835907,0.3074563443660736
1789635193014516500,8.8845166015625,-0.24824069440364838,0.24370001256465912,0.21400469541549683
1789635193024556500,8.894556640625,-0.13998879492282867,0.37535789608955383,0.1292509287595749
1789635193034596600,8.9045966796875,-0.06174672022461891,0.4899718463420868,-0.021470138803124428
1789635193044635600,8.9146357421875,-0.026083532720804214,0.6843772530555725,-0.22368928790092468
1789635193054675500,8.924675537109374,0.014729677699506283,0.7487615942955017,-0.440679132938385
1789635193064715500,8.934715576171875,0.09346070885658264,0.5242941379547119,-0.6356701850891113
1789635193074754800,8.9447548828125,0.15407904982566833,0.23018047213554382,-0.7679014801979065
1789635193084795000,8.954794921875,0.1838798224925995,0.1191365122795105,-0.815917432308197
1789635193094834700,8.964834716796876,0.12445377558469772,0.27970513701438904,-0.8173427581787109
1789635193104873700,8.974873779296875,0.07120440155267715,0.5147280693054199,-0.7703875303268433
1789635193114913800,8.984913818359376,0.09218931198120117,0.6455776691436768,-0.6702334880828857
1789635193124953900,8.994953857421875,0.16356736421585083,0.6411083340644836,-0.5825297236442566
1789635193134992600,9.00499267578125,0.20357362926006317,0.6219554543495178,-0.5291152596473694
1789635193145032700,9.01503271484375,0.24058197438716888,0.5972937941551208,-0.4961032271385193
1789635193155072800,9.02507275390625,0.2960926592350006,0.40833237767219543,-0.4481322467327118
1789635193165112800,9.03511279296875,0.3312160074710846,0.10947589576244354,-0.4080681800842285
1789635193175151600,9.045151611328125,0.30514365434646606,-0.16725504398345947,-0.37876036763191223
1789635193185191700,9.055191650390626,0.23929114639759064,-0.3485763669013977,-0.37349236011505127
1789635193195231700,9.065231689453125,0.18010905385017395,-0.29618826508522034,-0.4056931734085083
1789635193205270800,9.075270751953125,0.1713922619819641,-0.006829143967479467,-0.47811225056648254
1789635193215310600,9.085310546875,0.19447466731071472,0.3432212769985199,-0.5687239170074463
1789635193225350700,9.0953505859375,0.2433687150478363,0.5250773429870605,-0.6831753849983215
1789635193235389700,9.1053896484375,0.27466458082199097,0.5474225878715515,-0.7786811590194702
1789635193245429800,9.1154296875,0.2837353050708771,0.4471530020236969,-0.8282934427261353
1789635193255469600,9.125469482421876,0.2639003396034241,0.1998760998249054,-0.8598063588142395
1789635193265508600,9.135508544921874,0.25084954500198364,-0.055689360946416855,-0.8919376730918884
1789635193275548700,9.145548583984375,0.26044517755508423,-0.30360355973243713,-0.879280686378479
1789635193285588700,9.155588623046874,0.24764814972877502,-0.4348055124282837,-0.8112167119979858
1789635193295628800,9.16562890625,0.1841229647397995,-0.32993078231811523,-0.7316411733627319
1789635193305667600,9.17566748046875,0.05994163081049919,-0.014057229273021221,-0.6760112047195435
1789635193315707600,9.185707763671875,-0.07832968980073929,0.3877948820590973,-0.6400955319404602
1789635193325747700,9.195747802734376,-0.16368533670902252,0.5627490878105164,-0.584358274936676
1789635193335786500,9.205786376953125,-0.17935563623905182,0.3392670154571533,-0.5372408032417297
1789635193345826600,9.21582666015625,-0.19330234825611115,-0.16672533750534058,-0.5548688173294067
1789635193355866600,9.22586669921875,-0.17932555079460144,-0.5911455750465393,-0.6210893988609314
1789635193365905700,9.23590576171875,-0.1285601109266281,-0.7719377279281616,-0.6958834528923035
1789635193375945500,9.245945556640624,-0.02744787000119686,-0.7768914699554443,-0.751879096031189
1789635193385985500,9.255985595703125,0.08505390584468842,-0.611631453037262,-0.8150556683540344
1789635193396024600,9.266024658203126,0.15533579885959625,-0.189949169754982,-0.9637482166290283
1789635193406064600,9.276064697265625,0.17610099911689758,0.10961384326219559,-1.0803104639053345
1789635193416104400,9.2861044921875,0.1815359741449356,0.1871134340763092,-1.1344456672668457
1789635193426143700,9.296143798828124,0.13287842273712158,0.2432267665863037,-1.1461198329925537
1789635193436183800,9.306183837890625,0.056354619562625885,0.28521814942359924,-1.1224230527877808
1789635193446223600,9.3162236328125,0.03707493096590042,-0.012893960811197758,-1.0883418321609497
1789635193456263700,9.326263671875,0.0070304786786437035,-0.4570980370044708,-1.1307851076126099
1789635193466302700,9.336302734375,-0.019693277776241302,-0.7382418513298035,-1.2217764854431152
1789635193476342800,9.3463427734375,-0.08170205354690552,-0.624556303024292,-1.2464890480041504
1789635193486382800,9.3563828125,-0.14787308871746063,-0.24953286349773407,-1.163966178894043
1789635193496421600,9.366421630859374,-0.21984633803367615,-0.2631344199180603,-1.051703929901123
1789635193506461700,9.376461669921875,-0.23021136224269867,-0.6527860760688782,-0.9886226654052734
1789635193516501800,9.386501708984374,-0.22281283140182495,-0.7608781456947327,-0.9538547992706299
1789635193526540800,9.396540771484375,-0.2527715265750885,-0.5366674065589905,-0.9290011525154114
1789635193536580600,9.40658056640625,-0.26527348160743713,-0.2858823537826538,-0.9781878590583801
1789635193546620700,9.41662060546875,-0.22926966845989227,-0.5183411836624146,-1.082127332687378
1789635193556659700,9.42665966796875,-0.11932878941297531,-0.9726966619491577,-1.1725317239761353
1789635193566699800,9.43669970703125,-0.005662945564836264,-1.3931903839111328,-1.1751956939697266
1789635193576739800,9.44673974609375,0.06214619427919388,-1.412155270576477,-1.0785506963729858
1789635193586779600,9.456779541015624,0.09820326417684555,-1.1325715780258179,-1.023413062095642
1789635193596818700,9.466818603515625,0.12572038173675537,-0.7617956399917603,-1.0408141613006592
1789635193606858800,9.476858642578126,0.18428301811218262,-0.6627481579780579,-1.1027207374572754
1789635193616898800,9.48689892578125,0.2436898946762085,-0.5453277826309204,-1.1225814819335938
1789635193626937600,9.4969375,0.2970969080924988,-0.30052095651626587,-1.0903245210647583
1789635193636977700,9.506977783203125,0.37415602803230286,-0.4385627210140228,-1.1091922521591187
1789635193647017700,9.517017822265625,0.4818263053894043,-0.7579724192619324,-1.1861528158187866
1789635193657056500,9.527056396484374,0.5498889684677124,-1.079011082649231,-1.2886828184127808
1789635193667096600,9.5370966796875,0.5208719372749329,-1.2290618419647217,-1.375380516052246
1789635193677136600,9.54713671875,0.45403701066970825,-1.208091378211975,-1.401466727256775
1789635193687175700,9.55717578125,0.38490426540374756,-1.0385438203811646,-1.3511499166488647
1789635193697215500,9.567215576171876,0.3392523527145386,-0.8662083148956299,-1.3376126289367676
1789635193707255600,9.577255615234375,0.3383106589317322,-0.7911934852600098,-1.3535654544830322
1789635193717295600,9.587295654296875,0.403847873210907,-0.8059031367301941,-1.319584608078003
1789635193727334700,9.597334716796874,0.46961116790771484,-0.6974717378616333,-1.2392910718917847
1789635193737374700,9.607374755859375,0.5060533285140991,-0.45806264877319336,-1.1345452070236206
1789635193747414500,9.61741455078125,0.5202420949935913,-0.4318408966064453,-1.0920376777648926
1789635193757453600,9.62745361328125,0.5324223637580872,-0.4710783064365387,-1.13324773311615
1789635193767493600,9.63749365234375,0.4733017683029175,-0.5095423460006714,-1.25331711769104
1789635193777533700,9.64753369140625,0.391628235578537,-0.40292030572891235,-1.4340094327926636
1789635193787572700,9.65757275390625,0.3470575511455536,-0.21857868134975433,-1.5143977403640747
1789635193797612500,9.667612548828124,0.3296862840652466,-0.2850674092769623,-1.5050849914550781
1789635193807652600,9.677652587890625,0.28444263339042664,-0.4725459814071655,-1.4698917865753174
1789635193817691600,9.687691650390626,0.14774338901042938,-0.4883052408695221,-1.3170785903930664
1789635193827731700,9.697731689453125,0.0060325926169753075,-0.12462422251701355,-1.1616601943969727
1789635193837771800,9.707771728515626,-0.0444023534655571,0.13748808205127716,-1.1393530368804932
1789635193847810800,9.717810791015625,-0.08304428309202194,0.1126122996211052,-1.1840739250183105
1789635193857851000,9.727850830078125,-0.13193486630916595,0.021983062848448753,-1.147711157798767
1789635193867890700,9.737890625,-0.16369253396987915,0.021314876154065132,-1.0436574220657349
1789635193877930800,9.7479306640625,-0.18816430866718292,0.18339325487613678,-0.9585592746734619
1789635193887969800,9.7579697265625,-0.19167488813400269,0.2580406069755554,-0.9145162105560303
1789635193898009900,9.768009765625,-0.22171029448509216,0.33526667952537537,-0.8371031880378723
1789635193908049700,9.778049560546876,-0.24454742670059204,0.25409379601478577,-0.7492555975914001
1789635193918088700,9.788088623046875,-0.29329952597618103,0.12387747317552567,-0.6098290085792542
1789635193928128800,9.798128662109375,-0.323530912399292,0.18422150611877441,-0.43363213539123535
1789635193938168800,9.8081689453125,-0.28193289041519165,0.34423592686653137,-0.2829699218273163
1789635193948207600,9.81820751953125,-0.2071790248155594,0.4531456530094147,-0.2381981909275055
1789635193958247700,9.82824755859375,-0.13483664393424988,0.528771698474884,-0.22642488777637482
1789635193968287200,9.838287353515625,-0.0908830314874649,0.5181565880775452,-0.1886679232120514
1789635193978326000,9.848325927734376,-0.1470712125301361,0.2278347611427307,-0.15050002932548523
1789635193988366000,9.858365966796875,-0.24331411719322205,0.07400338351726532,-0.0704059898853302
1789635193998406100,9.86840625,-0.29687801003456116,0.16823507845401764,-0.006982275750488043
1789635194008446200,9.8784462890625,-0.20755265653133392,0.5740821957588196,-0.03286420553922653
1789635194018485000,9.888485107421875,-0.12022308260202408,0.5695401430130005,-0.07981174439191818
1789635194028525000,9.898525146484374,-0.06904218345880508,0.39851996302604675,-0.049791790544986725
1789635194038565000,9.908565185546875,-0.11727496236562729,0.2322351038455963,0.07032503187656403
1789635194048604200,9.918604248046876,-0.21908095479011536,0.3047527074813843,0.22221708297729492
1789635194058644000,9.92864404296875,-0.333914577960968,0.3525362014770508,0.43638476729393005
1789635194068684000,9.93868408203125,-0.3660019636154175,0.48926371335983276,0.6779119372367859
1789635194078723000,9.94872314453125,-0.28710952401161194,0.5625624060630798,0.855966329574585
1789635194088763100,9.95876318359375,-0.23725569248199463,0.5806945562362671,1.0618270635604858
1789635194098803200,9.96880322265625,-0.2749881446361542,0.6583512425422668,1.28738272190094
1789635194108842200,9.97884228515625,-0.3072904348373413,0.7756192684173584,1.4173178672790527
1789635194118882300,9.98888232421875,-0.2805384397506714,0.9338518381118774,1.4062172174453735
1789635194128922000,9.998922119140625,-0.20299358665943146,0.9409291744232178,1.3805960416793823
1789635194138962200,10.008962158203126,-0.1574934870004654,0.7610848546028137,1.4120309352874756
1789635194149001200,10.019001220703124,-0.1881893426179886,0.5386821031570435,1.487555980682373
1789635194159041300,10.029041259765625,-0.25203731656074524,0.4042321741580963,1.6011043787002563
1789635194169081000,10.0390810546875,-0.31161728501319885,0.5314249992370605,1.7616525888442993
1789635194179120000,10.0491201171875,-0.3084483742713928,0.7246661186218262,1.8349640369415283
1789635194189160200,10.05916015625,-0.22762463986873627,0.5782681703567505,1.7172549962997437
1789635194199200300,10.0692001953125,-0.11713647842407227,0.256912499666214,1.596705436706543
1789635194209239300,10.0792392578125,-0.03720782324671745,0.2146577090024948,1.6342484951019287
1789635194219279400,10.089279296875,-0.02593466080725193,0.504271388053894,1.732326865196228
1789635194229319200,10.099319091796875,-0.06267856061458588,0.872841477394104,1.7862497568130493
1789635194239358200,10.109358154296874,-0.012878780253231525,0.8046789169311523,1.7356363534927368
1789635194249398300,10.119398193359375,0.07549981772899628,0.25817161798477173,1.729347586631775
1789635194259438300,10.129438232421874,0.034929756075143814,0.29245102405548096,1.9161840677261353
1789635194269477000,10.13947705078125,-0.05368240177631378,0.6756759285926819,2.049834966659546
1789635194279517200,10.14951708984375,-0.08241791278123856,0.5925333499908447,1.856115698814392
1789635194289557200,10.15955712890625,-0.12369131296873093,0.1905031055212021,1.584376573562622
1789635194299597300,10.169597412109376,-0.23442742228507996,0.2055227905511856,1.6822423934936523
1789635194309636000,10.179635986328124,-0.33844462037086487,0.2699233591556549,2.036072015762329
1789635194319676200,10.18967626953125,-0.3949803411960602,0.19942282140254974,2.2678396701812744
1789635194329716200,10.19971630859375,-0.3960685133934021,0.18490992486476898,2.237434148788452
1789635194339755000,10.209755126953125,-0.3314402401447296,0.25388818979263306,2.082383155822754
1789635194349795000,10.219795166015626,-0.21174660325050354,0.2811752259731293,1.9577786922454834
1789635194359835100,10.229835205078125,-0.09822457283735275,0.3887205719947815,1.9091205596923828
1789635194369874200,10.239874267578125,-0.04927913099527359,0.6179993152618408,1.9083548784255981
1789635194379914200,10.249914306640624,-0.04429609328508377,0.5250107645988464,1.8114925622940063
1789635194389954000,10.2599541015625,-0.04598426818847656,0.0060051619075238705,1.6244462728500366
1789635194399993000,10.2699931640625,-0.08148340880870819,-0.2204279750585556,1.5911569595336914
1789635194410033200,10.280033203125,-0.12292352318763733,-0.004643754102289677,1.704582929611206
1789635194420073200,10.2900732421875,-0.03736654669046402,0.14020903408527374,1.6789169311523438
1789635194430113000,10.300113037109375,0.1323913335800171,0.02135801874101162,1.5438944101333618
1789635194440152000,10.310152099609375,0.17940837144851685,0.03814765065908432,1.4423637390136719
1789635194450192100,10.320192138671874,0.18168777227401733,0.4466714859008789,1.4098103046417236
1789635194460232200,10.330232177734375,0.2606603503227234,0.7454712390899658,1.3392690420150757
1789635194470271200,10.340271240234374,0.42258745431900024,0.32052314281463623,1.1238553524017334
1789635194480311000,10.35031103515625,0.5061933994293213,-0.19109831750392914,0.9629763960838318
1789635194490351000,10.36035107421875,0.43784046173095703,-0.03309803083539009,1.0430289506912231
1789635194500390400,10.370390380859375,0.33021944761276245,0.6134370565414429,1.2630232572555542
1789635194510430200,10.38043017578125,0.27544090151786804,1.0093923807144165,1.3955237865447998
1789635194520470000,10.390469970703125,0.319116473197937,0.6619217395782471,1.3090797662734985
1789635194530509300,10.40050927734375,0.3598756194114685,0.00771810719743371,1.1103906631469727
1789635194540549400,10.41054931640625,0.26154905557632446,0.03701847046613693,1.0319695472717285
1789635194550589200,10.420589111328125,0.09018369019031525,0.7391238808631897,1.0519472360610962
1789635194560629200,10.430629150390626,0.06302770227193832,0.9226428270339966,1.0114424228668213
1789635194570668300,10.440668212890625,0.22433963418006897,0.39209800958633423,0.880998432636261
1789635194580708400,10.450708251953126,0.2548975348472595,-0.08859804272651672,0.6329556107521057
1789635194590748200,10.460748046875,0.23941151797771454,-0.21933235228061676,0.39022713899612427
1789635194600787200,10.470787109375,0.25867974758148193,-0.01727805659174919,0.26397278904914856
1789635194610827300,10.4808271484375,0.21279402077198029,0.36239710450172424,0.18500500917434692
1789635194620867300,10.490867431640625,0.17261065542697906,0.6057961583137512,0.08773810416460037
1789635194630906000,10.500906005859376,0.2175714671611786,0.6232731938362122,0.026137061417102814
1789635194640946200,10.5109462890625,0.29108643531799316,0.5814279913902283,0.010786334984004498
1789635194650986200,10.520986328125,0.2665523290634155,0.5939450860023499,0.01028672605752945
1789635194661025300,10.531025390625,0.19510610401630402,0.47729119658470154,0.02123151905834675
1789635194671065000,10.541065185546875,0.13892486691474915,0.1387573480606079,0.04171761870384216
1789635194681105200,10.551105224609374,0.06631377339363098,-0.2654641568660736,0.046833284199237823
1789635194691144200,10.561144287109375,-0.08093798905611038,-0.355317622423172,-0.006353503558784723
1789635194701184300,10.571184326171876,-0.12485511600971222,-0.3197082281112671,-0.09800831973552704
1789635194711224000,10.58122412109375,-0.10906736552715302,-0.3647516071796417,-0.20723147690296173
1789635194721264000,10.59126416015625,-0.13067226111888885,-0.208182230591774,-0.32632166147232056
1789635194731303200,10.60130322265625,-0.11371671408414841,0.03557423874735832,-0.38915547728538513
1789635194741343200,10.61134326171875,-0.0674823746085167,0.1117696762084961,-0.3699357211589813
1789635194751383000,10.621383056640624,-0.04915156587958336,0.24782444536685944,-0.3339063227176666
1789635194761422000,10.631422119140625,-0.023733824491500854,0.34898167848587036,-0.3356693387031555
1789635194771462100,10.641462158203124,-0.025125326588749886,0.41426828503608704,-0.3579155206680298
1789635194781502200,10.651502197265625,-0.08498386293649673,0.41178327798843384,-0.4459457993507385
1789635194791541000,10.661541015625,-0.12776941061019897,0.296184778213501,-0.5948785543441772
1789635194801581000,10.6715810546875,-0.1166033148765564,0.16066637635231018,-0.7275708317756653
1789635194811621000,10.68162109375,-0.06506048887968063,0.0675974190235138,-0.8005696535110474
1789635194821660200,10.69166015625,-0.0018500980222597718,0.0921110212802887,-0.8155733942985535
1789635194831700000,10.701699951171875,0.07024779915809631,0.15184839069843292,-0.7684798836708069
1789635194841740000,10.711739990234374,0.12035570293664932,0.17097467184066772,-0.6873597502708435
1789635194851780000,10.721780029296875,0.11960389465093613,0.17796839773654938,-0.5898481011390686
1789635194861819400,10.7318193359375,0.0745229721069336,0.09396271407604218,-0.4650915265083313
1789635194871859200,10.741859130859375,0.024230238050222397,-0.10934726148843765,-0.38856610655784607
1789635194881899000,10.75189892578125,-0.02702123112976551,-0.2888110280036926,-0.41712531447410583
1789635194891938300,10.761938232421874,-0.04609346017241478,-0.3610793650150299,-0.5166410207748413
1789635194901978400,10.771978271484375,-0.06758437305688858,-0.357858270406723,-0.6408396363258362
1789635194912018200,10.78201806640625,-0.07703033834695816,-0.24048663675785065,-0.7789618372917175
1789635194922057200,10.79205712890625,-0.07758986949920654,-0.03304183855652809,-0.8808261156082153
1789635194932097300,10.80209716796875,-0.07812516391277313,0.13399001955986023,-0.9059240221977234
1789635194942137300,10.812137451171875,-0.04688148945569992,0.09030432999134064,-0.8689377903938293
1789635194952176000,10.822176025390625,0.016210129484534264,-0.055561527609825134,-0.8322181105613708
1789635194962216200,10.83221630859375,0.06507354229688644,-0.1759750247001648,-0.8285828828811646
1789635194972256800,10.8422568359375,0.08470902591943741,-0.2620539963245392,-0.8650160431861877
1789635194982296800,10.852296875,0.10449684411287308,-0.3334139287471771,-0.9602410793304443
1789635194992336000,10.8623359375,0.08810216188430786,-0.23833534121513367,-1.0671379566192627
1789635195002375700,10.872375732421874,0.08661318570375443,-0.15719467401504517,-1.1626200675964355
1789635195012415700,10.882415771484375,0.11141254752874374,-0.21207843720912933,-1.2163490056991577
1789635195022454800,10.892454833984376,0.16260728240013123,-0.10316872596740723,-1.2189834117889404
1789635195032494800,10.902494873046875,0.18368807435035706,0.1602993905544281,-1.1928164958953857
1789635195042535000,10.912534912109376,0.21040144562721252,0.2458702176809311,-1.178728699684143
1789635195052573700,10.92257373046875,0.2391236275434494,0.1520417332649231,-1.1600713729858398
1789635195062613800,10.93261376953125,0.25704270601272583,0.017718276008963585,-1.1499146223068237
1789635195072653800,10.94265380859375,0.24813364446163177,-0.09551720321178436,-1.1402760744094849
1789635195082692600,10.952692626953125,0.22226662933826447,-0.22122825682163239,-1.1300910711288452
1789635195092732700,10.962732666015626,0.20057304203510284,-0.4509924650192261,-1.1523956060409546
1789635195102772700,10.972772705078125,0.19071002304553986,-0.7177006006240845,-1.209006905555725
1789635195112811800,10.982811767578125,0.16422942280769348,-0.7397198677062988,-1.2068204879760742
1789635195122851600,10.9928515625,0.12551185488700867,-0.6423224806785583,-1.106624960899353
1789635195132891600,11.0028916015625,0.10828626155853271,-0.8740159273147583,-1.0521177053451538
1789635195142931700,11.012931640625,0.08060962706804276,-1.2765671014785767,-1.0915255546569824
1789635195152970800,11.022970703125,0.01889565959572792,-1.4475116729736328,-1.1517695188522339
1789635195163010600,11.033010498046876,-0.05439639464020729,-1.329437255859375,-1.1450295448303223
1789635195173050600,11.043050537109375,-0.0995446965098381,-1.003896713256836,-1.0666996240615845
1789635195183089700,11.053089599609375,-0.08735434710979462,-0.7891486883163452,-1.0157378911972046
1789635195193129700,11.063129638671874,-0.03359045088291168,-0.942413866519928,-1.1341278553009033
1789635195203169800,11.073169677734375,0.01239115558564663,-1.165132761001587,-1.3256746530532837
1789635195213208600,11.08320849609375,0.037764690816402435,-1.2339743375778198,-1.4457550048828125
1789635195223248600,11.09324853515625,0.06317736953496933,-1.2102538347244263,-1.4399999380111694
1789635195233288700,11.103288818359376,0.12928208708763123,-1.0219097137451172,-1.3521822690963745
1789635195243327700,11.11332763671875,0.18421244621276855,-0.5673760771751404,-1.2415907382965088
1789635195253367600,11.123367431640625,0.22562353312969208,-0.20308414101600647,-1.2415074110031128
1789635195263407600,11.13340771484375,0.24048371613025665,-0.2968364655971527,-1.3581749200820923
1789635195273447700,11.14344775390625,0.2255396544933319,-0.3857570290565491,-1.5245784521102905
1789635195283486700,11.15348681640625,0.30018433928489685,-0.688812255859375,-1.7103022336959839
1789635195293526500,11.163526611328125,0.3488897979259491,-1.0340287685394287,-1.8160358667373657
1789635195303566600,11.173566650390624,0.30551305413246155,-0.8823870420455933,-1.8217486143112183
1789635195313606000,11.18360595703125,0.2427644431591034,-0.5506926774978638,-1.773188829421997
1789635195323646000,11.19364599609375,0.20279012620449066,-0.37334802746772766,-1.7571941614151
1789635195333685800,11.203685791015625,0.18418927490711212,-0.15368570387363434,-1.787985920906067
1789635195343724800,11.213724853515625,0.19043439626693726,-0.13435514271259308,-1.8834527730941772
1789635195353764900,11.223764892578124,0.22384721040725708,-0.3611510097980499,-1.9575093984603882
1789635195363805000,11.233804931640625,0.23444019258022308,-0.4806275963783264,-1.916364312171936
1789635195373843700,11.24384375,0.20974284410476685,-0.4568815231323242,-1.7985706329345703
1789635195383883800,11.2538837890625,0.17100930213928223,-0.4267004430294037,-1.6726042032241821
1789635195393923800,11.263923828125,0.06568527221679688,-0.27363288402557373,-1.5015355348587036
1789635195403964000,11.2739638671875,-0.024470988661050797,-0.11478330940008163,-1.334021806716919
1789635195414002700,11.284002685546875,-0.049144644290208817,-0.006460828706622124,-1.261001467704773
1789635195424042800,11.294042724609374,-0.05314497649669647,0.04048750549554825,-1.165198802947998
1789635195434082800,11.304082763671875,-0.0729634240269661,-0.03906377777457237,-1.0410422086715698
1789635195444121600,11.31412158203125,-0.0979798287153244,-0.03314650058746338,-0.938532829284668
1789635195454161700,11.32416162109375,-0.08180192112922668,0.3346618711948395,-0.840644359588623
1789635195464201700,11.33420166015625,-0.03153209388256073,0.5598718523979187,-0.8076632618904114
1789635195474240800,11.34424072265625,0.03851037472486496,0.6152104735374451,-0.7859353423118591
1789635195484280800,11.35428076171875,0.0807100236415863,0.5997800827026367,-0.7306089401245117
1789635195494320600,11.364320556640624,0.12413526326417923,0.6497718691825867,-0.5658183693885803
1789635195504359700,11.374359619140625,0.12924613058567047,0.5363526344299316,-0.384122371673584
1789635195514399700,11.384399658203124,0.0771845355629921,0.3424593508243561,-0.24734428524971008
1789635195524439800,11.394439697265625,0.0002609897928778082,0.22976236045360565,-0.06440482288599014
1789635195534479600,11.404479736328126,-0.09769726544618607,0.30905798077583313,0.08186797052621841
1789635195544518700,11.4145185546875,-0.12215892970561981,0.5164119601249695,0.03478354588150978
1789635195554558700,11.424558837890626,-0.10192609578371048,0.4803714156150818,-0.03598436713218689
1789635195564598800,11.434598876953125,-0.10957895964384079,0.3775339722633362,0.05220834165811539
1789635195574637600,11.444637451171875,-0.19529412686824799,0.2390650510787964,0.2886914610862732
1789635195584677600,11.454677734375,-0.3303784430027008,0.39408233761787415,0.6451854109764099
1789635195594717700,11.4647177734375,-0.411883145570755,0.6363223791122437,1.006056785583496
1789635195604756700,11.4747568359375,-0.3639926016330719,0.721246600151062,1.182931900024414
1789635195614796500,11.484796630859375,-0.28154271841049194,0.5514570474624634,1.2594842910766602
1789635195624836600,11.494836669921876,-0.3054874837398529,0.48789429664611816,1.4884485006332397
1789635195634875600,11.504875732421874,-0.3538145422935486,0.76593416929245,1.8499726057052612
1789635195644915700,11.514915771484375,-0.3138870894908905,1.0734951496124268,2.0027785301208496
1789635195654955500,11.52495556640625,-0.18620529770851135,1.0861082077026367,1.9299215078353882
1789635195664994800,11.534994873046875,-0.07968497276306152,0.8705937266349792,1.8655225038528442
1789635195675035000,11.545034912109376,-0.04291364550590515,0.7424302101135254,1.9303946495056152
1789635195685074700,11.55507470703125,-0.06232729181647301,0.842058002948761,2.003023147583008
1789635195695114500,11.565114501953126,-0.1385299116373062,0.9118056297302246,1.948089838027954
1789635195705153800,11.57515380859375,-0.22344240546226501,0.5980562567710876,1.8236287832260132
1789635195715193900,11.58519384765625,-0.30884066224098206,0.2562485635280609,1.828559398651123
1789635195725234000,11.59523388671875,-0.40850281715393066,0.3329619765281677,1.9660253524780273
1789635195735272700,11.605272705078125,-0.4731651544570923,0.5442904829978943,2.0319812297821045
1789635195745312800,11.615312744140626,-0.46383318305015564,0.6493881344795227,1.9458807706832886
1789635195755352800,11.625352783203125,-0.38627952337265015,0.6137813925743103,1.8613839149475098
1789635195765392000,11.635391845703126,-0.27505072951316833,0.5944231152534485,1.9030773639678955
1789635195775431700,11.645431640625,-0.17411907017230988,0.784597635269165,2.029928684234619
1789635195785471700,11.6554716796875,-0.07079268246889114,0.9245323538780212,2.081120729446411
1789635195795510800,11.6655107421875,0.07543163746595383,0.6991903185844421,1.9856616258621216
1789635195805550800,11.67555078125,0.1774890273809433,0.4167990982532501,1.8460166454315186
1789635195815590700,11.685590576171874,0.1984339952468872,0.4051152765750885,1.8129091262817383
1789635195825630700,11.695630615234375,0.19035476446151733,0.6421840190887451,1.8433187007904053
1789635195835669800,11.705669677734376,0.2361329048871994,0.5824559330940247,1.7706146240234375
1789635195845709800,11.715709716796875,0.2641903758049011,0.130697563290596,1.584298014640808
1789635195855749600,11.72574951171875,0.20929595828056335,-0.10360841453075409,1.509658694267273
1789635195865788700,11.73578857421875,0.13781778514385223,0.11783049255609512,1.6990448236465454
1789635195875828700,11.745828857421875,0.12872496247291565,0.44477665424346924,1.9754167795181274
1789635195885868800,11.755868896484374,0.2387867420911789,0.5268792510032654,2.0194151401519775
1789635195895907600,11.765907470703125,0.3919331431388855,0.2714884877204895,1.8045775890350342
1789635195905947600,11.77594775390625,0.4752024710178375,0.18720771372318268,1.6368932723999023
1789635195915987700,11.78598779296875,0.46118679642677307,0.35897892713546753,1.6648175716400146
1789635195926026800,11.79602685546875,0.46341532468795776,0.10970386117696762,1.5647528171539307
1789635195936066600,11.806066650390624,0.4270362854003906,-0.5463261604309082,1.3709486722946167
1789635195946106600,11.816106689453125,0.141793355345726,-0.5175070762634277,1.377259373664856
1789635195956146700,11.826146728515624,-0.06957215070724487,0.3580132722854614,1.686876893043518
1789635195966185700,11.836185791015625,-0.1007646918296814,0.8131653666496277,1.978133201599121
1789635195976225300,11.846225341796876,0.05451703816652298,0.35391440987586975,1.9483270645141602
1789635195986265300,11.856265380859375,0.13291996717453003,-0.11487199366092682,1.6987191438674927
1789635195996304400,11.866304443359375,0.10953767597675323,-0.037281591445207596,1.514826774597168
1789635196006344200,11.87634423828125,0.09512971341609955,0.509208619594574,1.470131278038025
1789635196016384300,11.88638427734375,0.10308670252561569,0.7063446044921875,1.4725768566131592
1789635196026423600,11.896423583984374,0.15793929994106293,0.05636899918317795,1.3974226713180542
1789635196036463400,11.90646337890625,0.09927012771368027,-0.4757574796676636,1.308085322380066
1789635196046503400,11.91650341796875,-0.0007153250626288354,-0.2172423005104065,1.3725305795669556
1789635196056542500,11.92654248046875,-0.04246357083320618,0.27898502349853516,1.415684461593628
1789635196066582500,11.93658251953125,-0.10981971025466919,0.6796014308929443,1.2582850456237793
1789635196076622300,11.946622314453125,-0.20949463546276093,0.8389514088630676,0.9689474701881409
1789635196086661400,11.956661376953125,-0.19233988225460052,0.5831457376480103,0.7393925786018372
1789635196096701400,11.966701416015624,-0.11484189331531525,0.3006194829940796,0.5999811887741089
1789635196106741500,11.976741455078125,0.059130165725946426,-0.06398670375347137,0.44567787647247314
1789635196116781300,11.98678125,0.1857762634754181,-0.49090632796287537,0.251941442489624
1789635196126820400,11.9968203125,0.05080459266901016,-0.2344580441713333,0.04890495911240578
1789635196136860400,12.0068603515625,-0.0586840845644474,0.24502786993980408,-0.0957009568810463
1789635196146900500,12.016900390625,-0.05349331721663475,0.3856654167175293,-0.19141896069049835
1789635196156939300,12.026939208984375,-0.003519367426633835,0.44442564249038696,-0.27967825531959534
1789635196166979300,12.036979248046874,0.1308315098285675,0.4594797194004059,-0.39409777522087097
1789635196177019400,12.047019287109375,0.2752099931240082,0.4625511169433594,-0.5258286595344543
1789635196187058400,12.057058349609376,0.31493157148361206,0.594444990158081,-0.7012638449668884
1789635196197098200,12.06709814453125,0.26909005641937256,0.4974907338619232,-0.9006816148757935
1789635196207138300,12.07713818359375,0.1784570962190628,0.120118148624897,-1.0223268270492554
1789635196217177300,12.08717724609375,0.09264924377202988,-0.1935707926750183,-1.0264893770217896
1789635196227217400,12.097217529296875,0.06425808370113373,-0.12278077751398087,-0.9324874877929688
1789635196237257200,12.10725732421875,0.09720777720212936,0.18214556574821472,-0.763762891292572
1789635196247296300,12.117296142578125,0.12274669110774994,0.4482100009918213,-0.5689300298690796
1789635196257336300,12.12733642578125,0.07142943888902664,0.6193631291389465,-0.41559135913848877
1789635196267376400,12.13737646484375,0.024163393303751945,0.644513726234436,-0.2920030951499939
1789635196277416200,12.147416259765626,0.06234540045261383,0.38222405314445496,-0.20497924089431763
1789635196287455200,12.157455322265625,0.06575451046228409,-0.09109316021203995,-0.2294108271598816
1789635196297495300,12.167495361328125,0.0158894844353199,-0.4927801489830017,-0.36610981822013855
1789635196307535400,12.177535400390624,-0.03650953993201256,-0.7116994261741638,-0.5291027426719666
1789635196317574100,12.18757421875,-0.06787572056055069,-0.6738471388816833,-0.6739384531974792
1789635196327614200,12.1976142578125,-0.10951077938079834,-0.39916256070137024,-0.7972998023033142
1789635196337654300,12.207654296875,-0.12903867661952972,-0.17029157280921936,-0.8819497227668762
1789635196347693600,12.217693603515626,-0.14655615389347076,0.02287202700972557,-0.9042012691497803
1789635196357733400,12.2277333984375,-0.14248551428318024,0.14555001258850098,-0.8875524997711182
1789635196367773200,12.237773193359375,-0.12236985564231873,0.08393431454896927,-0.8565428853034973
1789635196377812500,12.2478125,-0.087092824280262,-0.08219633251428604,-0.8646215796470642
1789635196387852500,12.2578525390625,-0.0887780711054802,-0.1427702009677887,-0.8881815075874329
1789635196397892400,12.267892333984374,-0.12667778134346008,-0.12488414347171783,-0.8530088663101196
1789635196407932200,12.27793212890625,-0.12926797568798065,-0.053882673382759094,-0.7852716445922852
1789635196417971500,12.287971435546876,-0.09451744705438614,0.044867340475320816,-0.7500508427619934
1789635196428011500,12.298011474609375,-0.043169308453798294,0.010420150123536587,-0.7663347125053406
1789635196438051300,12.30805126953125,0.03988296911120415,-0.16346855461597443,-0.8238137364387512
1789635196448090400,12.31809033203125,0.09842537343502045,-0.3356461822986603,-0.9421923160552979
1789635196458130400,12.32813037109375,0.14874367415905,-0.426636278629303,-1.1056288480758667
1789635196468170500,12.33817041015625,0.1960075944662094,-0.39036935567855835,-1.2117630243301392
1789635196478209300,12.348209228515625,0.18656881153583527,-0.1737302541732788,-1.2424982786178589
1789635196488249300,12.358249267578126,0.1337870955467224,0.023662718012928963,-1.2066402435302734
1789635196498289400,12.368289306640625,0.08429783582687378,0.13527819514274597,-1.1802605390548706
1789635196508328400,12.378328369140625,0.029457224532961845,0.16992218792438507,-1.191004753112793
1789635196518368300,12.3883681640625,0.018501246348023415,0.06402292102575302,-1.1959302425384521
1789635196528408300,12.398408203125,0.04699413850903511,-0.0773850679397583,-1.193770170211792
1789635196538448400,12.408448486328124,0.044136300683021545,-0.19740095734596252,-1.1902908086776733
1789635196548487400,12.4184873046875,0.019305787980556488,-0.3812568187713623,-1.2130581140518188
1789635196558527200,12.42852734375,0.0000010652644277797663,-0.5690956711769104,-1.2591662406921387
1789635196568567300,12.4385673828125,0.022519955411553383,-0.7407007217407227,-1.3996485471725464
1789635196578606300,12.4486064453125,0.05643904209136963,-0.7466387748718262,-1.4811524152755737
1789635196588646400,12.458646484375,0.07205315679311752,-0.5172609686851501,-1.424485445022583
1789635196598686500,12.4686865234375,0.07397941499948502,-0.4922621548175812,-1.3466252088546753
