time,seconds_elapsed,z,y,x
1788862385096770000,0.04977001953125,10.371382316589354,2.2993314193725585,-0.48946460189819335
1788862385106811100,0.05981103515625,10.070161820220946,2.542941438293457,-0.8010100929260253
1788862385116853000,0.06985302734375,9.607183074188232,3.0054712715148924,-0.8776245460510254
1788862385126894000,0.07989404296875,8.766967929077149,3.5597289558410643,-0.7333738960266113
1788862385136936200,0.089936279296875,8.094496537780762,4.242824617004394,-0.44592005920410155
1788862385146977300,0.099977294921875,7.790881839752196,4.8588826316833496,-0.031124621582031248
1788862385157019100,0.11001904296875,7.493851196289062,5.0769046203613275,0.49425300521850585
1788862385167060200,0.120060302734375,7.23363140335083,4.965424605560303,1.0435726486206054
1788862385177102000,0.13010205078125,7.391050162506103,5.087528890228271,0.9051578651428223
1788862385187143200,0.14014306640625,7.3934443641662595,4.907664490509033,0.9555857376098632
1788862385197185000,0.15018505859375,7.406163560485839,4.463091169738769,1.1376947013854979
1788862385207226000,0.16022607421875,7.185298457336425,4.192845657348633,1.2415431983947753
1788862385217268000,0.17026806640625,6.70361501083374,4.144213436126709,1.2957120109558105
1788862385227309000,0.18030908203125,6.110451549530029,4.128501487731933,1.3615525566101074
1788862385237350000,0.190349853515625,5.97592734375,4.159177196502685,1.5987281585693358
1788862385247392300,0.200392333984375,6.269965235137939,4.217386224365234,2.081907981109619
1788862385257433000,0.21043310546875,6.689549076080322,4.3728596946716305,2.692878317260742
1788862385267475200,0.22047509765625,6.904279037475585,4.7107414039611815,3.126378455352783
1788862385277516000,0.23051611328125,6.563853488922119,4.938639474487305,3.505560143280029
1788862385287558100,0.24055810546875,6.248567057800293,4.939836575317383,3.8304233810424804
1788862385297599000,0.250598876953125,6.092943949890136,4.968118082427978,4.080916729736328
1788862385307641000,0.26064111328125,5.957222643280029,4.768351881408691,4.304774584960938
1788862385317682000,0.270681884765625,5.751321300506591,4.527584976959228,4.274098876190186
1788862385327724000,0.28072412109375,5.505765992736816,4.460397692871093,-0.9457096557617187
1788862385337764900,0.290764892578125,6.8134490119934075,4.8014217918396,-2.6605565948486327
1788862385347807200,0.30080712890625,7.796867343902587,4.2782887290954585,0.28266543350219725
1788862385357848000,0.31084814453125,7.7599068557739255,3.54311918182373,4.116979392242431
1788862385367890200,0.32089013671875,7.058555406951904,3.5697546752929687,5.934477727508544
1788862385377931000,0.330930908203125,6.6072483940124505,4.352060067749023,6.291812325286865
1788862385387972000,0.34097216796875,7.235427054595947,4.929361943054199,5.945251634979248
1788862385398014200,0.35101416015625,8.11439833908081,4.897339495849609,5.240907434082031
1788862385408055300,0.36105517578125,7.866598467254638,4.107851498413086,4.435408213043212
1788862385418097200,0.37109716796875,7.088632565307617,3.2953193099975584,3.7892730400085446
1788862385428138200,0.38113818359375,6.421997040557861,2.779967402648926,3.3078888687133787
1788862385438180000,0.39118017578125,6.095038876342773,2.5194483345031737,3.074005294036865
1788862385448221200,0.40122119140625,5.997325521087646,2.429965047454834,3.009511486816406
1788862385458263000,0.411262939453125,6.314557241058349,2.3759458724975584,2.8760347442626952
1788862385468304100,0.42130419921875,6.291961962890625,2.2506991981506346,2.8600235206604
1788862385478346000,0.431345947265625,5.996577333068847,2.000954037475586,2.842815196228027
1788862385488387000,0.441386962890625,5.543773944091797,1.456871710205078,2.877830395507812
1788862385498429200,0.45142919921875,5.2450972869873045,0.879120922088623,2.673724703979492
1788862385508470300,0.46147021484375,5.296273347473144,0.5753565864562988,2.755875748443603
1788862385518511400,0.471511474609375,5.467309128570556,0.6793547210693359,3.296815686035156
1788862385528553200,0.48155322265625,5.423465310668945,0.46252983322143554,3.9372646301269527
1788862385538594300,0.49159423828125,5.330091445922851,0.03456628646850586,4.275295977020264
1788862385548636200,0.50163623046875,5.17761072769165,-0.3000233955383301,4.483441883850097
1788862385558677200,0.51167724609375,5.185691158294677,-0.4661211357116699,4.669890338134765
1788862385568719000,0.521718994140625,5.556343502807617,-0.27099370040893556,5.3299418083190915
1788862385578760200,0.53176025390625,5.730970586395263,0.028880057525634766,6.4469865203857415
1788862385588802000,0.541802001953125,5.639990923309326,0.04938040924072265,7.295431733703613
1788862385598843100,0.551843017578125,5.614253255462646,-0.0330699104309082,7.766790185546874
1788862385608885200,0.56188525390625,5.6946086486816405,-0.3371335212707519,7.929895173645019
1788862385618926300,0.57192626953125,5.699397052001952,-0.6976105087280273,7.966556386566162
1788862385628968200,0.58196826171875,5.6860793052673335,-0.8572738319396972,8.206724740600585
1788862385639009300,0.59200927734375,5.572354726409912,-0.8040028450012207,8.899097933197021
1788862385649050000,0.602050048828125,5.548263072204589,-0.49889177093505854,9.910498497009277
1788862385659092200,0.61209228515625,5.455038845062256,-0.1666962905883789,10.991779821777342
1788862385669133300,0.62213330078125,5.345204843902588,0.0848445213317871,11.886463054656982
1788862385679175200,0.632175048828125,5.62427897491455,0.42931028518676756,12.457929063415527
1788862385689216300,0.64221630859375,6.298097104644775,0.4207809417724609,13.024157756042479
1788862385699258400,0.65225830078125,6.602160715484619,0.33473931961059566,13.823521835327147
1788862385709299200,0.66229931640625,6.395361547088623,0.51714755859375,14.809932919311523
1788862385719341300,0.67234130859375,5.61200869140625,0.9494505958557128,15.887922216796873
1788862385729382400,0.68238232421875,4.684704460906982,1.2146084297180175,16.810886956787108
1788862385739424300,0.69242431640625,4.4470799461364745,1.0883142921447753,17.317110970306395
1788862385749465300,0.70246533203125,4.634575863647461,0.7223007133483886,17.43502540206909
1788862385759507200,0.712507080078125,4.598513201141357,0.5325602317810059,17.28838055038452
1788862385769548300,0.72254833984375,3.957615344238281,0.5410895751953124,17.062876681518553
1788862385779589000,0.732589111328125,2.5570073730468748,0.8925883064270019,16.461183876800536
1788862385789631200,0.74263134765625,1.399560507965088,1.216852993774414,15.848567527008056
1788862385799672000,0.752672119140625,0.6531681404113769,1.045667575073242,15.58340969314575
1788862385809714400,0.76271435546875,-0.07616554031372069,0.8307879760742187,15.147365715789794
1788862385819755300,0.77275537109375,-0.9736918876647949,0.7472901931762694,13.95640002746582
1788862385829797400,0.78279736328125,-2.41320563583374,0.9597755905151366,12.478429415130615
1788862385839838200,0.792838134765625,-4.038270012664794,1.0051157844543457,11.53017592010498
1788862385849880300,0.80288037109375,-4.824465982818603,0.5671265182495117,10.710461126708983
1788862385859921200,0.812921142578125,-4.652382738494873,0.1396118843078613,9.65357073135376
1788862385869963300,0.82296337890625,-3.807678465270996,-0.412401235961914,8.531139065551757
1788862385880004000,0.833004150390625,-3.389441362762451,-0.8168716789245605,7.6470801025390625
1788862385890046200,0.843046142578125,-4.217535861968994,-0.9062053283691406,6.86297905883789
1788862385900087000,0.853087158203125,-5.0382981185913085,-1.3106757713317871,5.036801742553711
1788862385910128000,0.863128173828125,-4.847210898590087,-2.558204473876953,2.7834090675354
1788862385920170200,0.873170166015625,-3.8557121360778805,-3.6955999000549316,1.1956044540405273
1788862385930211300,0.88321142578125,-5.318868625640869,-3.4671032791137693,1.2880804931640624
1788862385940253200,0.893253173828125,-10.446201118469238,-2.8808231475830075,2.301725621032715
1788862385950294300,0.903294189453125,-16.55560520477295,-2.654720728302002,5.092317293548584
1788862385960336100,0.913336181640625,-8.04975489425659,-5.401917495727539,0.5644330413818359
1788862385970377200,0.923377197265625,-2.3267151008605955,-8.400804712677001,-3.7563527671813963
1788862385980419000,0.933419189453125,-3.3514334114074704,-9.198672415924072,-2.607435245513916
1788862385990460200,0.943460205078125,-6.006303777313232,-8.604760766601562,0.9855132583618164
1788862386000502000,0.953501953125,-3.790919053649902,-8.882937071990966,3.1904233497619625
1788862386010543000,0.963543212890625,1.495777487182617,-8.575132521057128,7.1112278434753415
1788862386020585200,0.973585205078125,6.3132105026245116,-7.323264328002929,15.017629913330078
1788862386030626300,0.983626220703125,2.9331963088989257,-4.8136920753479,19.594595299530027
1788862386040667400,0.99366748046875,2.0970213790893553,-2.759317413330078,14.736161580657958
1788862386050709200,1.003709228515625,-0.46806642456054687,-0.3591302490234375,13.052289625549315
1788862386060750300,1.013750244140625,-5.792920554351806,-2.506579500579834,18.4235314125061
1788862386070792200,1.023792236328125,-8.52320827255249,-5.147383931732177,16.951396666717528
1788862386080833300,1.033833251953125,-6.9515645202636716,-7.277624858856201,12.949638229370116
1788862386090875100,1.043875244140625,-3.941753758239746,-9.505130228424072,9.37240167388916
1788862386100916200,1.053916259765625,-0.7764695259094238,-8.926481614685057,7.969249863433838
1788862386110958000,1.0639580078125,-0.02289455337524414,-7.559392466735839,7.621192797088622
1788862386120999200,1.073999267578125,-0.6233902572631835,-6.468683972930908,7.689427544403076
1788862386131041300,1.084041259765625,-1.8755577255249023,-6.640916854858398,7.443273686218261
1788862386141082400,1.094082275390625,-3.716998077392578,-6.663212857818603,7.455843244934082
1788862386151123200,1.104123291015625,-4.64145919342041,-6.378602135467529,7.169137596130371
1788862386161165300,1.114165283203125,-5.523872142791748,-7.46272657470703,9.125948540496825
1788862386171206100,1.1242060546875,-0.31797990798950193,-12.090718383789062,6.547393352508545
1788862386181248300,1.134248291015625,1.3658920471191405,-14.465916068267822,3.9387610061645506
1788862386191289000,1.1442890625,-1.1988964813232421,-15.164723677825927,1.0345943923950194
1788862386201331200,1.154331298828125,-5.415085604858398,-13.807809886932372,0.8948328704833984
1788862386211372000,1.1643720703125,-1.8803461288452148,-8.96419029083252,6.970269220733642
1788862386221414400,1.174414306640625,-4.340238697052001,-6.835595377349853,7.28465782623291
1788862386231455200,1.184455322265625,-0.7836521308898925,-8.168417514038085,1.9547160179138183
1788862386241497300,1.194497314453125,-2.59202257232666,-8.296806578063965,-0.3414730117797851
1788862386251538200,1.2045380859375,-5.96305850982666,-8.628553145599366,-1.92164610748291
1788862386261580300,1.214580322265625,-2.7641058166503907,-9.127145641326903,-1.1031284149169922
1788862386271621000,1.22462109375,-2.8565818557739258,-7.89772308883667,1.9457377616882323
1788862386281662200,1.234662109375,-3.1260791801452634,-6.525097349548339,3.8570588745117185
1788862386291704000,1.2447041015625,-2.13233585357666,-6.187963828277588,4.0535330482482905
1788862386301745200,1.2547451171875,-2.0424036537170407,-7.077409745025634,3.695150987243652
1788862386311787000,1.264787109375,-1.6343419082641601,-9.866953954315186,2.3120506156921383
1788862386321828000,1.274828125,-0.9512462471008301,-10.576385833740234,2.4226328048706054
1788862386331870200,1.2848701171875,-2.1217115837097165,-9.917232189178467,2.3783400741577148
1788862386341911300,1.294911376953125,-2.760664151763916,-8.821136741638183,1.86433490524292
1788862386351953200,1.304953125,-2.524984925842285,-8.143428034210205,1.8625392539978027
1788862386361994200,1.314994140625,-2.2723966506958004,-7.931541187286377,1.958157682800293
1788862386372036000,1.3250361328125,-1.8249802154541015,-7.688978631591796,2.5258827514648434
1788862386382077000,1.335076904296875,-2.8878561149597166,-7.518092488098144,3.280205912017822
1788862386392119000,1.345119140625,-4.1666590766906735,-7.052869178009033,2.9290064559936524
1788862386402159900,1.355159912109375,-2.1441572242736817,-7.598896794128417,2.2233155166625975
1788862386412201000,1.365200927734375,-3.376572528839111,-8.589198455810546,1.6792331893920898
1788862386422243000,1.3752431640625,-3.534889113616943,-7.153874560546875,2.5418939750671385
1788862386432284200,1.3852841796875,-4.577115023803711,-6.8393363174438475,3.583371697235107
1788862386442326000,1.395325927734375,-3.497928625488281,-5.86085602645874,3.145681706237793
1788862386452367000,1.4053671875,-3.8979099403381343,-6.585550941467285,2.9104513931274414
1788862386462409000,1.415408935546875,-3.3891420875549314,-7.6847887786865225,2.4597429306030274
1788862386472450000,1.425449951171875,-2.4856302360534666,-6.482749907684326,2.7551275604248047
1788862386482492000,1.435491943359375,-2.713977219390869,-6.16716420135498,1.7664719123840331
1788862386492533000,1.445532958984375,-2.539050860595703,-5.107580329132079,1.8929156875610351
1788862386502574800,1.455574951171875,-3.146878807067871,-5.939864681243896,2.046743144226074
1788862386512616000,1.465615966796875,-4.14960038986206,-5.842300963592529,3.6282629783630367
1788862386522658000,1.475657958984375,-3.6502597061157225,-4.501847309112549,3.762338271331787
1788862386532699100,1.48569921875,-2.1712416305541993,-5.380220043182373,2.4925135658264157
1788862386542741000,1.495740966796875,-3.4880525436401366,-6.694337479400635,2.5029881980895996
1788862386552782000,1.505781982421875,-4.263773881530762,-8.600870188903809,2.4601918434143064
1788862386562823200,1.5158232421875,-4.11144280090332,-4.510227014923095,4.84556488494873
1788862386572865000,1.525864990234375,-4.534468306732178,-0.771830760192871,0.36107553787231444
1788862386582906000,1.535906005859375,1.258302610015869,-9.934889426422119,-1.4758756858825683
1788862386592948000,1.545947998046875,-2.1025579704284665,-14.386009587860107,1.3911808021545409
1788862386602989000,1.555989013671875,-5.986102700805664,-16.288651719665527,2.1953332847595215
1788862386613031000,1.566031005859375,-3.853317934417724,-15.1053175491333,4.0714895606994626
1788862386623072000,1.576072021484375,-3.265541426849365,-12.068721656036375,4.517559257507324
1788862386633114000,1.586114013671875,-6.001964286804199,-8.034940771484374,3.378667455291748
1788862386643155200,1.5961552734375,-3.84329221496582,-5.868637181854248,1.858499038696289
1788862386653197000,1.606197021484375,0.8128314636230468,-9.504082765197753,3.695749537658691
1788862386663238100,1.616238037109375,-0.7751227874755859,-12.058845574188231,5.3956327163696285
1788862386673280000,1.626280029296875,-7.973738991546631,-9.328857131195068,4.475960003662109
1788862386683321000,1.636321044921875,-6.666804160308837,-6.852205151367187,4.1198225067138665
1788862386693363000,1.646363037109375,-2.589329095458984,-9.909899946594237,2.7904420349121093
1788862386703404000,1.656404052734375,-4.068945721435546,-11.41495496520996,1.0290578010559082
1788862386713444900,1.66644482421875,-1.271769994354248,-12.76902564163208,1.3106757713317871
1788862386723487000,1.676487060546875,-3.3602620300292965,-11.980585107421874,1.2609960868835448
1788862386733527800,1.68652783203125,-5.434538493347167,-12.51913084335327,1.3572130661010742
1788862386743570200,1.696570068359375,-5.559186617279052,-12.552948941802978,1.110161382293701
1788862386753611000,1.706611083984375,-5.614702168273926,-11.736675813293456,0.5475239921569824
1788862386763653000,1.716653076171875,-5.408202275085449,-11.735029799652098,-1.2891279563903808
1788862386773694000,1.72669384765625,-3.9604584587097165,-11.581950531005859,-1.6099509788513182
1788862386783736000,1.736736083984375,-3.7792473205566406,-11.091887378692626,-1.6897078216552734
1788862386793777000,1.74677685546875,-3.968987802124023,-10.24149687652588,-0.3329436683654785
1788862386803819000,1.756819091796875,-4.273500325775146,-8.192808443450927,0.7318775199890136
1788862386813859800,1.76685986328125,-4.5404538108825685,-6.6908958145141595,0.2745850028991699
1788862386823902000,1.77690185546875,-4.502296221923828,-6.130203713226318,0.037409400939941405
1788862386833942800,1.78694287109375,-5.395483078765869,-7.582137382507324,-0.8819640365600585
1788862386843985200,1.796985107421875,-6.417956825256347,-7.346158881378173,-2.3810335510253906
1788862386854026000,1.80702587890625,-4.099022879791259,-6.812401548767089,-2.4684219116210935
1788862386864067000,1.817067138671875,-2.676268543243408,-7.3669585083007805,-0.5799953521728515
1788862386874109000,1.82710888671875,-3.7044285186767576,-7.672069582366943,0.6471826362609863
1788862386884150000,1.83714990234375,-5.838111110687255,-8.14672006149292,1.226429800415039
1788862386894191900,1.84719189453125,-4.205415216064453,-9.788693487548828,4.458751679229736
1788862386904233000,1.85723291015625,-3.7204397422790527,-13.22871236038208,4.389319831085205
1788862386914274800,1.86727490234375,-5.130923795318603,-15.452177514648437,1.9868881027221679
1788862386924316000,1.87731591796875,-6.363488737487793,-14.50601894607544,0.3215712104797363
1788862386934357800,1.887357666015625,-6.264727919006347,-12.784587952423095,-0.4267664459228515
1788862386944399000,1.897399169921875,-6.769156281280517,-11.871798569488524,-1.1876736610412597
1788862386954441000,1.90744091796875,-5.380818593597412,-11.527033530426024,-0.5231330627441406
1788862386964482000,1.91748193359375,-4.796633388519287,-11.38278288040161,1.1508628105163574
1788862386974524000,1.92752392578125,-5.225644398498535,-11.735628350067138,1.308131932067871
1788862386984565000,1.93756494140625,-5.178508553314209,-10.31706386642456,0.8883984535217284
1788862386994606800,1.94760693359375,-3.930231662750244,-8.54894594039917,0.4375403533935547
1788862387004648000,1.95764794921875,-2.667290287017822,-7.796119155883789,0.3320458427429199
1788862387014690000,1.96768994140625,-1.797895809173584,-7.323264328002929,-0.40970775909423823
1788862387024731000,1.97773095703125,-0.7603086647033691,-5.771821652221679,-1.3045406295776367
1788862387034772000,1.98777197265625,-1.2759598472595215,-5.730072760772705,0.00029927520751953123
1788862387044814000,1.99781396484375,-5.40760372467041,-4.7472529792785645,0.934037922668457
1788862387054855200,2.007855224609375,-6.583456015014648,-3.515735500335693,1.6201263359069824
1788862387064897000,2.01789697265625,-4.601356315612793,-3.4063504119873045,1.2363058822631836
1788862387074938000,2.027938232421875,-3.8322190322875973,-4.9640778671264645,0.23956980361938476
1788862387084980000,2.03797998046875,-3.2650925140380855,-6.768408093261718,0.046238019561767575
1788862387095021000,2.04802099609375,-3.104082452392578,-7.698405800628661,-0.09846154327392577
1788862387105063000,2.05806298828125,-2.7193641731262206,-8.947730154418945,-0.22954408416748046
1788862387115104000,2.06810400390625,-3.7407904563903807,-10.647463695526122,-0.3525461944580078
1788862387125145900,2.078145751953125,-5.270086766815186,-11.650185278320311,0.1541267318725586
1788862387135187000,2.08818701171875,-3.9514802024841305,-8.315212003326415,2.7647043670654297
1788862387145229000,2.09822900390625,-2.34960965423584,-5.000290167236328,4.581005601501465
1788862387155270100,2.108270263671875,-2.775178999328613,-6.3524155548095695,3.55613765335083
1788862387165312000,2.11831201171875,-3.0707132667541504,-7.006331883239746,3.2134675407409667
1788862387175353000,2.12835302734375,-4.375403533935547,-6.921936274719238,3.171120098876953
1788862387185395000,2.13839501953125,-5.959018294525146,-5.91816722869873,1.9939210700988768
1788862387195436000,2.14843603515625,-6.724713912963867,-4.055927249908447,-1.2014403205871582
1788862387205477000,2.15847705078125,-3.5959412559509274,-4.492420140075684,-0.22385785522460935
1788862387215519000,2.16851904296875,-2.8687025016784666,-4.390965844726562,-0.25004443588256836
1788862387225560000,2.17856005859375,-4.543895475769043,-6.216095697784423,-1.3133692481994628
1788862387235602000,2.188601806640625,-4.867711250305176,-8.564059338378906,-0.757166275024414
1788862387245643000,2.19864306640625,-5.423764585876465,-8.580818749999999,-0.6693290016174316
1788862387255685000,2.20868505859375,-4.0626609420776365,-6.5768719604492185,-0.16385317611694336
1788862387265726200,2.218726318359375,-4.663455921173095,-13.9568489402771,-1.4555249717712402
1788862387275768000,2.22876806640625,-5.412691403198242,-23.312341564941406,-3.4989760887145995
1788862387285809200,2.23880908203125,-3.292925108337402,-16.18570104827881,1.160738892364502
1788862387295851000,2.24885107421875,-3.586663724517822,-10.908282038879394,1.246780514526367
1788862387305892000,2.25889208984375,-4.032284508514404,-11.085303324127196,-0.9361328491210937
1788862387315934000,2.268933837890625,-3.6323031936645505,-8.725219037628174,-1.3962684806823729
1788862387325975000,2.27897509765625,-3.928735286712646,-8.75379981994629,-1.3895347885131835
1788862387336017000,2.289016845703125,-4.045602255249023,-10.326042122650145,-2.2794296180725095
1788862387346058000,2.29905810546875,-4.716726908111572,-9.84450831375122,-3.58816010055542
1788862387356100000,2.30910009765625,-4.467729935455322,-9.325415466308593,-3.2303765899658203
1788862387366141200,2.31914111328125,-4.132990615844727,-9.41729295501709,-2.7097873664855956
1788862387376182000,2.32918212890625,-5.466261665344238,-11.947664834594725,-4.396801711273193
1788862387386224000,2.33922412109375,-6.133196465301514,-11.26801083831787,-4.032733421325683
1788862387396265000,2.349264892578125,-5.966051261901855,-9.518298337554931,-3.632003918457031
1788862387406307000,2.35930712890625,-5.397877280426025,-9.724349317932129,-4.591480233764648
1788862387416348000,2.369347900390625,-4.460098417663574,-9.396343690490722,-3.9797617095947264
1788862387426390000,2.37939013671875,-3.6406828994750975,-8.656385739898681,-2.7207109115600585
1788862387436430800,2.389430908203125,-3.0353987922668457,-8.221688500976562,-1.249473991394043
1788862387446473000,2.399472900390625,-2.7096377288818356,-7.126490879058838,0.6868366012573242
1788862387456513800,2.409513671875,-2.9460651428222655,-6.90742142715454,1.9642928245544433
1788862387466556200,2.41955615234375,-3.279607361602783,-7.529016033172607,2.9109003059387204
1788862387476597000,2.429596923828125,-2.6349685646057126,-6.248417420196533,4.406228880310058
1788862387486639000,2.43963916015625,-1.6258125648498534,-6.605303105163574,2.6309283493041993
1788862387496680000,2.449679931640625,-2.5403975990295407,-7.924208944702148,-0.596305850982666
1788862387506722000,2.45972216796875,-3.9240965209960934,-8.317755842590332,-2.2349872497558594
1788862387516763000,2.469762939453125,-4.41775097579956,-9.563339256286621,-3.2227450721740722
1788862387526805000,2.479804931640625,-5.572354726409912,-9.65327145614624,-2.7639561790466307
1788862387536845800,2.489845703125,-6.172551155090332,-9.46742155227661,-2.0536264739990235
1788862387546888000,2.499887939453125,-6.03967296295166,-9.239673119354247,-1.764676261138916
1788862387556928800,2.5099287109375,-6.162375798034668,-10.115502014160155,-1.7974468963623045
1788862387566971100,2.51997119140625,-5.421220746612549,-10.25361752243042,-1.4835072036743162
1788862387577012000,2.530011962890625,-5.112069457244873,-10.06118356399536,-2.1452046874999997
1788862387587053000,2.540052978515625,-5.175964714050292,-10.102333905029296,-2.5668834548950192
1788862387597095000,2.550094970703125,-4.934599259185791,-9.479542198181152,-1.782483135986328
1788862387607136000,2.560135986328125,-4.734833058166504,-9.484480239105224,-1.3346177879333496
1788862387617177900,2.570177734375,-4.432565098571777,-9.804704711151123,-1.9764134704589842
1788862387627219000,2.580218994140625,-4.5455414894104,-9.645191025543213,-2.1805191619873048
1788862387637260800,2.5902607421875,-4.606892906951904,-9.983671285247802,-1.753752716064453
1788862387647302000,2.600302001953125,-4.822520693969726,-10.50156703186035,-2.2876596862792966
1788862387657343700,2.61034375,-4.715978720092773,-10.395473970794677,-2.664896085357666
1788862387667384800,2.620384765625,-4.159326834106445,-9.915286900329589,-2.5631425148010254
1788862387677427000,2.630427001953125,-4.38602780380249,-10.781688626098632,-2.5553613594055173
1788862387687468000,2.640468017578125,-4.159027558898925,-9.281571648406981,-2.880074959564209
1788862387697510000,2.650510009765625,-4.119672869110107,-9.259275645446778,-2.55386498336792
1788862387707551000,2.660551025390625,-4.274248513793945,-9.317783948516846,-2.136226431274414
1788862387717592800,2.6705927734375,-3.545064470672607,-8.596680335998535,-1.1860276473999023
1788862387727634000,2.680634033203125,-2.9912556991577146,-7.199364392089843,-0.6830956611633301
1788862387737676000,2.690676025390625,-3.276464971923828,-7.039701068878173,-2.1443068618774412
1788862387747716900,2.700716796875,-5.890035359191894,-7.504176190948486,-3.7675755874633787
1788862387757758000,2.710758056640625,-6.477811866760254,-5.5545478515625,-3.515136949920654
1788862387767799800,2.7207998046875,-4.948216281127929,-4.646097959136963,-2.3946505729675294
1788862387777841000,2.7308408203125,-4.327818775939941,-5.078849909210205,-2.580500476837158
1788862387787883000,2.740883056640625,-4.061314203643799,-5.915174476623535,-2.7084406280517577
1788862387797924000,2.750924072265625,-2.8830677116394043,-7.551760948944091,-2.314893730163574
1788862387807966000,2.760966064453125,-2.3741502212524415,-8.498069155120849,-1.7775450950622558
1788862387818007000,2.771007080078125,-2.674323254394531,-8.575880709075927,-1.2418424736022948
1788862387828049000,2.781048828125,-3.0123546012878415,-8.073397635650634,-0.8505401397705078
1788862387838090000,2.791090087890625,-3.6586394119262695,-7.759009030151367,-0.6392518432617187
1788862387848131800,2.8011318359375,-3.116352735900879,-8.026860340881347,-1.099387474822998
1788862387858173000,2.8111728515625,-2.7843068931579587,-8.079832052612304,-1.5418658691406248
1788862387868214800,2.82121484375,-3.217058843231201,-8.240991751861571,-2.290652438354492
1788862387878255900,2.831255859375,-3.9636008483886718,-8.013243318939208,-2.8980314720153806
1788862387888298000,2.841298095703125,-3.7912183288574215,-8.277952239990235,-3.0948049209594726
1788862387898339000,2.851339111328125,-3.9468414367675777,-7.978377757263183,-1.9967641845703124
1788862387908381000,2.861380859375,-4.211400720214844,-8.736741133117675,-1.7253215713500976
1788862387918422000,2.871422119140625,-4.459499867248535,-9.506626604461669,-2.177825685119629
1788862387928464000,2.8814638671875,-3.963002297973633,-9.310601343536376,-2.147748526763916
1788862387938505000,2.8915048828125,-3.8913258857727047,-8.752153806304932,-1.9240403091430662
1788862387948546800,2.901546875,-4.003254813385009,-8.378807984924316,-2.1875521293640134
1788862387958588000,2.911587890625,-4.083310931396484,-7.748983310699463,-2.3527520439147946
1788862387968629000,2.92162890625,-4.154688068389892,-7.9189716285705565,-2.4862287864685055
1788862387978671000,2.931671142578125,-3.9516298400878904,-8.233360234069824,-2.7027543991088865
1788862387988712200,2.941712158203125,-3.759644794464111,-8.396465222167969,-2.7862521820068356
1788862387998754000,2.951754150390625,-3.784634274291992,-8.571840493774413,-2.862118447113037
1788862388008795100,2.961795166015625,-3.9451954231262203,-8.679878843688964,-2.7769746505737305
1788862388018837000,2.9718369140625,-4.096030127716064,-8.751854531097411,-2.6605565948486327
1788862388028878000,2.981878173828125,-4.182071749877929,-8.774599446868896,-2.492962478637695
1788862388038920000,2.991919921875,-4.1940427581787105,-8.678083192443847,-2.375646597290039
1788862388048961000,3.0019609375,-4.159775746917725,-8.646060745239257,-2.2463597076416013
1788862388059003000,3.0120029296875,-3.9758711318969726,-8.753650182342529,-2.1142297035217283
1788862388069044000,3.0220439453125,-3.8057331764221187,-8.972420359039306,-1.9737199935913086
1788862388079086000,3.032086181640625,-3.735403502655029,-9.124003251647949,-1.8242320274353025
1788862388089127200,3.042127197265625,-3.6987422897338864,-9.11741919708252,-1.7281646858215332
1788862388099169000,3.0521689453125,-3.736151690673828,-9.04753843612671,-1.7558476425170897
1788862388109210000,3.062210205078125,-3.710114747619629,-8.973318184661865,-1.936909143066406
1788862388119252000,3.072251953125,-3.7113118484497067,-8.823530943298339,-2.1838111892700196
1788862388129293000,3.08229296875,-3.7262756088256834,-8.722974473571776,-2.446874096679687
1788862388139335000,3.0923349609375,-3.7582980560302732,-8.595782510375976,-2.740911988067627
1788862388149376000,3.1023759765625,-4.013130895233154,-8.303390632629394,-2.768894219970703
1788862388159417900,3.11241796875,-3.773710729217529,-8.029254542541503,-2.368015079498291
1788862388169459000,3.122458984375,-3.0365958930969237,-7.879317663574218,-2.009782656097412
1788862388179499800,3.132499755859375,-2.8290485366821287,-7.687631893157959,-1.799092910003662
1788862388189542100,3.142542236328125,-3.015347353363037,-7.732523174285888,-1.5626654960632322
1788862388199583000,3.1525830078125,-3.3625065940856933,-8.113500513458252,-1.261594637298584
1788862388209625000,3.162625,-3.656694123077392,-8.754548007965088,-0.9597755905151366
1788862388219666000,3.172666015625,-3.5417724433898923,-9.446322650146485,-0.7062894897460937
1788862388229708000,3.1827080078125,-3.1076737548828124,-9.965265859985351,-0.4568436042785644
1788862388239748900,3.192748779296875,-2.4187422271728516,-10.40669679107666,-0.5424363136291503
1788862388249791000,3.202791015625,-1.9244892219543457,-10.829871934509276,-1.190666413116455
1788862388259831800,3.212831787109375,-2.01756381149292,-11.027842484283447,-2.131886940765381
1788862388269874000,3.2228740234375,-2.645742472076416,-10.938508834838867,-2.9741970123291015
1788862388279914800,3.232914794921875,-3.521721004486084,-10.524461585235596,-3.123684978485107
1788862388289957000,3.24295703125,-4.461145880889893,-10.135254177856444,-2.842815196228027
1788862388299998000,3.252998046875,-5.105036489868164,-9.879373875427245,-2.535309920501709
1788862388310040000,3.2630400390625,-5.380968231201171,-9.79976667022705,-2.0121768577575683
1788862388320081000,3.273080810546875,-5.033210440063476,-9.664494276428222,-1.2219406723022461
1788862388330123000,3.283123046875,-4.2782887290954585,-9.354145886230468,-0.4373907157897949
1788862388340163800,3.293163818359375,-3.5705028633117672,-8.972420359039306,0.2127846725463867
1788862388350206000,3.3032060546875,-2.984073094177246,-8.62451293029785,0.4993406837463379
1788862388360246800,3.313246826171875,-2.7986721031188964,-8.346037349700927,0.5198410354614258
1788862388370289000,3.323288818359375,-2.82830034866333,-8.168267876434326,0.3054103492736816
1788862388380330500,3.33333056640625,-2.7073931648254392,-8.117091815948486,-0.05252279891967773
1788862388390371600,3.34337158203125,-2.547879479217529,-8.29306563796997,-0.5285200164794922
1788862388400413400,3.353413330078125,-2.50238964767456,-8.805574430847168,-1.0910077690124511
1788862388410454500,3.36345458984375,-2.4340052627563473,-9.422829546356201,-1.7738041549682617
1788862388420496600,3.37349658203125,-2.4378958404541016,-9.90241806640625,-2.446425183868408
1788862388430537700,3.383537841796875,-2.7328315574645994,-10.103381368255615,-3.111564332580566
1788862388440579600,3.39357958984375,-3.0349498794555663,-10.012252067565917,-3.504363042449951
1788862388450620700,3.40362060546875,-2.8407202697753906,-9.64070189743042,-3.2601544731140133
1788862388460662500,3.41366259765625,-2.410811434173584,-9.272743029785156,-2.4519617752075193
1788862388470703600,3.42370361328125,-2.264765132904053,-8.960748625946044,-1.3329717742919922
1788862388480745500,3.433745361328125,-2.4052748428344723,-8.765321915435791,-0.479438882446289
1788862388490786600,3.44378662109375,-2.543689626312256,-8.736890770721436,-0.11387421646118163
1788862388500828400,3.453828369140625,-2.6212019050598143,-8.81649797592163,-0.020949264526367185
1788862388510869500,3.463869384765625,-2.841618095397949,-8.973467822265624,-0.056114101409912104
1788862388520911600,3.47391162109375,-2.9960441024780273,-9.140164112854004,-0.049829322052001954
1788862388530952700,3.48395263671875,-3.0105589500427246,-9.227851748657226,-0.05551555099487304
1788862388540994600,3.49399462890625,-3.0301614761352536,-9.181613729095458,-0.21113865890502928
1788862388551035600,3.50403564453125,-3.075352032470703,-8.956259497833251,-0.5740098480224609
1788862388561077500,3.514077392578125,-3.2248399986267087,-8.745270476531982,-1.1514613609313964
1788862388571118600,3.52411865234375,-3.6610336135864254,-8.795698348999023,-1.6654665298461913
1788862388581159700,3.53415966796875,-3.9200563056945796,-9.030479749298095,-1.7562965553283691
1788862388591201500,3.544201416015625,-4.073734124755859,-9.23802710571289,-1.6463129165649413
1788862388601242600,3.55424267578125,-4.099322154998779,-9.253140503692626,-1.3805565322875977
1788862388611284500,3.564284423828125,-3.853617209625244,-9.283816212463378,-1.0085574493408203
1788862388621325600,3.57432568359375,-3.571400688934326,-9.417143317413329,-0.6139630882263183
1788862388631367700,3.58436767578125,-3.1302690330505367,-9.523984566497802,-0.3280056274414062
1788862388641408800,3.59440869140625,-2.5673323677062987,-9.46802010269165,-0.2219125663757324
1788862388651450600,3.60445068359375,-2.2870611358642576,-9.247753549957276,-0.42601825790405273
1788862388661491700,3.61449169921875,-2.2309470344543456,-8.988431582641601,-0.7975684280395507
1788862388671533600,3.624533447265625,-2.0030489639282227,-8.909722203063964,-1.3836989219665528
1788862388681574700,3.63457470703125,-1.47482822265625,-8.95670841064453,-2.4307132354736325
1788862388691616500,3.644616455078125,-1.7525556152343749,-9.171139096832276,-2.5430910758972165
1788862388701657600,3.65465771484375,-1.7775450950622558,-9.43569838027954,-2.1646575759887696
1788862388711699500,3.664699462890625,-1.9000982925415038,-10.392780493927,-1.9922750564575193
1788862388721740500,3.674740478515625,-2.413953823852539,-11.993753216552733,-0.9689034843444824
1788862388731782700,3.68478271484375,-2.1157260795593262,-12.62133332672119,0.2745850028991699
1788862388741823700,3.69482373046875,-1.8728642486572264,-12.254272284698486,-0.06105214233398437
1788862388751865600,3.704865478515625,-2.5890298202514646,-10.983699391174316,-1.3205518531799316
1788862388761906700,3.71490673828125,-3.0850784767150876,-9.28935280380249,-1.2853870162963867
1788862388771947500,3.724947509765625,-2.964171292877197,-8.263736667633056,-1.333719962310791
1788862388781989600,3.73498974609375,-2.7162217834472653,-8.041973738861083,-1.3447931449890136
1788862388792030500,3.745030517578125,-2.5357588333129883,-8.2107649559021,-1.4472949035644531
1788862388802072600,3.755072509765625,-2.966116581726074,-8.69514187927246,-1.7100585357666014
1788862388812113400,3.765113525390625,-4.0243537155151365,-9.112930068969726,-1.9045874206542968
1788862388822155500,3.775155517578125,-4.987570970916748,-9.203760094451903,-1.7573440185546874
1788862388832196400,3.7851962890625,-5.372139612579345,-8.948478342437744,-1.3792097938537597
1788862388842238700,3.79523876953125,-5.372438887786865,-8.320150044250488,-0.9051578651428223
1788862388852279600,3.805279541015625,-5.275922633361816,-7.945906397247314,-0.4531026641845703
1788862388862321700,3.81532177734375,-5.256469744873047,-8.014440419769286,-0.05357026214599609
1788862388872362500,3.825362548828125,-4.959888014221191,-8.50450357208252,0.3666121292114258
1788862388882404600,3.835404541015625,-4.243273529815673,-9.279925634765624,0.7275380294799805
1788862388892445400,3.845445556640625,-3.354875076293945,-9.941323843383788,0.8601169464111328
1788862388902487600,3.855487548828125,-2.6056395942687987,-10.14483098449707,0.7516296836853027
1788862388912528600,3.865528564453125,-2.3395839347839353,-10.028712203979492,0.44846389846801754
1788862388922570500,3.875570556640625,-2.4938603042602536,-9.85019454269409,0.15068506698608397
1788862388932611600,3.885611572265625,-2.9122470443725583,-9.796474642944336,-0.2214636535644531
1788862388942652700,3.895652587890625,-3.8208465744018554,-9.74245546798706,-0.6714239280700683
1788862388952694500,3.905694580078125,-4.9634793167114255,-9.588328736114502,-0.9641150810241699
1788862388962735600,3.915735595703125,-5.408651187896728,-9.395894777679443,-1.0226233840942383
1788862388972777700,3.92577783203125,-5.352088173675536,-9.39769042892456,-1.0369885940551757
1788862388982818600,3.935818603515625,-5.188983185577392,-9.509768994140625,-1.1162965240478515
1788862388992860700,3.945860595703125,-4.231003246307373,-9.69831237487793,-1.3744213905334473
1788862389002901500,3.955901611328125,-2.3364415451049805,-9.976189405059813,-1.7045219444274902
1788862389012943600,3.965943603515625,-1.0488099647521971,-10.197802696228027,-1.2662334030151365
1788862389022984400,3.975984375,-1.128117894744873,-9.980678533172608,-0.012120645904541014
1788862389033026800,3.98602685546875,-2.3032219970703123,-9.258826732635498,0.5689221694946289
1788862389043067600,3.996067626953125,-3.972579104614258,-8.462904318237305,0.19348142166137694
1788862389053109800,4.00610986328125,-5.091868380737305,-8.110657398986817,-0.263062907409668
1788862389063150600,4.016150634765625,-5.224596935272216,-8.104372619628906,-0.4982932205200195
1788862389073192700,4.026192626953125,-4.793640636444091,-8.14597187347412,-0.28520927276611324
1788862389083233500,4.036233642578125,-4.050689933776855,-8.362647123718261,-0.2967313682556152
1788862389093275600,4.046275634765625,-3.605368424987793,-8.73285055541992,-0.6096235977172851
1788862389103316500,4.05631640625,-3.63888724822998,-8.996362375640869,-1.0705074172973632
1788862389113357600,4.066357666015625,-3.8777088638305663,-9.031826487731934,-0.9864110839843749
1788862389123399400,4.0763994140625,-4.49466470413208,-8.956259497833251,-0.2856581855773926
1788862389133440500,4.0864404296875,-5.22235237121582,-8.706663974761963,0.6703764648437499
1788862389143482600,4.096482666015625,-5.804143374633789,-8.532336166381835,1.3500304611206053
1788862389153523700,4.106523681640625,-6.0227639137268065,-8.512284727478027,1.5056535690307615
1788862389163565600,4.116565673828125,-5.767033248901367,-8.590694831848143,1.4303858543395995
1788862389173606700,4.126606689453125,-4.78825368270874,-8.511386901855468,1.585260774230957
1788862389183648500,4.1366484375,-3.5200749908447264,-8.70202520904541,1.5177742149353026
1788862389193689600,4.146689697265625,-2.9569886878967284,-9.226205735015869,1.1653776580810546
1788862389203731500,4.1567314453125,-3.341706967163086,-9.732429748535155,0.6394014808654784
1788862389213772500,4.1667724609375,-4.165761251068115,-10.057143348693847,-0.09127893829345703
1788862389223814400,4.176814453125,-4.668992512512207,-10.392630856323242,-0.9723451492309569
1788862389233855500,4.18685546875,-4.456956027984619,-10.8156563621521,-2.2125416091918946
1788862389243897600,4.196897705078125,-4.103811283111572,-11.154286259460449,-4.033032696533203
1788862389253938700,4.206938720703125,-4.395006060028076,-11.271302865600585,-5.928342585754394
1788862389263979800,4.216979736328125,-4.819527941894531,-11.08964281463623,-6.726509564208984
1788862389274021600,4.227021728515625,-5.0005894424438475,-10.742034661102295,-6.0722939605712885
1788862389284062700,4.237062744140625,-5.154117623901367,-10.405649327850341,-4.363282888031006
1788862389294104600,4.2471044921875,-5.597793119049072,-10.127921935272216,-2.254290500640869
1788862389304145700,4.257145751953125,-5.952733515167236,-10.063877040863037,-0.16549918975830077
1788862389314187500,4.2671875,-6.234052210235595,-10.492289500427246,1.248127252960205
1788862389324228600,4.277228515625,-6.3800985115051265,-11.082609847259521,2.1344307800292968
1788862389334270500,4.2872705078125,-5.89272883605957,-11.781267819213866,2.335842994689941
1788862389344311600,4.2973115234375,-5.409848288726806,-12.183942610931396,2.1230583221435544
1788862389354353700,4.307353759765625,-5.085583601379394,-12.262352715301512,1.2141595169067383
1788862389364394800,4.317394775390625,-5.13301872177124,-11.864316689300537,-0.09666589202880858
1788862389374436600,4.3274365234375,-5.804293012237548,-10.993276197814941,-1.7037737564086912
1788862389384477400,4.3374775390625,-6.384886914825439,-9.673023619842528,-2.677764919281006
1788862389394519300,4.347519287109375,-6.343886211395263,-8.353070317077636,-3.019088293457031
1788862389404560400,4.357560302734375,-5.988197627258301,-7.2155252532958984,-2.862866635131836
1788862389414602200,4.367602294921875,-5.925798746490478,-6.574777033996582,-2.5650878036499023
1788862389424643300,4.377643310546875,-6.38473727722168,-6.602011077880859,-2.43235924911499
1788862389434684200,4.38768408203125,-6.650643299102783,-6.912658743286133,-2.4932617538452146
1788862389444726500,4.3977265625,-6.76765990524292,-7.14369920349121,-2.2671593345642087
1788862389454767400,4.407767333984375,-7.246949150085449,-7.14444739151001,-1.2789525993347166
1788862389464809500,4.4178095703125,-8.172757004547119,-7.400178056335449,0.10519523544311522
1788862389474850300,4.427850341796875,-8.307879760742187,-7.952490451812744,1.191264963531494
1788862389484892400,4.437892333984375,-8.09554400100708,-8.046762142181397,2.072181536865234
1788862389494933200,4.447933349609375,-8.290372161102294,-7.827991965484618,2.163610112762451
1788862389504975400,4.457975341796875,-8.549694128417968,-7.511209158325195,1.4887445198059082
1788862389515016200,4.46801611328125,-8.766369378662109,-6.5375172706604,0.9820715934753418
1788862389525058300,4.478058349609375,-8.302792082214355,-5.473593907928467,0.3938461730957031
1788862389535099400,4.488099365234375,-7.502380539703369,-4.637119702911376,-0.14903905334472656
1788862389545141500,4.4981416015625,-6.603357816314697,-4.001010249328613,-0.6010942543029785
1788862389555182300,4.508182373046875,-6.033537821197509,-3.6037224113464355,-0.9699509475708007
1788862389565224400,4.518224365234375,-6.02680412902832,-3.6358944961547848,-1.3018471527099609
1788862389575265300,4.528265380859375,-6.5200096710205075,-4.042459865570068,-1.6397288619995116
1788862389585306400,4.538306396484375,-7.072621341705322,-4.682908809661865,-1.8881272842407226
1788862389595348500,4.548348388671875,-7.427861013031006,-5.2076878860473625,-1.8441338287353515
1788862389605389300,4.558389404296875,-7.990498403167724,-5.470601155853271,-1.6549918975830078
1788862389615431400,4.568431396484375,-8.627056769561767,-5.686977130889892,-1.3516764747619627
1788862389625472300,4.57847216796875,-8.932467118835449,-5.830928505706787,-1.028608888244629
1788862389635514400,4.588514404296875,-8.825176956939696,-5.768379987335205,-0.7975684280395507
1788862389645555200,4.59855517578125,-8.305036646270752,-5.508609107208252,-0.6126163497924805
1788862389655597600,4.60859765625,-7.803750673675537,-5.309142181396484,-0.6259340965270995
1788862389665638400,4.618638427734375,-7.733121724700927,-5.048772750854492,-1.0090063621520995
1788862389675680500,4.628680419921875,-7.459584185028076,-4.906766664886474,-1.660528488922119
1788862389685721300,4.638721435546875,-7.323413965606689,-4.996848502349853,-2.289904250335693
1788862389695763500,4.648763427734375,-7.195922727203369,-5.014655377197266,-2.8782793083190916
1788862389705804300,4.65880419921875,-7.184250994110107,-4.500201295471191,-3.2597055603027343
1788862389715846400,4.668846435546875,-7.225999885559082,-3.676595924377441,-3.254019331359863
1788862389725887200,4.67888720703125,-7.739705779266357,-2.9435213035583496,-2.9575872383117674
1788862389735929600,4.6889296875,-8.124274420928955,-2.9689596961975098,-2.840420994567871
1788862389745970400,4.698970458984375,-7.951442988586425,-3.47937356262207,-3.123834616088867
1788862389756011500,4.709011474609375,-7.428309925842285,-3.7415386444091796,-3.6177883460998532
1788862389766053400,4.719053466796875,-6.827814221954346,-3.648613692474365,-3.840898013305664
1788862389776094500,4.729094482421875,-6.597521949768066,-2.3671172538757324,-3.6255695014953613
1788862389786136300,4.73913623046875,-6.713341455078124,-1.2503718170166014,-3.2392052085876464
1788862389796177400,4.749177490234375,-6.919542073059081,-0.8622118728637694,-2.8713959785461425
1788862389806219300,4.75921923828125,-7.84669666595459,-0.8677484642028808,-2.824559408569336
1788862389816260400,4.76926025390625,-8.441955053710936,-1.2107178520202635,-2.854486929321289
1788862389826302200,4.77930224609375,-8.488342710876465,-1.618480322265625,-2.7257985900878903
1788862389836343300,4.78934326171875,-8.20298380050659,-2.1167735427856442,-2.396745499420166
1788862389846385400,4.799385498046875,-7.220912207031249,-2.368164717102051,-1.9678841270446776
1788862389856426500,4.809426513671875,-6.955904010772705,-1.632396619415283,-1.5619173080444335
1788862389866468400,4.81946826171875,-7.985709999847412,-0.8875006278991698,-1.5388731170654295
1788862389876509400,4.829509521484375,-8.530540515136718,-1.7562965553283691,-2.264765132904053
1788862389886551300,4.83955126953125,-7.930194448852538,-2.8184242668151853,-3.5181297019958495
1788862389896592400,4.84959228515625,-6.501005695343017,-2.6095301719665525,-4.305522772979736
1788862389906634200,4.85963427734375,-6.471377449798584,-1.5472528228759765,-4.013130895233154
1788862389916675300,4.86967529296875,-8.933664219665527,-0.9846154327392578,-3.1190462127685543
1788862389926716400,4.87971630859375,-10.64297456741333,-2.0124761329650878,-2.7482442306518555
1788862389936758300,4.88975830078125,-10.61708726196289,-3.024475247192383,-2.9117981315612793
1788862389946799400,4.89979931640625,-9.088239864349365,-2.9493571701049803,-3.2543186065673826
1788862389956841500,4.909841552734375,-8.613739022827147,-2.3801357254028317,-3.483862690734863
1788862389966882600,4.919882568359375,-8.647407483673096,-2.3491607414245603,-3.9393595565795896
1788862389976924400,4.92992431640625,-8.938901535797118,-3.0448259613037107,-4.691438153076172
1788862389986965500,4.939965576171875,-9.176376412963867,-3.025073797607422,-4.7849616554260255
1788862389997007400,4.95000732421875,-9.221866244506835,-2.7275942413330077,-4.018667486572266
1788862390007048400,4.96004833984375,-9.632022916412353,-2.005293527984619,-3.277811710357666
1788862390017090300,4.97009033203125,-10.858003804016112,-0.6774094322204589,-3.139696202087402
1788862390027131400,4.98013134765625,-11.177180812835692,-0.6257844589233398,-3.42849677734375
1788862390037173200,4.99017333984375,-9.803357972717285,-1.105073703765869,-4.428973796081543
1788862390047214300,5.00021435546875,-7.413346165466308,-1.2032359718322754,-4.996549227142333
1788862390057256400,5.01025634765625,-5.900659629058837,-0.6600514701843261,-4.102763819885253
1788862390067297500,5.020297607421875,-5.757456442260742,-0.39983167724609375,-3.0635306617736813
1788862390077339400,5.03033935546875,-6.622212154388428,-0.2916436897277832,-2.7307366310119625
1788862390087380500,5.04038037109375,-8.084021905517577,0.06374561920166015,-2.9988872169494627
1788862390097421300,5.05042138671875,-8.793304147338867,-0.011522095489501952,-3.2213983337402343
1788862390107463400,5.06046337890625,-8.125022608947754,-0.35883097381591794,-3.2516251296997067
1788862390117504300,5.070504150390625,-7.3419690284729,-0.20485387954711912,-3.349338484954834
1788862390127546400,5.08054638671875,-7.7593083053588865,-0.4586392555236816,-3.866336405944824
1788862390137587200,5.090587158203125,-8.03778388595581,-1.298555125427246,-4.314949942016601
1788862390147629300,5.10062939453125,-7.791031477355957,-1.3217489540100096,-4.523694399261474
1788862390157670100,5.110670166015625,-7.12484486541748,-1.3211504035949706,-4.145111261749268
1788862390167712500,5.12071240234375,-5.748029273223876,-1.266682315826416,-2.978386865234375
1788862390177753300,5.13075341796875,-6.310965938568115,-0.13736732025146484,-1.5013140785217285
1788862390187795500,5.14079541015625,-7.789535101318359,0.3119944038391113,-1.4287398406982421
1788862390197836300,5.150836181640625,-10.320206256103514,-0.5389946487426758,-1.6711527587890624
1788862390207878400,5.16087841796875,-11.77303775100708,-1.3931260910034178,-2.52184253616333
1788862390217919200,5.170919189453125,-12.596493484497069,-1.3973159439086913,-3.7419875572204586
1788862390227961300,5.18096142578125,-12.231826644134522,-1.8825906929016112,-4.682759172058105
1788862390238002200,5.191002197265625,-11.382184329986572,-2.8012159423828122,-5.22220273361206
1788862390248044500,5.20104443359375,-11.092336291503905,-3.0156466285705563,-4.7584757995605464
1788862390258085400,5.21108544921875,-10.51443586578369,-2.9788357780456542,-3.2200515953063964
1788862390268126500,5.22112646484375,-10.161590396118163,-2.3720552947998046,-2.1733365570068357
1788862390278168300,5.231168212890625,-8.652195886993407,-1.817049422454834,-2.350657117462158
1788862390288209400,5.24120947265625,-7.562684494018554,-1.3548188644409178,-2.580500476837158
1788862390298251300,5.251251220703125,-7.919121266174316,-0.9897031112670898,-2.664896085357666
1788862390308292400,5.261292236328125,-8.438214113616944,-0.6426935081481934,-2.8693010520935056
1788862390318334500,5.27133447265625,-8.702773397064208,-0.6006453414916992,-2.974496287536621
1788862390328375300,5.281375244140625,-8.588450267791748,-0.7936778503417968,-2.747795317840576
1788862390338417400,5.29141748046875,-8.440309040069579,-0.9265560424804687,-2.4875755249023435
1788862390348458200,5.301458251953125,-8.355015605926512,-0.9820715934753418,-2.449717211151123
1788862390358500600,5.31150048828125,-8.409034780883788,-0.9083002548217773,-2.4390929412841795
1788862390368541400,5.32154150390625,-8.244732691955566,-0.7968202400207519,-2.557456285858154
1788862390378583600,5.33158349609375,-7.88500389251709,-0.8716390419006347,-2.73866742401123
1788862390388624100,5.3416240234375,-8.492682201385497,-1.3314753982543945,-2.590675833892822
1788862390398666200,5.351666259765625,-9.149591281890869,-1.6394295867919921,-1.92164610748291
1788862390408707000,5.36170703125,-9.637409870147705,-1.6118962677001951,-1.2466308769226073
1788862390418749200,5.371749267578125,-9.644293199920654,-1.4893430702209471,-0.9751882637023925
1788862390428790000,5.3817900390625,-9.24371333465576,-1.1960533668518065,-1.2592004356384277
1788862390438831000,5.3918310546875,-8.487594522857666,-0.668431175994873,-1.7609353210449217
1788862390448873000,5.401873046875,-8.207472928619385,-0.1274912384033203,-2.3515549430847167
1788862390458914000,5.4119140625,-8.878597581481934,-0.004938040924072265,-3.3668460845947266
1788862390468956200,5.4219560546875,-9.578452654266357,-0.0430956298828125,-4.370166217803955
1788862390478997200,5.431997314453125,-9.56348889389038,-0.2442085693359375,-4.8217725059509275
1788862390489039000,5.4420390625,-9.710881933593749,-0.5195417602539062,-4.083909481811523
1788862390499080200,5.452080078125,-10.198850159454345,-0.9222165519714355,-2.581697577667236
1788862390509122000,5.4621220703125,-10.3682399269104,-1.3242927932739257,-1.3587094421386718
1788862390519163100,5.4721630859375,-10.433781197357177,-1.4591162742614745,-0.699705435180664
1788862390529205000,5.482205078125,-10.525808323669432,-1.333719962310791,-0.6428431457519531
1788862390539246000,5.49224609375,-10.430638807678221,-1.149815347290039,-0.8090905235290526
1788862390549288000,5.502287841796875,-10.069263994598389,-0.9727940620422363,-1.0206780952453613
1788862390559329000,5.5123291015625,-9.826252526092528,-0.8655039001464844,-1.0000281059265137
1788862390569371100,5.52237109375,-9.624989949035644,-0.8943839576721191,-0.7363666481018066
1788862390579412200,5.532412109375,-9.29548794555664,-1.0972925483703613,-0.32665888900756834
1788862390589454000,5.5424541015625,-9.028534460449219,-1.2868833923339842,-0.0626981559753418
1788862390599495200,5.5524951171875,-9.324667278289795,-1.4713865577697753,-0.21862053909301757
1788862390609536300,5.562536376953125,-9.764901108551024,-1.6117466300964354,-0.6016928047180176
1788862390619578000,5.572578125,-9.406369409942627,-1.6437690773010254,-0.6292261238098145
1788862390629619200,5.582619140625,-8.93141965560913,-1.6231190879821777,-0.6376058296203613
1788862390639661000,5.5926611328125,-9.138518099212646,-1.6922516609191893,-0.7101800674438477
1788862390649702100,5.6027021484375,-9.36013139038086,-1.8861819953918455,-0.7300818687438965
1788862390659744000,5.612743896484375,-9.035567427825928,-2.1371242568969726,-0.6402993064880371
1788862390669785000,5.62278515625,-8.49762024230957,-2.3509563926696777,-0.661398208618164
1788862390679827200,5.6328271484375,-8.552686880493164,-2.4775498054504395,-0.9190741622924804
1788862390689868300,5.642868408203125,-8.998606939697265,-2.5507225936889646,-1.2774562232971192
1788862390699910100,5.65291015625,-9.161711927795409,-2.680757671356201,-1.4209586853027343
1788862390709951200,5.662951171875,-8.787617918395995,-2.8956372703552242,-1.6246154640197752
1788862390719993000,5.6729931640625,-9.070732264709472,-3.0750527572631836,-1.9518729034423827
1788862390730034200,5.6830341796875,-9.888052856445311,-3.2281320259094235,-2.2595278167724606
1788862390740076000,5.693075927734375,-9.734524674987792,-3.304596841430664,-2.242020217132568
1788862390750117000,5.7031171875,-8.628253870391845,-3.210624426269531,-2.165405764007568
1788862390760159000,5.713158935546875,-8.21645118484497,-3.040187195587158,-2.1000141311645506
1788862390770200000,5.723199951171875,-8.7332994682312,-2.8923452430725094,-2.035969236755371
1788862390780241000,5.733240966796875,-9.210044873809814,-2.9117981315612793,-1.8435352783203125
1788862390790283300,5.743283203125,-9.062651834106445,-3.0621839233398433,-1.3998597831726074
1788862390800324000,5.753323974609375,-8.456469901275634,-3.3640029701232907,-1.1067197174072265
1788862390810366200,5.7633662109375,-8.35711053237915,-3.7102643852233883,-1.094299796295166
1788862390820407000,5.773406982421875,-8.620622352600098,-4.032284508514404,-1.1985972061157226
1788862390830449200,5.78344921875,-8.335263442230223,-4.256740914154053,-1.2006921325683593
1788862390840490000,5.793489990234375,-7.861959701538085,-4.314201753997803,-1.044470474243164
1788862390850532000,5.803531982421875,-7.716362313079833,-4.2603322166442865,-0.8249521095275878
1788862390860573000,5.813572998046875,-7.998578833770751,-4.160075022125244,-0.610371785736084
1788862390870615300,5.823615234375,-8.656385739898681,-4.121767795562744,-0.4439747703552246
1788862390880656100,5.83365625,-9.000851503753662,-4.326771312713623,-0.28176760787963867
1788862390890698200,5.8436982421875,-8.850764987182616,-4.780921440124511,-0.3206733848571777
1788862390900739000,5.853739013671875,-8.694393691253662,-5.238213957214355,-0.5255272644042969
1788862390910781200,5.86378125,-8.729259252929687,-5.529408734130859,-0.7959224143981933
1788862390920822000,5.873822021484375,-8.905233074951171,-5.5735518272399895,-0.9835679695129393
1788862390930864000,5.883864013671875,-8.988581220245361,-5.408052637481689,-1.1938088027954101
1788862390940905200,5.8939052734375,-9.170839821624755,-5.2186114311218255,-1.4133271675109862
1788862390950947000,5.903947021484375,-9.370905297851563,-5.0945618576049805,-1.4031518104553222
1788862390960988200,5.91398828125,-9.261071296691894,-5.138854588317871,-1.073799444580078
1788862390971029000,5.924029052734375,-8.768613942718506,-5.3107881950378415,-0.613514175415039
1788862390981071400,5.9340712890625,-8.308328673553467,-5.5343467750549316,-0.4354454269409179
1788862390991112200,5.9441123046875,-8.180238884735108,-5.821501336669922,-0.4783914192199707
1788862391001154300,5.954154296875,-8.205078726959227,-5.9947816818237305,-0.4933551795959472
1788862391011195100,5.964195068359375,-8.151508464813231,-6.088604459381103,-0.47270519027709956
1788862391021237200,5.9742373046875,-7.885602442932129,-6.245723943328857,-0.5123591552734374
1788862391031278000,5.984278076171875,-7.486070040893554,-6.344634399414062,-0.5505167442321777
1788862391041320200,5.9943203125,-7.152228546905517,-6.421997040557861,-0.6787561706542968
1788862391051361000,6.004361083984375,-7.094019519042968,-6.451625286102295,-0.7689876457214355
1788862391061403100,6.014403076171875,-7.185298457336425,-6.496965480041504,-0.8174702293395996
1788862391071444000,6.02444384765625,-7.243058572387695,-6.533327417755126,-0.8438064476013183
1788862391081486300,6.034486328125,-7.200561492919921,-6.635080988311767,-0.958877764892578
1788862391091527200,6.044527099609375,-7.1692872337341305,-6.770951932525635,-1.0800842239379882
1788862391101569300,6.0545693359375,-7.130082181549072,-6.950965969848633,-1.1978490180969237
1788862391111610000,6.064610107421875,-7.276727033233642,-7.164947743225097,-1.3099275833129882
1788862391121652200,6.07465234375,-7.678653636932372,-7.391199800109863,-1.3631985702514648
1788862391131693000,6.084693115234375,-8.016684983825684,-7.600393170166015,-1.3967173934936523
1788862391141734100,6.094734130859375,-7.969698776245116,-7.605331211090087,-1.384147834777832
1788862391151776000,6.10477587890625,-7.717409776306152,-7.424269710540771,-1.3789105186462403
1788862391161817000,6.114817138671875,-7.68059892578125,-7.190984686279297,-1.4199112220764158
1788862391171859000,6.12485888671875,-7.7142673866271965,-7.036259403991699,-1.5261539207458494
1788862391181900000,6.134900146484375,-7.660248211669922,-6.96518154220581,-1.5288473976135253
1788862391191942100,6.144942138671875,-7.535749725341796,-6.9348051086425775,-1.4007576087951659
1788862391201983200,6.154983154296875,-7.426963187408447,-6.899340996551513,-1.1813888816833495
1788862391212025000,6.165025146484375,-7.557746453094482,-6.870161663818359,-0.8562263687133789
1788862391222066200,6.175066162109375,-7.725789482116698,-6.948571768188476,-0.5876268699645996
1788862391232108000,6.18510791015625,-7.666233715820312,-7.135169860076904,-0.35314474487304687
1788862391242149000,6.195149169921875,-7.304858902740478,-7.325957804870605,-0.13916297149658202
1788862391252191000,6.20519091796875,-6.86342797164917,-7.415740367126465,0.05401917495727539
1788862391262232000,6.215232177734375,-6.562057837677002,-7.38671067199707,0.15517419509887695
1788862391272274000,6.22527392578125,-6.564900952148437,-7.323713240814208,0.11103110198974608
1788862391282315000,6.23531494140625,-6.881534121704101,-7.341071202850341,-0.1031003089904785
1788862391292357000,6.245357177734375,-7.055413017272949,-7.4031708084106445,-0.42272623062133785
1788862391302398200,6.255398193359375,-6.862380508422851,-7.445368612670898,-0.7451952667236328
1788862391312439300,6.265439208984375,-6.743568251037598,-7.42441934814453,-1.0242693977355957
1788862391322481200,6.275481201171875,-6.935254021453857,-7.3937436393737785,-1.1911153259277343
1788862391332522200,6.285522216796875,-7.146542317962646,-7.422174784088134,-1.2535142066955565
1788862391342564000,6.295564208984375,-7.113173132324218,-7.438634920501708,-1.2141595169067383
1788862391352605200,6.305605224609375,-6.97805037612915,-7.46317548751831,-1.1309610092163085
1788862391362647000,6.31564697265625,-6.860884132385253,-7.620594246673583,-1.0236708473205567
1788862391372688100,6.325688232421875,-6.843675807952881,-7.894431061553955,-0.9087491676330566
1788862391382731300,6.335731201171875,-6.854300077819824,-8.12113203125,-0.8614636848449706
1788862391392772000,6.345772216796875,-6.932560544586181,-8.220641037750244,-0.8038532073974609
1788862391402814200,6.355814208984375,-6.966977193450927,-8.148814987945556,-0.8479963005065917
1788862391412855000,6.36585498046875,-6.872256590270996,-8.038232798767089,-0.9632172554016113
1788862391422897400,6.3758974609375,-6.837091753387451,-7.923760031890868,-1.0226233840942383
1788862391432938200,6.385938232421875,-6.858041017913818,-7.809137627410888,-1.0160393295288086
1788862391442980400,6.39598046875,-6.938246773529053,-7.689876457214355,-0.9540893615722655
1788862391453021200,6.406021240234375,-6.96563045501709,-7.602637734222411,-0.8349778289794921
1788862391463063300,6.416063232421875,-6.970119583129883,-7.536497913360595,-0.7863456077575683
1788862391473104100,6.426104248046875,-7.008127534484863,-7.325808167266845,-0.66394204788208
1788862391483146200,6.436146240234375,-6.873004778289794,-6.919990985870361,-0.4444236831665039
1788862391493187000,6.44618701171875,-6.490231787872314,-6.500856057739258,-0.27084406280517576
1788862391503228200,6.456228271484375,-6.076034900665283,-6.254702199554443,-0.1975216369628906
1788862391513270000,6.46627001953125,-5.660940187835693,-6.312462314605712,-0.28640637359619137
1788862391523311000,6.47631103515625,-5.321711740112304,-6.476315490722656,-0.3277063522338867
1788862391533353200,6.486353271484375,-5.057302094268799,-6.876596080780029,-0.35134909362792965
1788862391543394300,6.496394287109375,-5.070021290588379,-7.483825476837158,-0.5828384666442871
1788862391553436200,6.506436279296875,-5.398924743652343,-8.095992913818359,-1.0748469078063965
1788862391563477200,6.516477294921875,-6.064063892364501,-8.221389225769043,-1.426944189453125
1788862391573519000,6.52651904296875,-6.822726543426513,-7.783699234771728,-1.2671312286376952
1788862391583560200,6.536560302734375,-7.564031232452392,-7.234678866577148,-1.0069114356994628
1788862391593602300,6.546602294921875,-8.436867375183105,-6.922684462738037,-0.7963713272094726
1788862391603643100,6.55664306640625,-9.290699542236327,-6.706009212493896,-0.6884826148986816
1788862391613685200,6.566685302734375,-9.432855265808104,-6.667253073120117,-0.5617395645141601
1788862391623726300,6.576726318359375,-8.713397666931153,-6.813149736785888,-0.4563946914672851
1788862391633768400,6.5867685546875,-7.851185794067383,-7.020697093200683,-0.3399766357421875
1788862391643809300,6.596809326171875,-6.898443170928955,-6.975656174468994,-0.14454992523193358
1788862391653851400,6.606851318359375,-6.01408493270874,-6.673388214874267,0.21891981430053709
1788862391663892200,6.616892333984375,-5.276670821380615,-6.5117796028137205,0.6443395217895508
1788862391673933300,6.626933349609375,-4.905120651245117,-6.661267568969726,0.7647977928161621
1788862391683975200,6.63697509765625,-5.267842202758788,-6.929567792510986,0.36227263870239257
1788862391694016300,6.647016357421875,-6.151901165771484,-7.050026063537597,-0.28266543350219725
1788862391704058000,6.65705810546875,-7.279570147705078,-7.244554948425293,-0.9669581954956055
1788862391714099200,6.66709912109375,-8.358756546020507,-7.4895117057800284,-1.5650596977233886
1788862391724141300,6.677141357421875,-9.361328491210937,-7.710825721740722,-2.024297503662109
1788862391734182400,6.687182373046875,-9.924115518951416,-7.978228119659423,-2.309955689239502
1788862391744224300,6.697224365234375,-9.758765966796874,-7.919420541381835,-2.223614791870117
1788862391754265300,6.707265380859375,-8.973617459869384,-7.381174080657958,-1.6065093139648436
1788862391764307200,6.71730712890625,-8.380304360961913,-6.664559596252441,-0.7411550514221191
1788862391774348300,6.727348388671875,-8.067861044311522,-6.105363871002197,0.07302315063476562
1788862391784390100,6.73739013671875,-7.652018143463135,-5.793219829559326,0.7474398307800293
1788862391794431200,6.74743115234375,-7.237821256256103,-5.588216312408447,1.177199028778076
1788862391804473000,6.75747314453125,-7.023540207672118,-5.531354022979736,1.2931681716918944
1788862391814514200,6.76751416015625,-7.174524549865723,-5.561730456542969,1.1233294914245604
1788862391824556300,6.777556396484375,-7.615207292938232,-5.5558945899963375,0.743100340270996
1788862391834597400,6.787597412109375,-7.926453508758544,-5.586570298767089,0.24016835403442383
1788862391844638500,6.797638427734375,-8.022820125579834,-5.661688375854492,-0.2271498825073242
1788862391854680300,6.807680419921875,-7.950245887756347,-5.72648145828247,-0.5991489654541016
1788862391864721400,6.817721435546875,-7.856572747802734,-5.6563014221191406,-0.8846575134277344
1788862391874763300,6.82776318359375,-7.829189066314697,-5.512948597717285,-1.0784382102966308
1788862391884804400,6.837804443359375,-7.93603031539917,-5.331887097167969,-1.15565121383667
1788862391894846200,6.84784619140625,-8.059032425689697,-5.176413626861572,-1.0941501586914062
1788862391904887300,6.85788720703125,-8.261492103576659,-5.092167655944824,-0.9738415252685546
1788862391914929200,6.86792919921875,-8.435969549560546,-5.20993245010376,-0.8556278182983398
1788862391924970200,6.87797021484375,-8.513481828308105,-5.513996060943604,-0.7722796730041503
1788862391935012400,6.888012451171875,-8.570942668151854,-5.887192244720459,-0.6910264541625977
1788862391945053400,6.898053466796875,-8.661174143218993,-5.994482406616211,-0.49096097793579097
1788862391955095300,6.90809521484375,-8.806472256469727,-5.849184293365478,-0.18614917907714842
1788862391965136400,6.918136474609375,-9.195230751037597,-5.671863732910156,0.16250643768310546
1788862391975178200,6.92817822265625,-9.900622415161132,-5.662436563873291,0.22086510314941404
1788862391985219300,6.93821923828125,-9.579051204681395,-5.62442861251831,0.05102642288208008
1788862391995261200,6.94826123046875,-8.801234940338134,-5.357774402618408,-0.03486556167602539
1788862392005302300,6.95830224609375,-8.282441368103028,-5.009118785858154,-0.0626981559753418
1788862392015344000,6.96834423828125,-8.117091815948486,-4.715978720092773,-0.20380641632080077
1788862392025385200,6.97838525390625,-8.148814987945556,-4.528931715393066,-0.4285620971679687
1788862392035426000,6.988426025390625,-7.995586081695556,-4.581753789520263,-0.6962637702941894
1788862392045468400,6.998468505859375,-7.926453508758544,-4.847061260986328,-1.1143512351989746
1788862392055509200,7.00850927734375,-7.62897395248413,-4.97949054031372,-1.3253402565002441
1788862392065551400,7.01855126953125,-7.671770307159424,-4.772691371917724,-1.3691840744018553
1788862392075592200,7.02859228515625,-8.124872971343994,-4.2034699272155756,-1.382801096343994
1788862392085634300,7.03863427734375,-8.6827219581604,-3.9362171669006347,-1.5038579177856444
1788862392095675100,7.048675048828125,-9.064597122955321,-4.055179061889648,-1.5846622238159178
1788862392105717200,7.05871728515625,-8.895506630706787,-4.377199185180664,-1.5153800132751465
1788862392115758000,7.068758056640625,-8.649502410125733,-4.668842874908447,-1.263539926147461
1788862392125800200,7.07880029296875,-8.322843521118164,-4.646995784759521,-1.0290578010559082
1788862392135841000,7.088841064453125,-8.466345983123778,-4.356698833465576,-0.7998129920959473
1788862392145883400,7.09888330078125,-8.8612396194458,-3.965695774841308,-0.7104793426513671
1788862392155924200,7.10892431640625,-9.007136283111572,-3.5990836456298827,-0.838868406677246
1788862392165966300,7.11896630859375,-9.15437968521118,-3.5224691925048828,-1.103876602935791
1788862392176007200,7.129007080078125,-9.188197783660888,-3.658789049530029,-1.4163199195861815
1788862392186049300,7.13904931640625,-9.0021982421875,-3.6816836029052733,-1.586607512664795
1788862392196090000,7.149090087890625,-9.113827894592285,-3.578583293914795,-1.6074071395874023
1788862392206131200,7.159131103515625,-9.31434228363037,-3.4712931320190425,-1.5394716674804687
1788862392216173000,7.169173095703125,-9.421482807922363,-3.332130160522461,-1.4419079498291014
1788862392226214100,7.179214111328125,-9.379584278869629,-3.278410260772705,-1.3136685234069823
1788862392236256300,7.18925634765625,-9.477147996520996,-3.1748610389709473,-1.2253823371887207
1788862392246297300,7.19929736328125,-9.633369654846192,-3.0705636291503904,-1.1284171699523926
1788862392256339200,7.209339111328125,-9.708936644744872,-3.0591911712646485,-1.1309610092163085
1788862392266380300,7.21938037109375,-9.553762449645996,-3.1610943794250486,-1.2575544219970702
1788862392276422100,7.229422119140625,-9.340977777099608,-3.371634487915039,-1.5423147819519043
1788862392286463200,7.239463134765625,-8.79150849609375,-3.461417050170898,-1.8906711235046385
1788862392296505000,7.249505126953125,-8.871863889312744,-3.402160559082031,-2.2575825279235837
1788862392306546200,7.259546142578125,-8.350376840209961,-3.2974142364501953,-2.529922966766357
1788862392316588300,7.26958837890625,-8.271817098236083,-3.1193454879760742,-2.6077345207214355
1788862392326629000,7.279629150390625,-8.830563910675048,-2.909254292297363,-2.7289409797668456
1788862392336671200,7.289671142578125,-8.743474825286865,-2.6503812377929687,-2.769642407989502
1788862392346712300,7.29971240234375,-8.416067748260497,-2.3964462242126463,-2.597708801269531
1788862392356754200,7.309754150390625,-8.531737615966797,-2.282422370147705,-2.2890064247131345
1788862392366795300,7.319795166015625,-8.539219496154784,-2.2565350646972653,-2.054524299621582
1788862392376837400,7.32983740234375,-8.2743609375,-2.099864493560791,-1.8357541229248047
1788862392386877400,7.33987744140625,-8.766219741058348,-1.9183540802001953,-1.8025345748901367
1788862392396918500,7.34991845703125,-9.367613270568848,-1.7583914817810058,-1.8875287338256834
1788862392406960400,7.35996044921875,-9.004891719055175,-1.684769780731201,-1.9536685546875
1788862392417001500,7.37000146484375,-8.955062397003173,-1.492036547088623,-2.0676924087524413
1788862392427043600,7.380043701171875,-8.603862940979003,-1.1673229469299315,-2.1074960113525387
1788862392437084700,7.390084716796875,-8.82936680984497,-0.8726865051269531,-2.3178864822387695
1788862392447126500,7.40012646484375,-8.818443264770508,-0.7583633758544921,-2.2680571601867676
1788862392457167600,7.410167724609375,-8.489988724517822,-0.685040950012207,-2.2168810997009274
1788862392467209500,7.42020947265625,-8.58620570373535,-0.40057986526489253,-2.0623054550170896
1788862392477250600,7.43025048828125,-9.261370571899414,-0.32606033859252925,-2.0226514900207517
1788862392487292400,7.44029248046875,-9.291148455047606,-0.5958569381713866,-2.056319950866699
1788862392497333500,7.45033349609375,-8.942792113494873,-0.8665513633728027,-1.999008748626709
1788862392507375400,7.460375244140625,-8.830713548278808,-0.9835679695129393,-1.8881272842407226
1788862392517416400,7.47041650390625,-8.96942760696411,-0.8616133224487305,-1.9470845001220702
1788862392527458600,7.48045849609375,-8.91316386795044,-0.6667851623535156,-2.0061913536071776
1788862392537499600,7.490499755859375,-8.364592412567138,-0.26605565948486326,-2.1511901916503904
1788862392547541500,7.50054150390625,-8.86752439880371,0.14050970993041992,-2.2340894241333005
1788862392557582600,7.51058251953125,-9.665541739654541,0.44322658233642576,-1.9882348411560058
1788862392567624400,7.52062451171875,-9.6656913772583,0.3284545402526855,-1.710357810974121
1788862392577665500,7.53066552734375,-8.88697728729248,0.15322890625,-1.3920786277770996
1788862392587706600,7.54070654296875,-8.59982272567749,0.27892449340820313,-1.382202545928955
1788862392597748500,7.55074853515625,-9.853486569976805,0.31588498153686523,-1.7310078002929687
1788862392607789600,7.56078955078125,-10.097844776916503,0.11716624374389648,-2.0014029502868653
1788862392617831400,7.57083154296875,-9.110086954498291,0.23448212509155272,-1.6524480583190917
1788862392627872500,7.58087255859375,-8.62451293029785,0.41838674011230464,-1.3274351829528808
1788862392637914600,7.59091455078125,-8.719233533477782,0.3716998077392578,-1.537975291442871
1788862392647955700,7.600955810546875,-8.794650885772704,0.2258031440734863,-1.8842367065429686
1788862392657997600,7.61099755859375,-8.456020988464354,0.1858499038696289,-2.0005051246643064
1788862392668038700,7.62103857421875,-8.364293137359619,0.2262520568847656,-1.8855834449768065
1788862392678080500,7.63108056640625,-8.616133224487305,0.1375169578552246,-1.7491139503479003
1788862392688121600,7.64112158203125,-8.326285186004638,0.0037409400939941405,-1.6789339141845703
1788862392698163500,7.65116357421875,-7.95518392868042,-0.10085574493408203,-1.5224129806518554
1788862392708204500,7.66120458984375,-7.845349927520751,-0.11507131729125976,-1.6582839248657226
1788862392718246700,7.67124658203125,-8.219892849731444,-0.05087678527832031,-2.147598889160156
1788862392728287700,7.681287841796875,-8.480411917877197,-0.044592005920410155,-2.2846669342041013
1788862392738329600,7.69132958984375,-8.403797464752197,-0.09442132797241211,-2.122160496520996
1788862392748370700,7.70137060546875,-8.366537701416014,-0.28012159423828126,-1.8121113815307617
1788862392758411500,7.71141162109375,-8.424297816467284,-0.575206948852539,-1.5707459266662598
1788862392768453600,7.72145361328125,-8.706215061950683,-0.9172785110473632,-1.5456068092346191
1788862392778494700,7.73149462890625,-9.297882147216797,-1.1647791076660157,-1.613243006134033
1788862392788536600,7.74153662109375,-9.350404946136473,-1.3395558288574219,-1.6733973228454588
1788862392798577700,7.75157763671875,-9.4741552444458,-1.5315408744812011,-1.60875387802124
1788862392808619500,7.76161962890625,-9.435099829864502,-1.651699870300293,-1.574337229156494
1788862392818660600,7.77166064453125,-9.426420848846435,-1.7655740867614744,-1.5469535476684568
1788862392828702700,7.78170263671875,-9.667935941314697,-1.8977040908813476,-1.4182652084350584
1788862392838743800,7.791743896484375,-9.50572877883911,-2.1061492729187012,-1.3099275833129882
1788862392848785700,7.80178564453125,-9.209745598602295,-2.271648462677002,-1.1718120750427246
1788862392858826800,7.81182666015625,-9.28276874923706,-2.260724917602539,-1.1691185981750487
1788862392868868600,7.82186865234375,-9.492111756896971,-2.1555296821594236,-1.1662754837036131
1788862392878909700,7.83190966796875,-9.249249925994873,-2.0760721145629883,-1.0281599754333495
1788862392888951600,7.84195166015625,-8.727463601684569,-2.0766706649780273,-0.8104372619628906
1788862392898992600,7.85199267578125,-8.419659050750733,-2.156577145385742,-0.5677250686645507
1788862392909034500,7.862034423828125,-8.470236560821533,-2.294991928863525,-0.4914098907470703
1788862392919075600,7.87207568359375,-8.571990131378174,-2.5501240432739256,-0.6759130561828612
1788862392929116400,7.882116455078125,-8.429086219787598,-2.8262054222106934,-0.8584709327697754
1788862392939158800,7.89215869140625,-8.198644309997558,-3.136703450012207,-0.9057564155578612
1788862392949199600,7.90219970703125,-7.950096250152588,-3.3789667304992674,-0.8795698348999023
1788862392959241700,7.91224169921875,-7.998429196166992,-3.574543078613281,-0.7821557548522948
1788862392969282600,7.922282470703125,-8.432228609466552,-3.842095114135742,-0.7246949150085449
1788862392979324700,7.93232470703125,-8.780884226226807,-4.240131140136718,-0.7767688011169434
1788862392989365500,7.942365478515625,-8.662520881652831,-4.625447969818115,-0.762253953552246
1788862392999407600,7.95240771484375,-8.486846334838866,-4.866364511871337,-0.6572083557128906
1788862393009448400,7.962448486328125,-8.570793030548096,-4.929511580657959,-0.5252279891967773
1788862393019490600,7.972490478515625,-8.88069250793457,-4.962731128692627,-0.43664252777099605
1788862393029531400,7.982531494140625,-9.145551066589356,-5.042039058685303,-0.5689221694946289
1788862393039573800,7.99257373046875,-8.896254818725586,-5.138106400299072,-0.9917980377197265
1788862393049614600,8.002614501953126,-8.70202520904541,-5.111171631622314,-1.4327800559997559
1788862393059656700,8.01265673828125,-8.716390419006347,-4.951059395599365,-1.610100616455078
1788862393069697500,8.022697509765624,-8.785672629547118,-4.830601124572754,-1.4939818359375
1788862393079739600,8.03273974609375,-8.82891789703369,-4.856338792419433,-1.215655892944336
1788862393089780500,8.042780517578125,-8.763077351379394,-5.033360077667236,-0.9701005851745604
1788862393099821600,8.052821533203126,-8.79734436264038,-5.365405920410156,-0.7896376350402832
1788862393109863400,8.062863525390625,-8.92528451385498,-5.781997009277344,-0.6280290229797363
1788862393119904500,8.072904541015625,-8.918550821685791,-6.190806942749023,-0.3995324020385742
1788862393129946400,8.0829462890625,-8.72731396408081,-6.569090805053711,-0.2659060218811035
1788862393139987500,8.092987548828125,-8.226626541900634,-6.778583450317383,-0.2485480598449707
1788862393150029600,8.103029541015625,-7.653963432312011,-6.794744311523437,-0.2861070983886719
1788862393160070700,8.113070556640626,-7.472453018951415,-6.724863550567626,-0.4203320289611816
1788862393170112500,8.123112548828125,-7.773224602508544,-6.7088523269653315,-0.5942109245300292
1788862393180153600,8.133153564453124,-8.020725199127197,-6.600215426635742,-0.6804021842956542
1788862393190195500,8.143195556640626,-7.840112611389159,-6.425887618255615,-0.7621043159484863
1788862393200236500,8.153236572265625,-7.504026553344726,-6.293607976531982,-0.8276455863952636
1788862393210278400,8.1632783203125,-7.425317173767089,-6.30094021911621,-0.8379705810546875
1788862393220319500,8.173319580078125,-7.525275093078613,-6.40987639465332,-0.7246949150085449
1788862393230361600,8.183361572265625,-7.401674432373047,-6.547692627716064,-0.5235819755554199
1788862393240402700,8.193402587890626,-7.032368826293945,-6.760028387451172,-0.45115737533569333
1788862393250444500,8.203444580078125,-6.885723974609375,-7.033865202331542,-0.5837362922668456
1788862393260485600,8.213485595703125,-7.151480358886718,-7.381174080657958,-0.8466495620727539
1788862393270526700,8.223526611328126,-7.55909319152832,-7.749731498718261,-1.0941501586914062
1788862393280568600,8.233568603515625,-7.988253839111327,-7.9560817543029785,-1.2189479202270508
1788862393290609700,8.243609619140624,-8.349927927398682,-8.044517578125,-1.1947066284179686
1788862393300651500,8.253651611328126,-8.51662421798706,-8.076540025329589,-1.0465654006958007
1788862393310692600,8.263692626953125,-8.156895418548583,-8.08342335510254,-0.9091980804443359
1788862393320734500,8.273734375,-7.720252890777587,-7.912836486816405,-0.8423100715637206
1788862393330775600,8.283775634765625,-7.510610607910156,-7.650372129821777,-0.8087912483215332
1788862393340817700,8.293817626953125,-7.517194662475585,-7.544279068756103,-0.8481459381103515
1788862393350858800,8.303858642578126,-7.564031232452392,-7.633612718200683,-0.8704419410705566
1788862393360900600,8.313900634765625,-7.454795781707763,-7.700051814270019,-0.7389104873657226
1788862393370941700,8.323941650390625,-7.066635837554931,-7.6467808273315425,-0.6106710609436035
1788862393380983600,8.333983642578126,-6.720224784851074,-7.559991017150878,-0.5041290870666504
1788862393391024600,8.344024658203125,-6.515370905303954,-7.586776148223876,-0.44846389846801754
1788862393401066500,8.35406640625,-6.311414851379394,-7.631068878936767,-0.5262754524230957
1788862393411107600,8.364107666015625,-6.091148298645019,-7.705139492797851,-0.8349778289794921
1788862393421149400,8.3741494140625,-6.145017835998535,-7.764545621490478,-1.2744634712219238
1788862393431190500,8.3841904296875,-6.510133589172363,-7.745092733001709,-1.5601216567993164
1788862393441231600,8.394231689453125,-7.022193469238281,-7.922263655853271,-1.6045640251159667
1788862393451273500,8.4042734375,-7.293636082458495,-8.021772662353515,-1.158793603515625
1788862393461314600,8.414314453125,-7.180958966827392,-7.933037563323974,-0.6358101783752441
1788862393471356400,8.4243564453125,-6.9427359016418455,-7.810035453033446,-0.4016273284912109
1788862393481397500,8.4343974609375,-6.749104842376709,-7.711723547363281,-0.3890577697753906
1788862393491439600,8.444439697265626,-6.49277562713623,-7.6300214157104485,-0.605882657623291
1788862393501480700,8.454480712890625,-6.3794999610900875,-7.774421703338622,-0.9332897346496581
1788862393511522600,8.4645224609375,-6.325929698944091,-7.97418790435791,-1.1285668075561524
1788862393521563600,8.474563720703125,-6.183474700164795,-8.123825508117676,-1.0438719238281249
1788862393531605500,8.48460546875,-6.143970372772216,-8.128164998626708,-0.8828618621826171
1788862393541646600,8.494646484375,-6.270563785552978,-8.07624075012207,-0.8001122673034667
1788862393551688400,8.5046884765625,-6.550984654998779,-8.000823397827148,-0.7537246101379395
1788862393561729500,8.5147294921875,-6.862530146026611,-7.8350249328613275,-0.7071873153686523
1788862393571771400,8.524771484375,-7.091774954986572,-7.6002435325622555,-0.7149684707641601
1788862393581812500,8.5348125,-7.333290047454834,-7.370699448394775,-0.6934206558227539
1788862393591854600,8.5448544921875,-7.529764221191406,-7.129184355926514,-0.6214449684143066
1788862393601895700,8.554895751953126,-7.459883460235595,-7.018901441955566,-0.6290764862060546
1788862393611936500,8.5649365234375,-7.308150930023193,-6.944830828094482,-0.6578069061279297
1788862393621978600,8.574978515625,-7.286902390289306,-6.917896059417724,-0.7631517791748046
1788862393632019500,8.58501953125,-7.256825231933593,-7.058256131744384,-0.9153332221984862
1788862393642061600,8.5950615234375,-7.258022332763671,-7.376834590148925,-1.0063128852844239
1788862393652102400,8.605102294921876,-7.297975572967529,-7.5816884696960445,-0.9371803123474121
1788862393662144500,8.61514453125,-7.374440388488769,-7.512555896759033,-0.8270470359802246
1788862393672185300,8.625185302734375,-7.606229036712646,-7.302614338684082,-0.6432920585632323
1788862393682227700,8.635227783203124,-7.890540483856201,-7.057059030914306,-0.43664252777099605
1788862393692268500,8.6452685546875,-8.110358123779296,-6.795941412353515,-0.18525135345458985
1788862393702310700,8.655310546875,-8.10751500930786,-6.669048724365234,-0.05297171173095703
1788862393712351500,8.6653515625,-8.023418675994872,-6.617723026275635,-0.06404489440917968
1788862393722393600,8.6753935546875,-7.9463553100585935,-6.641814680480957,-0.09950900650024413
1788862393732434400,8.685434326171874,-7.877222737121581,-6.646902359008789,-0.18854338073730467
1788862393742476500,8.6954765625,-7.870189769744872,-6.59497811050415,-0.20395605392456054
1788862393752517400,8.705517333984375,-7.912686849212646,-6.545448063659667,-0.24361001892089842
1788862393762558500,8.715558349609376,-8.040477362823486,-6.473173101043701,-0.2792237686157226
1788862393772600300,8.725600341796875,-8.225728716278075,-6.459406441497802,-0.34311902542114253
1788862393782641400,8.735641357421875,-8.31955149383545,-6.476914041137695,-0.4107552223205566
1788862393792683500,8.74568359375,-8.202834162902832,-6.496815842437743,-0.4478653480529785
1788862393802724600,8.755724609375,-8.257751163482666,-6.263979730987549,-0.37978023834228514
1788862393812766500,8.765766357421874,-8.540715872192383,-5.898714340209961,-0.23732523956298826
1788862393822807600,8.7758076171875,-8.726565776062012,-5.753715502166748,-0.2608183433532715
1788862393832849400,8.785849365234375,-8.742277724456786,-5.831676693725585,-0.3945943611145019
1788862393842890500,8.795890380859374,-8.521262983703613,-5.888838258361816,-0.4400841926574707
1788862393852932400,8.805932373046875,-8.193107718658446,-5.863250228118896,-0.3630208267211914
1788862393862973400,8.815973388671875,-7.854627458953857,-5.632957955932617,-0.4364928901672363
1788862393873015300,8.826015380859374,-7.6653358901977535,-5.372738162994384,-0.5687725318908691
1788862393883056400,8.836056396484375,-7.818115883636474,-5.193322676086425,-0.5068225639343261
1788862393893098500,8.846098388671875,-8.132654126739501,-5.197512528991699,-0.41808746490478516
1788862393903139600,8.8561396484375,-8.463053955841064,-5.370643236541747,-0.5331587821960448
1788862393913181400,8.866181396484375,-8.814552687072753,-5.501875415039062,-0.7396586753845215
1788862393923222500,8.876222412109374,-9.140912300872802,-5.387253010559082,-0.9109937316894531
1788862393933263600,8.886263671875,-9.332448433685302,-5.170727397918701,-1.012448027038574
1788862393943305500,8.896305419921875,-9.406070134735106,-5.051765502929687,-0.9332897346496581
1788862393953346600,8.9063466796875,-9.37853681564331,-5.004031107330322,-0.7823053924560547
1788862393963388400,8.916388427734375,-9.271097016143798,-4.886565588378906,-0.6031891807556152
1788862393973429500,8.926429443359375,-8.942941751098632,-4.937442373657226,-0.4263175331115722
1788862393983471400,8.936471435546874,-8.63842922744751,-4.5033436851501465,-0.23582886352539062
1788862393993512400,8.946512451171875,-8.559719847869873,-3.6948517120361326,-0.23508067550659179
1788862394003554600,8.956554443359375,-8.552836518096923,-3.4184710578918454,-0.5942109245300292
1788862394013595600,8.966595703125,-8.57453397064209,-3.4938884101867673,-1.0697592292785645
1788862394023637500,8.976637451171875,-8.391976094055176,-3.6094086402893066,-1.6060604011535644
1788862394033678600,8.9866787109375,-8.521861534118651,-3.6451720275878903,-1.988683753967285
1788862394043720400,8.996720458984376,-9.073126466369628,-3.7626375465393065,-2.340481760406494
1788862394053761500,9.006761474609375,-9.39140564956665,-3.9667432380676266,-2.5378537597656248
1788862394063803400,9.016803466796874,-9.135076434326171,-4.228908319854736,-2.3514053054809567
1788862394073844500,9.026844482421875,-8.82936680984497,-4.226963031005859,-1.9168577041625976
1788862394083885300,9.03688525390625,-8.623016554260253,-3.989039241027832,-1.4140753555297851
1788862394093927400,9.046927490234374,-8.699182094573974,-3.580678220367431,-1.1140519599914551
1788862394103968300,9.05696826171875,-8.332869240570068,-3.3942297660827636,-1.285835929107666
1788862394114010600,9.0670107421875,-8.230217844390868,-3.4784757369995116,-1.681627391052246
1788862394124051500,9.077051513671876,-8.309376136779784,-3.3197102394104,-2.0638018310546875
1788862394134093600,9.087093505859375,-7.620893521881103,-2.9466636932373045,-2.258031440734863
1788862394144134400,9.097134521484374,-7.196970190429687,-2.6063877822875976,-2.218527113342285
1788862394154176500,9.107176513671876,-7.837718409729003,-2.3778911613464353,-2.2839187461853028
1788862394164217600,9.117217529296875,-8.050503082275391,-1.961300072479248,-2.235885075378418
1788862394174259500,9.127259521484374,-7.85268217010498,-1.7769465446472168,-2.3415292236328122
1788862394184300500,9.137300537109375,-7.997531370544433,-1.7317559883117675,-2.4561516281127926
1788862394194342700,9.1473427734375,-8.039729174804688,-1.6865654319763184,-2.4340052627563473
1788862394204383500,9.157383544921874,-7.831732905578613,-1.7474679367065429,-2.3886650688171387
1788862394214425600,9.167425537109375,-8.184428737640381,-1.735945841217041,-2.2327426856994625
1788862394224466700,9.177466796875,-8.339752570343016,-1.675192974090576,-2.163610112762451
1788862394234507500,9.187507568359376,-8.581566938018799,-1.3572130661010742,-2.0759224769592284
1788862394244549600,9.197549560546875,-8.429086219787598,-1.1459247695922852,-2.0196587379455564
1788862394254590500,9.207590576171874,-8.364592412567138,-0.9268553176879882,-2.0802619674682616
1788862394264632600,9.217632568359376,-8.399158699035643,-0.9111433692932128,-2.1760300338745115
1788862394274673400,9.22767333984375,-9.254337604522705,-1.0236708473205567,-2.223614791870117
1788862394284715500,9.237715576171874,-9.16799670715332,-1.0212766456604003,-2.5475802040100097
1788862394294756400,9.24775634765625,-8.728959977722168,-0.8668506385803222,-2.8133365882873536
1788862394304798700,9.257798828125,-8.570194480133056,-0.6474819114685059,-2.932897033691406
1788862394314839600,9.267839599609376,-8.87336026535034,-0.6189011291503906,-3.0737060188293457
1788862394324881700,9.277881591796875,-9.179518802642821,-0.8065466842651366,-3.0246248847961423
1788862394334922500,9.287922607421875,-8.513182553100586,-1.0914566818237303,-2.9686604209899903
1788862394344964600,9.297964599609376,-8.379855448150634,-0.9986813674926758,-2.7706898712158203
1788862394355005400,9.30800537109375,-8.936058421325683,-0.7015010864257812,-2.646341022491455
1788862394365047600,9.318047607421875,-8.424597091674805,-0.1589151351928711,-2.311900978088379
1788862394375088400,9.32808837890625,-7.936778503417968,0.2280477081298828,-1.899948654937744
1788862394385130500,9.338130615234375,-8.228122917938231,0.2154781494140625,-2.1965303855895995
1788862394395171300,9.34817138671875,-7.784148147583007,0.10639233627319335,-2.570175482177734
1788862394405212400,9.35821240234375,-7.694664860534668,0.036062662506103516,-2.8866590141296387
1788862394415254300,9.368254150390625,-8.247276531219482,0.04519055633544922,-2.822314844512939
1788862394425295400,9.37829541015625,-8.378807984924316,-0.1479915901184082,-2.2864625854492187
1788862394435337500,9.38833740234375,-8.073696910858153,-0.3021183219909668,-1.7185878791809082
1788862394445378600,9.398378662109375,-8.397063772583007,-0.17911621170043945,-1.5912462783813475
1788862394455420400,9.40842041015625,-8.869619325256346,-0.12464812393188476,-1.866729106903076
1788862394465461500,9.41846142578125,-8.725667950439453,-0.23508067550659179,-2.195034009552002
1788862394475503400,9.42850341796875,-8.489390174102782,-0.11985972061157225,-2.210895595550537
1788862394485544400,9.43854443359375,-8.826523695373535,-0.0953191535949707,-1.9436428352355957
1788862394495586300,9.44858642578125,-8.90044467163086,-0.3229179489135742,-1.8593968643188477
1788862394505627400,9.45862744140625,-8.30623374710083,-0.48542438659667964,-2.083105081939697
1788862394515669200,9.468669189453125,-7.958625593566894,-0.47704468078613277,-2.224213342285156
1788862394525710300,9.47871044921875,-7.978228119659423,-0.36840778045654293,-2.2354361625671384
1788862394535752400,9.48875244140625,-8.078784589385986,-0.3887584945678711,-2.0854992835998534
1788862394545793500,9.49879345703125,-8.157942881774902,-0.8038532073974609,-1.7947534194946289
1788862394555834600,9.508834716796875,-7.89742381362915,-0.9928455009460448,-1.4305354919433593
1788862394565876500,9.51887646484375,-8.282291730499267,-0.8435071723937988,-1.199495031738281
1788862394575917600,9.52891748046875,-8.89894829559326,-0.9686042091369629,-1.50670103225708
1788862394585959400,9.53895947265625,-9.061604370880126,-1.2792518745422363,-2.0028993263244628
1788862394596000500,9.54900048828125,-8.686762173461913,-1.3428478561401367,-2.1238065101623533
1788862394606042400,9.55904248046875,-8.093748349761963,-1.3715782760620117,-1.9101240119934082
1788862394616083500,9.56908349609375,-7.851784344482422,-1.448641641998291,-1.6148890197753905
1788862394626125600,9.57912548828125,-8.20956785507202,-1.4637550399780273,-1.553986515045166
1788862394636166700,9.589166748046875,-8.59982272567749,-1.574935779571533,-1.792808130645752
1788862394646208500,9.59920849609375,-8.435819911956786,-1.831115357208252,-1.9373580558776855
1788862394656249600,9.60924951171875,-8.169764252471923,-2.073528275299072,-1.7100585357666014
1788862394666291500,9.61929150390625,-8.151508464813231,-2.1881506797790524,-1.3028946159362793
1788862394676332500,9.62933251953125,-8.436717737579345,-2.362777763366699,-1.1611878051757811
1788862394686374400,9.63937451171875,-8.735544032287597,-2.638859142303467,-1.1718120750427246
1788862394696415500,9.64941552734375,-8.643067993164061,-2.992452799987793,-1.1572972274780273
1788862394706456300,9.659456298828125,-8.551639417266845,-3.340210591125488,-0.8999205490112304
1788862394716498400,9.66949853515625,-8.564508251190185,-3.768024500274658,-0.5621884773254394
1788862394726539300,9.679539306640624,-8.560168760681151,-4.2968437919616695,-0.4330512252807617
1788862394736581600,9.68958154296875,-8.585457515716552,-4.753986671447754,-0.5966051261901855
1788862394746622500,9.69962255859375,-8.851662812805175,-5.164143343353271,-0.838269856262207
1788862394756664600,9.70966455078125,-9.580248305511475,-5.737105728149413,-1.0637737251281738
1788862394766705400,9.719705322265625,-10.018237571716307,-6.2946554397583006,-1.0941501586914062
1788862394776747500,9.72974755859375,-9.83807389678955,-6.597671587371826,-0.9974842666625976
1788862394786788400,9.739788330078126,-9.535955574798583,-6.784568954467773,-0.7890390846252441
1788862394796830500,9.74983056640625,-9.41085853805542,-6.864026522064209,-0.5668272430419922
1788862394806871300,9.759871337890624,-9.287108239746093,-6.798934164428711,-0.5035305366516113
1788862394816913400,9.769913330078126,-8.833257387542725,-6.621463966369628,-0.5885246955871581
1788862394826954200,9.779954345703125,-8.385840952301026,-6.343886211395263,-0.7662941688537597
1788862394836996600,9.78999658203125,-7.960421244812011,-6.066757369232177,-1.0045172340393065
1788862394847037400,9.800037353515625,-7.811232553863525,-5.8648962417602535,-1.2568062339782715
1788862394857078500,9.81007861328125,-8.137292892456054,-5.754014777374267,-1.3220482292175293
1788862394867120400,9.820120361328126,-8.44045867767334,-5.732018049621582,-1.1541548377990722
1788862394877161500,9.830161376953125,-8.354566693115235,-5.8828527542114255,-0.7083844161987304
1788862394887203300,9.840203369140625,-7.809885815429687,-6.146364574432373,-0.177470198059082
1788862394897244400,9.850244384765626,-7.144297753906249,-6.397755748748779,0.24615385818481444
1788862394907286500,9.86028662109375,-6.849212399291992,-6.713790367889404,0.3694552436828613
1788862394917327400,9.870327392578124,-7.03581049118042,-7.1026985000610345,0.1527799934387207
1788862394927369500,9.880369384765626,-7.312191145324706,-7.612364178466796,-0.34177228698730466
1788862394937410300,9.890410400390625,-7.725789482116698,-8.074894011688231,-0.9428665412902831
1788862394947452700,9.90045263671875,-8.000524122619629,-8.454374974822997,-1.355417414855957
1788862394957493500,9.910493408203125,-7.815422406768798,-8.686013985443115,-1.5994763465881348
1788862394967535600,9.92053564453125,-7.329698744964599,-8.755894746398925,-1.7899650161743164
1788862394977576400,9.930576416015626,-7.222109307861328,-8.686013985443115,-1.8285715179443358
1788862394987618600,9.94061865234375,-7.740453967285156,-8.477718441009522,-1.689258908843994
1788862394997659400,9.950659423828125,-8.138340355682372,-8.140435282135009,-1.370081900024414
1788862395007700500,9.960700439453126,-8.066963218688965,-7.791480390167236,-1.0672153900146484
1788862395017742300,9.970742431640625,-7.572111663055419,-7.525724005889892,-1.0703577796936035
1788862395027783400,9.980783447265624,-7.024886946105957,-7.457638896179199,-1.4821604652404785
1788862395037825300,9.9908251953125,-6.6334349746704095,-7.525724005889892,-1.9324200149536133
1788862395047866400,10.000866455078125,-6.32682752456665,-7.6957123237609855,-1.9678841270446776
1788862395057908500,10.010908447265624,-6.178536659240723,-7.868543756103515,-1.5915455535888672
1788862395067949600,10.020949462890625,-6.2307601829528805,-8.14597187347412,-1.1333552108764648
1788862395077991400,10.030991455078125,-6.222979027557373,-8.483105394744873,-0.7824550300598144
1788862395088032500,10.041032470703126,-6.039224050140381,-8.72716432647705,-0.4616320075988769
1788862395098074400,10.051074462890625,-6.059724401855468,-8.560318398284911,-0.09217676391601562
1788862395108115500,10.061115478515624,-6.197690272521973,-8.307281210327147,-0.11267711563110351
1788862395118157300,10.0711572265625,-6.529436840057373,-8.198494672393798,-0.4918588035583496
1788862395128198400,10.081198486328125,-7.0573583061218255,-8.13310303955078,-0.6944681190490722
1788862395138240500,10.091240478515624,-7.455843244934082,-8.115745077514648,-0.805050308227539
1788862395148281600,10.101281494140625,-7.562385218811035,-8.22857183074951,-1.0187328063964842
1788862395158322700,10.11132275390625,-7.441328397369384,-8.348281913757324,-1.1514613609313964
1788862395168364500,10.121364501953124,-7.248894438934326,-8.364143499755858,-1.195155541229248
1788862395178405600,10.131405517578125,-6.887220350646972,-8.290671436309815,-1.3051391799926757
1788862395188447500,10.141447509765625,-6.5671455162048336,-8.154501216888427,-1.300500414276123
1788862395198488600,10.151488525390626,-6.434267324066162,-8.097040377044678,-1.2514192802429198
1788862395208530400,10.161530517578125,-6.386682566070556,-8.076988938140868,-1.0793360359191895
1788862395218571500,10.171571533203124,-6.4272343566894525,-7.977180656433105,-0.7728782234191894
1788862395228613400,10.18161328125,-6.576722322845459,-7.835174570465087,-0.5981015022277831
1788862395238654500,10.191654541015625,-6.954407634735107,-7.7036431167602535,-0.6386532928466796
1788862395248696600,10.201696533203124,-7.469011354064941,-7.578546080017089,-0.7387608497619629
1788862395258737700,10.211737548828125,-7.814823856353759,-7.34855308303833,-0.750133307647705
1788862395268779500,10.221779541015625,-7.919719816589355,-7.111377481079101,-0.6902782661437988
1788862395278820600,10.231820556640624,-7.849240505218505,-7.0275804229736325,-0.5787982513427734
1788862395288861400,10.241861328125,-7.684190228271484,-7.089530390930175,-0.4408323806762695
1788862395298903600,10.251903564453125,-7.4703580924987785,-7.15671767501831,-0.28520927276611324
1788862395308944400,10.2619443359375,-7.3648635818481445,-7.17632020111084,-0.13138181610107422
1788862395318986500,10.271986572265625,-7.344063954925537,-7.283909638214111,0.029179332733154296
1788862395329027300,10.28202734375,-7.135469135284423,-7.41184978942871,0.1352723937988281
1788862395339069400,10.2920693359375,-6.617274113464355,-7.410203775787353,0.14544775085449219
1788862395349110300,10.3021103515625,-6.02710340423584,-7.125593053436279,0.04249707946777344
1788862395359152600,10.312152587890624,-5.887940432739257,-6.616675563049316,-0.19288287124633788
1788862395369193500,10.322193359375,-6.305429347229004,-6.112396838378906,-0.4375403533935547
1788862395379235600,10.332235595703125,-7.141454639434814,-5.747131447601318,-0.6275801101684569
1788862395389276000,10.34227587890625,-8.283488831329345,-5.578938780975341,-0.8647557121276855
1788862395399318000,10.352318115234375,-9.316586847686766,-5.653308670043945,-1.2421417488098143
1788862395409359000,10.362359130859375,-9.904512992858885,-5.869684645080566,-1.6741455108642578
1788862395419401200,10.372401123046876,-10.215759208679199,-6.246771406555175,-1.8710685974121093
1788862395429442000,10.382442138671875,-10.284592506408691,-6.551583205413818,-1.6431705268859862
1788862395439483100,10.392483154296874,-10.059687187957763,-6.823175456237792,-1.1450269439697265
1788862395449525000,10.40252490234375,-9.415347666168213,-6.969521032714844,-0.630123949432373
1788862395459566000,10.412566162109375,-8.937405159759521,-6.915801132965088,-0.06389525680541992
1788862395469608200,10.422608154296874,-8.419808688354491,-6.682665746307372,0.5066729263305664
1788862395479649000,10.43264892578125,-7.72489165649414,-6.336553968811034,0.7136217323303222
1788862395489691100,10.442691162109375,-7.679102549743652,-5.80354482421875,0.7559691741943358
1788862395499732000,10.45273193359375,-8.361599660491942,-5.459228697967529,0.7634510543823242
1788862395509774000,10.462774169921875,-9.106046739196778,-5.646874253082275,0.5496189186096191
1788862395519815000,10.47281494140625,-9.58309141998291,-6.336853244018554,0.050427872467041016
1788862395529857300,10.482857177734376,-9.560645779418945,-6.9336080078124995,-0.6419453201293945
1788862395539898000,10.492898193359375,-9.139715200042724,-7.030423537445068,-1.3617021942138672
1788862395549940200,10.502940185546874,-9.376591526794433,-6.623259617614746,-1.797895809173584
1788862395559981000,10.51298095703125,-9.814580792999267,-6.280739142608642,-1.789516103363037
1788862395570023200,10.523023193359375,-9.88895068206787,-6.223427940368652,-1.555782166290283
1788862395580064000,10.53306396484375,-9.790788414001463,-6.162226160430908,-1.4722843833923338
1788862395590105000,10.54310498046875,-9.409062886810302,-5.4050598854064935,-1.5083470458984374
1788862395600147000,10.55314697265625,-8.404844927978516,-4.444386469268799,-1.7067665084838866
1788862395610188000,10.56318798828125,-7.5737576766967765,-3.3132758224487304,-1.592293741607666
1788862395620230100,10.573230224609375,-7.6300214157104485,-2.4666262603759765,-1.3165116378784179
1788862395630271200,10.583271240234374,-7.959373781585693,-1.952321816253662,-1.1451765815734862
1788862395640313000,10.59331298828125,-8.56765064086914,-1.6045640251159667,-1.3103764961242674
1788862395650354200,10.603354248046875,-8.832060286712647,-1.5529390518188475,-1.6482582054138182
1788862395660396000,10.61339599609375,-8.494328215026854,-1.5822680221557617,-2.0069395416259765
1788862395670437000,10.62343701171875,-8.13400086517334,-1.7067665084838866,-2.140865196990967
1788862395680479000,10.63347900390625,-7.7866919868469235,-1.9491794265747069,-1.885882720184326
1788862395690520000,10.64352001953125,-7.085789450836181,-2.418293314361572,-1.4616601135253906
1788862395700562000,10.65356201171875,-7.049128237915038,-3.0163948165893553,-1.0983400115966797
1788862395710603000,10.66360302734375,-7.5254247306823725,-3.444208725738525,-0.8206126190185546
1788862395720644000,10.67364404296875,-7.890241208648681,-3.4386721343994138,-0.840813695526123
1788862395730686200,10.683686279296875,-8.060678439331054,-2.9581857887268064,-1.1149497856140136
1788862395740727300,10.693727294921874,-8.514379653930664,-2.4549545272827147,-1.675192974090576
1788862395750769200,10.70376904296875,-9.247154999542236,-2.233939786529541,-2.3126491661071777
1788862395760810200,10.713810302734375,-9.191789086151122,-2.118868469238281,-2.9109003059387204
1788862395770852000,10.72385205078125,-8.614337573242187,-2.1371242568969726,-3.299808438110351
1788862395780893200,10.73389306640625,-8.46544815750122,-2.371007831573486,-3.357568553161621
1788862395790935000,10.74393505859375,-8.163778748321533,-2.497750881958008,-3.1603461914062496
1788862395800976100,10.75397607421875,-7.811980741882324,-2.0681413215637208,-2.4274212081909177
1788862395811018000,10.76401806640625,-7.643039887237548,-1.6564882736206055,-1.6915034729003906
1788862395821059000,10.77405908203125,-8.129362099456786,-1.5123872611999511,-1.4176666580200195
1788862395831101200,10.78410107421875,-7.539191390228271,-1.2026374214172362,-1.356614515686035
1788862395841142300,10.794142333984375,-6.31395869064331,-0.3769371238708496,-1.6147393821716307
1788862395851183000,10.80418310546875,-7.31024585647583,0.6456862602233886,-2.6240450195312497
1788862395861225200,10.81422509765625,-7.870339407348633,1.3295301094055174,-3.364900795745849
1788862395871266000,10.82426611328125,-8.227973280334473,1.7383400428771971,-3.3258453811645508
1788862395881308200,10.83430810546875,-9.245658623504639,1.885882720184326,-2.9958944648742674
1788862395891349000,10.844348876953125,-10.230274056243896,1.6130933685302733,-2.652476164245605
1788862395901391000,10.85439111328125,-10.873117201995848,0.6558616172790527,-2.217479650115967
1788862395911432000,10.864431884765626,-10.365995362854003,-0.5844844802856445,-2.0266917053222655
1788862395921474000,10.87447412109375,-9.422230995941161,-1.5304934112548827,-1.9910779556274414
1788862395931515000,10.884514892578125,-10.09290673599243,-1.8900725730895995,-1.8963573524475097
1788862395941557200,10.89455712890625,-10.98684178085327,-1.9771616584777831,-2.203712990570068
1788862395951598000,10.90459814453125,-10.331728351593018,-2.038513076019287,-2.740911988067627
1788862395961640200,10.91464013671875,-9.031527212524413,-1.6647183418273925,-3.168576259613037
1788862395971681000,10.924680908203126,-8.737040408325194,-1.1378443389892579,-3.3891420875549314
1788862395981723100,10.93472314453125,-8.635586112976073,-1.011250926208496,-3.3719337631225583
1788862395991764000,10.944763916015624,-8.10841283493042,-0.8969277969360351,-3.3801638313293454
1788862396001805000,10.95480517578125,-7.203254969787597,-0.539443561553955,-3.025522710418701
1788862396011847000,10.964846923828125,-6.279990954589843,-0.07032967376708985,-2.3982418754577637
1788862396021888000,10.974887939453126,-5.717952114868163,0.34012627334594725,-1.9877859283447263
1788862396031929900,10.984929931640625,-5.613953980255126,0.7643488800048828,-1.6443676277160644
1788862396041971000,10.994970947265625,-5.471947894287109,1.026513961791992,-1.2442366752624512
1788862396052013000,11.005012939453126,-5.212625926971436,1.1727099006652832,-1.001075569152832
1788862396062054100,11.01505419921875,-4.945971717071533,1.2943652725219725,-1.0212766456604003
1788862396072096000,11.025095947265624,-5.2356701179504395,1.4730325714111328,-1.215506255340576
1788862396082137000,11.03513720703125,-5.79696076965332,1.537975291442871,-1.347785897064209
1788862396092179000,11.045178955078125,-5.994183131408691,1.4350246200561523,-1.5246575447082518
1788862396102220000,11.055219970703124,-6.608595132446289,1.1385925270080566,-1.6774375381469726
1788862396112262000,11.065261962890625,-7.7763669921875,0.5479729049682617,-1.5240589942932128
1788862396122303000,11.075302978515625,-8.595183959960938,-0.3716998077392578,-1.127519344329834
1788862396132345000,11.085344970703124,-8.749161054229736,-1.50670103225708,-0.6004957038879394
1788862396142386200,11.09538623046875,-8.75888749847412,-2.7627590782165528,-0.1910872200012207
1788862396152427300,11.10542724609375,-9.389310723114013,-3.810072666931152,-0.21742343826293944
1788862396162469000,11.11546923828125,-10.555286931610107,-4.3622354248046875,-0.7582137382507323
1788862396172510200,11.12551025390625,-11.3772462890625,-4.606892906951904,-1.4722843833923338
1788862396182552000,11.135552001953124,-10.877606330108643,-4.489128112792969,-1.8484733192443847
1788862396192593200,11.14559326171875,-9.766247846984863,-4.001608799743652,-1.560271294403076
1788862396202635000,11.155635009765625,-9.043348583221436,-3.525910857391357,-1.3127706977844238
1788862396212676000,11.165676025390624,-8.486247784423828,-3.3981203437805174,-1.4866495933532713
1788862396222718000,11.175718017578125,-8.024017226409912,-3.4082957008361814,-1.6343419082641601
1788862396232759000,11.185759033203125,-7.767688011169433,-3.6119524795532225,-1.7591396697998045
1788862396242801200,11.19580126953125,-7.633612718200683,-3.8030396995544433,-1.7000328163146972
1788862396252842200,11.20584228515625,-7.7690347496032715,-3.8500259071350094,-1.4471452659606934
1788862396262884000,11.215884033203125,-8.024466139221191,-3.9682396141052245,-1.2705728935241698
1788862396272925200,11.22592529296875,-8.752004168701172,-4.244171355438232,-1.3102268585205077
1788862396282966000,11.235966064453125,-9.737367789459228,-4.6526820137023925,-1.3037924415588378
1788862396293008100,11.246008056640624,-10.385298613739012,-5.116109672546386,-1.1272200691223144
1788862396303049000,11.256049072265625,-10.752958206176757,-5.611110865783691,-0.5518634826660156
1788862396313091000,11.266091064453125,-10.664372744750976,-6.17374825592041,0.30630817489624024
1788862396323132200,11.276132080078124,-10.424802941131592,-6.5868976799011225,0.8901941047668457
1788862396333174000,11.286174072265625,-10.308983435821533,-7.0196496299743645,0.7436988906860351
1788862396343215000,11.296215087890625,-10.353874716949463,-7.496395035552978,0.12659341278076172
1788862396353257200,11.30625732421875,-10.192116467285155,-7.911489748382568,-0.8270470359802246
1788862396363298300,11.31629833984375,-9.683049339294433,-8.182483448791503,-1.65992993850708
1788862396373340200,11.326340087890625,-8.59997236328125,-8.103025881195068,-2.210895595550537
1788862396383381200,11.33638134765625,-7.383418644714355,-7.687182980346679,-2.24097275390625
1788862396393423000,11.346423095703125,-6.23779315032959,-7.134122396850586,-2.032527571868896
1788862396403464200,11.356464111328124,-5.553350750732421,-6.560411824035644,-1.8269255043029784
1788862396413505000,11.366505126953125,-5.4884080307006835,-5.88000963973999,-1.5765817932128905
1788862396423547100,11.376547119140625,-5.671863732910156,-5.361365705108642,-1.338209090423584
1788862396433588000,11.386587890625,-5.724536169433593,-5.006874221801757,-1.094898346710205
1788862396443630000,11.396630126953125,-5.565022483825683,-4.840626844024658,-0.8303390632629394
1788862396453671000,11.4066708984375,-5.140799877166748,-4.790647884368896,-0.5424363136291503
1788862396463713300,11.41671337890625,-4.658667517852783,-4.805312369537353,-0.1958756233215332
1788862396473754000,11.426754150390625,-4.396502436065673,-4.8326960510253905,0.020350714111328123
1788862396483796200,11.436796142578125,-4.433313286590576,-4.917091659545898,0.06000467910766601
1788862396493837000,11.446837158203126,-4.784812017822265,-5.2353708427429195,-0.21742343826293944
1788862396503879200,11.456879150390625,-5.392041413879395,-5.969044013977051,-0.8141782020568847
1788862396513920000,11.466919921875,-6.427683269500732,-6.99076957244873,-1.4267945518493652
1788862396523962000,11.476962158203126,-8.161683821868897,-8.193556631469725,-1.725022296142578
1788862396534003000,11.4870029296875,-10.02946039199829,-9.469067565917967,-1.587804613494873
1788862396544044000,11.4970439453125,-11.723806979370117,-10.69415062789917,-1.1552023010253905
1788862396554086000,11.5070859375,-12.795511497497557,-11.77917289276123,-0.805050308227539
1788862396564127000,11.517126953125,-12.626570642852782,-12.473641011810303,-0.6566098052978515
1788862396574169000,11.527169189453126,-11.66410157546997,-12.286294731903075,-0.6289268486022949
1788862396584210200,11.537210205078125,-10.861295831298827,-11.368268032836914,-0.8174702293395996
1788862396594252000,11.547251953125,-10.264989980316162,-10.266935269165039,-1.388636962890625
1788862396604293000,11.557293212890626,-9.774777190399169,-9.605836335754393,-1.7435773590087889
1788862396614335000,11.5673349609375,-9.634267480468749,-9.59012438735962,-1.504755743408203
1788862396624376000,11.5773759765625,-9.222764070129394,-9.95942999343872,-0.8479963005065917
1788862396634418000,11.58741796875,-8.614487210845947,-10.399065273284911,-0.42437224426269526
1788862396644459000,11.597458984375,-7.987804926300049,-10.566809027099609,-0.03411737365722656
1788862396654501000,11.607501220703124,-7.389404148864745,-10.201244361114501,0.39594109954833984
1788862396664542200,11.617542236328125,-6.425588343048095,-9.122207600402831,0.6851905876159667
1788862396674583300,11.627583251953125,-5.278017559814453,-7.7581112045288085,0.6031891807556152
1788862396684625200,11.637625244140626,-4.366574915313721,-6.629843672180176,0.22400749282836913
1788862396694666200,11.647666259765625,-3.8603509017944333,-5.829731404876709,-0.2846107223510742
1788862396704708000,11.6577080078125,-3.6508582565307615,-5.310638557434082,-0.7652467056274413
1788862396714749200,11.667749267578126,-3.660285425567627,-5.00477929534912,-1.1258733306884765
1788862396724791000,11.677791015625,-3.8658874931335445,-4.850203650665283,-1.2603975364685058
1788862396734832000,11.68783203125,-4.252999974060058,-4.877138419342041,-1.1923124267578125
1788862396744874000,11.6978740234375,-4.708197564697265,-4.984877494049072,-1.0232219345092772
1788862396754915000,11.7079150390625,-5.058648832702636,-5.185541520690918,-0.9653121818542479
1788862396764957200,11.717957275390624,-5.352088173675536,-5.512948597717285,-1.124825867462158
1788862396774998300,11.727998291015625,-5.7143608123779295,-6.002413199615479,-1.4787188003540037
1788862396785040100,11.7380400390625,-6.542156036376952,-6.663811408233642,-1.759588582611084
1788862396795081200,11.748081298828126,-7.544727981567382,-7.263409286499023,-1.7977461715698242
1788862396805122000,11.7581220703125,-8.328679387664794,-7.729979335021972,-1.7217302688598632
1788862396815164200,11.7681640625,-9.048885174560546,-8.30608410949707,-1.5363292778015136
1788862396825205000,11.778205078125,-9.676914197540283,-8.847024047088622,-1.1623849060058593
1788862396835247000,11.7882470703125,-9.982174909210205,-9.04035583114624,-0.6458358978271485
1788862396845288000,11.798287841796874,-9.996390481567381,-8.784176253509521,-0.18480244064331053
1788862396855330000,11.808330078125,-9.968857162475585,-8.377760521697997,0.012120645904541014
1788862396865371000,11.818370849609375,-9.854085120391845,-7.953388277435303,-0.15846622238159178
1788862396875413200,11.828413330078124,-9.549572596740722,-7.421276958465576,-0.3450643142700195
1788862396885454000,11.8384541015625,-9.121758687591552,-7.1410057266235345,-0.3054103492736816
1788862396895496200,11.84849609375,-8.270769635009765,-7.154772386169433,-0.15113397979736326
1788862396905537000,11.858537109375,-7.630320690917968,-6.993163774108886,0.26979659957885743
1788862396915579100,11.8685791015625,-7.368754159545898,-6.691793640136718,0.7727285858154297
1788862396925620000,11.878619873046874,-7.492953370666504,-6.40329234008789,0.9715969612121581
1788862396935661000,11.8886611328125,-7.829787616729736,-6.309768837738036,0.6304232246398925
1788862396945703000,11.898702880859375,-7.89772308883667,-6.085910982513427,-0.017357962036132813
1788862396955744000,11.908743896484374,-7.8249992134094235,-5.642385124969482,-0.29493571701049803
1788862396965785900,11.918785888671875,-7.968202400207519,-5.24135634689331,-0.2258031440734863
1788862396975827000,11.928826904296875,-8.295609477233887,-5.240308883666992,-0.25752631607055665
1788862396985869000,11.938869140625,-8.44629454421997,-5.448155515289306,-0.6127659873962402
1788862396995910100,11.94891015625,-8.071601984405516,-5.703886180114746,-1.1757026527404784
1788862397005952000,11.958951904296875,-7.522581616210937,-5.775263317108154,-1.618480322265625
1788862397015993000,11.9689931640625,-7.434893980407715,-5.685031842041015,-1.5631144088745117
1788862397026035000,11.979034912109375,-7.994538618469238,-5.661089825439452,-1.3539210388183593
1788862397036076000,11.989075927734374,-8.668207110595702,-5.678747062683105,-1.1420341918945311
1788862397046118100,11.9991181640625,-8.987683394622803,-5.603479347991943,-0.9763853645324706
1788862397056159000,12.009158935546875,-9.057414517974854,-5.409549013519287,-1.0043675964355467
1788862397066200000,12.019199951171874,-8.984989917755126,-5.0297687751770015,-1.1358990501403807
1788862397076242000,12.029241943359375,-8.669104936218261,-4.703109886169433,-1.1921627891540527
1788862397086283000,12.039282958984375,-8.764723365020751,-4.412064746856689,-1.1429320175170898
1788862397096325000,12.0493251953125,-8.779387850189208,-4.255693450927734,-1.2521674682617188
1788862397106366200,12.0593662109375,-8.640973066711425,-4.150498215484619,-1.4950292991638183
1788862397116408000,12.069407958984375,-8.981697890472411,-4.138826482391357,-1.7482161247253416
1788862397126449200,12.07944921875,-8.807370082092284,-4.202422463989258,-1.918503717803955
1788862397136491000,12.089490966796875,-8.52320827255249,-4.291307200622558,-1.9304747261047361
1788862397146532000,12.099531982421874,-8.501810095214843,-4.268412647247314,-1.9202993690490722
1788862397156574000,12.109573974609376,-8.722076647949219,-4.115034103393555,-1.9482816009521484
1788862397166615000,12.119614990234375,-8.677634279632567,-3.8619969154357907,-2.0307319206237793
1788862397176657200,12.1296572265625,-8.677335004425048,-3.4938884101867673,-2.009184105682373
1788862397186698200,12.1396982421875,-8.666710734558105,-3.177853791046142,-1.9921254188537596
1788862397196739000,12.149739013671875,-8.396016309356689,-3.015347353363037,-1.8912696739196777
1788862397206781200,12.15978125,-8.217797923278809,-2.3719056571960446,-1.6602292137145995
1788862397216822300,12.169822265625,-7.96760384979248,-1.6946458625793457,-1.649604943847656
1788862397226864000,12.179864013671875,-7.528716757965087,-1.5789759948730469,-1.7660229995727539
1788862397236905200,12.1899052734375,-7.849390142822265,-1.6784850013732908,-1.7548001792907715
1788862397246947000,12.199947021484375,-8.159738533020018,-1.9393033447265624,-1.8245313026428223
1788862397256988200,12.20998828125,-7.9575781303405755,-2.1089923873901366,-2.048089882659912
1788862397267030000,12.220030029296876,-7.612663453674316,-1.820790362548828,-2.211943058776855
1788862397277071000,12.230071044921875,-7.046285123443603,-1.3447931449890136,-1.8601450523376464
1788862397287113200,12.24011328125,-7.6659344406127925,-0.8804676605224608,-1.605761125946045
1788862397297154300,12.250154296875,-8.116493265533446,-0.44158056869506834,-1.8719664230346678
1788862397307196200,12.260196044921875,-7.529016033172607,-0.13138181610107422,-2.5706243949890135
1788862397317237200,12.2702373046875,-6.897994258117675,0.2793734062194824,-3.1597476409912106
1788862397327278000,12.280278076171875,-7.275679570007323,0.4791396072387695,-3.5212720916748044
1788862397337320200,12.2903203125,-8.230966032409668,0.1876455551147461,-3.699191202545166
1788862397347361000,12.300361083984376,-8.748412866210938,-0.3468599655151367,-3.666570204925537
1788862397357403100,12.310403076171875,-8.71429549255371,-0.6738181297302246,-3.440467785644531
1788862397367444000,12.32044384765625,-8.470535836029052,-0.7025485496520996,-3.0359973426818847
1788862397377486000,12.330486083984376,-8.491485100555419,-0.4339490509033203,-2.452410688018799
1788862397387527700,12.340527587890625,-8.683021233367919,-0.06808510971069336,-2.0067899040222166
1788862397397569500,12.350569580078124,-8.135197966003417,0.34745851593017574,-1.553986515045166
1788862397407610600,12.360610595703125,-7.792078940582275,0.5895721588134766,-1.5086463211059569
1788862397417652500,12.370652587890625,-7.561786668395996,0.6988076095581054,-2.180369524383545
1788862397427693600,12.380693603515626,-7.706785506439209,0.6967126831054687,-2.477849080657959
1788862397437735700,12.390735595703125,-8.0958432762146,0.44801498565673825,-2.5641899780273434
1788862397447776800,12.40077685546875,-7.929895173645019,0.40402153015136716,-2.9349919601440426
1788862397457817900,12.41081787109375,-7.672668132781982,0.34745851593017574,-2.5028385604858396
1788862397467859700,12.420859619140625,-7.6659344406127925,0.1683423042297363,-1.5179238525390624
1788862397477900800,12.43090087890625,-8.194604094696045,0.011671733093261718,-1.132008472442627
1788862397487942700,12.440942626953126,-7.850287968444824,-0.10085574493408203,-1.417965933227539
1788862397497983700,12.450983642578125,-7.568071447753906,0.00718260498046875,-1.550095937347412
1788862397508025600,12.461025634765624,-7.910891197967529,0.16505027694702148,-1.4031518104553222
1788862397518066700,12.471066650390625,-8.278550790405273,-0.007032967376708984,-1.4763245986938476
1788862397528108500,12.481108642578125,-8.110208486175537,-0.28161797027587887,-1.8453309295654297
1788862397538149600,12.491149658203126,-7.665186252593994,-0.6200982299804687,-2.1077952865600587
1788862397548191700,12.501191650390625,-7.975684280395507,-0.8997709114074707,-2.1333833168029783
1788862397558232800,12.51123291015625,-7.842207537841796,-0.9805752174377441,-2.212092696380615
1788862397568274700,12.521274658203126,-7.692719571685791,-0.9510966094970703,-2.439990766906738
1788862397578315800,12.531315673828125,-8.286182308197022,-0.953790086364746,-2.5794530136108396
1788862397588356600,12.541356689453124,-8.7332994682312,-0.9343371978759765,-2.302324171447754
1788862397598398700,12.551398681640626,-8.502408645629883,-1.0434230110168456,-1.9532196418762207
1788862397608439800,12.561439697265625,-8.541164785003662,-1.3813047203063964,-1.6874632575988768
1788862397618481700,12.571481689453124,-9.08494783706665,-1.8703204093933103,-1.5792752700805663
1788862397628522800,12.581522705078125,-9.07821414489746,-2.4568998161315916,-1.8384475997924803
1788862397638564900,12.59156494140625,-8.96419029083252,-2.9795839660644527,-2.351255667877197
1788862397648605700,12.601605712890626,-8.840439992523192,-3.346645008087158,-2.718915260314941
1788862397658647800,12.611647705078125,-8.568548466491698,-3.338115664672851,-2.914940521240234
1788862397668689000,12.62168896484375,-8.678232830047607,-3.2817022880554196,-3.1000422370910643
1788862397678730800,12.631730712890626,-9.228599936676025,-3.3461960952758787,-3.1200936759948728
1788862397688771800,12.641771728515625,-9.280374547576903,-3.3756747032165526,-2.820519193267822
1788862397698812700,12.651812744140624,-8.959701162719726,-3.39003991317749,-2.379836450195312
1788862397708854800,12.661854736328126,-9.017760552978515,-3.612251754760742,-1.9179051673889158
1788862397718895600,12.6718955078125,-8.88682764968872,-4.036474361419677,-1.6003741722106932
1788862397728937700,12.681937744140624,-8.613140472412109,-4.452017987060547,-1.3762170417785644
1788862397738978600,12.691978515625,-8.623166191864014,-4.782417816162109,-1.1495160720825195
