time,seconds_elapsed,z,y,x
1788862625901676500,0.055676513671875,9.035717065429687,1.1065700798034668,-1.5447089836120604
1788862625911718700,0.06571875,8.63812995223999,1.0082581741333008,-1.999607299041748
1788862625921759500,0.075759521484375,8.803180229187012,1.009305637359619,-2.2477064460754392
1788862625931801600,0.085801513671875,9.49256066970825,1.2202946586608887,-1.740434969329834
1788862625941842400,0.095842529296875,10.606911904907227,1.7289128738403319,-0.7610568527221679
1788862625951884800,0.105884765625,11.473912181091308,2.4542063392639157,0.10983400115966796
1788862625961926700,0.1159267578125,11.164760891723633,3.034650604248047,0.9111433692932128
1788862625971967700,0.1259677734375,9.964368034362792,3.169623722839355,1.8139070327758788
1788862625982009600,0.136009521484375,9.279775997161865,3.150470109558105,1.7132009254455565
1788862625992050700,0.14605078125,8.27391202468872,2.674472891998291,1.3084312072753905
1788862626002092500,0.156092529296875,7.474099032592773,2.061257991790771,0.962768342590332
1788862626012134700,0.166134765625,7.157765138244629,2.0361188743591305,0.36107553787231444
1788862626022175500,0.176175537109375,6.8213798049926755,2.4651298843383787,-0.04399345550537109
1788862626032217900,0.1862177734375,5.869086094665527,2.8458079483032224,0.07870937957763671
1788862626042259700,0.196259765625,5.410147563934326,2.733729383087158,0.5262754524230957
1788862626052300800,0.20630078125,5.883002391815185,2.039111626434326,1.215655892944336
1788862626062342700,0.2163427734375,6.680121907043457,1.8417396270751951,1.8065747901916502
1788862626072383700,0.2263837890625,6.93929423675537,1.9419968215942383,2.1628619247436522
1788862626082425600,0.236425537109375,6.297947467041015,2.2424691299438475,2.1568764205932616
1788862626092467500,0.246467529296875,5.26739328994751,2.733879020690918,2.4200889656066895
1788862626102508500,0.256508544921875,5.13301872177124,2.93050283203125,3.2350153556823726
1788862626112550700,0.266550537109375,5.5032221534729,2.6192566162109374,3.8811505287170407
1788862626122591700,0.276591796875,5.392490326690673,2.2834698333740233,3.9887399658203124
1788862626132633600,0.286633544921875,5.345354481506347,2.501342184448242,4.007743941497803
1788862626142675700,0.29667578125,6.392817707824706,3.271227655792236,4.165761251068115
1788862626152716500,0.306716552734375,7.986009275054931,3.74123936920166,3.00068286819458
1788862626162758700,0.316758544921875,9.24461116027832,2.774580448913574,1.772307778930664
1788862626172800500,0.326800537109375,7.567772172546387,-0.31708208236694335,2.8493992507934567
1788862626182841600,0.336841552734375,5.886892969512939,-1.1354501373291015,3.5998318336486816
1788862626192883700,0.3468837890625,5.408052637481689,0.11522095489501953,4.310311176300049
1788862626202924800,0.3569248046875,5.243750548553466,1.1565490394592284,5.424512773895263
1788862626212966700,0.366966552734375,4.556614672088623,1.5078981330871581,6.31410832824707
1788862626223008500,0.377008544921875,3.8889316841125487,1.2131120536804199,6.347926426696777
1788862626233049600,0.387049560546875,3.5791818443298338,0.6905775413513183,6.3061775352478024
1788862626243091500,0.397091552734375,3.9182606544494627,0.5428852264404297,6.414215885162353
1788862626253132500,0.407132568359375,4.239532589721679,0.40626609420776366,6.974159798431396
1788862626263174700,0.417174560546875,4.460996243286132,-0.03950432739257812,7.313986796569824
1788862626273216800,0.427216796875,5.628169552612304,-0.0770633659362793,7.481131999969482
1788862626283257600,0.437257568359375,6.279392404174804,-0.30181904678344723,7.705139492797851
1788862626293299700,0.4472998046875,6.201431212615966,-0.48931496429443355,7.850736881256103
1788862626303341600,0.457341552734375,5.099799173736572,-0.9660603698730468,7.850437606048583
1788862626313382700,0.467382568359375,4.702361698150635,-0.4707599014282226,8.245780155181885
1788862626323424500,0.477424560546875,3.8428433021545407,-0.12210428466796874,8.734197293853759
1788862626333465600,0.487465576171875,3.231872966003418,-0.2150292366027832,9.10470000076294
1788862626343507700,0.4975078125,3.388693174743652,-0.12015899581909179,9.47370633163452
1788862626353549800,0.5075498046875,4.389170193481445,0.3146878807067871,10.02377416305542
1788862626363590700,0.517590576171875,5.455038845062256,0.6919242797851562,10.462960530090331
1788862626373632800,0.5276328125,6.0796262031555175,0.5524620330810547,10.626364793395995
1788862626383674600,0.537674560546875,6.140678345489501,0.5262754524230957,10.774655658721922
1788862626393715700,0.5477158203125,5.709572409057617,0.7441478034973145,10.892719728088379
1788862626403757600,0.557757568359375,4.929960493469238,0.9428665412902831,11.05732109222412
1788862626413798700,0.567798583984375,3.7626375465393065,1.101183126068115,11.448174513244629
1788862626423840800,0.5778408203125,2.6880899139404297,1.373224289703369,11.805958023834227
1788862626433882600,0.587882568359375,2.5555109970092773,1.6542437095642089,12.118251702880858
1788862626443923700,0.597923828125,3.033154228210449,1.4233528869628906,12.429497918701172
1788862626453965600,0.607965576171875,3.4489971290588377,0.8246528343200683,12.597391310119628
1788862626464006700,0.618006591796875,3.5152865875244137,0.6844423995971679,12.633154697418211
1788862626474048500,0.628048583984375,4.27769017868042,1.0821791503906248,13.060070780944823
1788862626484090600,0.638090576171875,4.282777857208251,1.101931314086914,13.833248279571533
1788862626494131500,0.64813134765625,3.5708021385192867,1.3763666793823242,14.378527707672118
1788862626504173800,0.658173828125,2.617012052154541,1.5180734901428221,14.528015673828124
1788862626514215700,0.668215576171875,1.7497125007629393,1.553238327026367,14.37149474029541
1788862626524256800,0.6782568359375,0.7366659233093261,1.205929448699951,14.160954631805419
1788862626534298600,0.688298583984375,0.0626981559753418,0.7263409286499023,14.059051423645018
1788862626544339700,0.698339599609375,-0.04683656997680664,0.33578678283691404,14.049624254608153
1788862626554381600,0.708381591796875,0.02319382858276367,-0.08035539321899414,13.905373604583739
1788862626564423700,0.718423583984375,-0.004489128112792969,-0.41838674011230464,13.798532355499267
1788862626574464500,0.728464599609375,-0.21772271347045896,-0.5166986457824707,13.781174393463134
1788862626584506600,0.738506591796875,-0.4300584732055664,-0.5702689079284667,13.782371494293212
1788862626594547700,0.748547607421875,-0.9873089096069335,-0.4439747703552246,13.505541927337646
1788862626604590300,0.75859033203125,-2.0854992835998534,-0.29134441452026366,12.981211763763428
1788862626614632400,0.768632568359375,-1.3389572784423827,-1.172111350250244,12.484115644073485
1788862626624673300,0.77867333984375,-1.464652865600586,-1.3799579818725585,11.933149987030028
1788862626634715400,0.78871533203125,-3.0850784767150876,-1.2870330299377442,11.505186440277098
1788862626644756200,0.798756103515625,-4.743362401580811,-1.4514847564697264,10.728268001556396
1788862626654798600,0.808798583984375,-6.28866993560791,-1.445349614715576,10.033051694488524
1788862626664840400,0.81884033203125,-5.615749631500244,-2.1603180854797364,9.879822788238524
1788862626674881500,0.828881591796875,-3.8051346260070797,-2.7067946144104003,9.822661223602294
1788862626684923400,0.83892333984375,-2.2239140670776365,-2.7913398605346678,9.772382988739013
1788862626694965200,0.84896533203125,-0.8087912483215332,-2.9658173065185545,9.910947409820556
1788862626705006300,0.85900634765625,-0.3511994560241699,-2.8444612098693844,10.382904412078856
1788862626715048200,0.869048095703125,0.23837270278930664,-2.618957341003418,10.56636011428833
1788862626725089300,0.87908935546875,0.45115737533569333,-3.115005997467041,10.293421125030516
1788862626735131400,0.88913134765625,-1.4945803863525389,-3.4626141510009765,9.490016830444336
1788862626745173500,0.899173583984375,-3.1956606658935547,-3.444208725738525,8.675389715576172
1788862626755214300,0.90921435546875,-6.280589505004882,-3.2685341789245603,8.019977011108399
1788862626765256400,0.91925634765625,-7.814823856353759,-3.086275577545166,7.710077533721924
1788862626775297300,0.92929736328125,-2.8196213676452637,-3.9821559112548828,8.212560607147216
1788862626785339400,0.93933935546875,-0.7336731712341308,-4.135833730316162,8.686163623046875
1788862626795381200,0.94938134765625,-1.973271080780029,-3.397821068572998,9.230694863128662
1788862626805422300,0.95942236328125,-2.5905261962890624,-2.4925135658264157,10.020332498168944
1788862626815464400,0.96946435546875,-1.7853262504577636,-2.55371534576416,10.059088637542724
1788862626825506600,0.979506591796875,-1.3787608810424803,-3.6789901260375975,9.548225858306884
1788862626835547400,0.98954736328125,-1.0512041664123535,-2.7150246826171873,9.31434228363037
1788862626845589500,0.999589599609375,-1.4818611900329588,-3.0131027893066404,8.25460877380371
1788862626855630300,1.00963037109375,-2.091484787750244,-3.656095572662353,7.658302922821044
1788862626865672400,1.01967236328125,-1.3335703247070312,-3.0858266647338866,8.099584216308592
1788862626875714300,1.02971435546875,-1.0313023651123046,-2.3116017028808593,8.659977042388915
1788862626885755400,1.03975537109375,-0.6792050834655762,-2.492812841033935,8.86767403640747
1788862626895797500,1.049797607421875,-0.3746925598144531,-2.7922376861572262,8.841337818145751
1788862626905838600,1.059838623046875,-0.862511148071289,-2.7020062110900875,8.53592746887207
1788862626915880400,1.06988037109375,-2.198326036834717,-2.824559408569336,8.059930251312256
1788862626925922300,1.07992236328125,-1.8884265594482421,-2.767547481536865,8.041824101257324
1788862626935963400,1.08996337890625,-1.932569652557373,-2.564040340423584,8.632294085693358
1788862626946005200,1.100005126953125,-2.1254525238037107,-2.213289797210693,8.654590088653563
1788862626956046300,1.11004638671875,-3.669562957000732,-2.8815713356018064,8.74661721496582
1788862626966088200,1.120088134765625,-3.7924154296875,-2.8941408943176268,8.762329163360596
1788862626976130600,1.130130615234375,-2.1785738731384274,-2.6048914062499997,8.866028022766113
1788862626986171400,1.14017138671875,-0.817769504547119,-2.417096213531494,8.832958112335204
1788862626996213500,1.150213623046875,-1.1387421646118163,-2.5215432609558106,8.431630059051512
1788862627006255400,1.16025537109375,-1.017685343170166,-2.5890298202514646,7.902361854553222
1788862627016296400,1.17029638671875,-1.8833388809204101,-3.3366192886352537,8.801983128356934
1788862627026338300,1.18033837890625,-1.9110218376159667,-2.912546319580078,9.468618653106688
1788862627036379400,1.19037939453125,-1.5900491775512695,-2.484582772827148,9.798419931793212
1788862627046421200,1.200421142578125,-1.4867992309570313,-2.427870121002197,10.267982732391356
1788862627056463400,1.21046337890625,-1.304390991973877,-2.393004559326172,10.892121177673339
1788862627066504400,1.22050439453125,-1.402702897644043,-2.2641665824890134,10.915464643859863
1788862627076546300,1.23054638671875,-1.4915876342773438,-2.4570494537353516,11.033528713226318
1788862627086587400,1.24058740234375,-2.4766519798278805,-2.581847215270996,10.250475132751465
1788862627096629500,1.25062939453125,-2.596960613250732,-2.383128477478027,9.787945299530028
1788862627106671400,1.26067138671875,-2.369212180328369,-2.507028413391113,9.987861138153075
1788862627116712400,1.27071240234375,-2.1719898185729978,-2.134879692840576,10.488398922729491
1788862627126754600,1.280754638671875,-2.390311082458496,-2.377142973327637,10.041880313110351
1788862627136796400,1.29079638671875,-1.281945351409912,-2.1746832954406736,9.741408004760741
1788862627146837500,1.30083740234375,-1.810615005493164,-2.018162361907959,8.870666788482666
1788862627156879400,1.31087939453125,-2.3892636192321777,-1.8332102836608886,8.611045545959472
1788862627166920400,1.32092041015625,-1.889025109863281,-1.9627964485168456,8.2107649559021
1788862627176962300,1.33096240234375,-2.2315455848693846,-1.900547205352783,7.643189524841308
1788862627187004400,1.34100439453125,-3.3659482589721677,-1.9627964485168456,6.2584431396484375
1788862627197045200,1.351045166015625,-2.820968106079101,-1.144727668762207,6.068852295684814
1788862627207087600,1.361087646484375,4.579509225463867,-0.9900023864746094,7.027281147766113
1788862627217128400,1.37112841796875,-1.7815853103637693,-3.0647277626037597,3.384054409027099
1788862627227170600,1.381170654296875,-8.355614156341552,-1.5963339569091797,2.210895595550537
1788862627237212400,1.39121240234375,-3.9118262374877926,-1.477970612335205,3.8878842208862303
1788862627247253500,1.40125341796875,-2.6057892318725586,-2.4154501998901368,4.242226066589355
1788862627257295400,1.41129541015625,-1.9250877723693847,-2.646341022491455,3.584868073272705
1788862627267337200,1.421337158203125,-2.029684457397461,-3.4015620086669918,0.9177274238586425
1788862627277378300,1.43137841796875,-2.1148282539367673,-5.299864649963379,-0.4037222549438476
1788862627287420400,1.44142041015625,-4.198531886291503,-8.88054287033081,4.565742565917969
1788862627297461500,1.45146142578125,-5.038747031402588,-8.54834738998413,8.21719937286377
1788862627307503400,1.46150341796875,-5.293280595397949,-6.629694034576415,9.537302313232422
1788862627317545500,1.47154541015625,-3.745578859710693,-7.31608172302246,11.38308215560913
1788862627327586300,1.48158642578125,-1.4336778816223144,-8.77849002456665,4.201674275970459
1788862627337628400,1.49162841796875,-2.005892078399658,-4.4473792213439935,2.2381296394348142
1788862627347669200,1.501669189453125,3.1102175941467283,-4.1103953376770015,17.547702517700195
1788862627357711400,1.51171142578125,4.230255058288574,-7.088931840515136,17.23585775146484
1788862627367753500,1.52175341796875,-0.366462491607666,-4.62903927230835,13.441497032928465
1788862627377794600,1.531794677734375,-4.201225363159179,-6.163123986053466,10.819247664642333
1788862627387836400,1.54183642578125,-5.53539423828125,-8.483554307556151,8.302492807006836
1788862627397877500,1.55187744140625,-4.865616323852539,-9.330952057647705,6.612336072540283
1788862627407919400,1.56191943359375,-3.5673604736328124,-11.214739851379393,6.374861195373534
1788862627417961500,1.57196142578125,-1.117942537689209,-11.276540181732177,5.54766452178955
1788862627428002300,1.582002197265625,0.5220855995178222,-12.739995946502685,6.404788716125488
1788862627438044400,1.59204443359375,-1.8870798210144042,-15.633089377593993,7.072770979309082
1788862627448086500,1.60208642578125,-2.114080065917969,-13.090447214508055,7.568969273376465
1788862627458127600,1.612127685546875,-3.9462428863525387,-11.282525685882568,7.374590026092529
1788862627468169500,1.62216943359375,-4.291456838226318,-9.636811319732665,7.911340110778808
1788862627478210600,1.63221044921875,0.675464143371582,-4.81982721710205,11.341183626556395
1788862627488252400,1.64225244140625,2.25369195022583,-3.91990666809082,7.323114690399169
1788862627498294300,1.652294189453125,-2.20895030670166,-8.66326906967163,-2.530072604370117
1788862627508335400,1.66233544921875,-5.389347937011719,-9.935787252044678,-6.5777697860717765
1788862627518377200,1.672377197265625,-6.333860491943359,-7.595006216430663,-3.4452561889648434
1788862627528418300,1.682418212890625,-5.808482865142822,-7.956829942321777,-1.3766659545898436
1788862627538460400,1.69246044921875,4.283077132415771,-9.865158303070068,0.1958756233215332
1788862627548502500,1.70250244140625,-2.2095488571166992,-8.540865509796141,2.660855870056152
1788862627558543400,1.71254345703125,-3.448697853851318,-8.999654402923584,4.1940427581787105
1788862627568585500,1.72258544921875,-2.735674671936035,-8.769362130737305,4.152144229125977
1788862627578627300,1.73262744140625,-1.8887258346557616,-8.834155213165282,3.284096489715576
1788862627588668400,1.74266845703125,-1.0342951171875,-8.71384657974243,3.573345977783203
1788862627598710300,1.752710205078125,-0.7035960128784179,-8.921393936157227,3.5137902114868163
1788862627608750800,1.762750732421875,-1.5735890411376952,-9.469815753936768,3.491643846130371
1788862627618792700,1.772792724609375,-2.849698526000976,-9.88266590270996,3.314173648071289
1788862627628834800,1.782834716796875,-1.9431939224243162,-9.495553421783447,3.2098762382507324
1788862627638875600,1.792875732421875,-2.4142530990600584,-8.322693883514404,3.047968350982666
1788862627648917800,1.802917724609375,-4.255094900512695,-5.2444987365722655,4.528782077789306
1788862627658958600,1.81295849609375,-2.7501895195007324,-5.794566567993164,3.6596868751525875
1788862627669000700,1.823000732421875,-5.371541062164306,-7.297526660156249,1.2747627464294433
1788862627679042800,1.833042724609375,-3.5769372802734374,-5.698948139190674,3.006518734741211
1788862627689084000,1.843083984375,-2.5438392639160154,-3.407846788024902,4.635623326873779
1788862627699125800,1.853125732421875,-2.385223403930664,-3.2671874404907224,5.4236149482727045
1788862627709167600,1.863167724609375,-3.069067253112793,-3.442263436889648,5.077054257965088
1788862627719208700,1.873208740234375,-3.414430842590332,-3.4090438888549803,4.2682630096435545
1788862627729250600,1.88325048828125,-2.618957341003418,-3.810970492553711,3.319111688995361
1788862627739291600,1.893291748046875,-2.2671593345642087,-5.737554640960693,4.397400261688232
1788862627749333800,1.903333740234375,-3.8232407760620113,-6.346280413055419,6.112696113586425
1788862627759376000,1.9133759765625,-2.986018383026123,-8.310573237609862,3.9625533851623533
1788862627769416700,1.923416748046875,-4.633827675628662,-12.530802576446533,-1.3741221153259278
1788862627779458800,1.933458740234375,-0.23523031311035156,-11.209652172851563,-1.2961609237670897
1788862627789499600,1.943499755859375,0.19437924728393555,-3.991583080291748,1.2409446479797364
1788862627799541800,1.953541748046875,-4.881477909851074,2.567033092498779,0.4213794921875
1788862627809583600,1.96358349609375,-3.933374052429199,-5.41373886642456,-1.3805565322875977
1788862627819624700,1.973624755859375,-5.030068050384521,-8.328679387664794,1.387290224456787
1788862627829666800,1.983666748046875,-5.4795794120788575,-9.070133714294434,4.280533293151855
1788862627839709000,1.993708984375,-4.8014217918396,-12.141894444274902,2.7871500076293945
1788862627849749800,2.003749755859375,-3.6082115394592282,-13.555071974182129,3.697844464111328
1788862627859792000,2.0137919921875,-3.5482068603515624,-12.457929063415527,2.5942671363830563
1788862627869832700,2.023832763671875,-4.772691371917724,-9.05965908203125,-1.3768155921936034
1788862627879874800,2.033874755859375,-8.220341762542724,-10.168174450683592,-2.893392706298828
1788862627889916700,2.043916748046875,2.9900585983276367,-12.854169438171386,0.6904279037475586
1788862627899957800,2.053957763671875,1.8109142807006835,-11.254842729187011,1.7369933044433592
1788862627909999900,2.063999755859375,-5.62457825012207,-8.831910649108886,2.4365491020202636
1788862627920041000,2.074041015625,-6.904279037475585,-4.404882141876221,1.8795979408264158
1788862627930082800,2.084082763671875,-5.064035786437988,-1.5168763893127442,1.4631564895629883
1788862627940124700,2.094124755859375,-2.9408278266906738,-2.0904373245239256,3.75395856552124
1788862627950165800,2.104165771484375,-2.2403742034912106,-8.496123866271972,2.629731248474121
1788862627960207600,2.11420751953125,-2.8007670295715332,-11.666944689941406,-1.3705308128356932
1788862627970249700,2.124249755859375,-3.423708374023437,-8.26837543334961,-1.2692261550903319
1788862627980290600,2.13429052734375,-2.5565584602355957,-6.977451825714111,1.626710390472412
1788862627990333000,2.1443330078125,-2.297685405731201,-7.906252432250976,3.8521208335876462
1788862628000373800,2.154373779296875,-4.357596659088134,-10.551246716308594,2.3225252479553222
1788862628010415900,2.164415771484375,-6.2867246467590325,-11.127201853179931,2.4480711975097655
1788862628020457700,2.174457763671875,-3.045723786926269,-24.091205292510985,3.41562794342041
1788862628030498800,2.184498779296875,-2.3599346488952637,-24.366987396240233,-0.09187748870849609
1788862628040540700,2.194540771484375,-4.322880735015869,-15.37316885986328,-0.46731823654174803
1788862628050581800,2.204581787109375,-3.8419454765319823,-12.889783187866211,-4.262576780700683
1788862628060623600,2.21462353515625,-3.5591304054260253,-12.355576942443847,-7.580790644073486
1788862628070665700,2.224665771484375,-4.176535158538818,-11.238083317565918,-5.39458525314331
1788862628080706800,2.234706787109375,-4.061314203643799,-9.300575624084471,-0.7881412590026855
1788862628090748700,2.244748779296875,-4.254047437286377,-8.480561555480957,-1.8863316329956055
1788862628100790800,2.254790771484375,-5.277269371795654,-11.531971571350097,-4.511723390960693
1788862628110831600,2.26483154296875,-5.077652808380127,-10.480468129730223,-4.556614672088623
1788862628120873700,2.274873779296875,-4.097526503753662,-9.123853614044188,-4.450072698211669
1788862628130914800,2.284914794921875,-4.60943674621582,-9.36596725692749,-5.153818348693847
1788862628140956700,2.294956787109375,-4.141968872070312,-9.515305585479735,-4.230404695892334
1788862628150998800,2.304998779296875,-3.5230677429199218,-9.765350021362304,-2.2149358108520505
1788862628161040000,2.315039794921875,-3.1639374938964844,-9.715371061706543,-1.5812205589294432
1788862628171081700,2.325081787109375,-3.025522710418701,-9.383474856567382,-1.4860510429382323
1788862628181122800,2.335122802734375,-2.9046155265808102,-9.101108698272705,-1.48754741897583
1788862628191164700,2.34516455078125,-3.306542130279541,-9.04095438156128,-2.1752818458557126
1788862628201206800,2.355206787109375,-3.955071504974365,-9.098265583801268,-2.6397569679260253
1788862628211247600,2.36524755859375,-3.8365585227966306,-9.075371030426025,-2.120813758087158
1788862628221289700,2.375289794921875,-3.5544916397094726,-9.055918141937255,-2.6656442733764645
1788862628231331800,2.385331787109375,-3.5009213775634764,-8.887426200103759,-2.5849896049499512
1788862628241373000,2.395373046875,-3.812766143798828,-9.534758473968505,-2.921674213409424
1788862628251414800,2.405414794921875,-4.987720608520507,-9.74335329360962,-3.838952724456787
1788862628261456000,2.415455810546875,-4.999541979217529,-9.46697263946533,-4.365826727294921
1788862628271497700,2.425497802734375,-5.014655377197266,-9.699210200500488,-4.242674979400634
1788862628281539600,2.43553955078125,-5.696254662322998,-9.896282924652098,-4.134935904693603
1788862628291580700,2.44558056640625,-5.413289953613281,-9.688436293029785,-3.202394358062744
1788862628301622500,2.45562255859375,-3.651157531738281,-9.32691184234619,-3.6947020744323726
1788862628311665000,2.465664794921875,-2.5266309394836424,-9.132532595062255,-4.002356987762451
1788862628321705700,2.475705810546875,-3.135506349182129,-9.08524711227417,-3.074603844451904
1788862628331747800,2.485747802734375,-3.366397171783447,-8.046163591766357,-1.9511247154235838
1788862628341788700,2.49578857421875,-3.4630630638122555,-6.8791399200439445,-0.9985317298889159
1788862628351830800,2.505830810546875,-2.5899276458740235,-6.6011132522583,-1.1968015548706055
1788862628361872600,2.51587255859375,-2.09417826461792,-7.235127779388427,-1.9336171157836912
1788862628371913700,2.525913818359375,-2.623147193908691,-8.21031604309082,-1.8245313026428223
1788862628381955600,2.53595556640625,-1.7483657623291016,-8.139387818908691,-1.035492218017578
1788862628391996700,2.54599658203125,-1.2057798110961913,-9.124003251647949,-1.3946224670410154
1788862628402038800,2.556038818359375,1.5955857688903807,-8.885331273651122,-1.8996493797302245
1788862628412080600,2.56608056640625,-1.7925088554382322,-8.602216927337645,-1.3305775726318358
1788862628422121700,2.576121826171875,-9.571120411682129,-6.508637213134765,-1.0024223075866698
1788862628432163800,2.586163818359375,-11.838279746246338,-3.330035234069824,-0.9096469932556152
1788862628442204700,2.59620458984375,-2.7832594299316407,-4.078971440887451,-1.9803040481567382
1788862628452246800,2.606246826171875,-3.5978865447998043,-4.886565588378906,-2.242169854736328
1788862628462289000,2.616288818359375,-4.346523476409912,-6.993463049316406,-1.8174983352661132
1788862628472329700,2.626329833984375,-2.0400094520568848,-9.886855755615233,-2.085948196411133
1788862628482371800,2.636371826171875,-1.1221323905944824,-10.91082587814331,-2.0579659645080564
1788862628492413700,2.64641357421875,-1.2140098793029785,-10.692354976654052,-1.5192705909729003
1788862628502454800,2.656454833984375,-2.516156307220459,-11.863119588470457,-2.130540202331543
1788862628512496600,2.66649658203125,-4.198531886291503,-10.436175399017333,-3.0837317382812497
1788862628522537700,2.676537841796875,-3.866336405944824,-9.687239192199707,-3.88818349609375
1788862628532579600,2.68657958984375,-3.1159038230895995,-9.337685749816893,-3.94549469833374
1788862628542622000,2.6966220703125,-3.014898440551758,-8.188468952941895,-3.7324107505798336
1788862628552662800,2.706662841796875,-2.9050644393920897,-8.511686177062987,-4.219930063629151
1788862628562705000,2.716704833984375,-3.0262708984374997,-9.35908392715454,-3.747075235748291
1788862628572745700,2.726745849609375,-2.9186814613342285,-9.873538008880615,-3.199700881195068
1788862628582787800,2.736787841796875,-2.2061071922302244,-9.349806395721435,-3.1521161231994625
1788862628592829700,2.74682958984375,-2.3123498908996583,-8.334066341400145,-3.301304814147949
1788862628602870800,2.756870849609375,-2.8131869506835936,-8.276904776763915,-3.725228145599365
1788862628612913700,2.76691357421875,-2.70050983505249,-8.263587030029296,-3.16663097076416
1788862628622955500,2.77695556640625,-2.3939023849487304,-8.144026584625244,-2.4363994644165037
1788862628632996600,2.78699658203125,-2.424129180908203,-8.142230933380127,-2.2188263885498047
1788862628643038500,2.79703857421875,-2.456600540924072,-8.30623374710083,-2.276436865997314
1788862628653079600,2.80707958984375,-2.562543964385986,-8.537124569702147,-2.2469582580566403
1788862628663121700,2.81712158203125,-2.7789199394226074,-8.791358858489989,-2.0774188529968263
1788862628673163800,2.827163818359375,-2.919728924560547,-8.892064965820312,-1.560271294403076
1788862628683204600,2.83720458984375,-2.6626515213012696,-8.87485664138794,-0.9720458740234375
1788862628693246700,2.847246826171875,-2.4787469062805174,-8.806921169281006,-0.8680477394104004
1788862628703287600,2.85728759765625,-2.2723966506958004,-8.932317481231689,-0.9973346290588379
1788862628713329700,2.86732958984375,-1.6555904479980468,-8.678681742858886,-1.4845546669006346
1788862628723371500,2.87737158203125,-0.9418190780639648,-8.653542625427246,-2.1257517990112302
1788862628733412600,2.88741259765625,-1.622221262359619,-9.128043466949462,-2.3350948066711426
1788862628743454700,2.897454833984375,-2.7533319091796873,-10.174159954833984,-2.5387515853881832
1788862628753496600,2.90749658203125,-3.0939070953369137,-11.13393554534912,-2.8471546867370603
1788862628763537700,2.91753759765625,-3.478625374603271,-11.742212404632568,-2.8576293190002438
1788862628773579500,2.92757958984375,-3.5468601219177245,-11.873145307922362,-2.8751369186401368
1788862628783620600,2.93762060546875,-3.3788170928955075,-11.601852332305908,-2.910601030731201
1788862628793662500,2.947662353515625,-3.073406743621826,-11.118073959350586,-2.7582699501037595
1788862628803704600,2.95770458984375,-2.673724703979492,-10.421510913848877,-2.3976433250427243
1788862628813745400,2.967745361328125,-2.5516204193115235,-9.622446109771728,-2.0787655914306638
1788862628823787800,2.977787841796875,-3.17935016708374,-9.288454978179931,-1.8420389022827148
1788862628833828600,2.98782861328125,-3.564966271972656,-9.277980345916747,-1.9295769004821777
1788862628843870700,2.99787060546875,-3.5185786148071285,-9.34022958908081,-1.783829874420166
1788862628853912600,3.00791259765625,-3.386149335479736,-9.21887349243164,-1.1008838508605956
1788862628863953700,3.01795361328125,-3.1012393379211423,-8.913463143157959,-0.35628713455200195
1788862628873995500,3.02799560546875,-3.1598972785949706,-8.45991156616211,0.17372925796508787
1788862628884036600,3.03803662109375,-3.4371757583618163,-8.19759684677124,0.45774142990112304
1788862628894078700,3.04807861328125,-3.4617163253784176,-8.112602687835693,0.17986439971923826
1788862628904120600,3.05812060546875,-3.245190712738037,-8.129661374664305,-1.0890624801635742
1788862628914161700,3.06816162109375,-3.626916239929199,-8.335712355041503,-1.663670878601074
1788862628924203500,3.07820361328125,-3.7955578193664548,-8.668057472991944,-1.8281226051330566
1788862628934245600,3.08824560546875,-3.0424317596435544,-8.852261363220215,-2.0866963844299313
1788862628944286500,3.098286376953125,-2.6171616897583005,-8.938452622985839,-2.2307973968505856
1788862628954328600,3.10832861328125,-2.1761796714782715,-8.779537487792968,-2.5296236915588377
1788862628964369400,3.118369384765625,-1.6717513092041014,-8.725219037628174,-2.8188731796264648
1788862628974411800,3.128411865234375,-1.645864003753662,-8.875904104614257,-3.015496990966797
1788862628984453600,3.13845361328125,-2.2930466400146483,-8.900893584442137,-2.9324481208801267
1788862628994494700,3.14849462890625,-2.6978163581848142,-8.742576999664307,-2.417545126342773
1788862629004536600,3.15853662109375,-2.6062381446838376,-8.72716432647705,-1.6894085464477537
1788862629014577700,3.16857763671875,-2.4269722953796387,-8.80377877960205,-1.2262801628112792
1788862629024619500,3.17861962890625,-2.512116091918945,-9.075371030426025,-1.2132616912841796
1788862629034661600,3.18866162109375,-2.9794343284606932,-9.555558100891112,-1.3762170417785644
1788862629044702500,3.198702392578125,-3.1673791587829587,-9.919476753234862,-1.5427636947631835
1788862629054744800,3.208744873046875,-2.93693724899292,-10.037241547393798,-1.6300024177551269
1788862629064786700,3.21878662109375,-2.589478733062744,-9.989656789398193,-1.7829320487976072
1788862629074827800,3.228827880859375,-2.4622867698669433,-9.72330185470581,-2.161814461517334
1788862629084869600,3.23886962890625,-2.7000609222412106,-9.331400970458985,-2.6077345207214355
1788862629094910700,3.24891064453125,-3.1081226676940914,-9.245957898712158,-2.694973243713379
1788862629104952600,3.25895263671875,-3.3922844772338867,-9.379733916473388,-2.2303484840393066
1788862629114994400,3.268994384765625,-3.408594976043701,-9.531017533874511,-1.8228852890014646
1788862629125035500,3.279035400390625,-3.5761890922546384,-9.768642048645019,-1.3914800773620604
1788862629135077600,3.28907763671875,-3.1124621582031247,-9.457695108032226,-0.6423942329406738
1788862629145118700,3.29911865234375,-2.046294231414795,-8.983343904113768,-0.6346130775451659
1788862629155160600,3.30916064453125,-1.7745523429870604,-9.092728992462158,-0.9864110839843749
1788862629165202700,3.31920263671875,-1.4208090476989745,-8.748861779022215,-1.8376994117736816
1788862629175243500,3.329243408203125,-2.2200234893798827,-8.58036983718872,-1.7399860565185545
1788862629185285600,3.33928564453125,-2.524984925842285,-8.389731529998778,-1.1345523117065428
1788862629195326500,3.349326416015625,-2.9650691184997555,-9.195081113433837,-0.884208600616455
1788862629205368600,3.35936865234375,-3.3241993675231933,-10.598382561492919,-0.11701660614013672
1788862629215410700,3.36941064453125,-2.31130242767334,-11.276989094543456,0.16699556579589842
1788862629225451800,3.37945166015625,-1.9800047729492187,-10.89167226486206,-0.37229835815429685
1788862629235493600,3.38949365234375,-2.3965958618164063,-9.891943434143066,-1.3201029403686522
1788862629245534700,3.39953466796875,-2.492363928222656,-8.985139555358886,-1.818246523284912
1788862629255576600,3.40957666015625,-2.3879168807983397,-8.460809391784668,-1.861042877960205
1788862629265618700,3.41961865234375,-2.583193953704834,-8.489839086914062,-1.6412252380371093
1788862629275659500,3.429659423828125,-2.9727006362915036,-9.11607245864868,-1.774253067779541
1788862629285701600,3.43970166015625,-3.6578912239074706,-9.713575410461425,-1.6597803009033203
1788862629295742500,3.449742431640625,-4.2682630096435545,-9.730334822082519,-1.0389338829040526
1788862629305784600,3.45978466796875,-4.495861804962158,-9.358934289550781,-0.21697452545166016
1788862629315826700,3.46982666015625,-4.688295763397217,-9.266158975219726,0.36706104202270506
1788862629325867800,3.47986767578125,-4.722862049865722,-9.300425986480713,0.4996399589538574
1788862629335909600,3.48990966796875,-4.001908074951172,-9.453205979919433,0.15367781906127928
1788862629345950700,3.49995068359375,-2.990806786346435,-9.495553421783447,-0.33788170928955075
1788862629355992600,3.50999267578125,-2.3030723594665528,-9.44243207244873,-0.7815572044372558
1788862629366034400,3.520034423828125,-2.0389619888305663,-9.447669388580321,-1.014542953491211
1788862629376075500,3.530075439453125,-1.9439421104431152,-9.57007294845581,-1.1617863555908203
1788862629386117600,3.54011767578125,-2.088940948486328,-9.89568437423706,-1.2223895851135254
1788862629396159700,3.55015966796875,-2.6262895835876465,-10.129418311309815,-1.1236287666320801
1788862629406200600,3.56020068359375,-3.2308255027770993,-10.216058483886718,-1.1780968544006347
1788862629416242700,3.57024267578125,-3.89446827545166,-10.158597644042969,-1.4884452445983887
1788862629426283500,3.580283447265625,-4.352209705352783,-9.792733702850342,-1.798494359588623
1788862629436325600,3.59032568359375,-4.520851284790039,-9.370157109832762,-1.829020430755615
1788862629446367500,3.600367431640625,-4.50693498764038,-9.107692752838135,-1.7272668601989745
1788862629456408600,3.61040869140625,-4.518606720733643,-9.036165978240966,-1.7105074485778808
1788862629466450700,3.62045068359375,-4.183268850708007,-9.215431827545165,-1.8798972160339353
1788862629476491800,3.63049169921875,-3.4543840827941894,-9.584737433624268,-2.380734275817871
1788862629486533600,3.64053369140625,-3.1337106979370115,-9.906458281707764,-2.7064953392028808
1788862629496575500,3.650575439453125,-3.891026610565185,-10.108768321990967,-2.333299155426025
1788862629506616600,3.660616455078125,-4.318690882110595,-9.921422042083739,-1.373822840118408
1788862629516658400,3.670658447265625,-4.388272367858886,-9.400234268188475,-0.3511994560241699
1788862629526699500,3.680699462890625,-4.4273277824401855,-9.045892422485352,0.27129297561645505
1788862629536741600,3.69074169921875,-5.225494760894775,-8.82338130569458,0.611568886566162
1788862629546783700,3.70078369140625,-6.803872205352783,-8.665812908935546,0.587926145172119
1788862629556824600,3.710824462890625,-8.08955849685669,-8.606406780242919,0.3151367935180664
1788862629566866700,3.72086669921875,-8.349778289794921,-8.749759604644774,-0.0378583137512207
1788862629576907500,3.730907470703125,-7.1686886833190915,-9.045144234466552,-0.40072950286865233
1788862629586949600,3.74094970703125,-5.442918199157715,-9.237428555297852,-0.5913678100585937
1788862629596991500,3.750991455078125,-4.46877739868164,-9.419387881469726,-0.9196727127075195
1788862629607032300,3.7610322265625,-4.230255058288574,-9.548225858306884,-1.427542739868164
1788862629617074200,3.77107421875,-4.543296925354004,-9.520842176818848,-1.917755529785156
1788862629627116300,3.7811162109375,-4.692036703491211,-9.444826274108886,-2.2700024490356445
1788862629637157000,3.7911572265625,-4.615272612762451,-9.370606022644042,-2.308459313201904
1788862629647199500,3.801199462890625,-4.893897830963135,-9.481637124633789,-2.071582986450195
1788862629657240300,3.811240234375,-5.221155270385742,-9.679906949615479,-1.684769780731201
1788862629667282400,3.821282470703125,-5.755660791015624,-9.867253229522705,-1.4832079284667967
1788862629677324300,3.83132421875,-6.551283930206298,-10.002226348114013,-1.5619173080444335
1788862629687365400,3.841365478515625,-7.352593298339843,-10.070910008239746,-1.71095636138916
1788862629697407200,3.8514072265625,-8.428637306976318,-10.061931752014159,-1.6255132896423339
1788862629707448300,3.8614482421875,-8.968978694152831,-10.060585013580322,-1.2603975364685058
1788862629717490200,3.871490234375,-8.59907453765869,-9.903016616821288,-0.7775169891357422
1788862629727532300,3.8815322265625,-7.917774527740478,-9.51276174621582,-0.3350385948181152
1788862629737573400,3.891573486328125,-7.339125914001464,-9.028983373260498,0.09591770401000976
1788862629747615200,3.901615234375,-6.897994258117675,-8.492682201385497,0.39594109954833984
1788862629757656300,3.91165625,-7.017105790710449,-7.620294971466064,0.4629787460327148
1788862629767698200,3.9216982421875,-7.669226467895507,-7.11841044845581,0.23074118499755858
1788862629777740300,3.931740234375,-8.508843062591552,-6.727557027435302,-0.03516483688354492
1788862629787781000,3.941781005859375,-8.653991538238525,-6.495768379211426,-0.1619078872680664
1788862629797823200,3.9518232421875,-8.353070317077636,-6.405836179351806,-0.39863457641601563
1788862629807864000,3.961864013671875,-7.802703210449218,-6.598270137786865,-0.699106884765625
1788862629817906400,3.971906494140625,-7.522731253814697,-6.890811653137207,-0.8556278182983398
1788862629827948300,3.9819482421875,-7.322067227172851,-7.067683300781249,-0.8913912055969238
1788862629837989400,3.9919892578125,-6.921786637115478,-6.941688438415527,-0.7888894470214843
1788862629848031200,4.00203125,-6.7927990226745605,-6.61443099899292,-0.7932289375305175
1788862629858072300,4.012072265625,-6.943484089660644,-6.050596508026123,-0.9370306747436523
1788862629868114200,4.0221142578125,-7.291840431213378,-5.485564916229248,-1.1150994232177733
1788862629878156300,4.03215625,-7.7118731849670406,-5.234173741912842,-1.5255553703308105
1788862629888197000,4.042197021484375,-7.680748563385009,-5.418527269744873,-1.9731214431762694
1788862629898239500,4.052239501953125,-7.170035421752929,-5.754463690185546,-2.0890905860900877
1788862629908281300,4.06228125,-6.8128504615783685,-5.779902082824707,-1.9999065742492674
1788862629918322400,4.072322509765625,-6.662165394592285,-5.3281461570739745,-1.7802385719299316
1788862629928364300,4.0823642578125,-6.81180299835205,-4.483292246246338,-1.3198036651611327
1788862629938405400,4.0924052734375,-7.292738256835937,-3.7472248733520503,-0.9814730430603027
1788862629948447200,4.102447265625,-7.54607472000122,-3.5263597702026366,-1.1804910560607909
1788862629958489000,4.112489013671875,-7.325209616851806,-3.474285884094238,-1.591695191192627
1788862629968530200,4.1225302734375,-7.401674432373047,-3.2920272827148436,-1.7202338928222656
1788862629978572300,4.132572265625,-7.334187873077392,-3.1102175941467283,-1.7726070541381835
1788862629988613400,4.14261328125,-7.338078450775146,-3.5474586723327635,-1.9197008186340332
1788862629998655200,4.1526552734375,-7.31638099822998,-4.229656507873535,-2.03043264541626
1788862630008697300,4.162697265625,-6.724863550567626,-3.735403502655029,-1.9795558601379393
1788862630018738200,4.17273828125,-6.072892510986327,-2.36861362991333,-1.5506944877624511
1788862630028780300,4.1827802734375,-6.450278547668456,-1.1831845329284667,-1.2612953620910643
1788862630038821000,4.192821044921875,-6.988076095581055,-0.8812158485412597,-1.5664064361572265
1788862630048863200,4.20286328125,-7.16300245437622,-1.3548188644409178,-2.0446482177734375
1788862630058905300,4.2129052734375,-6.972214509582519,-1.9940707077026365,-2.197428211212158
1788862630068946400,4.222946533203125,-6.631639323425293,-2.1520880172729493,-1.6744447860717773
1788862630078988300,4.23298828125,-6.4831988204956055,-1.7570447433471679,-0.8156745780944824
1788862630089030100,4.243030029296875,-7.483226926422119,-1.2395979095458984,-0.13033435287475587
1788862630099071200,4.2530712890625,-8.002020498657226,-1.4203601348876953,-0.33099837951660155
1788862630109113300,4.26311328125,-8.208221116638184,-1.9683330398559569,-0.7007528984069824
1788862630119154200,4.273154296875,-7.687332617950439,-2.3772926109313963,-1.1118073959350585
1788862630129196300,4.2831962890625,-7.490409531402587,-2.5273791275024413,-1.3102268585205077
1788862630139238400,4.29323828125,-8.10197841796875,-2.909254292297363,-0.9323919090270996
1788862630149279200,4.303279296875,-8.45961229095459,-3.4605192245483396,-1.2538134819030762
1788862630159321300,4.3133212890625,-10.155006341552733,-3.932176951599121,-2.1908441566467283
1788862630169362400,4.323362548828125,-13.012336385345458,-4.143016335296631,-1.7931074058532714
1788862630179404300,4.333404296875,-12.422016038513183,-3.8097733917236325,-2.13877027053833
1788862630189446100,4.343446044921875,-14.195820193481444,-4.387673817443847,-2.1772271347045895
1788862630199487200,4.3534873046875,-13.306374276733397,-5.412092852783203,-3.169623722839355
1788862630209529300,4.363529296875,-12.33477731552124,-5.753266589355468,-3.519177165222168
1788862630219570400,4.3735703125,-12.252925546264647,-5.863250228118896,-2.796876451873779
1788862630229612300,4.3836123046875,-11.610980226135252,-5.206939698028564,-1.299901863861084
1788862630239654400,4.393654296875,-11.31918689880371,-3.8227918632507323,-0.1336263801574707
1788862630249695200,4.4036953125,-10.498424642181396,-2.141314109802246,-0.3456628646850586
1788862630259737300,4.4137373046875,-9.085696025085449,-0.2032078659057617,-1.0257657737731933
1788862630269778200,4.423778076171875,-7.480683087158202,0.6940192062377929,-1.4722843833923338
1788862630279820300,4.4338203125,-6.464494120025634,0.3151367935180664,-1.8230349266052246
1788862630289862400,4.4438623046875,-6.940940250396728,-0.7353191848754882,-2.31115279006958
1788862630299903500,4.453903564453125,-7.733121724700927,-1.6481085678100584,-2.501791097259521
1788862630309945300,4.4639453125,-8.252364209747315,-2.273444113922119,-2.2641665824890134
1788862630319987200,4.4739873046875,-8.513332190704345,-1.9167080665588379,-1.89620771484375
1788862630330028300,4.4840283203125,-8.698882819366455,-0.9355342987060546,-1.4047978240966796
1788862630340070100,4.494070068359375,-9.011326136016844,-0.34326866302490233,-0.8670002761840819
1788862630350111200,4.504111328125,-9.204209007263183,-0.31917700881958005,-0.6141127258300781
1788862630360153000,4.514153076171875,-9.469217203521728,-0.7071873153686523,-0.6265326469421386
1788862630370195500,4.524195556640625,-9.481936399841308,-1.3626000198364256,-0.8152256652832031
1788862630380236300,4.534236328125,-9.044246408843994,-1.8363526733398436,-0.8813654861450195
1788862630390278400,4.5442783203125,-8.217797923278809,-2.1431097610473633,-0.4875193130493164
1788862630400319200,4.5543193359375,-8.275558038330077,-2.30456873550415,-0.2846107223510742
1788862630410361300,4.564361328125,-8.685415435028075,-2.2105963203430172,-0.24480711975097655
1788862630420403200,4.5744033203125,-9.268403539276122,-2.1951836471557615,-0.27563246612548825
1788862630430444300,4.5844443359375,-8.831012823486327,-2.8342858528137205,-0.5553051475524902
1788862630440486100,4.594486083984375,-8.473977500915527,-3.7600937072753906,-0.9558850128173828
1788862630450527200,4.60452734375,-8.658181391143799,-4.228908319854736,-1.541716231536865
1788862630460569300,4.6145693359375,-8.481309743499756,-4.222773178100586,-2.008585555267334
1788862630470611500,4.624611572265625,-7.632265979766845,-3.748272336578369,-2.3766940605163573
1788862630480652300,4.63465234375,-7.520337052154541,-3.0264205360412597,-2.454655252075195
1788862630490694400,4.6446943359375,-9.296535408782958,-2.2512977485656736,-2.045695680999756
1788862630500736300,4.654736328125,-10.548553239440917,-1.4692916313171387,-1.4519336692810059
1788862630510777300,4.66477734375,-11.422287207794188,-0.5793968017578125,-0.5883750579833984
1788862630520819200,4.674819091796875,-12.141445531463622,0.20814590682983397,-0.13572130661010742
1788862630530860300,4.6848603515625,-10.881796183013915,0.5277718284606934,-0.4291606475830078
1788862630540902400,4.69490234375,-8.337657643890381,0.2925415153503418,-1.2922703460693359
1788862630550944300,4.7049443359375,-8.732102367401122,-0.03172317199707031,-1.5863082374572752
1788862630560985300,4.7149853515625,-10.38080948562622,-0.5499181938171387,-1.387290224456787
1788862630571027200,4.725027099609375,-9.465625901031494,-0.5784989761352539,-0.9166799606323242
1788862630581068300,4.735068359375,-8.687061448669432,-0.11896189498901366,-0.2567781280517578
1788862630591110100,4.745110107421875,-8.749609967041016,0.5389946487426758,-0.27039514999389647
1788862630601152300,4.75515234375,-9.156324974060057,0.9811737678527831,-1.0384849700927734
1788862630611192800,4.76519287109375,-9.940874930572509,0.9536404487609863,-1.7643769859313965
1788862630621235000,4.77523486328125,-9.199121328735352,0.7291840431213379,-1.604414387512207
1788862630631275800,4.78527587890625,-9.662997900390625,0.5336076950073242,-1.077540384674072
1788862630641318000,4.79531787109375,-10.049811106109619,0.3673603172302246,-0.8304887008666991
1788862630651359700,4.80535986328125,-9.962572383117676,0.21128829650878905,-0.47195700225830073
1788862630661400800,4.81540087890625,-10.133907439422607,-0.239420166015625,-0.011372457885742187
1788862630671442700,4.825442626953125,-10.256161361694335,-0.5777507881164551,0.17253215713500974
1788862630681485000,4.835485107421875,-10.728268001556396,-0.7758709754943848,-0.428412459564209
1788862630691526000,4.84552587890625,-9.070133714294434,-0.9662100074768066,-1.145326219177246
1788862630701568000,4.855568115234375,-8.525901749420166,-0.9510966094970703,-1.6862661567687987
1788862630711608800,4.86560888671875,-8.207173653411864,-0.8665513633728027,-2.3780407989501953
1788862630721651000,4.87565087890625,-8.368034077453613,-0.7181108604431152,-2.3630770385742186
1788862630731692800,4.88569287109375,-8.548048114776611,-0.8927379440307617,-1.6371850227355955
1788862630741734000,4.89573388671875,-8.738536784362793,-1.3159130874633789,-1.144727668762207
1788862630751776000,4.90577587890625,-9.740809454345703,-1.483058290863037,-1.3593079925537108
1788862630761817000,4.915817138671875,-9.562890343475342,-1.2401964599609374,-1.5195698661804198
1788862630771859000,4.92585888671875,-9.11697028427124,-0.9335890098571776,-1.2038345222473144
1788862630781900800,4.93590087890625,-8.65069951095581,-0.9353846611022949,-0.7184101356506347
1788862630791942000,4.94594189453125,-8.52904413909912,-0.9457096557617187,-0.4830301849365234
1788862630801983700,4.955983642578125,-9.349207845306395,-1.055992569732666,-0.884208600616455
1788862630812024800,4.96602490234375,-9.913042336273193,-1.2038345222473144,-1.150413897705078
1788862630822066700,4.976066650390625,-9.969754988098144,-1.2922703460693359,-0.8940846824645996
1788862630832109000,4.986109130859375,-9.789591313171385,-1.3795090690612792,-0.5737105728149414
1788862630842150000,4.99614990234375,-9.19986951675415,-1.3492822731018066,-0.3312976547241211
1788862630852192000,5.00619189453125,-8.89969648361206,-1.2906243324279785,-0.26351182022094727
1788862630862233900,5.01623388671875,-8.76592046585083,-1.3123217849731446,-0.5232827003479004
1788862630872275000,5.02627490234375,-8.297854041290282,-1.2892775939941405,-0.665887336730957
1788862630882316800,5.03631689453125,-8.141482745361328,-1.1972504676818847,-0.49799394531249996
1788862630892358000,5.04635791015625,-8.094047624969482,-1.1273697067260742,-0.08379705810546874
1788862630902399700,5.056399658203125,-8.30668265991211,-1.1900678627014158,0.2690484115600586
1788862630912441900,5.06644189453125,-8.742726637268065,-1.3192051147460937,0.5078700271606446
1788862630922483000,5.07648291015625,-9.055319591522217,-1.5586252807617187,0.5684732566833496
1788862630932524800,5.08652490234375,-9.342324515533447,-1.8613421531677246,0.6165069274902344
1788862630942566000,5.09656591796875,-9.346065455627441,-2.1992238624572753,0.7044938385009765
1788862630952607700,5.106607666015625,-9.689184481048583,-2.4998458084106443,0.5909188972473144
1788862630962649900,5.11664990234375,-10.122684619140625,-2.785952906799316,0.16505027694702148
1788862630972691000,5.12669091796875,-9.888352131652832,-2.9321488456726073,-0.3847182792663574
1788862630982732800,5.13673291015625,-9.23712928009033,-2.8616695343017575,-0.8463502868652343
1788862630992774000,5.14677392578125,-8.658031753540039,-2.649034499359131,-1.031751277923584
1788862631002816000,5.15681591796875,-8.645462194824217,-2.5139117431640625,-0.9724947868347167
1788862631012857900,5.16685791015625,-9.13028803100586,-2.6164135017395016,-0.7960720520019531
1788862631022899000,5.17689892578125,-9.651625442504882,-2.9103017555236814,-0.4176385520935058
1788862631032940800,5.18694091796875,-9.961674557495117,-3.303399740600586,-0.11162965240478515
1788862631042982000,5.19698193359375,-9.98546693649292,-3.681234690093994,-0.10145429534912109
1788862631053023700,5.207023681640625,-9.47370633163452,-3.8817490791320797,-0.16385317611694336
1788862631063065900,5.21706591796875,-8.630797709655761,-3.9049429077148434,-0.39010523300170896
1788862631073106700,5.227106689453125,-8.587552442169189,-3.8308722938537594,-0.6558616172790527
1788862631083149000,5.237149169921875,-9.243563697052002,-3.6845267173767087,-0.7591115638732909
1788862631093191000,5.24719091796875,-9.887304668426513,-3.5544916397094726,-0.44412440795898434
1788862631103232000,5.25723193359375,-10.139892943572997,-3.539378241729736,0.09576806640624999
1788862631113273900,5.26727392578125,-9.920374578857421,-3.7042788810729976,0.5904699844360352
1788862631123315000,5.27731494140625,-9.161711927795409,-3.7674259498596188,0.9216180015563964
1788862631133356800,5.287356689453125,-8.275408400726318,-3.653851008605957,0.9524433479309081
1788862631143398700,5.297398681640625,-8.010549842071534,-3.3572692779541016,0.5556044227600098
1788862631153439700,5.307439697265625,-8.259546814727782,-3.005022358703613,0.11118073959350586
1788862631163481900,5.31748193359375,-8.32553699798584,-2.688987739562988,-0.08364742050170898
1788862631173523000,5.32752294921875,-8.706813612365723,-2.6255413955688476,-0.011821370697021483
1788862631183564800,5.337564697265625,-8.978256225585938,-3.0096611244201656,0.19961656341552733
1788862631193607000,5.34760693359375,-8.863484183502196,-3.8166567214965816,0.42497079467773435
1788862631203647700,5.357647705078125,-8.987982669830322,-4.582053064727783,0.4165910888671875
1788862631213689900,5.36768994140625,-9.311798444366454,-5.0291702247619625,0.2989759323120117
1788862631223731700,5.377731689453125,-9.175029674530029,-5.148431394958496,0.194079972076416
1788862631233772800,5.387772705078125,-8.57348650741577,-4.969913733673096,0.0020949264526367185
1788862631243815000,5.39781494140625,-8.121880219268798,-4.693233804321289,-0.11731588134765625
1788862631253856000,5.40785595703125,-7.782951046752929,-4.557961410522461,-0.05521627578735351
1788862631263897900,5.41789794921875,-7.564779420471191,-4.732588494110107,-0.006584054565429687
1788862631273940000,5.42793994140625,-7.760954319000244,-5.28609799041748,-0.0674865592956543
1788862631283980800,5.437980712890625,-8.301295706176758,-6.037129123687744,-0.31184476623535157
1788862631294023000,5.44802294921875,-8.988581220245361,-6.687005236816406,-0.4644751220703125
1788862631304063700,5.458063720703125,-9.420285707092285,-7.117213347625732,-0.41045594711303707
1788862631314105900,5.46810595703125,-9.245808261108397,-7.428908476257324,-0.30840310134887694
1788862631324148000,5.47814794921875,-8.266579782104492,-7.279869422912597,-0.23822306518554687
1788862631334189000,5.48818896484375,-7.4874167793273925,-6.787112793731689,-0.21891981430053709
1788862631344231000,5.49823095703125,-7.745242370605468,-6.357652870941162,-0.49096097793579097
1788862631354272000,5.50827197265625,-8.383746025848389,-6.222979027557373,-0.6338648895263671
1788862631364313900,5.51831396484375,-8.717587519836425,-6.351068816375732,-0.3993827644348144
1788862631374355700,5.528355712890625,-8.327781562042237,-6.5297361152648925,0.2850596351623535
1788862631384396800,5.538396728515625,-7.410054138183593,-6.692392190551757,0.8255506599426269
1788862631394439000,5.54843896484375,-6.642862143707275,-6.718728408813476,0.9313444458007812
1788862631404481000,5.55848095703125,-6.5120788780212395,-6.654683514404296,0.6642413230895996
1788862631414521900,5.56852197265625,-6.76721099243164,-6.537367633056641,0.3437175758361816
1788862631424564000,5.57856396484375,-7.132626020812988,-6.465391945648193,0.028880057525634766
1788862631434604800,5.588604736328125,-7.793425679016113,-6.591985358428954,-0.11252747802734374
1788862631444647000,5.59864697265625,-8.022371212768554,-6.9360022094726554,-0.18001403732299803
1788862631454688800,5.608688720703125,-7.7401546920776365,-7.38686030960083,-0.1949777976989746
1788862631464729900,5.618729736328125,-7.350648009490967,-7.78280140914917,-0.27099370040893556
1788862631474772000,5.62877197265625,-7.148487606811523,-8.032247294616699,-0.48811786346435543
1788862631484813000,5.63881298828125,-7.0561612052917475,-8.08192697906494,-0.7155670211791991
1788862631494855000,5.64885498046875,-7.138611524963379,-7.977928844451903,-0.771830760192871
1788862631504896800,5.658896728515625,-7.08623836364746,-7.883058603668212,-0.6929717430114746
1788862631514937900,5.668937744140625,-6.8691142005920405,-7.906701345062255,-0.7327753456115722
1788862631524979700,5.678979736328125,-7.013514488220214,-8.034940771484374,-0.9763853645324706
1788862631535020800,5.689020751953125,-7.070526415252685,-8.237849362182617,-1.2894272315979003
1788862631545062700,5.699062744140625,-6.545298426055908,-8.35067611541748,-1.7120038246154785
1788862631555105000,5.70910498046875,-6.003460662841796,-8.231414945220946,-1.9276316116333008
1788862631565145900,5.719145751953125,-5.900509991455078,-8.090007409667969,-1.8921674995422362
1788862631575188000,5.72918798828125,-6.012887831878662,-7.992144416809081,-1.6288053169250487
1788862631585229800,5.739229736328125,-5.978171907806396,-7.790732202148437,-1.1168950744628905
1788862631595271000,5.74927099609375,-5.996128420257568,-7.657704372406005,-0.4816834465026855
1788862631605312800,5.759312744140625,-5.961562133789062,-7.6990043510437,-0.03396773605346679
1788862631615353900,5.769353759765625,-5.79696076965332,-7.823203562164307,0.10160393295288085
1788862631625395700,5.779395751953125,-5.960065757751464,-8.054543297576904,0.030974983978271482
1788862631635437800,5.789437744140625,-6.5595139984130855,-8.459761928558349,-0.1833060646057129
1788862631645478700,5.799478759765625,-7.012616662597656,-8.864232371520995,-0.6108206985473632
1788862631655520800,5.809520751953125,-7.066785475158691,-9.026888446807861,-1.0670657524108886
1788862631665561600,5.8195615234375,-7.044190196990966,-8.789263932037352,-1.348982997894287
1788862631675603700,5.829603759765625,-6.747458828735351,-8.145223685455322,-1.4866495933532713
1788862631685645800,5.839645751953125,-6.5026517089843745,-7.553855875396728,-1.5949872184753418
1788862631695687000,5.84968701171875,-6.43531478729248,-7.288398766326904,-1.4604630126953124
1788862631705728800,5.859728759765625,-6.235698223876953,-7.355885325622558,-1.2324153045654296
1788862631715769900,5.869769775390625,-6.1942486076354975,-7.546673270416259,-1.000477018737793
1788862631725811700,5.879811767578125,-6.396558647918701,-7.828740153503418,-0.8426093467712402
1788862631735853600,5.889853515625,-6.484844834136963,-8.07025524597168,-0.6802525466918945
1788862631745894700,5.899894775390625,-6.457610790252685,-8.24862326965332,-0.49949032135009763
1788862631755936500,5.9099365234375,-6.1942486076354975,-8.262539566802978,-0.4495113616943359
1788862631765979000,5.919978759765625,-5.789029976654052,-8.116044352722167,-0.5192424850463867
1788862631776019700,5.930019775390625,-5.731269861602783,-7.997531370544433,-0.5481225425720214
1788862631786061800,5.940061767578125,-5.772270565032959,-8.013392956542969,-0.4556465034484863
1788862631796102700,5.9501025390625,-5.825092639160156,-8.125621159362792,-0.3721487205505371
1788862631806144800,5.960144775390625,-6.047454118347168,-8.218246836090087,-0.31543606872558594
1788862631816186600,5.9701865234375,-6.30782354888916,-8.25520732421875,-0.3506009056091308
1788862631826227700,5.980227783203125,-6.667253073120117,-8.291718899536132,-0.3872621185302734
1788862631836269800,5.990269775390625,-6.847865660858154,-8.258050438690185,-0.38202480239868164
1788862631846311000,6.000310791015625,-6.704063923645019,-8.10197841796875,-0.4857236618041992
1788862631856352800,6.010352783203125,-6.476016215515136,-7.768885111999511,-0.5442319648742675
1788862631866395000,6.020394775390625,-6.397905386352539,-7.370400173187256,-0.42886137237548827
1788862631876435700,6.030435791015625,-6.490231787872314,-7.110778930664062,-0.2950853546142578
1788862631886477800,6.040477783203125,-6.524349161529541,-7.0646905487060545,-0.2832639839172363
1788862631896519700,6.050519775390625,-6.742071875,-7.0467340362548825,-0.3694552436828613
1788862631906560800,6.060560791015625,-7.135469135284423,-6.965929730224609,-0.5476736297607422
1788862631916603000,6.070602783203125,-7.458387084197998,-6.938845323944092,-0.8608651344299316
1788862631926644000,6.08064404296875,-7.798962270355224,-6.922534825134277,-1.0353425804138183
1788862631936685800,6.090685791015625,-7.923610394287109,-6.753444332885742,-1.0486603271484374
1788862631946727700,6.100727783203125,-7.693767034912109,-6.4478843460083,-0.924461116027832
1788862631956768800,6.110768798828125,-7.231536476898193,-6.313659415435791,-0.8512883277893066
1788862631966810600,6.120810546875,-6.875398979949951,-6.316951442718506,-0.7188590484619141
1788862631976851700,6.130851806640625,-6.633883887481689,-6.37171880569458,-0.5768529624938965
1788862631986893600,6.1408935546875,-6.585550941467285,-6.414365522766113,-0.4761468551635742
1788862631996936000,6.15093603515625,-6.8499605873107905,-6.419902114105224,-0.3598784370422363
1788862632006976800,6.160976806640625,-7.392396900939941,-6.424840155029297,-0.22430676803588867
1788862632017019000,6.171018798828125,-8.029254542541503,-6.617124475860595,-0.1822586013793945
1788862632027059700,6.181059814453125,-8.595483235168457,-6.949319956207275,-0.21727380065917967
1788862632037101800,6.191101806640625,-8.878896856689453,-7.2152259780883785,-0.33354221878051754
1788862632047143700,6.201143798828125,-8.749460329437255,-7.306504916381836,-0.49859249572753905
1788862632057184800,6.211184814453125,-8.228871105957031,-7.16958650894165,-0.6039373687744141
1788862632067226600,6.2212265625,-7.736563389587402,-6.856245366668701,-0.598849690246582
1788862632077267700,6.231267822265625,-7.481730550384521,-6.447136157989502,-0.36750995483398435
1788862632087309800,6.241309814453125,-7.428010650634765,-6.045359191894531,-0.09950900650024413
1788862632097351700,6.2513515625,-7.52692110671997,-5.69490792388916,0.050727147674560547
1788862632107392800,6.261392822265625,-7.803900311279296,-5.5355438758850095,-0.04863222122192382
1788862632117434600,6.2714345703125,-8.151358827209473,-5.571456900787354,-0.31797990798950193
1788862632127476700,6.281476806640625,-8.425794192504883,-5.597493843841552,-0.5901707092285156
1788862632137517600,6.291517578125,-8.573037594604491,-5.525069243621826,-0.6726210289001464
1788862632147559700,6.3015595703125,-8.643666543579101,-5.510255120849609,-0.6549637916564941
1788862632157600800,6.311600830078125,-8.744522288513183,-5.619939484405517,-0.48931496429443355
1788862632167643000,6.321642822265625,-8.827720796203613,-5.784989761352539,-0.3021183219909668
1788862632177684700,6.331684814453125,-8.959850800323485,-5.878962176513672,-0.14649521408081054
1788862632187725800,6.341725830078125,-8.9125653175354,-5.819107135009765,0.00987608184814453
1788862632197767700,6.351767578125,-8.611045545959472,-5.664082577514648,0.11477204208374023
1788862632207808800,6.361808837890625,-8.21585263442993,-5.478831224060058,0.1197100830078125
1788862632217850600,6.3718505859375,-8.04466721572876,-5.255272644042968,-0.00718260498046875
1788862632227892700,6.381892822265625,-7.994538618469238,-5.112069457244873,-0.28520927276611324
1788862632237933600,6.39193359375,-8.020725199127197,-4.9932571998596185,-0.6138134506225585
1788862632247976000,6.401975830078125,-8.234258059692383,-4.894945294189453,-0.8640075241088867
1788862632258016800,6.412016845703125,-8.546252463531493,-4.875043492889404,-0.9247603912353515
1788862632268059000,6.422058837890625,-8.929624004364014,-4.963180041503906,-0.8942343200683593
1788862632278100700,6.432100830078125,-9.150638745117186,-5.026027835083007,-0.9201216255187987
1788862632288141800,6.442141845703125,-9.17413184890747,-5.057302094268799,-0.8672995513916015
1788862632298183700,6.45218359375,-8.95655877304077,-5.06912346496582,-0.7294833183288574
1788862632308225500,6.4622255859375,-8.488193073272704,-4.914398182678222,-0.6385036552429199
1788862632318266600,6.4722666015625,-8.132055576324463,-4.553322644805908,-0.6132149002075195
1788862632328308700,6.482308837890625,-8.297105853271484,-4.274697426605225,-0.5452794281005859
1788862632338349800,6.492349853515625,-8.77175633239746,-4.25180287322998,-0.6441898841857909
1788862632348391700,6.5023916015625,-9.134328246307373,-4.379144474029541,-1.0459668502807618
1788862632358433800,6.512433837890625,-9.224709358978272,-4.5878889312744136,-1.4897919830322264
1788862632368474600,6.522474609375,-8.69603970489502,-4.740369649505615,-1.7202338928222656
1788862632378516700,6.532516845703125,-8.115894715118408,-4.719719660186767,-1.4463970779418944
1788862632388557600,6.5425576171875,-7.994987531280517,-4.495712167358398,-0.8309376136779785
1788862632398599700,6.552599609375,-8.56211404953003,-4.270507573699951,-0.4016273284912109
1788862632408641800,6.562641845703125,-9.274987593841551,-4.068646446228027,-0.32172084808349605
1788862632418683000,6.572682861328125,-9.82550433807373,-4.097526503753662,-0.620547142791748
1788862632428724700,6.582724853515625,-10.019285034942627,-4.281730393981934,-1.0910077690124511
1788862632438766600,6.5927666015625,-9.508871168518066,-4.260182579040527,-1.3875894996643066
1788862632448807700,6.6028076171875,-8.678232830047607,-4.058171813964844,-1.4490905548095703
1788862632458849800,6.612849853515625,-8.314014902496337,-3.771765440368652,-1.3584101669311524
1788862632468890600,6.622890625,-8.128913186645507,-3.5179800643920895,-1.2761094848632812
1788862632478932700,6.6329326171875,-8.060528801727294,-3.1235353408813475,-1.1403881782531737
1788862632488974800,6.642974853515625,-8.119037104797362,-2.6417022567749022,-1.1786954048156737
1788862632499016000,6.653015869140625,-8.52994196472168,-2.2819734573364254,-1.4167688323974608
1788862632509057800,6.663057861328125,-8.764723365020751,-2.3740005836486815,-1.6129437309265136
1788862632519099000,6.673098876953125,-8.633491186523438,-2.795828988647461,-1.9795558601379393
1788862632529140700,6.683140625,-8.256853337860107,-3.170521548461914,-2.2194249389648437
1788862632539182600,6.6931826171875,-8.25505768661499,-3.327940307617187,-2.013972509002685
1788862632549223700,6.7032236328125,-8.166322587585448,-3.0720600051879883,-1.654692622375488
1788862632559265800,6.713265869140625,-8.265981231689453,-2.5354595581054684,-1.2448352256774902
1788862632569307000,6.723306884765625,-8.804676605224609,-1.839345425415039,-1.2217910346984862
1788862632579348700,6.7333486328125,-9.304466201782226,-1.1724106254577635,-1.3488333602905274
1788862632589390800,6.743390869140625,-9.272144479370116,-0.9721955116271972,-1.652896971130371
1788862632599431700,6.753431640625,-9.121309774780272,-1.0127473022460938,-1.8736124366760252
1788862632609474300,6.763474365234375,-8.495824591064453,-1.0951976219177246,-1.7877204521179197
1788862632619515400,6.773515380859375,-8.485200321197508,-0.9880570976257324,-1.3697826248168945
1788862632629557200,6.78355712890625,-9.326762204742431,-1.0215759208679198,-1.243039574432373
1788862632639599400,6.793599365234375,-9.395894777679443,-1.3172598258972168,-1.1167454368591307
1788862632649640400,6.803640380859375,-8.918101908874512,-1.3510779243469238,-1.16837041015625
1788862632659682600,6.8136826171875,-8.487893798065185,-1.0562918449401855,-1.484405029296875
1788862632669724400,6.823724365234375,-8.684667247009276,-0.6355109031677245,-1.7778443702697753
1788862632679765500,6.833765625,-8.66955384902954,-0.3938461730957031,-1.7435773590087889
1788862632689807400,6.843807373046875,-8.400355799865721,-0.49574938125610346,-1.5605705696105956
1788862632699848400,6.853848388671875,-8.124274420928955,-0.4649240348815918,-1.3386580032348632
1788862632709890300,6.863890380859375,-7.52078596496582,0.10100538253784179,-1.174056639099121
1788862632719932400,6.873932373046875,-7.908048083496094,0.2554313896179199,-1.2211924842834472
1788862632729973200,6.88397314453125,-8.871414976501464,0.1662473777770996,-1.3513771995544432
1788862632740015600,6.894015625,-9.17368293609619,0.10190320816040038,-1.3813047203063964
1788862632750056400,6.904056396484375,-9.793182615661621,-0.010025719451904296,-1.0538976432800293
1788862632760098600,6.9140986328125,-9.407416873168945,-0.19318214645385742,-0.3642179275512695
1788862632770140400,6.924140380859375,-9.237278917694091,-0.05162497329711914,-0.13676876983642577
1788862632780181500,6.934181396484375,-8.755894746398925,0.4553472282409668,-0.6723217536926269
1788862632790223400,6.944223388671875,-8.406341304016113,0.8020575561523438,-1.3111246841430664
1788862632800265200,6.95426513671875,-8.502857558441162,0.7404068634033203,-1.5390227546691893
1788862632810306300,6.964306396484375,-8.49821879272461,0.32127193527221676,-1.140837091064453
1788862632820348400,6.974348388671875,-8.264035942840575,0.05910685348510742,-0.7658452560424804
1788862632830389500,6.984389404296875,-8.986187018585204,-0.15637129592895507,-0.8919897560119628
1788862632840431400,6.994431396484375,-9.92127240447998,-0.15472528228759766,-1.2458826889038086
1788862632850473500,7.004473388671875,-9.779266318511961,0.13646949462890623,-1.2482768905639647
1788862632860514300,7.014514404296875,-9.414449840545654,0.3221697608947754,-0.9823708686828613
1788862632870556400,7.024556396484375,-9.171139096832276,0.34281975021362304,-0.8324339897155761
1788862632880597200,7.03459716796875,-8.534281455230712,0.3972878379821777,-0.9711480484008789
1788862632890639400,7.044639404296875,-8.278700428009033,0.462230558013916,-1.4143746307373046
1788862632900681500,7.054681396484375,-8.122628407287598,0.4483142608642578,-1.8044798637390136
1788862632910722600,7.06472265625,-7.739705779266357,0.2337339370727539,-1.7733552421569823
1788862632920764400,7.074764404296875,-7.459883460235595,-0.16250643768310546,-1.384147834777832
1788862632930806300,7.08480615234375,-7.754819177246094,-0.5452794281005859,-1.074547632598877
1788862632940847400,7.094847412109375,-7.975085729980468,-0.9569324760437011,-1.0018237571716309
1788862632950889500,7.104889404296875,-8.17200881652832,-1.3287819213867187,-0.9235632904052734
1788862632960930300,7.114930419921875,-8.295010926818847,-1.6449661781311034,-0.8608651344299316
1788862632970972400,7.124972412109375,-8.584858965301514,-1.9545663803100586,-0.7046434761047363
1788862632981014500,7.1350146484375,-9.262118759918213,-2.206556105041504,-0.5746083984375
1788862632991055600,7.1450556640625,-9.472359593200682,-2.3020248962402343,-0.41374797439575195
1788862633001097500,7.155097412109375,-9.115922821044922,-2.282572007751465,-0.3616740882873535
1788862633011138600,7.165138671875,-8.921244298553466,-2.133084041595459,-0.42601825790405273
1788862633021180400,7.175180419921875,-9.105597826385498,-1.8668787445068358,-0.548421817779541
1788862633031222300,7.18522216796875,-9.331400970458985,-1.6174328590393066,-0.7143699203491211
1788862633041263400,7.195263427734375,-9.321973801422118,-1.5472528228759765,-0.8677484642028808
1788862633051305200,7.20530517578125,-9.337236837005614,-1.715445489501953,-0.8487444885253905
1788862633061346300,7.21534619140625,-9.327211117553711,-2.057816326904297,-0.46896425018310545
1788862633071388400,7.225388427734375,-8.86752439880371,-2.480542557525635,-0.12479776153564452
1788862633081430500,7.235430419921875,-8.67015239944458,-2.9109003059387204,-0.10295067138671875
1788862633091471400,7.245471435546875,-8.971522533416747,-3.296366773223877,-0.2834136215209961
1788862633101513500,7.255513427734375,-9.190442347717285,-3.525312306976318,-0.32411504974365235
1788862633111555300,7.265555419921875,-9.236680367279051,-3.7113118484497067,-0.16909049224853515
1788862633121596400,7.275596435546875,-9.156175336456299,-4.026448641967773,-0.08409633331298827
1788862633131638300,7.28563818359375,-8.76562119064331,-4.41775097579956,-0.09337386474609374
1788862633141679600,7.2956796875,-8.41487064743042,-4.6912885154724115,-0.2184709014892578
1788862633151721500,7.305721435546875,-8.284386656951904,-4.917690209960937,-0.3892074073791504
1788862633161763300,7.315763427734375,-8.422502165222168,-5.173720149993896,-0.5618892021179199
1788862633171804400,7.325804443359375,-8.616881412506103,-5.519383014678954,-0.7592612014770508
1788862633181846300,7.33584619140625,-8.62541075592041,-5.849633206176757,-0.8517372406005859
1788862633191887400,7.345887451171875,-8.661922331237793,-6.089801560211181,-0.7312789695739745
1788862633201929200,7.35592919921875,-8.455572075653075,-6.2015808502197265,-0.5419874008178711
1788862633211971600,7.3659716796875,-8.192658805847168,-6.206518891143799,-0.5795464393615722
1788862633222012400,7.376012451171875,-8.138789268493651,-6.122272920227051,-0.847248112487793
1788862633232054500,7.386054443359375,-8.28124426727295,-5.987898352050781,-1.0582371337890624
1788862633242095400,7.396095458984375,-8.531737615966797,-6.0060045021057125,-1.0295067138671874
1788862633252137500,7.406137451171875,-8.607454243469238,-6.148908413696288,-0.9069535163879394
1788862633262179300,7.416179443359375,-8.316708379364012,-6.401197413635254,-0.9063549659729003
1788862633272220400,7.426220458984375,-8.069955970764159,-6.612934622955322,-1.0959458099365234
1788862633282262300,7.43626220703125,-8.118438554382324,-6.734739632415771,-1.250671092224121
1788862633292304600,7.4463046875,-8.322993158721923,-6.854300077819824,-1.3154641746520996
1788862633302345500,7.456345458984375,-8.093748349761963,-6.946327204132079,-1.4085387641906737
1788862633312387600,7.4663876953125,-7.544727981567382,-7.070676052856445,-1.4809633644104003
1788862633322428400,7.476428466796875,-7.034164477539062,-7.16285281677246,-1.486200680541992
1788862633332470500,7.486470458984375,-6.583904927825928,-7.05451519165039,-1.5120879859924317
1788862633342512400,7.496512451171875,-6.391770244598388,-6.927472866058349,-1.5771803436279297
1788862633352553500,7.506553466796875,-6.754940708923339,-6.79953271484375,-1.7137994758605957
1788862633362595300,7.51659521484375,-7.531410234832763,-7.033266651916503,-1.7992425476074219
1788862633372636400,7.526636474609375,-8.030601280975342,-7.540388491058349,-1.6467618293762205
1788862633382678500,7.536678466796875,-7.709179708099365,-8.14686969909668,-1.5195698661804198
1788862633392720400,7.546720458984375,-7.2529346542358395,-8.68242268295288,-1.4393641105651855
1788862633402761500,7.556761474609375,-7.400178056335449,-8.875305554199219,-1.3633482078552246
1788862633412803300,7.56680322265625,-7.687781530761718,-8.779687125396729,-1.2708721687316893
1788862633422844400,7.576844482421875,-7.864653178405761,-8.467842359161377,-1.195155541229248
1788862633432886300,7.58688623046875,-8.037334973144532,-8.065017929840087,-1.2752116592407226
1788862633442928400,7.596928466796875,-8.463353231048583,-7.700351089477539,-1.5138836372375488
1788862633452969200,7.60696923828125,-8.90583162536621,-7.64214206161499,-2.0783166786193847
1788862633463011600,7.617011474609375,-8.903736698913574,-7.951442988586425,-2.7793688522338864
1788862633473053400,7.627053466796875,-8.361450022888183,-8.33152250213623,-3.090615068054199
1788862633483094500,7.637094482421875,-7.866897742462157,-8.49672241668701,-2.883217349243164
1788862633493136400,7.647136474609375,-7.378779878997802,-8.277204051971434,-2.3597850112915038
1788862633503177500,7.657177490234375,-6.984634430694579,-7.845499565124511,-1.6385317611694334
1788862633513219300,7.66721923828125,-6.928819604492187,-7.439532746124267,-0.7398083129882812
1788862633523261200,7.67726123046875,-7.0187518043518065,-7.170185059356689,0.10280103378295898
1788862633533302300,7.68730224609375,-6.906373963928222,-7.098658284759521,0.5262754524230957
1788862633543344400,7.697344482421875,-6.470778899383545,-7.161057165527343,0.45819034271240233
1788862633553385500,7.707385498046875,-6.360645623016357,-7.347355982208252,0.1619078872680664
1788862633563427300,7.71742724609375,-6.7085530517578125,-7.480533449554443,-0.2314893730163574
1788862633573469400,7.727469482421875,-6.72261898651123,-7.384466107940673,-0.6886322525024413
1788862633583510300,7.73751025390625,-6.444592318725586,-6.956801836395263,-0.9540893615722655
1788862633593552400,7.747552490234375,-6.421697765350341,-6.681019732666015,-0.6911760917663574
1788862633603593500,7.757593505859375,-6.4071829177856445,-6.733093618774413,-0.4825812721252441
1788862633613635800,7.7676357421875,-6.455964776611328,-6.893654767608642,-0.6542156036376953
1788862633623678000,7.777677978515625,-6.574926671600341,-6.921188086700439,-1.022024833679199
1788862633633719000,7.787718994140625,-6.826168208312988,-6.992265948486327,-1.2062287239074707
1788862633643761000,7.797760986328125,-7.193977438354492,-7.325209616851806,-1.0950479843139649
1788862633653802800,7.807802734375,-7.410951963806152,-7.696310874176025,-0.9817723182678222
1788862633663843800,7.81784375,-7.420079857635498,-7.913584674835205,-0.9186252494812012
1788862633673885700,7.8278857421875,-7.62268917312622,-7.993940068054199,-0.8002619049072265
1788862633683926800,7.8379267578125,-7.735665563964844,-7.946654585266113,-0.6503250259399413
1788862633693969000,7.847968994140625,-7.51450118560791,-7.7778633682250975,-0.584185205078125
1788862633704011000,7.858010986328125,-7.311891870117187,-7.617302219390869,-0.4914098907470703
1788862633714051800,7.8680517578125,-7.11841044845581,-7.556698989868163,-0.5659294174194336
1788862633724094000,7.878093994140625,-6.74162296218872,-7.586327235412597,-0.8987234481811522
1788862633734135000,7.888135009765625,-6.537367633056641,-7.5540055130004875,-1.0628758995056151
1788862633744177000,7.898177001953125,-6.485443384552002,-7.342268303680419,-1.0064625228881836
1788862633754218800,7.90821875,-6.734440357208252,-7.090877129364014,-0.8092401611328125
1788862633764259800,7.918259765625,-7.213729602050781,-6.980594215393066,-0.6382043800354004
1788862633774301700,7.9283017578125,-7.695861961364746,-6.909067440795898,-0.5805939025878906
1788862633784342800,7.9383427734375,-8.121580944061279,-6.847566385650635,-0.5021837982177734
1788862633794385000,7.948385009765625,-8.393921382904052,-6.806116769409179,-0.4777928688049316
1788862633804427000,7.958427001953125,-8.692448402404784,-6.801178728485107,-0.43783962860107417
1788862633814467800,7.9684677734375,-8.80422769241333,-6.978798564147949,-0.5576993492126464
1788862633824510000,7.978510009765625,-8.481758656311035,-7.164947743225097,-0.9252093040466308
1788862633834551800,7.9885517578125,-8.022520850372313,-7.228244449615478,-1.3028946159362793
1788862633844593000,7.998593017578125,-7.70588768081665,-7.06738402557373,-1.4781202499389647
1788862633854634800,8.008634765625,-7.650970680236816,-6.7100494277954095,-1.4493898300170898
1788862633864675800,8.01867578125,-7.708581157684326,-6.303932971191406,-1.2597989860534666
1788862633874718000,8.028718017578125,-7.924807495117187,-6.059275489044189,-0.9448118301391601
1788862633884759800,8.038759765625,-8.269123621368408,-5.9588686569213865,-0.7447463539123534
1788862633894801000,8.04880078125,-8.544756087493896,-5.971138940429687,-0.5452794281005859
1788862633904842800,8.0588427734375,-8.783727340698242,-5.805490113067626,-0.32665888900756834
1788862633914883800,8.0688837890625,-9.049483724975586,-5.635950708007812,-0.06449380722045898
1788862633924925700,8.07892578125,-9.274987593841551,-5.556792415618896,0.10474632263183593
1788862633934967800,8.0889677734375,-9.311648806762694,-5.760598831939697,-0.023044190979003905
1788862633945008600,8.099008544921874,-9.032873950958251,-5.922357081604003,-0.3167828071594238
1788862633955051000,8.109051025390626,-8.882637796783447,-5.906794770812988,-0.5582978996276855
1788862633965091800,8.119091796875,-8.93112038040161,-5.59869094467163,-0.6801029090881348
1788862633975134000,8.129134033203124,-9.113378981781006,-5.182848043823242,-0.4879682258605957
1788862633985175800,8.13917578125,-9.207800309753418,-4.832546413421631,-0.2346317626953125
1788862633995217000,8.149216796875,-9.236979642486572,-4.663156645965576,-0.1541267318725586
1788862634005258800,8.1592587890625,-9.090634066009521,-4.638915354156494,-0.30301614761352536
1788862634015300900,8.16930078125,-8.978555500793457,-4.6258968826293945,-0.3628711891174316
1788862634025341700,8.179341796875,-8.908824377441405,-4.468178848266601,-0.32486323776245113
1788862634035384000,8.189384033203124,-9.183110105133055,-4.381089762878418,-0.3425204750061035
1788862634045425000,8.1994248046875,-8.847472959899902,-4.572625895690917,-0.5051765502929687
1788862634055467000,8.209467041015625,-8.16467657394409,-4.64789361038208,-0.60648120803833
1788862634065508900,8.2195087890625,-7.690175732421874,-4.402487940216064,-0.5211877738952636
1788862634075550000,8.229550048828125,-7.530362771606445,-3.8818987167358396,-0.44756607284545896
1788862634085591800,8.239591796875,-7.683442040252685,-3.430142790985107,-0.34177228698730466
1788862634095633000,8.2496328125,-8.135646878814697,-3.2181063064575195,-0.4652233100891113
1788862634105675000,8.259675048828125,-8.89266351623535,-3.0125042388916015,-0.8836100502014159
1788862634115716900,8.269716796875,-9.157970987701415,-3.0172926422119137,-1.4133271675109862
1788862634125758000,8.279758056640626,-9.10993731689453,-3.386747885894775,-1.9256863227844236
1788862634135799800,8.2897998046875,-8.64501328201294,-3.600131108856201,-2.2053590042114255
1788862634145841000,8.2998408203125,-8.42100578918457,-3.783287535858154,-2.103156520843506
1788862634155882800,8.3098828125,-8.501361182403564,-3.924545433807373,-1.6801310150146482
1788862634165924900,8.3199248046875,-8.333617428588866,-3.791068691253662,-1.2770073104858397
1788862634175965700,8.329965576171874,-8.591443019866944,-3.358765653991699,-0.98955347366333
1788862634186008000,8.340008056640626,-8.9891797706604,-2.929904281616211,-0.8907926551818847
1788862634196050000,8.3500498046875,-9.271695566558837,-2.712780118560791,-1.1125555839538575
1788862634206091000,8.360091064453124,-8.79090994567871,-2.741510538482666,-1.474229672241211
1788862634216132900,8.3701328125,-8.277353689575195,-2.6761189056396484,-1.7767969070434568
1788862634226174000,8.380174072265625,-8.24203921508789,-2.601749016571045,-1.8734627990722654
1788862634236215800,8.3902158203125,-8.212410969543457,-2.3294085777282714,-1.8644845428466796
1788862634246257700,8.400257568359375,-7.996334269714355,-1.8664298316955565,-1.553387964630127
1788862634256298800,8.410298828125,-8.091952698516845,-1.4377180969238281,-1.0932523330688475
1788862634266340900,8.4203408203125,-8.766818291473388,-1.5129858116149901,-0.9389759635925292
1788862634276382000,8.4303818359375,-9.069684801483154,-1.9815011489868164,-1.0718541557312011
1788862634286423800,8.440423828125,-8.591742295074463,-2.0088848304748534,-1.2942156349182128
1788862634296466000,8.4504658203125,-8.075642199707032,-1.4598644622802734,-1.5034090049743651
1788862634306506800,8.4605068359375,-8.733598743438721,-1.089810668182373,-1.709759260559082
1788862634316548900,8.470548828125,-8.765770828247069,-0.9832686943054199,-1.989282304382324
1788862634326590700,8.4805908203125,-8.517671681213379,-0.9967360786437988,-2.194285821533203
1788862634336631800,8.4906318359375,-8.35007756500244,-0.603338818359375,-2.0772692153930663
1788862634346674000,8.500673828125,-8.277503327178955,-0.21338322296142576,-2.0555717628479004
1788862634356715000,8.510715087890626,-8.020575561523437,-0.17911621170043945,-1.9904794052124022
1788862634366756900,8.5207568359375,-8.098686390686035,-0.19916765060424804,-2.0542250244140625
1788862634376799000,8.530799072265625,-8.5800705619812,-0.4216787673950195,-2.1785738731384274
1788862634386839800,8.54083984375,-9.241319132995605,-0.5919663604736328,-2.1396680961608885
1788862634396882000,8.5508818359375,-9.322273076629639,-0.4451718711853027,-2.0220529396057128
1788862634406922800,8.5609228515625,-8.13295340194702,0.08394669570922851,-1.6048633003234862
1788862634416964900,8.57096484375,-7.024737308502197,0.7035960128784179,-0.9913491249084472
1788862634427007000,8.581007080078125,-7.191433599090575,0.9051578651428223,-0.7914332862854003
1788862634437048000,8.591048095703124,-8.314314177703857,0.609025047302246,-1.0386346076965332
1788862634447090000,8.60108984375,-9.01536635131836,0.32231939849853514,-1.30229606552124
1788862634457131000,8.611131103515625,-8.84881969833374,0.3452139518737793,-1.0082581741333008
1788862634467172900,8.6211728515625,-8.548048114776611,0.4608838195800781,-0.5717652839660644
1788862634477214700,8.631214599609375,-8.445247080993651,0.2576759536743164,-0.483928010559082
1788862634487255800,8.641255859375,-8.929773641967772,0.04369418029785156,-0.7398083129882812
1788862634497297700,8.651297607421874,-8.87380917816162,0.03067570877075195,-0.9437643669128417
1788862634507338800,8.6613388671875,-8.452579323577881,0.06868366012573242,-1.2536638442993164
1788862634517380900,8.671380859375,-8.711901290893554,-0.14619593887329102,-1.5134347244262694
1788862634527423000,8.681423095703124,-8.658031753540039,-0.30137013397216794,-1.3807061698913574
1788862634537463800,8.6914638671875,-8.191461705017089,-0.15083470458984374,-1.2541127571105957
1788862634547506000,8.701505859375,-7.9560817543029785,0.0326209976196289,-1.4100351402282714
1788862634557547800,8.7115478515625,-8.090456322479248,0.11985972061157225,-1.6989853530883787
1788862634567588900,8.7215888671875,-8.149413538360594,0.08065466842651367,-1.650951682281494
1788862634577630700,8.731630615234375,-7.84594847793579,-0.19213468322753904,-1.2885294059753418
1788862634587671800,8.741671875,-7.59096600112915,-0.49455228042602534,-1.0030208580017088
1788862634597714000,8.7517138671875,-8.157045056152343,-0.8872013526916503,-1.001075569152832
1788862634607755800,8.761755859375,-9.125948540496825,-1.412878254699707,-1.080233861541748
1788862634617796000,8.771796142578125,-9.510517182159424,-1.889025109863281,-1.0628758995056151
1788862634627838500,8.78183837890625,-9.573364975738524,-2.380734275817871,-1.026513961791992
1788862634637879300,8.79187939453125,-9.642647186279296,-2.872443441772461,-0.9298480697631836
1788862634647921400,8.80192138671875,-9.625887774658203,-3.061286097717285,-0.8539818046569824
1788862634657963300,8.81196337890625,-9.618854807281494,-2.9741970123291015,-0.862511148071289
1788862634668004400,8.82200439453125,-9.874286196899414,-2.8555343925476073,-0.9519944351196289
1788862634678046200,8.832046142578125,-9.660454061126709,-2.844760485076904,-0.9114426445007323
1788862634688087300,8.84208740234375,-8.687360723876953,-2.790741310119629,-0.634014527130127
1788862634698129200,8.852129150390626,-8.071153071594237,-2.6131214744567868,-0.4688146125793457
1788862634708171300,8.862171142578125,-7.986009275054931,-2.4480711975097655,-0.6278793853759765
1788862634718212400,8.87221240234375,-7.889642658233642,-2.433855625152588,-0.733523533630371
1788862634728254200,8.882254150390626,-8.038831349182129,-2.4459762710571287,-0.70868369140625
1788862634738296300,8.89229638671875,-8.409184418487548,-2.576609899139404,-0.5904699844360352
1788862634748337200,8.902337158203125,-8.820837466430664,-3.022230683135986,-0.22610241928100586
1788862634758379300,8.912379150390626,-8.527547763061524,-3.5097499961853025,0.11222820281982421
1788862634768420000,8.922420166015625,-8.185476200866699,-3.8275802665710446,0.4429273071289062
1788862634778462200,8.932462158203125,-8.214206620788573,-4.035426898193359,0.5891232460021972
1788862634788504300,8.94250439453125,-8.543409349060058,-4.2515035980224605,0.6953659446716308
1788862634798545400,8.95254541015625,-8.693346228027343,-4.50050057067871,0.678007982635498
1788862634808587300,8.962587158203124,-8.716540056610107,-4.981884741973877,0.3983353012084961
1788862634818628400,8.97262841796875,-8.72731396408081,-5.494243897247314,-0.09651625442504883
1788862634828670200,8.982670166015625,-8.65623610229492,-6.0345852844238275,-0.5695207199096679
1788862634838712300,8.99271240234375,-8.597727799224852,-6.510732139587402,-0.8487444885253905
1788862634848753200,9.002753173828125,-8.74033243560791,-6.7757403358459465,-1.0429740982055664
1788862634858795300,9.012795166015625,-9.03332286376953,-6.934056920623779,-1.2883797683715819
1788862634868836000,9.022836181640624,-8.949825080871582,-6.968473569488525,-1.555782166290283
1788862634878878500,9.03287841796875,-8.901641772460938,-6.82467183227539,-1.7763479942321776
1788862634888920300,9.04292041015625,-8.840140717315673,-6.73548782043457,-1.9370587806701658
1788862634898961400,9.05296142578125,-8.45991156616211,-6.608146219635009,-2.010381206512451
1788862634909003300,9.063003173828125,-8.12696789779663,-6.576123772430419,-1.7278654106140137
1788862634919044400,9.07304443359375,-7.6756608848571775,-6.589591156768798,-1.2831424522399901
1788862634929086200,9.083086181640626,-7.165695931243896,-6.695085667419433,-0.9882067352294921
1788862634939128300,9.09312841796875,-7.170933247375488,-6.890063465118407,-0.787841983795166
1788862634949169400,9.10316943359375,-7.377283502960204,-7.072770979309082,-0.6081272216796875
1788862634959211300,9.113211181640626,-7.422773334503173,-7.3359835243225096,-0.38352117843627925
1788862634969253400,9.12325341796875,-7.624335186767578,-7.754370264434814,-0.08469488372802735
1788862634979294200,9.133294189453125,-7.50791713104248,-8.147617887115478,0.1505354293823242
1788862634989336300,9.14333642578125,-6.874950067138672,-8.322544245910644,0.05731120223999023
1788862634999377200,9.153377197265625,-6.4225955909729,-8.343792785644531,-0.31663316955566406
1788862635009419300,9.163419189453125,-6.956502561187744,-8.390928630828856,-0.729034405517578
1788862635019461400,9.17346142578125,-7.84639739074707,-8.57438433303833,-1.2811971633911132
1788862635029502500,9.18350244140625,-8.334515254211425,-8.639626328277588,-1.6048633003234862
1788862635039544300,9.19354443359375,-8.253860585784912,-8.55538035736084,-1.6710031211853027
1788862635049585400,9.20358544921875,-8.199841410827636,-8.421753977203368,-1.6255132896423339
1788862635059627300,9.213627197265625,-8.179640334320068,-8.257900801086425,-1.4987702392578124
1788862635069669000,9.223669189453124,-7.965957836151123,-8.216151909637452,-1.4812626396179198
1788862635079710200,9.233710205078125,-7.799710458374023,-8.315810553741455,-1.5958850440979002
1788862635089752300,9.24375244140625,-7.6747630592346185,-8.275857313537598,-1.7000328163146972
1788862635099794400,9.25379443359375,-7.32939946975708,-8.033893308258056,-1.654842259979248
1788862635109835300,9.263835205078125,-6.944381915283203,-7.8058456001281735,-1.4876970565795897
1788862635119877400,9.27387744140625,-6.629694034576415,-7.691372833251953,-1.2874819427490234
1788862635129918500,9.28391845703125,-6.274604000854492,-7.518990313720702,-1.1848305465698241
1788862635139960300,9.293960205078125,-6.171354054260253,-7.397185304260254,-1.1553519386291504
1788862635150002200,9.304002197265625,-6.196493171691894,-7.309647306060791,-1.0506056159973145
1788862635160043300,9.314043212890626,-6.232855109405517,-7.319074475097656,-0.8684966522216796
1788862635170085000,9.324085205078125,-6.395211909484863,-7.4512044792175285,-0.6890811653137207
1788862635180126200,9.334126220703125,-6.595726298522949,-7.631218516540527,-0.5442319648742675
1788862635190168300,9.344168212890626,-6.858938843536377,-7.804947774505615,-0.4373907157897949
1788862635200210400,9.35421044921875,-7.115567333984375,-7.969249863433838,-0.4472667976379394
1788862635210251300,9.364251220703125,-7.172728898620605,-8.105420082855224,-0.5131073432922363
1788862635220293400,9.37429345703125,-7.230040100860595,-8.147019336700438,-0.6461351730346679
1788862635230334200,9.384334228515625,-7.295731008911132,-8.18517692565918,-0.8747814315795898
1788862635240376300,9.394376220703125,-7.296030284118652,-8.207323291015625,-1.1314099220275877
1788862635250418200,9.404418212890626,-7.315632810211182,-8.034940771484374,-1.2005424949645995
1788862635260459300,9.414459228515625,-7.36082336654663,-7.717409776306152,-1.1468225952148436
1788862635270501400,9.42450146484375,-7.339574826812743,-7.456441795349121,-1.0160393295288086
1788862635280542500,9.43454248046875,-7.3469070693969725,-7.187991934204101,-0.8644564369201659
1788862635290584300,9.444584228515625,-7.421127320861816,-7.136965511322021,-0.9807248550415039
1788862635300626200,9.454626220703124,-7.688978631591796,-7.244704586029052,-1.0850222648620604
1788862635310667300,9.464667236328125,-7.889941933441162,-7.187692658996582,-0.9894038360595703
1788862635320709000,9.474709228515625,-7.88455497970581,-7.017405065917968,-0.9091980804443359
1788862635330750200,9.484750244140624,-8.049006706237792,-7.0747162681579585,-0.8022071937561035
1788862635340792000,9.4947919921875,-8.193556631469725,-7.164947743225097,-0.6724713912963867
1788862635350834400,9.50483447265625,-8.133252677154541,-7.079504671478271,-0.5865794067382812
1788862635360875300,9.514875244140624,-7.994837893676757,-6.972813059997558,-0.553509496307373
1788862635370917400,9.52491748046875,-8.029104904937745,-6.890362740325927,-0.3924994346618652
1788862635380959200,9.534959228515625,-8.08851103363037,-6.725911013793945,0.13631985702514648
1788862635391000300,9.545000244140626,-8.19729757156372,-6.69718059387207,0.7134720947265625
1788862635401042200,9.555042236328125,-8.491485100555419,-6.776638161468505,0.9925462257385254
1788862635411083300,9.565083251953125,-8.95715732345581,-6.893205854797363,0.9419687156677246
1788862635421125000,9.575125,-9.196727127075194,-6.89500150604248,0.7559691741943358
1788862635431167500,9.58516748046875,-8.93171893081665,-6.647800184631348,0.6980594215393066
1788862635441208300,9.595208251953125,-8.30608410949707,-6.285377908325195,0.5826888290405273
1788862635451250400,9.60525048828125,-7.779659019470214,-6.045209554290771,0.24346038131713865
1788862635461291300,9.615291259765625,-7.620294971466064,-5.773318028259277,-0.105344873046875
1788862635471333400,9.62533349609375,-7.733720275115966,-5.410895751953125,-0.23956980361938476
1788862635481375200,9.635375244140626,-7.756614828491211,-5.1042883018493646,-0.42003275375366206
1788862635491416300,9.645416259765625,-8.029703455352783,-4.956895262145996,-0.4993406837463379
1788862635501458200,9.655458251953124,-8.297405128479003,-5.0182466796875,-0.6000467910766601
1788862635511499300,9.665499267578125,-8.392275369262695,-5.1225440895080565,-0.7332242584228515
1788862635521541400,9.675541259765625,-8.52305863494873,-5.004180744934081,-0.6296750366210937
1788862635531583200,9.685583251953124,-8.680178118896483,-4.796184475708007,-0.2018611274719238
1788862635541624300,9.695624267578125,-8.890418952178955,-4.659415705871582,0.2883516624450683
1788862635551666200,9.705666259765625,-9.120112673950194,-4.685452648925781,0.471807364654541
1788862635561707300,9.715707275390624,-9.52533130493164,-4.821323593139648,0.4095581214904785
1788862635571749000,9.7257490234375,-9.060107994842529,-5.007173497009277,0.1375169578552246
1788862635581791500,9.73579150390625,-8.336310905456543,-4.99280828704834,0.03067570877075195
1788862635591832300,9.745832275390624,-7.7599068557739255,-4.874744217681885,0.1396118843078613
1788862635601874400,9.75587451171875,-7.695562686157226,-4.7870565818786615,0.13542203140258788
1788862635611915800,9.765915771484375,-8.397512685394286,-4.744709140014648,-0.16609774017333984
1788862635621958000,9.7759580078125,-9.14809490585327,-4.62829108428955,-0.5770026000976562
1788862635631999700,9.785999755859375,-9.402927745056152,-4.571877707672119,-0.8789712844848633
1788862635642040800,9.796040771484375,-9.121309774780272,-4.584447266387939,-1.1209352897644043
1788862635652082700,9.806082763671874,-9.189544522094726,-4.483890796661377,-1.262193187713623
1788862635662124800,9.816124755859375,-9.24461116027832,-4.19449167098999,-1.4573206230163573
1788862635672166000,9.826165771484375,-9.24520971069336,-3.8118683181762694,-1.4526818572998046
1788862635682207700,9.836207763671876,-9.234286165618895,-3.699041564941406,-1.3730746520996093
1788862635692248800,9.846248779296875,-8.888922576141358,-3.7002386657714843,-1.4342764320373533
1788862635702290700,9.856290771484375,-8.738237509155272,-3.422511273193359,-1.2802993377685545
1788862635712332800,9.866332763671876,-8.84313346939087,-3.1495722839355467,-1.2120645904541014
1788862635722373600,9.87637353515625,-9.117718472290038,-2.8924948806762694,-1.1495160720825195
1788862635732415700,9.886415771484375,-9.28905352859497,-2.5130139175415036,-0.9614216041564941
1788862635742456600,9.89645654296875,-9.163507579040527,-2.175581121063232,-0.6542156036376953
1788862635752499000,9.9064990234375,-8.592640120697022,-2.1103391258239745,-0.4656722229003906
1788862635762540800,9.916540771484375,-8.26792652053833,-2.0904373245239256,-0.35673604736328124
1788862635772582000,9.926581787109376,-7.792976766204833,-2.1869535789489745,-0.488417138671875
1788862635782623700,9.936623779296875,-7.540538128662109,-2.1637597503662107,-0.7781155395507812
1788862635792664800,9.946664794921874,-7.5905170883178705,-2.080561242675781,-1.218050094604492
1788862635802706700,9.956706787109376,-7.804049948883057,-2.1097405754089356,-1.8167501472473144
1788862635812748500,9.96674853515625,-7.554903338623046,-2.0335750350952146,-2.293345915222168
1788862635822789600,9.97678955078125,-7.745541645812988,-1.6579846496582031,-2.0569185012817384
1788862635832831700,9.986831787109375,-7.832780368804931,-1.3678373359680176,-1.3322235862731933
1788862635842873900,9.996873779296875,-7.809586540222168,-1.089810668182373,-0.5430348640441894
1788862635852914700,10.006914794921874,-7.677456536102294,-0.7827543052673339,-0.10295067138671875
1788862635862956800,10.016956787109375,-7.946504947662353,-0.6304232246398925,-0.04519055633544922
1788862635872998000,10.026997802734375,-8.205826914978028,-0.5687725318908691,-0.29867665710449215
1788862635883039700,10.037039794921874,-8.187421489715575,-0.6877344268798827,-0.917428148651123
1788862635893081600,10.04708154296875,-8.20358235092163,-0.6265326469421386,-1.4532804077148436
1788862635903122700,10.057122802734375,-8.501660457611084,0.06793547210693358,-1.3914800773620604
1788862635913164800,10.067164794921876,-9.126098178100586,0.12060790863037109,-1.2192471954345703
1788862635923206000,10.077205810546875,-9.138967012023926,-0.2075473564147949,-1.168968960571289
1788862635933247700,10.087247802734375,-8.895955543518065,-0.2624643569946289,-1.2656348526000976
1788862635943289900,10.097289794921876,-8.732551280212402,-0.1545756446838379,-1.4598644622802734
1788862635953330700,10.10733056640625,-8.05738641204834,0.026785131072998045,-1.6445172653198241
1788862635963372800,10.117372802734375,-8.409932606506347,0.3133411422729492,-1.784428424835205
1788862635973413600,10.12741357421875,-9.383175581359863,0.34446576385498046,-1.891120036315918
1788862635983456000,10.1374560546875,-9.88281554031372,0.09786299285888671,-1.8573019378662108
1788862635993497900,10.147497802734375,-9.121309774780272,0.0626981559753418,-1.4323311431884764
1788862636003539000,10.1575390625,-7.902960404968261,0.11297639083862304,-0.9451111053466796
1788862636013580800,10.167580810546875,-7.57794752960205,0.21353286056518553,-0.6723217536926269
1788862636023622000,10.177621826171874,-7.8918872222900385,0.24271219329833982,-0.847248112487793
1788862636033663700,10.187663818359376,-8.58680425415039,0.1452981132507324,-0.9454103805541991
1788862636043705600,10.19770556640625,-8.733000193023681,-0.19348142166137694,-0.7176619476318359
1788862636053746700,10.20774658203125,-8.228122917938231,-0.6666355247497558,-0.23956980361938476
1788862636063788800,10.217788818359375,-7.669974655914306,-0.858022019958496,0.19123685760498046
1788862636073831000,10.227830810546875,-7.785494886016846,-0.7676409072875976,0.19871873779296872
1788862636083871700,10.237871826171874,-8.275109125518798,-0.6495768379211425,-0.5229834251403809
1788862636093913900,10.247913818359375,-8.20956785507202,-0.5653308670043945,-1.0480617767333984
1788862636103954700,10.25795458984375,-7.891438309478759,-0.39594109954833984,-1.0350433052062988
1788862636113996800,10.267996826171874,-7.717409776306152,-0.2699462371826172,-0.9519944351196289
1788862636124038700,10.27803857421875,-7.909095546722412,-0.39220015945434566,-1.0534487304687499
1788862636134079700,10.288079833984375,-8.17141026611328,-0.6792050834655762,-1.065569376373291
1788862636144121900,10.298121826171876,-8.310573237609862,-1.0244190353393554,-1.0143933158874512
1788862636154163000,10.308162841796875,-8.48400322036743,-1.3626000198364256,-0.9299977073669433
1788862636164204800,10.318204833984375,-8.794950160980225,-1.6059107635498047,-0.828693049621582
1788862636174247000,10.328246826171876,-9.182810829925536,-1.9116203880310056,-0.7299322311401367
1788862636184287700,10.338287841796875,-9.20585502090454,-2.399139701080322,-0.752677146911621
1788862636194329900,10.348329833984375,-9.137620273590088,-2.952050646972656,-0.9252093040466308
1788862636204370700,10.35837060546875,-9.35264951019287,-3.4913445709228514,-1.0006266563415527
1788862636214412800,10.368412841796875,-9.690082306671142,-3.883694367980957,-0.9352350234985352
1788862636224455000,10.378454833984375,-9.58279214477539,-3.9873932273864745,-0.6471826362609863
1788862636234496000,10.38849609375,-8.91929900970459,-3.8616976402282712,-0.43619361495971676
1788862636244537900,10.398537841796875,-8.392724282073974,-3.573196340179443,-0.5527613082885742
1788862636254579000,10.408578857421874,-8.671349500274658,-3.133561060333252,-0.7119757186889648
1788862636264620800,10.418620849609376,-9.07776523208618,-2.8194717300415038,-0.7707832969665527
1788862636274662700,10.42866259765625,-9.089436965179443,-2.854486929321289,-0.7481880187988281
1788862636284703700,10.438703857421874,-8.796296899414061,-3.12188932723999,-0.6290764862060546
1788862636294745600,10.44874560546875,-8.667458922576904,-3.6010289344787596,-0.43514615173339843
1788862636304788000,10.4587880859375,-8.923339225006103,-4.173841681671142,-0.14215572357177733
1788862636314828800,10.468828857421874,-9.067140962219238,-4.894945294189453,0.1680430290222168
1788862636324871000,10.478870849609375,-8.86767403640747,-5.558737704467773,0.2561795776367187
1788862636334911700,10.488911865234375,-8.712948754119873,-5.9947816818237305,0.1815104133605957
1788862636344953900,10.498953857421874,-8.614038298034668,-6.250961259460449,0.1562216583251953
1788862636354995700,10.50899560546875,-8.551040866851807,-6.453720212554932,0.014514847564697266
1788862636365036800,10.519036865234375,-8.405443478393554,-6.539612197113037,-0.23956980361938476
1788862636375078700,10.52907861328125,-8.438663026428221,-6.467636509704589,-0.5003881469726562
1788862636385119700,10.53911962890625,-8.256254787445068,-6.389376042938232,-0.9121908325195311
1788862636395161900,10.549161865234375,-7.896525988006592,-6.264877556610107,-1.3383587280273437
1788862636405203700,10.55920361328125,-8.090605960083007,-6.057180562591553,-1.3652934967041015
1788862636415244800,10.569244873046875,-8.308179035949706,-5.963357785034179,-1.1266215187072752
1788862636425286700,10.57928662109375,-8.07070415878296,-5.987000526428222,-0.6880337020874023
1788862636435327700,10.58932763671875,-7.804199586486816,-6.137685593414306,-0.33533787002563475
1788862636445369600,10.59936962890625,-7.811831104278564,-6.406734004974365,-0.15637129592895507
1788862636455411700,10.60941162109375,-7.80794052658081,-6.873154415893555,-0.07751227874755859
1788862636465452500,10.61945263671875,-7.98675746307373,-7.707982607269287,-0.18136077575683593
1788862636475495000,10.629494873046875,-7.945008571624755,-8.432078971862792,-0.6726210289001464
1788862636485535700,10.63953564453125,-7.9278002471923825,-8.986336656188964,-1.0269628746032715
1788862636495577900,10.649577880859376,-7.867197017669677,-9.290250629425048,-1.041926634979248
1788862636505619700,10.65961962890625,-7.739406504058837,-9.285462226104736,-0.9308955329895019
1788862636515660800,10.669660888671874,-7.968202400207519,-8.98319426651001,-0.7586626510620117
1788862636525702700,10.67970263671875,-8.271218547821045,-8.36384422454834,-0.519092847442627
1788862636535743700,10.68974365234375,-8.16512548675537,-7.723096005249023,-0.3398269981384277
1788862636545785600,10.69978564453125,-7.578546080017089,-7.415890004730224,-0.3128922294616699
1788862636555828000,10.709827880859375,-7.16958650894165,-7.3545385871887206,-0.6923731925964355
1788862636565868800,10.719868896484375,-7.019350354766845,-7.39913059310913,-1.3808558074951172
1788862636575911000,10.729910888671874,-7.210287937164306,-7.5266218315124505,-1.9524714538574217
1788862636585951700,10.73995166015625,-7.343315766906738,-7.6653358901977535,-2.116324629974365
1788862636595993900,10.749993896484375,-7.244554948425293,-7.707234419250488,-1.90892691116333
1788862636606035700,10.76003564453125,-6.916698958587646,-7.825747401428222,-1.4987702392578124
1788862636616076000,10.770075927734375,-6.412569871520995,-8.04975489425659,-1.1698667861938477
1788862636626118000,10.780117919921874,-6.149506964111327,-8.284835569763183,-0.975487538909912
1788862636636159000,10.790158935546875,-6.407631830596923,-8.443002516937256,-0.8355763793945312
1788862636646200800,10.800200927734375,-6.599018325805663,-8.394819208526611,-0.6630442222595214
1788862636656243200,10.8102431640625,-6.679822631835937,-8.306981935119628,-0.6183025787353515
1788862636666284000,10.820283935546875,-7.034763027954101,-8.259995727539062,-0.6277297477722168
1788862636676326100,10.830326171875,-7.340622290039062,-8.399158699035643,-0.6672340751647949
1788862636686367000,10.840366943359374,-7.288249128723144,-8.512883277893065,-0.8258499351501465
1788862636696409000,10.8504091796875,-7.146991230773925,-8.443451429748535,-1.0332476539611817
1788862636706451000,10.860450927734375,-7.321767951965332,-8.227225092315674,-1.1493664344787597
1788862636716492000,10.870491943359376,-7.406911748504638,-8.062623728179931,-1.214309154510498
1788862636726534000,10.880533935546875,-7.108534366607666,-7.963114721679687,-1.2951134605407715
1788862636736576000,10.890575927734375,-6.832303350067138,-7.86585027923584,-1.2767080352783202
1788862636746617000,10.9006171875,-6.702567547607422,-7.8547770965576165,-1.1923124267578125
1788862636756659000,10.910658935546875,-6.532130316925048,-7.798962270355224,-1.1167454368591307
1788862636766700000,10.920699951171875,-6.375310108184814,-7.588122886657715,-1.067963578033447
1788862636776742000,10.930741943359376,-6.351068816375732,-7.265803488159179,-1.0555436569213867
1788862636786784000,10.940783935546875,-6.452822386932373,-7.034613390350342,-1.038784245300293
1788862636796824800,10.950824951171874,-6.451026735687256,-6.790704096221924,-0.975487538909912
1788862636806867000,10.960866943359376,-6.563853488922119,-6.6708443756103515,-1.0199299072265624
1788862636816907800,10.97090771484375,-7.056460480499267,-7.054215916442871,-1.2431892120361328
1788862636826950100,10.9809501953125,-7.668328642272948,-7.448660639953613,-1.2434884872436522
1788862636836992000,10.990991943359376,-8.249221820068358,-7.4317515907287595,-0.9594763153076171
1788862636847033000,11.001033203125,-8.659977042388915,-7.322366502380371,-0.6073790336608886
1788862636857075000,11.011074951171874,-9.053523940277099,-7.197718378448486,-0.17761983566284179
1788862636867116000,11.021115966796875,-9.427019399261473,-7.092223867797851,0.20829554443359374
1788862636877158000,11.031157958984375,-9.444676636505127,-7.0935706062316894,0.4282628219604492
1788862636887200000,11.041199951171874,-9.149890557098388,-7.167192307281494,0.22161329116821288
1788862636897240800,11.05124072265625,-8.864082733917236,-7.200711130523681,-0.1188122573852539
1788862636907283000,11.061282958984375,-8.271966735839843,-7.312041507720947,-0.5271732780456543
1788862636917324000,11.071323974609374,-7.474547945404052,-7.283760000610351,-0.7888894470214843
1788862636927366100,11.0813662109375,-6.904727950286865,-6.897994258117675,-0.7064391273498535
1788862636937408000,11.091407958984375,-6.632686786651611,-6.348076064300537,-0.5424363136291503
1788862636947449000,11.101448974609376,-6.746112090301513,-5.814468369293213,-0.38187516479492184
1788862636957491000,11.111490966796875,-7.179761865997314,-5.47763412322998,-0.40671500701904295
1788862636967532000,11.121531982421875,-7.7681369239807125,-5.420921471405029,-0.4987421333312988
1788862636977574000,11.131573974609376,-8.349179739379883,-5.60542463684082,-0.5744587608337401
1788862636987616000,11.141615966796875,-8.890718227386474,-5.925948384094238,-0.5463268913269043
1788862636997657000,11.151656982421875,-9.329455681610106,-6.344484761810302,-0.36541502838134765
1788862637007699000,11.161698974609376,-9.36566798171997,-6.5948284729003905,-0.18255787658691405
1788862637017741000,11.171740966796875,-9.00803410873413,-6.532130316925048,0.046238019561767575
1788862637027782000,11.181781982421874,-8.834604125976561,-6.249464883422851,0.2397194412231445
1788862637037824000,11.191823974609376,-8.889221851348877,-5.877615438079833,0.4408323806762695
1788862637047864800,11.20186474609375,-8.960898263549804,-5.622782598876952,0.5967547637939453
1788862637057907200,11.2119072265625,-8.97047507019043,-5.357175852203369,0.486471849822998
1788862637067949000,11.221948974609376,-8.597877436828613,-4.989815534973144,0.2741360900878906
1788862637077990100,11.231990234375,-8.594136496734619,-4.552275181579589,0.19288287124633788
1788862637088032000,11.242031982421874,-8.949525805664061,-4.340388334655762,0.054767362976074214
1788862637098073000,11.252072998046875,-9.16111337738037,-4.304774584960938,-0.007032967376708984
1788862637108115000,11.262114990234375,-9.217377116394042,-4.2411786033630365,-0.06584054565429687
1788862637118156800,11.27215673828125,-9.201066617584228,-3.987093952178955,-0.3136404174804687
1788862637128198000,11.282197998046875,-9.182212279510498,-3.8509237327575683,-0.620547142791748
1788862637138240000,11.292239990234375,-9.217526753997802,-3.8824972671508786,-0.8330325401306152
1788862637148281000,11.302281005859374,-8.834753763580322,-4.018966761779785,-1.045667575073242
1788862637158323000,11.312322998046875,-8.10856247253418,-3.9510312896728514,-1.2699743431091308
1788862637168365000,11.322364990234375,-7.785644523620605,-3.6661212921142576,-1.4541782333374023
1788862637178406000,11.332406005859376,-8.137891442871092,-3.4389714096069333,-1.6303016929626464
1788862637188448000,11.342447998046875,-8.447491645050048,-3.286191416168213,-1.5982792457580566
1788862637198488800,11.35248876953125,-8.786869730377196,-3.0973487602233885,-1.2981062126159668
1788862637208531000,11.362531005859376,-8.994267449188232,-2.944269491577148,-1.0212766456604003
1788862637218573000,11.372572998046875,-9.209895236206053,-2.8529905532836914,-0.8294412376403808
1788862637228614100,11.3826142578125,-8.966584492492675,-2.837428242492676,-0.7758709754943848
1788862637238656000,11.392656005859376,-8.647856396484375,-2.6599580444335937,-0.792929662322998
1788862637248697000,11.402697021484375,-8.303989183044433,-2.410661796569824,-1.0178349807739258
1788862637258739000,11.412739013671874,-8.273762387084961,-2.0501848091125487,-1.1213842025756835
1788862637268781000,11.422781005859376,-7.968800950622558,-1.696890426635742,-1.1746551895141601
1788862637278822000,11.43282177734375,-7.765742722320557,-1.379658706665039,-1.2901754196166992
1788862637288864000,11.442864013671874,-7.714417024230957,-1.0729016189575196,-1.3596072677612303
1788862637298904800,11.45290478515625,-7.748384760284424,-0.7517793212890624,-1.4118307914733885
1788862637308947200,11.462947265625,-7.680748563385009,-0.23508067550659179,-1.3440449569702149
1788862637318989000,11.472989013671874,-8.007257814788819,0.14155717315673827,-1.2466308769226073
1788862637329030100,11.483030029296875,-8.539369133758544,-0.06808510971069336,-1.329230834197998
1788862637339072000,11.493072021484375,-8.743474825286865,-0.6786065330505371,-1.3114239593505859
1788862637349113000,11.503113037109374,-8.891915328216552,-1.0821791503906248,-1.1541548377990722
1788862637359155000,11.513155029296875,-8.743325187683105,-0.9299977073669433,-1.0136451278686522
1788862637369196800,11.52319677734375,-9.213636176300048,-0.5578489868164063,-0.960823053741455
1788862637379238000,11.53323779296875,-9.23249051437378,-0.48557402420043944,-0.9838672447204589
1788862637389280000,11.543280029296875,-8.744671926116943,-0.5506663818359374,-1.0410288093566893
1788862637399321000,11.553321044921875,-8.617479962921141,-0.49904140853881834,-1.3166612754821776
1788862637409363000,11.563363037109376,-8.653841900634765,-0.14948796615600585,-1.8327613708496093
1788862637419405000,11.573405029296875,-8.756942209625244,0.26650457229614255,-1.990030492401123
1788862637429446000,11.58344580078125,-7.968052762603759,0.19348142166137694,-1.605761125946045
1788862637439488000,11.593488037109376,-6.955455097961425,0.08349778289794921,-1.1623849060058593
1788862637449529900,11.60352978515625,-6.905326500701904,0.3085527389526367,-0.9877578224182129
1788862637459571000,11.613571044921875,-7.319523387908935,0.8575731071472168,-1.237951895904541
1788862637469613000,11.623613037109376,-7.959074506378173,1.2820949890136717,-1.5898995399475098
1788862637479654100,11.633654052734375,-8.300697155761718,1.2562076835632323,-1.4446014266967773
1788862637489696000,11.643696044921874,-7.842806088256835,0.9252093040466308,-1.2006921325683593
1788862637499737900,11.65373779296875,-7.59725078048706,0.8324339897155761,-0.953790086364746
1788862637509779000,11.663779052734375,-7.56567724609375,0.8262988479614257,-0.4896142395019531
1788862637519821000,11.673821044921874,-7.751078237152099,0.33324294357299805,-0.10714052429199218
1788862637529862000,11.68386181640625,-7.971644065093994,-0.13976152191162108,-0.3033154228210449
1788862637539904000,11.693904052734375,-8.652345524597168,-0.24600422058105467,-0.8240542839050292
1788862637549946000,11.703946044921874,-9.278279621124266,-0.3817255271911621,-1.1716624374389648
1788862637559987000,11.713987060546875,-9.579051204681395,-0.6552630668640136,-1.180341418457031
1788862637570029000,11.724029052734375,-9.122207600402831,-1.0305541770935058,-0.8831611373901367
1788862637580070100,11.734070068359374,-8.145672598266602,-1.4167688323974608,-0.4730044654846191
1788862637590112000,11.744112060546875,-7.682394577026367,-1.6163853958129881,-0.37184944534301756
1788862637600153900,11.75415380859375,-7.686434792327881,-1.564760422515869,-0.7404068634033203
1788862637610195000,11.76419482421875,-7.621940985107422,-1.399560507965088,-1.1314099220275877
1788862637620237600,11.774237548828125,-8.054393659973144,-1.2957120109558105,-1.382202545928955
1788862637630278700,11.784278564453125,-8.546551738739014,-1.438915197753906,-1.4172177452087402
1788862637640320500,11.794320556640624,-8.537723120117187,-1.5875053382873534,-1.1323077476501464
1788862637650362400,11.8043623046875,-8.756194021606445,-1.783081686401367,-0.706738402557373
1788862637660403500,11.814403564453125,-9.322871627044677,-2.043451116943359,-0.32501287536621093
1788862637670445600,11.824445556640624,-9.39694224090576,-2.392705284118652,-0.15846622238159178
1788862637680486400,11.834486328125,-8.888922576141358,-2.8324902015686035,-0.28446108474731446
1788862637690528500,11.844528564453125,-8.379406535339355,-3.071611092376709,-0.5403413871765136
1788862637700570600,11.854570556640626,-8.281543542480469,-3.0201357566833495,-0.6813000099182128
1788862637710611500,11.864611572265625,-8.441206865692138,-2.9038673385620117,-0.6768108818054199
1788862637720653600,11.874653564453125,-8.536974932098389,-2.9336452217102047,-0.7151181083679199
1788862637730694700,11.884694580078126,-8.854655564880371,-3.0844799263000486,-0.858022019958496
1788862637740736500,11.894736572265625,-9.309703517913817,-3.3912370140075683,-0.9618705169677734
1788862637750778400,11.9047783203125,-9.488071541595458,-3.867533506774902,-0.948103857421875
1788862637760819500,11.9148193359375,-9.34082813949585,-4.389020555877686,-0.7217021629333495
1788862637770861300,11.924861328125,-8.948627980041504,-4.840028293609619,-0.4215291297912597
1788862637780902400,11.93490234375,-8.779387850189208,-5.130774157714844,-0.16789339141845702
1788862637790944500,11.944944580078126,-8.781033863830565,-5.373037438201904,-0.05805939025878906
1788862637800986600,11.954986572265625,-8.564957164001465,-5.594052178955078,-0.08649053497314453
1788862637811027500,11.96502734375,-8.587851717376708,-5.693561185455322,-0.2528875503540039
1788862637821069600,11.975069580078125,-9.12968948059082,-5.739799205017089,-0.3989338516235351
1788862637831110400,11.9851103515625,-9.751134449005127,-5.780799908447265,-0.2501940734863281
1788862637841152500,11.995152587890624,-9.287706790161133,-5.965153436279296,-0.001496376037597656
1788862637851194400,12.0051943359375,-8.123825508117676,-5.972036766052246,0.1352723937988281
1788862637861235500,12.0152353515625,-7.6665329910278315,-5.905896945190429,0.030825346374511717
1788862637871277600,12.025277587890624,-7.78205322113037,-6.088754096984863,-0.33324294357299805
1788862637881318700,12.035318603515625,-8.096441826629638,-6.30168840713501,-0.52986675491333
1788862637891360500,12.045360595703125,-8.123376595306397,-6.5571197967529296,-0.5258265396118164
1788862637901402400,12.05540234375,-7.940818718719482,-6.978948201751709,-0.5017348854064941
1788862637911443500,12.065443359375,-7.732373536682128,-7.275081019592284,-0.4492120864868164
1788862637921485300,12.0754853515625,-7.68628515472412,-7.600393170166015,-0.3446154014587402
1788862637931526400,12.0855263671875,-7.353341486358642,-7.824251025390624,-0.2882020248413086
1788862637941568300,12.095568359375,-6.891709478759765,-7.938574154663086,-0.3929483474731445
1788862637951610600,12.105610595703125,-6.832752262878418,-8.007706727600096,-0.6150105514526367
1788862637961651500,12.1156513671875,-7.352443660736084,-8.162731285095214,-0.9388263259887695
1788862637971693600,12.125693603515625,-8.005162888336182,-8.37656342086792,-1.2832920898437499
1788862637981734400,12.135734375,-8.387038053131104,-8.597428524017333,-1.4812626396179198
1788862637991776500,12.145776611328126,-8.577227447509765,-8.788066831207274,-1.322796417236328
1788862638001818400,12.155818359375,-8.415469197845459,-8.89939720840454,-0.962768342590332
1788862638011859500,12.165859375,-8.201487424468993,-8.890119676971436,-0.5997475158691405
1788862638021901600,12.175901611328126,-8.211662781524657,-8.929474366760253,-0.3320458427429199
1788862638031942700,12.185942626953125,-8.15809251937866,-8.825625869750976,-0.13003507766723632
1788862638041984500,12.195984619140624,-7.816918782806396,-8.659827404785156,-0.24331074371337888
1788862638052026600,12.206026611328125,-7.433547241973876,-8.444947805786132,-0.6358101783752441
1788862638062067500,12.2160673828125,-6.779182000732422,-8.091204510498047,-1.159990704345703
1788862638072109600,12.226109619140624,-6.214300046539306,-7.602338459014892,-1.7244237457275389
1788862638082150400,12.236150390625,-5.869535007476807,-7.170185059356689,-2.0802619674682616
1788862638092192500,12.246192626953125,-5.909787522888183,-7.051672077178955,-2.235735437774658
1788862638102234600,12.256234619140624,-6.314856516265869,-7.247098787689208,-2.0964228286743163
1788862638112275700,12.266275634765625,-6.40344197769165,-7.618648957824707,-1.6054618507385252
1788862638122317600,12.276317626953125,-6.121824007415771,-7.9372274162292475,-1.1860276473999023
1788862638132358700,12.286358642578126,-5.934777002716064,-8.01294404373169,-0.8717886795043944
1788862638142400500,12.296400390625,-6.15429536743164,-7.883806791687011,-0.514603719329834
1788862638152442400,12.3064423828125,-6.298097104644775,-7.869142306518555,-0.3312976547241211
1788862638162483500,12.3164833984375,-6.479457880401611,-7.914033587646484,-0.4697124382019043
1788862638172525300,12.326525390625,-7.031022087860107,-7.98047268371582,-0.9611223289489745
1788862638182567700,12.336567626953125,-7.645883001708984,-8.100781317138672,-1.4915876342773438
1788862638192608500,12.3466083984375,-7.907898445892333,-8.26224029159546,-1.8791490280151366
1788862638202650600,12.356650634765625,-7.588721437072754,-8.436568099975586,-2.1459528755187987
1788862638212691500,12.36669140625,-7.138761162567138,-8.510937989044189,-2.03671742477417
1788862638222733600,12.376733642578126,-6.8782420944213865,-8.636783213806153,-1.6367361099243163
1788862638232774400,12.3867744140625,-6.697030956268311,-8.723573023986816,-1.1385925270080566
1788862638242816500,12.39681640625,-6.572831745147704,-8.629899884033202,-0.5823895538330078
1788862638252858400,12.4068583984375,-6.555174507904052,-8.277353689575195,-0.16774375381469725
1788862638262899500,12.4168994140625,-6.613084260559082,-7.763797433471679,-0.05581482620239257
1788862638272941600,12.426941650390624,-6.782324390411376,-7.2821139869689935,-0.17223288192749023
1788862638282982700,12.436982666015625,-7.135169860076904,-6.938994961547851,-0.3333925811767578
1788862638293024500,12.4470244140625,-7.499238150024413,-6.713790367889404,-0.4700117134094238
1788862638303066400,12.45706640625,-7.808539076995849,-6.662763945007324,-0.6003460662841796
1788862638313107500,12.467107421875,-8.118737829589843,-6.795791774749755,-0.5984007774353027
1788862638323149600,12.477149658203125,-8.359055821228027,-7.0184525291442865,-0.4991910461425781
1788862638333191400,12.48719140625,-8.417863399505615,-7.154772386169433,-0.4574421546936035
1788862638343232500,12.497232421875,-8.371924655151366,-7.238419806671142,-0.42751463394165035
1788862638353274600,12.507274658203125,-8.09539436340332,-7.264606387329101,-0.502483073425293
1788862638363315500,12.5173154296875,-7.723544918060302,-7.166593756866455,-0.675464143371582
1788862638373357600,12.527357666015625,-7.742099980926513,-6.9521630706787105,-0.7381622993469238
1788862638383398700,12.537398681640624,-7.962815446472168,-6.68416212234497,-0.7821557548522948
1788862638393440500,12.5474404296875,-8.22393306503296,-6.483647733306884,-0.8678981018066406
1788862638403482400,12.557482421875,-8.55538035736084,-6.262333717346191,-0.9856628959655761
1788862638413523500,12.5675234375,-9.08479819946289,-5.955576629638672,-1.0696095916748045
1788862638423565300,12.5775654296875,-9.324966553497314,-5.764639047241211,-1.060481697845459
1788862638433606400,12.5876064453125,-9.119214848327637,-5.71361262435913,-1.1848305465698241
1788862638443648500,12.5976484375,-8.940697187042236,-5.703437267303467,-1.1403881782531737
1788862638453690600,12.607690673828126,-8.589946643829345,-5.775113679504394,-0.9663596450805664
1788862638463731500,12.6177314453125,-8.25505768661499,-5.756857891845703,-0.5443816024780274
1788862638473773600,12.627773681640624,-8.461557579803467,-5.613804342651367,0.029328970336914062
1788862638483815400,12.6378154296875,-8.88084214553833,-5.654356133270263,0.3173813575744629
1788862638493856500,12.6478564453125,-9.215282189941405,-5.626523538970947,0.2522889999389648
1788862638503898400,12.6578984375,-9.264812236785888,-5.514893886566162,0.04534019393920898
1788862638513939500,12.667939453125,-9.249698838806152,-5.220706357574462,0.004638765716552734
1788862638523981600,12.677981689453125,-9.387664709472656,-4.800523966217041,0.05057751007080078
1788862638534023400,12.6880234375,-9.147346717834472,-4.536114320373535,-0.10429740982055663
1788862638544064500,12.698064453125,-8.83550195159912,-4.481197319793701,-0.35194764404296874
