time,seconds_elapsed,z,y,x
1788862625906697700,0.06069775390625,-0.7817637920379639,-0.5646846890449524,1.139087438583374
1788862625916738800,0.07073876953125,-0.5548248887062073,-0.8451818823814392,1.3038036823272705
1788862625926780700,0.08078076171875,-0.30841267108917236,-1.0215610265731812,1.4800320863723755
1788862625936822500,0.090822509765625,-0.12290911376476288,-1.0746783018112183,1.7101905345916748
1788862625946863600,0.100863525390625,-0.059872422367334366,-0.9823426604270935,1.9712306261062622
1788862625956905700,0.11090576171875,-0.1429864913225174,-0.9209296107292175,2.1932568550109863
1788862625966946600,0.120946533203125,-0.38255274295806885,-0.9626243114471436,2.3151092529296875
1788862625976988700,0.13098876953125,-0.6127961874008179,-0.95441073179245,2.3301010131835938
1788862625987030800,0.14103076171875,-0.7459486722946167,-1.0398956537246704,2.1935341358184814
1788862625997071600,0.151071533203125,-0.7482643127441406,-1.1345851421356201,1.889285683631897
1788862626007113700,0.16111376953125,-0.5768190622329712,-1.1267439126968384,1.4613816738128662
1788862626017155600,0.171155517578125,-0.31042200326919556,-1.0602458715438843,1.0298832654953003
1788862626027196700,0.18119677734375,-0.02608499675989151,-1.1810433864593506,0.6340767741203308
1788862626037238500,0.191238525390625,0.328128457069397,-1.4664254188537598,0.2764105200767517
1788862626047279600,0.201279541015625,0.8191263675689697,-1.7821556329727173,0.04541543871164322
1788862626057321500,0.211321533203125,1.3307286500930786,-2.0889949798583984,0.01823601685464382
1788862626067363800,0.22136376953125,1.7056732177734375,-2.4864649772644043,0.16366048157215118
1788862626077404700,0.23140478515625,1.7948507070541382,-3.06624698638916,0.35180747509002686
1788862626087446800,0.24144677734375,1.5850226879119873,-3.8447771072387695,0.4529036283493042
1788862626097487600,0.251487548828125,1.373755931854248,-4.528694152832031,0.5109916925430298
1788862626107529700,0.26152978515625,1.3442909717559814,-5.002996444702148,0.5529496073722839
1788862626117571600,0.271571533203125,1.403559923171997,-5.293981552124023,0.5240380764007568
1788862626127612700,0.28161279296875,1.4099918603897095,-5.360470294952393,0.35669830441474915
1788862626137654500,0.291654541015625,1.160088062286377,-4.940260887145996,0.08867564052343369
1788862626147696600,0.301696533203125,0.6296514272689819,-4.288142204284668,-0.16966059803962708
1788862626157737700,0.31173779296875,0.5186631083488464,-3.5676751136779785,-0.17427638173103333
1788862626167779600,0.321779541015625,0.8346707224845886,-3.379586696624756,-0.0810779258608818
1788862626177820700,0.331820556640625,1.1683658361434937,-3.663301467895508,-0.004614313133060932
1788862626187862500,0.341862548828125,1.2935065031051636,-4.099712371826172,0.19885949790477753
1788862626197904600,0.351904541015625,1.2134004831314087,-4.464735507965088,0.44857481122016907
1788862626207945500,0.361945556640625,1.0905852317810059,-4.72108268737793,0.5268604755401611
1788862626217987800,0.37198779296875,1.0738085508346558,-4.837985038757324,0.3465231955051422
1788862626228028700,0.382028564453125,1.1717491149902344,-4.845023155212402,0.041949525475502014
1788862626238070800,0.39207080078125,1.2519595623016357,-4.737689018249512,-0.22338227927684784
1788862626248112600,0.402112548828125,1.3149027824401855,-4.618852138519287,-0.44384461641311646
1788862626258153700,0.41215380859375,1.4095689058303833,-4.605604648590088,-0.6025652885437012
1788862626268195600,0.422195556640625,1.4754703044891357,-4.541722774505615,-0.5540238618850708
1788862626278237700,0.43223779296875,1.5734837055206299,-4.437971591949463,-0.3765140771865845
1788862626288278500,0.442278564453125,1.7236930131912231,-4.28487491607666,-0.165589839220047
1788862626298321000,0.45232080078125,1.9657543897628784,-4.234415531158447,0.042734600603580475
1788862626308361700,0.46236181640625,2.122410297393799,-4.080883026123047,0.09965907037258148
1788862626318403800,0.47240380859375,2.229541540145874,-3.939889669418335,0.008822907693684101
1788862626328445700,0.48244580078125,2.337686777114868,-3.86903977394104,-0.09241724759340286
1788862626338486800,0.49248681640625,2.4326367378234863,-3.8422985076904297,-0.08363600820302963
1788862626348528600,0.502528564453125,2.4309656620025635,-3.7024030685424805,-0.05665794759988785
1788862626358569700,0.51256982421875,2.3886559009552,-3.380204439163208,-0.054949261248111725
1788862626368611600,0.522611572265625,2.3907225131988525,-2.9196763038635254,-0.039802633225917816
1788862626378653700,0.53265380859375,2.4003641605377197,-2.423156499862671,-0.0060281590558588505
1788862626388694800,0.54269482421875,2.3979504108428955,-1.97590172290802,0.030090024694800377
1788862626398736600,0.552736572265625,2.396951913833618,-1.6065359115600586,0.0473017692565918
1788862626408778800,0.56277880859375,2.3627469539642334,-1.4312382936477661,0.02602558396756649
1788862626418819600,0.572819580078125,2.266662359237671,-1.504492998123169,-0.00018924253527075052
1788862626428861700,0.58286181640625,2.149674415588379,-1.6695425510406494,0.012421105057001114
1788862626438902500,0.592902587890625,2.0609238147735596,-1.7868624925613403,0.09397827833890915
1788862626448944600,0.602944580078125,2.0470993518829346,-1.8717749118804932,0.21752488613128662
1788862626458986800,0.61298681640625,2.0728073120117188,-1.9227975606918335,0.32858482003211975
1788862626469027800,0.62302783203125,2.045659065246582,-1.7280725240707397,0.5151152610778809
1788862626479069700,0.633069580078125,1.9665154218673706,-1.4268298149108887,0.7131212949752808
1788862626489110800,0.64311083984375,1.8203213214874268,-1.1482229232788086,0.8654444217681885
1788862626499152600,0.653152587890625,1.6651849746704102,-0.9913235306739807,0.980401337146759
1788862626509194500,0.663194580078125,1.4881004095077515,-0.8849226832389832,1.0428736209869385
1788862626519235600,0.673235595703125,1.3614497184753418,-0.9175501465797424,1.0680055618286133
1788862626529277400,0.68327734375,1.2708418369293213,-1.0689826011657715,1.11163330078125
1788862626539319800,0.69331982421875,1.2117305994033813,-1.2130845785140991,1.1694979667663574
1788862626549360600,0.703360595703125,1.1990782022476196,-1.25342857837677,1.2397651672363281
1788862626559402800,0.71340283203125,1.2036471366882324,-1.232218861579895,1.302377462387085
1788862626569443600,0.723443603515625,1.1916598081588745,-1.1879855394363403,1.3598343133926392
1788862626579485700,0.733485595703125,1.1572374105453491,-1.1020088195800781,1.4201048612594604
1788862626589527600,0.743527587890625,1.080464243888855,-1.1404725313186646,1.5451980829238892
1788862626599568600,0.753568603515625,0.9895656108856201,-1.356968641281128,1.770200252532959
1788862626609611500,0.763611572265625,0.8690025806427002,-1.1562083959579468,2.0116219520568848
1788862626619652600,0.773652587890625,0.6475213170051575,-0.8094464540481567,2.2703888416290283
1788862626629694500,0.783694580078125,0.4749615490436554,-0.6716400980949402,2.382150888442993
1788862626639736300,0.793736328125,0.43282103538513184,-0.7861312627792358,2.218170642852783
1788862626649777400,0.80377734375,0.3767164945602417,-1.0904245376586914,1.8563213348388672
1788862626659819300,0.8138193359375,0.3488321304321289,-1.1123533248901367,1.4203996658325195
1788862626669861400,0.823861328125,0.3457527160644531,-0.838580310344696,1.022362470626831
1788862626679902200,0.833902099609375,0.373600572347641,-0.4122255742549896,0.7384931445121765
1788862626689944600,0.843944580078125,0.391696572303772,0.0754968449473381,0.5833103060722351
1788862626699985400,0.8539853515625,0.35067006945610046,0.39318665862083435,0.554092288017273
1788862626710027500,0.864027587890625,0.20651760697364807,0.6570200324058533,0.7110340595245361
1788862626720069400,0.8740693359375,0.08542953431606293,0.8555815815925598,0.9667635560035706
1788862626730110500,0.8841103515625,0.04890797659754753,0.640503466129303,1.1271946430206299
1788862626740152300,0.89415234375,-0.0127793550491333,0.23960953950881958,1.2449766397476196
1788862626750193400,0.904193359375,0.018261289224028587,-0.7025464773178101,1.2011744976043701
1788862626760235300,0.9142353515625,0.12194640934467316,-1.5557148456573486,1.0268304347991943
1788862626770277400,0.92427734375,0.2221636325120926,-1.3587167263031006,0.9774587154388428
1788862626780318500,0.934318359375,0.2717415690422058,-0.7843461036682129,0.900635838508606
1788862626790360600,0.944360595703125,0.2649545669555664,-0.4682163596153259,0.6182198524475098
1788862626800402400,0.95440234375,0.11214451491832733,-0.33036690950393677,0.31023699045181274
1788862626810443500,0.964443603515625,0.014755410142242908,-0.1518949568271637,0.10880546271800995
1788862626820485400,0.9744853515625,0.019698768854141235,-0.057733841240406036,0.07040347903966904
1788862626830526500,0.9845263671875,-0.22282271087169647,0.14332939684391022,-0.018445514142513275
1788862626840568300,0.994568359375,-0.29445457458496094,0.24793729186058044,-0.24511781334877014
1788862626850610400,1.0046103515625,-0.24227386713027954,0.20053672790527344,-0.43312370777130127
1788862626860651500,1.014651611328125,-0.24859942495822906,0.11820617318153381,-0.4133252501487732
1788862626870693400,1.024693359375,-0.3101119101047516,-0.08941832184791565,-0.25807031989097595
1788862626880734500,1.034734375,-0.36306485533714294,-0.2772420048713684,-0.10502085834741592
1788862626890776300,1.0447763671875,-0.39770200848579407,-0.41650259494781494,0.028166577219963074
1788862626900818400,1.054818359375,-0.4199143648147583,-0.6224608421325684,0.11480773240327835
1788862626910859300,1.064859375,-0.3841463327407837,-1.0469664335250854,0.07403109222650528
1788862626920901400,1.0749013671875,-0.3729722499847412,-1.1962100267410278,0.13007092475891113
1788862626930942200,1.084942138671875,-0.4272422790527344,-1.1188656091690063,0.15451394021511078
1788862626940984600,1.094984619140625,-0.4418712854385376,-0.5758441090583801,0.12710361182689667
1788862626951026400,1.1050263671875,-0.463746577501297,0.07509703189134598,-0.09440529346466064
1788862626961067500,1.115067626953125,-0.5138360857963562,0.4476197361946106,-0.3723849952220917
1788862626971109400,1.125109375,-0.5426785349845886,0.5561808943748474,-0.3703365623950958
1788862626981151200,1.135151123046875,-0.5669287443161011,0.44507458806037903,-0.14602461457252502
1788862626991192300,1.1451923828125,-0.5575308799743652,0.16290493309497833,0.09901440143585205
1788862627001234200,1.155234130859375,-0.4633218050003052,-0.11895978450775146,0.3868730962276459
1788862627011275300,1.165275146484375,-0.4198244512081146,-0.3623255491256714,0.5549296736717224
1788862627021317400,1.1753173828125,-0.39871329069137573,-0.4771115183830261,0.6314641237258911
1788862627031359500,1.185359375,-0.3866696357727051,-0.46598246693611145,0.715739369392395
1788862627041400300,1.195400390625,-0.40673309564590454,-0.39487341046333313,0.8000749945640564
1788862627051442400,1.2054423828125,-0.46078380942344666,-0.32687118649482727,0.882992148399353
1788862627061483300,1.215483154296875,-0.5242831707000732,-0.392612099647522,0.9705560803413391
1788862627071525400,1.225525390625,-0.609370231628418,-0.4190009534358978,1.1003856658935547
1788862627081567500,1.2355673828125,-0.6455212831497192,-0.5515070557594299,1.18300199508667
1788862627091608600,1.245608642578125,-0.6048635244369507,-0.707104504108429,1.2896429300308228
1788862627101650400,1.255650390625,-0.5899474024772644,-0.7548139691352844,1.3992551565170288
1788862627111692500,1.265692626953125,-0.7005064487457275,-0.7177755236625671,1.5111994743347168
1788862627121733400,1.2757333984375,-0.7055704593658447,-0.7545918226242065,1.516116738319397
1788862627131775500,1.285775390625,-0.6720262169837952,-0.728234589099884,1.5354868173599243
1788862627141816300,1.29581640625,-0.5813791155815125,-0.9316638708114624,1.5097225904464722
1788862627151858400,1.3058583984375,-0.4896508455276489,-1.196250557899475,1.5109790563583374
1788862627161900500,1.315900634765625,-0.4680509865283966,-1.2188626527786255,1.5601551532745361
1788862627171941600,1.325941650390625,-0.42377474904060364,-1.1552941799163818,1.4994001388549805
1788862627181983500,1.3359833984375,-0.2195742130279541,-1.1376099586486816,1.247678518295288
1788862627192024600,1.346024658203125,-0.05333969369530678,-0.902487576007843,1.0168238878250122
1788862627202066400,1.35606640625,0.07723402976989746,0.1956663727760315,1.6298491954803467
1788862627212108300,1.3661083984375,0.6777182221412659,-0.3663426339626312,1.486140251159668
1788862627222149400,1.3761494140625,1.0625951290130615,-0.2935595214366913,1.0817813873291016
1788862627232191200,1.386191162109375,1.520447850227356,0.30644679069519043,0.9640508890151978
1788862627242232300,1.396232421875,2.0107059478759766,0.6493884325027466,0.8261715769767761
1788862627252274400,1.4062744140625,2.462367534637451,0.7479074001312256,0.7648151516914368
1788862627262316500,1.416316650390625,3.2016406059265137,0.7049484848976135,0.7583354115486145
1788862627272357400,1.426357421875,4.161952495574951,0.7527997493743896,0.7157125473022461
1788862627282399500,1.4363994140625,4.375285625457764,1.430176854133606,0.12608228623867035
1788862627292441300,1.44644140625,4.5908074378967285,1.7588497400283813,-0.21735185384750366
1788862627302482400,1.456482421875,4.696673393249512,1.432032823562622,-0.316548228263855
1788862627312524300,1.466524169921875,4.492440700531006,1.2857401371002197,-0.5963150262832642
1788862627322565400,1.4765654296875,5.160338878631592,0.7862892746925354,-0.7094045281410217
1788862627332607500,1.486607421875,6.123016357421875,-0.4075224697589874,-0.8133048415184021
1788862627342649300,1.4966494140625,4.864051818847656,-1.4437928199768066,-0.22548340260982513
1788862627352690400,1.5066904296875,3.9325613975524902,-1.9166600704193115,0.1530076414346695
1788862627362732300,1.516732177734375,3.79776668548584,-1.63783860206604,0.18808306753635406
1788862627372773400,1.5267734375,3.8092260360717773,-1.2426493167877197,-0.15386523306369781
1788862627382815500,1.5368154296875,3.5875678062438965,-0.9121142625808716,-0.2684725224971771
1788862627392857300,1.546857421875,3.2099499702453613,-1.1433781385421753,-0.16059671342372894
1788862627402898400,1.5568984375,2.84077787399292,-1.6775949001312256,0.09139078855514526
1788862627412940500,1.5669404296875,2.506789207458496,-2.0236122608184814,0.40221837162971497
1788862627422982400,1.576982421875,2.10964035987854,-1.8432966470718384,0.6980089545249939
1788862627433023500,1.5870234375,1.7947653532028198,-1.746599555015564,0.6265010833740234
1788862627443065300,1.5970654296875,1.2661452293395996,-1.430595874786377,0.44932422041893005
1788862627453106400,1.6071064453125,1.0344799757003784,-1.4764615297317505,0.03712162375450134
1788862627463148300,1.617148193359375,0.8473873138427734,-1.282238245010376,-0.4180530905723572
1788862627473190400,1.6271904296875,0.35303235054016113,-0.1021280437707901,-0.6217515468597412
1788862627483231200,1.637231201171875,0.3650757074356079,1.696420431137085,-0.7148036956787109
1788862627493273600,1.647273681640625,1.3932923078536987,2.597313165664673,-0.720241367816925
1788862627503314400,1.657314453125,2.614478349685669,1.8815431594848633,-0.5831671357154846
1788862627513356500,1.6673564453125,2.552142381668091,0.1265324354171753,0.08737646788358688
1788862627523398400,1.6773984375,1.9648699760437012,-1.5587352514266968,0.9401885271072388
1788862627533439500,1.687439453125,1.3861660957336426,-1.1745420694351196,1.4950244426727295
1788862627543481300,1.6974814453125,0.5048699378967285,-1.3617149591445923,1.1748554706573486
1788862627553523200,1.707523193359375,-0.2308582365512848,-1.0733871459960938,0.39077523350715637
1788862627563564300,1.717564208984375,-0.34161990880966187,-0.535398006439209,-0.3062930703163147
1788862627573606400,1.7276064453125,-0.09958787262439728,-0.15843550860881805,-0.7409536838531494
1788862627583647500,1.7376474609375,0.11217258125543594,0.2328483611345291,-1.0317127704620361
1788862627593689300,1.747689453125,0.22458632290363312,0.6220964193344116,-1.2675632238388062
1788862627603730700,1.757730712890625,0.2985260784626007,0.825821578502655,-1.4230380058288574
1788862627613771800,1.767771728515625,0.381850004196167,0.8425177335739136,-1.516926884651184
1788862627623813600,1.777813720703125,0.4630969166755676,1.2004450559616089,-1.7744474411010742
1788862627633854700,1.787854736328125,0.40402311086654663,1.3156888484954834,-1.854195475578308
1788862627643896800,1.797896728515625,-0.19688135385513306,0.5245920419692993,0.4244314432144165
1788862627653938700,1.807938720703125,-0.3712819516658783,0.8502526879310608,-0.00309425569139421
1788862627663979800,1.817979736328125,-0.32705163955688477,0.4974012076854706,-0.2801876366138458
1788862627674021600,1.828021728515625,-0.3226296603679657,0.1592438817024231,-0.11049327999353409
1788862627684063700,1.838063720703125,-0.437296599149704,0.05881873145699501,-0.015681814402341843
1788862627694104600,1.8481044921875,-0.6783404350280762,0.012206261046230793,0.06740840524435043
1788862627704146700,1.858146728515625,-0.8623108267784119,-0.20704832673072815,0.16064488887786865
1788862627714187500,1.8681875,-0.7823350429534912,-0.5122308731079102,0.20114877820014954
1788862627724230000,1.87822998046875,-0.40827035903930664,-0.559306263923645,0.23465614020824432
1788862627734271700,1.888271728515625,-0.08101069927215576,-0.548930287361145,0.21956342458724976
1788862627744312800,1.898312744140625,-0.3296932280063629,-0.7067942023277283,0.0863044336438179
1788862627754354700,1.908354736328125,-0.4626668095588684,-0.5206689834594727,0.10996740311384201
1788862627764395800,1.918395751953125,0.11263057589530945,-0.6758987903594971,0.0034361693542450666
1788862627774437600,1.928437744140625,0.7594569325447083,-0.2609287202358246,0.36984071135520935
1788862627784479700,1.938479736328125,0.6792649030685425,0.040186651051044464,0.7312047481536865
1788862627794520800,1.948520751953125,0.5123161673545837,-0.3080123960971832,0.4068588316440582
1788862627804562700,1.958562744140625,0.7322051525115967,0.16994351148605347,0.08549065887928009
1788862627814603800,1.968603759765625,0.905630886554718,0.5936278104782104,-0.2777455747127533
1788862627824645600,1.978645751953125,0.6221762895584106,0.5164531469345093,-0.4050302803516388
1788862627834687700,1.988687744140625,0.5666995048522949,-0.1078590452671051,-0.29849007725715637
1788862627844728800,1.998728759765625,0.4535177946090698,-0.907610297203064,-0.04503782466053963
1788862627854770700,2.008770751953125,0.7379595637321472,-1.8971245288848877,0.07525821030139923
1788862627864812800,2.018812744140625,1.4624499082565308,-3.0350232124328613,-0.34903740882873535
1788862627874854000,2.02885400390625,2.2487051486968994,-5.279943466186523,-1.5782291889190674
1788862627884895700,2.038895751953125,2.1829144954681396,-4.468657493591309,-0.377943217754364
1788862627894936800,2.048936767578125,2.520427703857422,-2.648378610610962,0.16311703622341156
1788862627904978700,2.058978759765625,2.934624671936035,-1.8300671577453613,0.12596647441387177
1788862627915020800,2.069020751953125,3.078035831451416,-2.012019395828247,-0.04313035309314728
1788862627925061600,2.0790615234375,3.146635055541992,-2.5147035121917725,-0.04929637163877487
1788862627935103700,2.089103759765625,2.562135934829712,-2.406975030899048,0.24386125802993774
1788862627945145900,2.099145751953125,2.23533296585083,-1.6659650802612305,0.3676609694957733
1788862627955187000,2.10918701171875,2.3067166805267334,-1.042741060256958,0.2545549273490906
1788862627965228800,2.119228759765625,2.272322654724121,-1.085474967956543,0.058575574308633804
1788862627975270000,2.129269775390625,1.9512051343917847,-0.8918948173522949,0.07123516499996185
1788862627985311700,2.139311767578125,1.0927751064300537,-0.6665557026863098,0.052479322999715805
1788862627995353600,2.149353515625,0.8344388604164124,-0.7740848064422607,-0.08857100456953049
1788862628005394700,2.159394775390625,0.6958492994308472,-1.2370778322219849,-0.0053315130062401295
1788862628015436500,2.1694365234375,1.2241069078445435,-0.9247425198554993,0.27130424976348877
1788862628025477600,2.1794775390625,1.4279117584228516,-0.521216094493866,0.28106045722961426
1788862628035519700,2.189519775390625,0.9077491760253906,-0.9725043177604675,0.018361780792474747
1788862628045561900,2.199561767578125,0.5798967480659485,-1.4806431531906128,-0.05855536833405495
1788862628055602700,2.209602783203125,0.5567486882209778,-1.7370188236236572,-0.036379773169755936
1788862628065644800,2.219644775390625,0.4952552616596222,-1.8217380046844482,-0.02731703780591488
1788862628075685600,2.229685546875,0.15973295271396637,-1.5995923280715942,-0.05803347006440163
1788862628085727700,2.239727783203125,-0.06582720577716827,-1.1808910369873047,-0.0828099250793457
1788862628095769600,2.24976953125,0.036959610879421234,-0.9041019678115845,-0.18104897439479828
1788862628105810700,2.259810791015625,0.1106593981385231,-0.673184871673584,-0.38753291964530945
1788862628115852800,2.269852783203125,0.1487194150686264,-0.38712355494499207,-0.5150632858276367
1788862628125895000,2.27989501953125,0.3605901300907135,-0.5299206972122192,-0.6407631635665894
1788862628135935700,2.289935791015625,0.3748440444469452,-0.5443135499954224,-0.6229633092880249
1788862628145977900,2.299977783203125,0.2944701015949249,-0.6343321204185486,-0.6057787537574768
1788862628156018700,2.310018798828125,0.18203383684158325,-0.6343744993209839,-0.5120130777359009
1788862628166060800,2.320060791015625,0.132047638297081,-0.5549334287643433,-0.40765658020973206
1788862628176102700,2.3301025390625,0.13101409375667572,-0.3645923137664795,-0.32769230008125305
1788862628186143700,2.340143798828125,0.19508016109466553,-0.23835021257400513,-0.28615498542785645
1788862628196185900,2.350185791015625,0.2617204785346985,-0.28611135482788086,-0.3021940588951111
1788862628206227700,2.360227783203125,0.2714686989784241,-0.402322381734848,-0.2732255160808563
1788862628216268800,2.370268798828125,0.3190295100212097,-0.4554380476474762,-0.2701990306377411
1788862628226310700,2.380310546875,0.29532843828201294,-0.45231789350509644,-0.20298750698566437
1788862628236351700,2.390351806640625,0.3077791929244995,-0.4119570851325989,-0.23364871740341187
1788862628246393600,2.4003935546875,0.3802134692668915,-0.45944735407829285,-0.3703770339488983
1788862628256435700,2.410435791015625,0.46256983280181885,-0.5279662013053894,-0.45832014083862305
1788862628266476500,2.4204765625,0.5503670573234558,-0.5746697783470154,-0.4889470040798187
1788862628276519000,2.430518798828125,0.657243013381958,-0.6569605469703674,-0.5629067420959473
1788862628286559700,2.440559814453125,0.6665390729904175,-0.7743955254554749,-0.6093703508377075
1788862628296601900,2.450601806640625,0.6706206202507019,-0.7361772656440735,-0.485873818397522
1788862628306643700,2.460643798828125,0.7036757469177246,-0.5658902525901794,-0.22690509259700775
1788862628316684800,2.470684814453125,0.6897351741790771,-0.4653322994709015,-0.007699862122535706
1788862628326726700,2.4807265625,0.5138645768165588,-0.2619948983192444,0.1314324587583542
1788862628336768500,2.4907685546875,0.24302874505519867,-0.17117568850517273,0.25651368498802185
1788862628346809600,2.5008095703125,-0.07279099524021149,-0.0803949162364006,0.44591957330703735
1788862628356851700,2.510851806640625,-0.3175526559352875,0.14727725088596344,0.6481707096099854
1788862628366892800,2.520892822265625,-0.5290441513061523,0.390459269285202,0.6915733218193054
1788862628376934700,2.5309345703125,-0.929762065410614,0.8365305066108704,0.7518165111541748
1788862628386976800,2.540976806640625,-1.1782336235046387,1.2511485815048218,0.8149051666259766
1788862628397017600,2.551017578125,-1.0253841876983643,2.3493130207061768,1.5982996225357056
1788862628407059700,2.561059814453125,-0.7424840331077576,2.5523619651794434,1.8959747552871704
1788862628417100500,2.5711005859375,-0.5231210589408875,1.0898150205612183,1.5975275039672852
1788862628427143000,2.581142822265625,-0.5160953998565674,-1.0808767080307007,1.2704579830169678
1788862628437184800,2.591184814453125,-0.5049415826797485,-0.24377639591693878,0.17137554287910461
1788862628447225900,2.601225830078125,-0.3957439959049225,-0.7740640044212341,0.3679562509059906
1788862628457267700,2.611267822265625,-0.26317960023880005,-1.2665743827819824,0.8413286805152893
1788862628467309800,2.621309814453125,-0.06623565405607224,-0.9309297204017639,0.9977361559867859
1788862628477350700,2.6313505859375,0.12969116866588593,-0.07252728939056396,0.8484993577003479
1788862628487392800,2.641392822265625,0.2199219912290573,0.6866773366928101,0.5724326372146606
1788862628497433600,2.65143359375,0.18640951812267303,0.897001326084137,0.34852251410484314
1788862628507476000,2.66147607421875,0.1229221522808075,0.557185173034668,0.13319264352321625
1788862628517517800,2.671517822265625,0.253552109003067,0.23879997432231903,0.040370598435401917
1788862628527559000,2.681558837890625,0.19025810062885284,0.08595477044582367,-0.016941159963607788
1788862628537600800,2.691600830078125,-0.07858694344758987,-0.06636765599250793,0.07051438838243484
1788862628547641900,2.701641845703125,-0.09826385229825974,-0.11063911765813828,0.17586073279380798
1788862628557683700,2.71168359375,-0.03220774233341217,-0.09292043000459671,0.20253197848796844
1788862628567725600,2.7217255859375,-0.00412630895152688,-0.015595018863677979,0.15770086646080017
1788862628577766700,2.7317666015625,-0.10573228448629379,0.16646479070186615,0.15268942713737488
1788862628587808800,2.741808837890625,-0.22512231767177582,0.27417340874671936,0.157704159617424
1788862628597851000,2.751850830078125,-0.19362404942512512,0.22416377067565918,0.13145524263381958
1788862628607892500,2.761892578125,-0.1493210345506668,0.1369985044002533,0.13374821841716766
1788862628617934600,2.7719345703125,-0.1530122011899948,0.09617731720209122,0.09775522351264954
1788862628627975700,2.7819755859375,-0.15128514170646667,-0.009532866068184376,0.08423249423503876
1788862628638017500,2.792017578125,-0.12421643733978271,-0.1413990557193756,0.1129273921251297
1788862628648059600,2.8020595703125,-0.08841370046138763,-0.2210851013660431,0.13464654982089996
1788862628658100500,2.8121005859375,-0.04827338829636574,-0.23226593434810638,0.12678639590740204
1788862628668142600,2.822142578125,-0.04993307217955589,-0.1989002674818039,0.08582271635532379
1788862628678183700,2.83218359375,-0.12137622386217117,-0.14380013942718506,0.02973606437444687
1788862628688225500,2.8422255859375,-0.22559823095798492,-0.10398320853710175,-0.04531367868185043
1788862628698267600,2.852267578125,-0.28910142183303833,-0.1410478949546814,-0.12696321308612823
1788862628708308700,2.862308837890625,-0.3611993193626404,-0.11047480255365372,-0.1584513634443283
1788862628718350600,2.8723505859375,-0.3985044062137604,0.006156495772302151,-0.1102157011628151
1788862628728391700,2.8823916015625,-0.4306327998638153,-0.01668197475373745,-0.07386860996484756
1788862628738433500,2.89243359375,-0.4167095720767975,-0.15921026468276978,-0.0719129666686058
1788862628748475600,2.9024755859375,-0.346731036901474,-0.1938726305961609,-0.07361312955617905
1788862628758516500,2.9125166015625,-0.2692547142505646,-0.1361091434955597,-0.10702042281627655
1788862628768558600,2.92255859375,-0.22669978439807892,0.052994731813669205,-0.1733536422252655
1788862628778600700,2.9326005859375,-0.1801031231880188,0.23157739639282227,-0.21816739439964294
1788862628788641800,2.942641845703125,-0.08950717747211456,0.2802567780017853,-0.18824945390224457
1788862628798683600,2.95268359375,-0.008513975888490677,0.2970961630344391,-0.11504104733467102
1788862628808724700,2.962724853515625,0.035491034388542175,0.3034677505493164,-0.05764033645391464
1788862628818766600,2.9727666015625,0.057783257216215134,0.19314314424991608,-0.07234997302293777
1788862628828808400,2.982808349609375,0.06679140031337738,0.041627395898103714,-0.10219495743513107
1788862628838849500,2.992849609375,0.09647414088249207,-0.09671926498413086,-0.08352117240428925
1788862628848891400,3.002891357421875,0.08916749060153961,-0.1468104124069214,-0.02777668461203575
1788862628858932700,3.0129326171875,0.05626005306839943,-0.0810946598649025,0.06382725387811661
1788862628868974600,3.022974609375,0.0011730992700904608,-0.0015745321288704872,0.19030210375785828
1788862628879016700,3.0330166015625,-0.06310440599918365,-0.06268396973609924,0.33112430572509766
1788862628889057500,3.0430576171875,-0.14190176129341125,-0.1283750981092453,0.41668421030044556
1788862628899099600,3.053099609375,-0.17910468578338623,-0.07179395109415054,0.45866096019744873
1788862628909140500,3.063140380859375,-0.20391283929347992,-0.052786439657211304,0.46286556124687195
1788862628919182600,3.0731826171875,-0.2292124480009079,-0.07202285528182983,0.4270375669002533
1788862628929224700,3.083224609375,-0.26139116287231445,-0.0030938563868403435,0.39563995599746704
1788862628939265800,3.093265869140625,-0.25847989320755005,0.03926011174917221,0.3784153461456299
1788862628949307600,3.1033076171875,-0.2255059778690338,0.10780695080757141,0.3540593981742859
1788862628959349800,3.113349853515625,-0.16551150381565094,0.20912492275238037,0.30859002470970154
1788862628969390600,3.123390625,-0.09369297325611115,0.265826553106308,0.25688448548316956
1788862628979432700,3.1334326171875,-0.009163960814476013,0.16652393341064453,0.2261200249195099
1788862628989473500,3.1434736328125,0.10188985615968704,0.05417501553893089,0.2065870761871338
1788862628999515600,3.153515625,0.1750635951757431,0.05105303227901459,0.17370593547821045
1788862629009557800,3.163557861328125,0.1824440211057663,0.16664913296699524,0.1321885883808136
1788862629019598800,3.173598876953125,0.18307997286319733,0.2736179530620575,0.09512368589639664
1788862629029640700,3.183640625,0.18592102825641632,0.2728959619998932,0.07671405375003815
1788862629039681800,3.193681884765625,0.18468038737773895,0.23219025135040283,0.06617619842290878
1788862629049723600,3.2037236328125,0.14396226406097412,0.256905734539032,0.05973400920629501
1788862629059765500,3.213765625,0.0807432308793068,0.310910165309906,0.07602279633283615
1788862629069806600,3.223806640625,0.027063487097620964,0.3080885410308838,0.13573671877384186
1788862629079848400,3.233848388671875,-0.0007723078597337008,0.2184038758277893,0.21509288251399994
1788862629089890800,3.243890869140625,0.015403199940919876,0.08691111207008362,0.25699371099472046
1788862629099931600,3.253931640625,0.034192685037851334,-0.015506510622799397,0.23644471168518066
1788862629109973800,3.263973876953125,0.05024568736553192,-0.05503714084625244,0.15810969471931458
1788862629120014600,3.2740146484375,0.14261062443256378,-0.12900497019290924,0.08882059901952744
1788862629130056700,3.284056640625,0.15012633800506592,-0.07556678354740143,0.03320394083857536
1788862629140098600,3.2940986328125,0.12815916538238525,0.07924214005470276,0.04659036174416542
1788862629150139600,3.3041396484375,0.07743819802999496,0.15683786571025848,0.10446590930223465
1788862629160181500,3.314181396484375,0.07250154763460159,0.2820207178592682,0.16701927781105042
1788862629170222600,3.32422265625,0.06858137249946594,0.20743145048618317,0.20408567786216736
1788862629180264700,3.3342646484375,0.02160029485821724,0.1659015715122223,0.18718616664409637
1788862629190306600,3.344306640625,0.018610630184412003,0.05742409825325012,0.18034076690673828
1788862629200347600,3.35434765625,0.0155964195728302,-0.12364653497934341,0.15499469637870789
1788862629210389500,3.364389404296875,-0.03408777713775635,-0.093734972178936,0.14007912576198578
1788862629220430600,3.3744306640625,-0.0955846756696701,-0.05041414499282837,0.1635182499885559
1788862629230472400,3.384472412109375,-0.16247130930423737,-0.07999227195978165,0.23080700635910034
1788862629240514600,3.3945146484375,-0.19298483431339264,-0.12154445797204971,0.31106874346733093
1788862629250555400,3.404555419921875,-0.17829670011997223,-0.12512162327766418,0.37396541237831116
1788862629260597800,3.41459765625,-0.13572892546653748,-0.18914325535297394,0.39940500259399414
1788862629270638600,3.424638671875,-0.06304939091205597,-0.29730647802352905,0.4237968921661377
1788862629280680700,3.4346806640625,0.010202688165009022,-0.44229719042778015,0.4493992328643799
1788862629290722600,3.44472265625,0.015175608918070793,-0.5276173949241638,0.4722345173358917
1788862629300763600,3.454763671875,-0.01856006123125553,-0.53569495677948,0.4948885142803192
1788862629310805500,3.464805419921875,-0.0420139878988266,-0.5413243174552917,0.48119425773620605
1788862629320846600,3.4748466796875,-0.03731175884604454,-0.582550585269928,0.3927587568759918
1788862629330888400,3.484888427734375,-0.03794798627495766,-0.5809545516967773,0.27079877257347107
1788862629340930800,3.494930908203125,-0.05128869786858559,-0.5497561693191528,0.15843869745731354
1788862629350971600,3.5049716796875,-0.06164279952645302,-0.5504326224327087,0.07932362705469131
1788862629361013800,3.515013671875,-0.05435837060213089,-0.623285710811615,0.06749182939529419
1788862629371055600,3.5250556640625,-0.0370643325150013,-0.6833357214927673,0.10119625926017761
1788862629381096700,3.5350966796875,-0.018061891198158264,-0.6665180921554565,0.14392423629760742
1788862629391138600,3.545138671875,-0.015560918487608433,-0.6267616152763367,0.17084559798240662
1788862629401179600,3.5551796875,-0.020876450464129448,-0.5644374489784241,0.1602613925933838
1788862629411221500,3.565221435546875,-0.026399580761790276,-0.4920058846473694,0.11662523448467255
1788862629421263600,3.575263671875,-0.007341010961681604,-0.3946869671344757,0.06450033187866211
1788862629431304700,3.5853046875,0.02273007296025753,-0.2682563066482544,0.014852087944746017
1788862629441346600,3.5953466796875,0.053867075592279434,-0.10318198800086975,-0.03880533203482628
1788862629451387600,3.6053876953125,0.034560490399599075,0.04496992751955986,-0.13421787321567535
1788862629461429500,3.615429443359375,-0.043729010969400406,0.142317995429039,-0.2451608031988144
1788862629471471600,3.6254716796875,-0.10194331407546997,0.10101158171892166,-0.3524073660373688
1788862629481512400,3.635512451171875,-0.0947309136390686,-0.1065058782696724,-0.5273385047912598
1788862629491554600,3.645554443359375,-0.02172088995575905,-0.39030537009239197,-0.8476803302764893
1788862629501595400,3.655595458984375,0.07896604388952255,-0.4385778307914734,-1.2592737674713135
1788862629511637800,3.6656376953125,0.11820266395807266,-0.1717834174633026,-1.6357134580612183
1788862629521679600,3.6756796875,0.10253563523292542,0.2910672128200531,-1.895247220993042
1788862629531720700,3.685720703125,0.03227026388049126,0.6502818465232849,-2.0375382900238037
1788862629541762600,3.695762451171875,-0.08534233272075653,0.7502313256263733,-2.118690252304077
1788862629551803600,3.7058037109375,-0.23456059396266937,0.6593242883682251,-2.1577131748199463
1788862629561845500,3.715845458984375,-0.3982255458831787,0.5751950740814209,-2.119244337081909
1788862629571887600,3.7258876953125,-0.5520127415657043,0.7283290028572083,-1.9772142171859741
1788862629581928700,3.7359287109375,-0.6899706125259399,1.101539134979248,-1.8139959573745728
1788862629591970600,3.745970458984375,-0.7826148271560669,1.4404737949371338,-1.7321796417236328
1788862629602011600,3.75601171875,-0.8217126727104187,1.475925326347351,-1.7428638935089111
1788862629612053500,3.766053466796875,-0.8043299317359924,1.0804603099822998,-1.796369194984436
1788862629622095400,3.776095458984375,-0.7372660040855408,0.47442740201950073,-1.8658974170684814
1788862629632136400,3.786136474609375,-0.6458625793457031,-0.04209667444229126,-1.9735839366912842
1788862629642178300,3.79617822265625,-0.5475159883499146,-0.3011363446712494,-2.114670515060425
1788862629652220200,3.80622021484375,-0.45234817266464233,-0.2935764491558075,-2.1715712547302246
1788862629662261200,3.81626123046875,-0.36335447430610657,-0.176823690533638,-2.044973373413086
1788862629672303000,3.82630322265625,-0.2859523594379425,-0.017608195543289185,-1.8058905601501465
1788862629682344200,3.83634423828125,-0.23141340911388397,0.18544475734233856,-1.6234408617019653
1788862629692386300,3.84638623046875,-0.21723313629627228,0.2259967178106308,-1.5874592065811157
1788862629702428400,3.856428466796875,-0.23328398168087006,0.06828509271144867,-1.6589972972869873
1788862629712469200,3.86646923828125,-0.27308890223503113,-0.16499663889408112,-1.7937790155410767
1788862629722511400,3.876511474609375,-0.3268226683139801,-0.3781646192073822,-1.931010127067566
1788862629732552200,3.88655224609375,-0.39436495304107666,-0.5258893370628357,-1.9974333047866821
1788862629742594300,3.89659423828125,-0.4698582589626312,-0.594481348991394,-1.9464625120162964
1788862629752636200,3.90663623046875,-0.5567651987075806,-0.595238208770752,-1.8770874738693237
1788862629762677200,3.91667724609375,-0.6048081517219543,-0.6165261268615723,-1.857112169265747
1788862629772719400,3.92671923828125,-0.6091616153717041,-0.6893191337585449,-1.88924241065979
1788862629782760400,3.936760498046875,-0.5969499349594116,-0.7189635634422302,-1.9776819944381714
1788862629792802300,3.94680224609375,-0.5746680498123169,-0.7581003308296204,-2.0525500774383545
1788862629802844200,3.95684423828125,-0.5453360676765442,-0.8285616636276245,-2.1018919944763184
1788862629812885200,3.96688525390625,-0.48438724875450134,-0.9410772919654846,-2.156702756881714
1788862629822927400,3.97692724609375,-0.3951195776462555,-0.9779353141784668,-2.182260036468506
1788862629832968200,3.98696826171875,-0.3081718981266022,-0.8748012185096741,-2.1976256370544434
1788862629843010300,3.99701025390625,-0.23538099229335785,-0.707865297794342,-2.1829025745391846
1788862629853052400,4.007052490234375,-0.20504093170166016,-0.5777727961540222,-2.1058456897735596
1788862629863093500,4.017093505859375,-0.19833488762378693,-0.5080322027206421,-1.9998277425765991
1788862629873135400,4.02713525390625,-0.18952861428260803,-0.4906918406486511,-1.9689222574234009
1788862629883177200,4.03717724609375,-0.14084404706954956,-0.4798896014690399,-2.0477640628814697
1788862629893218300,4.04721826171875,-0.05715180188417435,-0.49503394961357117,-2.1398351192474365
1788862629903260200,4.05726025390625,0.021872486919164658,-0.5569162964820862,-2.1520917415618896
1788862629913301200,4.06730126953125,0.07081552594900131,-0.5536837577819824,-2.0338103771209717
1788862629923343000,4.077343017578125,0.08184859156608582,-0.4066467881202698,-1.826706886291504
1788862629933385500,4.087385498046875,0.060145966708660126,-0.19248893857002258,-1.6655222177505493
1788862629943426300,4.09742626953125,0.04908731207251549,-0.015623744577169418,-1.618605136871338
1788862629953468400,4.107468505859375,0.06251922994852066,0.045546405017375946,-1.5558860301971436
1788862629963509200,4.11750927734375,0.06197512149810791,-0.012754115276038647,-1.4719523191452026
1788862629973551400,4.12755126953125,0.06708625704050064,-0.11308365315198898,-1.280580759048462
1788862629983593200,4.13759326171875,0.11922679841518402,-0.09105277061462402,-1.206616759300232
1788862629993634300,4.14763427734375,0.20027078688144684,-0.10783946514129639,-1.230305790901184
1788862630003676200,4.15767626953125,0.2956191301345825,-0.1365763545036316,-1.0648568868637085
1788862630013717200,4.16771728515625,0.3299587070941925,-0.007612249348312616,-0.7639347910881042
1788862630023759400,4.17775927734375,0.3332401514053345,0.11173509806394577,-0.5097175240516663
1788862630033801200,4.18780126953125,0.38213926553726196,0.14467120170593262,-0.39056500792503357
1788862630043842300,4.19784228515625,0.49208664894104004,0.08111268281936646,-0.4890611469745636
1788862630053884200,4.20788427734375,0.6121067404747009,-0.12078821659088135,-0.6303751468658447
1788862630063925200,4.21792529296875,0.6529985070228577,-0.29662269353866577,-0.5289642214775085
1788862630073967000,4.227967041015625,0.6020365357398987,-0.1560719609260559,-0.24828946590423584
1788862630084009200,4.23800927734375,0.512766420841217,0.04014165326952934,-0.019609935581684113
1788862630094050000,4.248050048828125,0.49663376808166504,0.2352062165737152,0.08618120849132538
1788862630104092400,4.258092529296875,0.5299819707870483,0.2283390313386917,0.052403803914785385
1788862630114134300,4.26813427734375,0.5669775009155273,0.16131925582885742,-0.05400706082582474
1788862630124175400,4.27817529296875,0.5811715126037598,0.046513624489307404,-0.06503182649612427
1788862630134217200,4.28821728515625,0.5242515206336975,-0.08750436455011368,-0.03640790283679962
1788862630144258300,4.29825830078125,0.4992170035839081,-0.011784576810896397,0.0685870572924614
1788862630154300200,4.308300048828125,0.5982938408851624,0.13380751013755798,-0.12484845519065857
1788862630164342300,4.31834228515625,0.6364750266075134,-0.09450529515743256,-0.5207286477088928
1788862630174383000,4.328383056640625,0.6224031448364258,-0.04381068795919418,-0.8559013605117798
1788862630184425500,4.338425537109375,0.5991589426994324,-0.15269124507904053,-1.2589385509490967
1788862630194466300,4.34846630859375,0.6300755739212036,-0.07818052917718887,-1.4807593822479248
1788862630204508400,4.35850830078125,0.6534742712974548,0.027115583419799805,-1.4982351064682007
1788862630214550300,4.36855029296875,0.6440751552581787,0.12032169103622437,-1.4677892923355103
1788862630224591400,4.37859130859375,0.5469685196876526,-0.03856450691819191,-1.2991429567337036
1788862630234633200,4.38863330078125,0.4099925458431244,-0.3564058542251587,-1.170313835144043
1788862630244674300,4.39867431640625,0.3464091718196869,-0.49319231510162354,-1.096856713294983
1788862630254716400,4.40871630859375,0.29417526721954346,-0.47236746549606323,-0.9958236813545227
1788862630264758300,4.41875830078125,0.23488187789916992,-0.317344605922699,-0.8300192952156067
1788862630274799400,4.42879931640625,0.14524786174297333,-0.08264235407114029,-0.6628270745277405
1788862630284841200,4.43884130859375,0.09745561331510544,0.07403185963630676,-0.467195600271225
1788862630294883300,4.44888330078125,0.06488781422376633,0.158389613032341,-0.3714887797832489
1788862630304924200,4.458924072265625,0.009865015745162964,0.12552975118160248,-0.42796656489372253
1788862630314966300,4.46896630859375,-0.06878585368394852,0.0562414824962616,-0.5081945061683655
1788862630325007000,4.479007080078125,-0.1774260401725769,0.09837374836206436,-0.5675563216209412
1788862630335049500,4.489049560546875,-0.29495108127593994,0.10632381588220596,-0.6121869087219238
1788862630345091300,4.49909130859375,-0.3947486877441406,0.12007495760917664,-0.6348761320114136
1788862630355132400,4.50913232421875,-0.4709473252296448,0.12025605142116547,-0.6896131634712219
1788862630365174300,4.51917431640625,-0.5227473974227905,0.07047595828771591,-0.7901955246925354
1788862630375215400,4.52921533203125,-0.5393399596214294,0.04958692193031311,-0.8452070951461792
1788862630385257200,4.53925732421875,-0.5694458484649658,0.08275097608566284,-0.8725663423538208
1788862630395299000,4.549299072265625,-0.5898563265800476,0.16040901839733124,-0.9069602489471436
1788862630405340200,4.559340087890625,-0.5993862152099609,0.2934453785419464,-0.8893081545829773
1788862630415382300,4.56938232421875,-0.5949973464012146,0.3886888027191162,-0.8185428977012634
1788862630425423400,4.57942333984375,-0.5652921199798584,0.44428539276123047,-0.7763693332672119
1788862630435465200,4.58946533203125,-0.54732346534729,0.5237879157066345,-0.8338720202445984
1788862630445507300,4.59950732421875,-0.5165919065475464,0.5871474742889404,-0.9346253871917725
1788862630455548200,4.609548095703125,-0.4702049791812897,0.6668409705162048,-0.9838501811027527
1788862630465590300,4.61959033203125,-0.38837748765945435,0.9622294902801514,-0.9868675470352173
1788862630475632000,4.629632080078125,-0.2968832552433014,1.1266279220581055,-0.9828387498855591
1788862630485673200,4.639673095703125,-0.2226163148880005,1.099568486213684,-1.0643433332443237
1788862630495715300,4.64971533203125,-0.17873087525367737,1.0093393325805664,-1.150258183479309
1788862630505756400,4.65975634765625,-0.21290040016174316,0.915715217590332,-1.2506945133209229
1788862630515798300,4.66979833984375,-0.27885809540748596,0.7759189605712891,-1.2998836040496826
1788862630525840400,4.67984033203125,-0.36150315403938293,0.6104857325553894,-1.1307672262191772
1788862630535881200,4.689881103515625,-0.40792524814605713,0.6716545224189758,-0.7806714773178101
1788862630545923300,4.69992333984375,-0.46370455622673035,0.7323700189590454,-0.5482373833656311
1788862630555964200,4.709964111328125,-0.5615741014480591,0.5093761086463928,-0.36824336647987366
1788862630566006300,4.72000634765625,-0.7361072301864624,0.26629629731178284,-0.13837860524654388
1788862630576048400,4.73004833984375,-0.8790993094444275,0.18679293990135193,0.07017220556735992
1788862630586089500,4.74008935546875,-0.9178151488304138,0.12954410910606384,0.21577802300453186
1788862630596131300,4.75013134765625,-0.8834643363952637,0.19003701210021973,0.27370578050613403
1788862630606172000,4.760171875,-0.8606113791465759,0.24969567358493805,0.32494476437568665
1788862630616213800,4.7702138671875,-0.8472047448158264,0.23737137019634247,0.4793308675289154
1788862630626256000,4.780255859375,-0.7773565053939819,0.26295194029808044,0.5407721996307373
1788862630636296700,4.790296630859375,-0.6424537897109985,0.25401994585990906,0.6200411915779114
1788862630646338800,4.8003388671875,-0.5413357615470886,0.23138552904129028,0.6672389507293701
1788862630656380000,4.8103798828125,-0.5056600570678711,0.18880636990070343,0.6614193916320801
1788862630666422000,4.820422119140625,-0.4977611005306244,-0.012544863857328892,0.6228231191635132
1788862630676463900,4.8304638671875,-0.4677715301513672,-0.24429020285606384,0.5410049557685852
1788862630686505000,4.8405048828125,-0.4101211130619049,-0.28055328130722046,0.5497066974639893
1788862630696546800,4.850546875,-0.31304916739463806,-0.22213764488697052,0.5792046785354614
1788862630706589000,4.8605888671875,-0.18821096420288086,-0.19293302297592163,0.630719780921936
1788862630716630000,4.870630126953125,-0.10096608847379684,-0.04162685573101044,0.6079790592193604
1788862630726672000,4.880671875,-0.08252005279064178,0.14520545303821564,0.5969799160957336
1788862630736713000,4.890712890625,-0.07280085235834122,0.10725247859954834,0.6264477968215942
1788862630746754800,4.9007548828125,-0.035700809210538864,-0.055485621094703674,0.6201163530349731
1788862630756797000,4.910796875,-0.015960657969117165,-0.2336670607328415,0.6370687484741211
1788862630766837800,4.920837646484375,-0.039019402116537094,-0.2927982807159424,0.6545255184173584
1788862630776879900,4.9308798828125,-0.0675107017159462,-0.18181930482387543,0.6750637888908386
1788862630786920700,4.940920654296875,-0.10306338965892792,0.0010850103572010994,0.6990915536880493
1788862630796963000,4.950963134765625,-0.09096784144639969,0.07507295161485672,0.6903142929077148
1788862630807005000,4.9610048828125,-0.06289871782064438,0.08084619045257568,0.6662455797195435
1788862630817046000,4.9710458984375,-0.0538298599421978,0.07222341001033783,0.6579967141151428
1788862630827088000,4.981087890625,-0.07384179532527924,0.07767637073993683,0.6574805378913879
1788862630837129000,4.99112890625,-0.13309632241725922,0.1364573836326599,0.6968825459480286
1788862630847170800,5.0011708984375,-0.20393364131450653,0.22515545785427094,0.7376416921615601
1788862630857212700,5.011212646484375,-0.2484646439552307,0.29517555236816406,0.7955425381660461
1788862630867253800,5.021253662109375,-0.27138999104499817,0.38247352838516235,0.8897048830986023
1788862630877295900,5.0312958984375,-0.2776220440864563,0.5038414597511292,0.9630049467086792
1788862630887338000,5.041337890625,-0.27795112133026123,0.6089414954185486,1.0471595525741577
1788862630897378800,5.05137890625,-0.2704705595970154,0.6357786655426025,1.1054667234420776
1788862630907421000,5.0614208984375,-0.2710742652416229,0.6056337952613831,1.1368907690048218
1788862630917461800,5.071461669921875,-0.27068063616752625,0.5654528141021729,1.148909568786621
1788862630927504000,5.08150390625,-0.2783007025718689,0.5258579850196838,1.1674057245254517
1788862630937545700,5.091545654296875,-0.2930026650428772,0.4939674139022827,1.2128757238388062
1788862630947586800,5.1015869140625,-0.2762540876865387,0.44446083903312683,1.2272342443466187
1788862630957629000,5.11162890625,-0.18733060359954834,0.3315958082675934,1.2153657674789429
1788862630967670000,5.121669921875,-0.03393782675266266,0.20067241787910461,1.2219823598861694
1788862630977711900,5.1317119140625,0.14394241571426392,0.18870869278907776,1.224111557006836
1788862630987754000,5.14175390625,0.2821434736251831,0.2852681577205658,1.2431238889694214
1788862630997794800,5.151794921875,0.3539271354675293,0.3862674832344055,1.2514680624008179
1788862631007837000,5.1618369140625,0.38017717003822327,0.40658631920814514,1.230358600616455
1788862631017877800,5.171877685546875,0.3838725686073303,0.31722766160964966,1.1786704063415527
1788862631027920000,5.181919921875,0.3846455216407776,0.15461865067481995,1.1376060247421265
1788862631037962000,5.1919619140625,0.41751986742019653,0.02841731533408165,1.1029996871948242
1788862631048003000,5.202003173828125,0.48223787546157837,-0.005715361796319485,1.1022660732269287
1788862631058045000,5.212044921875,0.5594751834869385,0.07948049157857895,1.1337018013000488
1788862631068086800,5.222086669921875,0.6308957934379578,0.1836620271205902,1.1406607627868652
1788862631078127900,5.2321279296875,0.6636580228805542,0.22169755399227142,1.092438817024231
1788862631088169700,5.242169677734375,0.6261493563652039,0.14638856053352356,1.0057728290557861
1788862631098210800,5.2522109375,0.5274454355239868,-0.016101552173495293,0.9357079267501831
1788862631108252700,5.262252685546875,0.4252040386199951,-0.17005597054958344,0.91151362657547
1788862631118295000,5.272294921875,0.3498239517211914,-0.20245961844921112,0.9582434296607971
1788862631128336000,5.2823359375,0.325142502784729,-0.1003321185708046,1.0404444932937622
1788862631138378000,5.2923779296875,0.3507591784000397,0.0349668487906456,1.108502984046936
1788862631148418800,5.302418701171875,0.4035758972167969,0.12956085801124573,1.128761649131775
1788862631158461000,5.3124609375,0.4397842586040497,0.18486538529396057,1.1153374910354614
1788862631168502800,5.322502685546875,0.43957018852233887,0.1601610779762268,1.0550312995910645
1788862631178543900,5.3325439453125,0.39450550079345703,0.11290116608142853,0.9676262736320496
1788862631188585700,5.342585693359375,0.33890143036842346,0.12726916372776031,0.9256952404975891
1788862631198626800,5.352626708984375,0.31584376096725464,0.1704709678888321,0.9180181622505188
1788862631208669000,5.3626689453125,0.3485601842403412,0.16861680150032043,0.9103206992149353
1788862631218710800,5.372710693359375,0.4138190746307373,0.14444223046302795,0.9169517159461975
1788862631228752000,5.382751953125,0.47370100021362305,0.11556806415319443,0.9488325119018555
1788862631238793700,5.392793701171875,0.4881201386451721,0.043169230222702026,1.0018843412399292
1788862631248835800,5.4028359375,0.4293553829193115,0.012259973213076591,1.0573424100875854
1788862631258877000,5.412876953125,0.3311678171157837,0.049296554177999496,1.113039493560791
1788862631268918800,5.422918701171875,0.24579334259033203,0.10019565373659134,1.1597636938095093
1788862631278959900,5.4329599609375,0.2240361124277115,0.1113969087600708,1.1768556833267212
1788862631289002000,5.443001953125,0.26786574721336365,0.09179137647151947,1.1186517477035522
1788862631299043800,5.4530439453125,0.3278989791870117,0.0458126999437809,0.9987858533859253
1788862631309085000,5.4630849609375,0.3725913166999817,-0.02218010649085045,0.8993949294090271
1788862631319126800,5.473126708984375,0.3749855160713196,-0.0042565008625388145,0.9046650528907776
1788862631329168000,5.48316796875,0.32793793082237244,0.051246851682662964,0.9915263056755066
1788862631339209700,5.493209716796875,0.2797301709651947,0.03149498626589775,1.0715359449386597
1788862631349251800,5.503251953125,0.26098600029945374,-0.0392763614654541,1.086849570274353
1788862631359293000,5.51329296875,0.2565004527568817,-0.130365788936615,1.0653687715530396
1788862631369335000,5.5233349609375,0.2114591896533966,-0.1562759280204773,1.054260492324829
1788862631379375900,5.5333759765625,0.14265935122966766,-0.09966884553432465,1.0725769996643066
1788862631389418000,5.54341796875,0.081255704164505,-0.01747973822057247,1.1085561513900757
1788862631399459800,5.5534599609375,0.044112060219049454,-0.015895957127213478,1.1418733596801758
1788862631409501000,5.5635009765625,0.01954706199467182,-0.09999938309192657,1.1506136655807495
1788862631419542800,5.573542724609375,0.02586221508681774,-0.21199622750282288,1.106872320175171
1788862631429585000,5.5835849609375,0.034629687666893005,-0.34673604369163513,1.0085843801498413
1788862631439626000,5.5936259765625,0.034020617604255676,-0.4161350727081299,0.8887912034988403
1788862631449667800,5.603667724609375,0.01625750958919525,-0.392547607421875,0.8026573657989502
1788862631459709000,5.613708984375,-0.021865639835596085,-0.29164043068885803,0.7781016826629639
1788862631469750800,5.623750732421875,-0.058350663632154465,-0.1818084865808487,0.7883579134941101
1788862631479793000,5.63379296875,-0.06574466079473495,-0.09707310050725937,0.809734046459198
1788862631489833700,5.643833740234375,-0.04648147523403168,-0.07432305812835693,0.8203521370887756
1788862631499875800,5.653875732421875,-0.013400483876466751,-0.07588313519954681,0.8028610348701477
1788862631509916700,5.663916748046875,0.03664803132414818,-0.056149110198020935,0.7170166969299316
1788862631519959000,5.673958984375,0.08774610608816147,-0.03265789896249771,0.533631443977356
1788862631530001000,5.6840009765625,0.12558233737945557,-0.03794075921177864,0.3315368592739105
1788862631540042000,5.6940419921875,0.1630178540945053,-0.014053534716367722,0.23321028053760529
1788862631550083800,5.704083740234375,0.1870618462562561,0.05325450748205185,0.24498410522937775
1788862631560126000,5.7141259765625,0.2193199098110199,0.09199125319719315,0.30175817012786865
1788862631570166800,5.724166748046875,0.2573558986186981,0.06852677464485168,0.3715096414089203
1788862631580209000,5.734208984375,0.27531200647354126,0.029252871870994568,0.4306259751319885
1788862631590249700,5.744249755859375,0.2713688611984253,-0.0006059315055608749,0.439497172832489
1788862631600291800,5.754291748046875,0.25240689516067505,0.008762537501752377,0.4020581841468811
1788862631610333700,5.764333740234375,0.2164527177810669,0.08063428103923798,0.33005163073539734
1788862631620374800,5.774374755859375,0.16531656682491302,0.15081177651882172,0.22159412503242493
1788862631630416600,5.784416748046875,0.11284217983484268,0.14921806752681732,0.08042292296886444
1788862631640457700,5.794457763671875,0.0741744190454483,0.11550591886043549,-0.06007666513323784
1788862631650499800,5.804499755859375,0.04573192074894905,0.1202274039387703,-0.1748606413602829
1788862631660541700,5.814541748046875,0.02387375757098198,0.16221612691879272,-0.2500999867916107
1788862631670582800,5.824582763671875,0.04209715873003006,0.2712865173816681,-0.3013250231742859
1788862631680624600,5.834624755859375,0.10129284113645554,0.37897542119026184,-0.3327942490577698
1788862631690665700,5.844665771484375,0.16420505940914154,0.3886803984642029,-0.35154810547828674
1788862631700707600,5.85470751953125,0.19688497483730316,0.3173031508922577,-0.34450989961624146
1788862631710749700,5.864749755859375,0.17453201115131378,0.17569702863693237,-0.3346593976020813
1788862631720790500,5.87479052734375,0.12592878937721252,-0.012408694252371788,-0.34245607256889343
1788862631730833000,5.8848330078125,0.09137476980686188,-0.17814256250858307,-0.3642215430736542
1788862631740873700,5.894873779296875,0.05798085406422615,-0.2728347182273865,-0.39596137404441833
1788862631750915800,5.904915771484375,0.02845665067434311,-0.22723907232284546,-0.43379291892051697
1788862631760957700,5.914957763671875,0.005493279080837965,-0.04916149005293846,-0.4556230902671814
1788862631770998800,5.924998779296875,0.005470988806337118,0.13668608665466309,-0.46329519152641296
1788862631781040600,5.93504052734375,0.012343276292085648,0.25701677799224854,-0.462772399187088
1788862631791082800,5.945082763671875,0.02016632631421089,0.29026952385902405,-0.46348628401756287
1788862631801123800,5.955123779296875,0.02263001725077629,0.25857844948768616,-0.47208935022354126
1788862631811165700,5.965165771484375,0.026675529778003693,0.18366457521915436,-0.4913230538368225
1788862631821206800,5.975206787109375,0.05005941540002823,0.08060182631015778,-0.5324004888534546
1788862631831248600,5.98524853515625,0.06764388084411621,-0.0058125583454966545,-0.5702154040336609
1788862631841290800,5.995290771484375,0.0801202580332756,0.005381506867706776,-0.5786238312721252
1788862631851331600,6.00533154296875,0.09135651588439941,0.11135121434926987,-0.557715117931366
1788862631861373700,6.015373779296875,0.10055214911699295,0.2436608076095581,-0.5004936456680298
1788862631871414800,6.025414794921875,0.10700224339962006,0.32096150517463684,-0.4381924271583557
1788862631881457000,6.035456787109375,0.12393622100353241,0.3771320879459381,-0.40107542276382446
1788862631891498800,6.045498779296875,0.1330641359090805,0.4073529839515686,-0.3781457245349884
1788862631901539800,6.055539794921875,0.11266032606363297,0.427910178899765,-0.4022982120513916
1788862631911581700,6.065581787109375,0.09270132333040237,0.4098317623138428,-0.493562251329422
1788862631921623800,6.075623779296875,0.11272989213466644,0.29577016830444336,-0.6062999963760376
1788862631931664600,6.08566455078125,0.16204270720481873,0.11591905355453491,-0.697865903377533
1788862631941706800,6.095706787109375,0.19115346670150757,0.010286370292305946,-0.7611939907073975
1788862631951747600,6.10574755859375,0.21091318130493164,0.011772486381232738,-0.7978095412254333
1788862631961790000,6.1157900390625,0.2218494564294815,0.05581983923912048,-0.7997462153434753
1788862631971831800,6.125831787109375,0.21594847738742828,0.07573972642421722,-0.7419393062591553
1788862631981873000,6.135872802734375,0.1956767588853836,0.08680222928524017,-0.6500110030174255
1788862631991914800,6.145914794921875,0.14915484189987183,0.1332663744688034,-0.5701742172241211
1788862632001955800,6.155955810546875,0.09038127213716507,0.19790636003017426,-0.5314313173294067
1788862632011997700,6.165997802734375,0.0478639230132103,0.22706662118434906,-0.5442178845405579
1788862632022039600,6.17603955078125,0.021153215318918228,0.17493444681167603,-0.6244975328445435
1788862632032080600,6.18608056640625,0.004050079267472029,0.032942451536655426,-0.759245753288269
1788862632042122800,6.196122802734375,-0.0036184932105243206,-0.1177826076745987,-0.9019358158111572
1788862632052163800,6.206163818359375,0.008004873059689999,-0.19150637090206146,-0.9817113280296326
1788862632062205700,6.216205810546875,0.03922830522060394,-0.15439176559448242,-0.966879665851593
1788862632072247800,6.226247802734375,0.0640101507306099,-0.03801644593477249,-0.8764806389808655
1788862632082288600,6.23628857421875,0.05567685142159462,0.14524339139461517,-0.7562804818153381
1788862632092330800,6.246330810546875,0.012619159184396267,0.3393246531486511,-0.6426246166229248
1788862632102371600,6.25637158203125,-0.03528285026550293,0.43702617287635803,-0.5866473317146301
1788862632112413700,6.26641357421875,-0.05084476247429848,0.38701364398002625,-0.6068974733352661
1788862632122455800,6.276455810546875,-0.024428868666291237,0.20961438119411469,-0.6656369566917419
1788862632132497000,6.286496826171875,0.014288465492427349,0.006308902055025101,-0.7152847051620483
1788862632142538800,6.296538818359375,0.0360342413187027,-0.13008436560630798,-0.7471363544464111
1788862632152580900,6.306580810546875,0.03198496252298355,-0.19185513257980347,-0.771452784538269
1788862632162621700,6.31662158203125,0.02368495613336563,-0.20571741461753845,-0.8138402104377747
1788862632172663800,6.326663818359375,0.01495855487883091,-0.23695820569992065,-0.8589082956314087
1788862632182704600,6.33670458984375,0.0058825016021728516,-0.264873743057251,-0.8881889581680298
1788862632192746800,6.346746826171875,-0.010678092017769814,-0.24763184785842896,-0.8733132481575012
1788862632202788900,6.356788818359375,-0.03389286994934082,-0.1725437492132187,-0.8300307393074036
1788862632212830000,6.366829833984375,-0.0754459798336029,-0.09052442014217377,-0.8278000354766846
1788862632222871800,6.376871826171875,-0.10763481259346008,-0.06148823723196983,-0.8631657361984253
1788862632232913000,6.386912841796875,-0.11669506877660751,-0.09685910493135452,-0.9114481210708618
1788862632242954800,6.396954833984375,-0.09824575483798981,-0.16237235069274902,-0.9466028809547424
1788862632252996600,6.40699658203125,-0.0651216208934784,-0.22304901480674744,-0.9622388482093811
1788862632263037700,6.41703759765625,-0.027601417154073715,-0.27872344851493835,-0.9733386039733887
1788862632273079600,6.42707958984375,0.01340552419424057,-0.2966262102127075,-0.980065107345581
1788862632283122000,6.437121826171875,0.04492936283349991,-0.29413509368896484,-1.0271787643432617
1788862632293162800,6.447162841796875,0.06662769615650177,-0.31953883171081543,-1.0968393087387085
1788862632303204900,6.457204833984375,0.09023076295852661,-0.3373918831348419,-1.1174330711364746
1788862632313245700,6.46724560546875,0.10032416880130768,-0.29880353808403015,-1.0866813659667969
1788862632323287800,6.477287841796875,0.08360563963651657,-0.22892379760742188,-1.0805869102478027
1788862632333329700,6.48732958984375,0.07156398892402649,-0.17085415124893188,-1.1134787797927856
1788862632343370800,6.497370849609375,0.09461630880832672,-0.15687336027622223,-1.1755748987197876
1788862632353412600,6.50741259765625,0.14321063458919525,-0.3106555938720703,-1.2093182802200317
1788862632363453700,6.51745361328125,0.19380483031272888,-0.4732804596424103,-1.2273566722869873
1788862632373495800,6.527495849609375,0.23258094489574432,-0.4398987889289856,-1.2655541896820068
1788862632383537700,6.53753759765625,0.2278200089931488,-0.2825288772583008,-1.2761026620864868
1788862632393578800,6.547578857421875,0.19285713136196136,-0.15858930349349976,-1.248915195465088
1788862632403620600,6.55762060546875,0.14106690883636475,-0.12355753779411316,-1.1824852228164673
1788862632413661700,6.56766162109375,0.12157969176769257,-0.16096659004688263,-1.1429749727249146
1788862632423703600,6.57770361328125,0.14568555355072021,-0.25740525126457214,-1.19996976852417
1788862632433745700,6.58774560546875,0.17638637125492096,-0.3859460651874542,-1.2741636037826538
1788862632443786800,6.597786865234375,0.20114818215370178,-0.44128283858299255,-1.2784401178359985
1788862632453828900,6.607828857421875,0.21501080691814423,-0.42450660467147827,-1.2569355964660645
1788862632463869700,6.61786962890625,0.2229986935853958,-0.34871119260787964,-1.2489112615585327
1788862632473911800,6.627911865234375,0.23089896142482758,-0.28151431679725647,-1.261064052581787
1788862632483953700,6.63795361328125,0.23843783140182495,-0.27389660477638245,-1.2023764848709106
1788862632493994800,6.647994873046875,0.2638627886772156,-0.22570616006851196,-1.1341179609298706
1788862632504036600,6.65803662109375,0.2745886445045471,-0.18188011646270752,-1.1200727224349976
1788862632514079000,6.668078857421875,0.3096061646938324,-0.20412644743919373,-1.1490434408187866
1788862632524119800,6.678119873046875,0.3652164340019226,-0.19602857530117035,-1.202444314956665
1788862632534162000,6.688161865234375,0.40423494577407837,-0.21137157082557678,-1.240363597869873
1788862632544202800,6.69820263671875,0.4070531129837036,-0.18101686239242554,-1.257189393043518
1788862632554244900,6.708244873046875,0.3648681938648224,-0.1346733719110489,-1.2666598558425903
1788862632564286700,6.71828662109375,0.3247290253639221,-0.09734358638525009,-1.2639236450195312
1788862632574327800,6.728327880859375,0.27564510703086853,-0.07603410631418228,-1.2269896268844604
1788862632584369700,6.73836962890625,0.2665078043937683,-0.08732324838638306,-1.1872222423553467
1788862632594410800,6.74841064453125,0.30034559965133667,-0.15476910769939423,-1.1761500835418701
1788862632604452900,6.758452880859375,0.3237167000770569,-0.024282462894916534,-1.147080659866333
1788862632614495500,6.76849560546875,0.31445226073265076,0.08589796721935272,-1.113242506980896
1788862632624536600,6.77853662109375,0.28817084431648254,0.11063393950462341,-1.1307655572891235
1788862632634578400,6.788578369140625,0.23545525968074799,0.06017603725194931,-1.1309113502502441
1788862632644620500,6.79862060546875,0.18526533246040344,0.014637046493589878,-1.1083506345748901
1788862632654661400,6.808661376953125,0.14851827919483185,-0.008374078199267387,-1.0603171586990356
1788862632664703500,6.818703369140625,0.12501880526542664,-0.030249018222093582,-0.9977749586105347
1788862632674744300,6.828744384765625,0.10372073203325272,-0.030062340199947357,-0.9114319682121277
1788862632684786400,6.838786376953125,0.09806790202856064,0.005428277887403965,-0.7978206872940063
1788862632694828500,6.84882861328125,0.07828802615404129,0.08819568157196045,-0.6940373182296753
1788862632704869600,6.85886962890625,0.07348501682281494,0.22451090812683105,-0.5603287816047668
1788862632714911500,6.868911376953125,0.0642479732632637,0.3316550850868225,-0.5079976916313171
1788862632724952600,6.87895263671875,0.07560048997402191,0.30173632502555847,-0.4892812669277191
1788862632734994400,6.888994384765625,0.07273546606302261,0.1916513592004776,-0.45408332347869873
1788862632745036300,6.899036376953125,0.046566978096961975,0.11155466735363007,-0.4507533013820648
1788862632755077400,6.909077392578125,-0.030692093074321747,0.17953503131866455,-0.3757143020629883
1788862632765119200,6.919119140625,-0.10520307719707489,0.19524209201335907,-0.23783791065216064
1788862632775161600,6.92916162109375,-0.15731792151927948,0.230744868516922,-0.0679645836353302
1788862632785202400,6.939202392578125,-0.154104545712471,0.20068499445915222,0.12139175832271576
1788862632795244500,6.94924462890625,-0.1516069769859314,0.12752339243888855,0.26693543791770935
1788862632805285400,6.959285400390625,-0.18993891775608063,0.107866071164608,0.3966657221317291
1788862632815327500,6.969327392578125,-0.26710009574890137,0.17557430267333984,0.4963093400001526
1788862632825369300,6.979369384765625,-0.33321306109428406,0.1986362189054489,0.5511028170585632
1788862632835410400,6.989410400390625,-0.37388738989830017,0.16835461556911469,0.5710517764091492
1788862632845452300,6.999452392578125,-0.40416938066482544,0.16518865525722504,0.6302608251571655
1788862632855493400,7.009493408203125,-0.4279801845550537,0.15754064917564392,0.7254753112792969
1788862632865535500,7.019535400390625,-0.45609864592552185,0.12018315494060516,0.8318225145339966
1788862632875577300,7.029577392578125,-0.45641499757766724,0.0999358594417572,0.9688270688056946
1788862632885618400,7.039618408203125,-0.40374380350112915,0.10836449265480042,1.0929391384124756
1788862632895660300,7.049660400390625,-0.32761847972869873,0.14625047147274017,1.1978662014007568
1788862632905701400,7.059701416015625,-0.265169233083725,0.16307073831558228,1.3112801313400269
1788862632915743200,7.0697431640625,-0.22665348649024963,0.17791809141635895,1.398648977279663
1788862632925785300,7.079785400390625,-0.21262821555137634,0.2003784030675888,1.4234049320220947
1788862632935826200,7.089826171875,-0.195389062166214,0.20537637174129486,1.4416286945343018
1788862632945868500,7.09986865234375,-0.19566097855567932,0.21669773757457733,1.457226037979126
1788862632955910400,7.109910400390625,-0.20939381420612335,0.26133230328559875,1.483748435974121
1788862632965951500,7.119951416015625,-0.23213374614715576,0.3169771730899811,1.49875807762146
1788862632975993300,7.129993408203125,-0.2574193775653839,0.29437172412872314,1.4923245906829834
1788862632986034400,7.140034423828125,-0.2906087636947632,0.22504939138889313,1.498479962348938
1788862632996076300,7.150076171875,-0.3156106770038605,0.1999572366476059,1.526848554611206
1788862633006118400,7.160118408203125,-0.3242206871509552,0.19886401295661926,1.5616462230682373
1788862633016159200,7.1701591796875,-0.30816417932510376,0.16798430681228638,1.5897252559661865
1788862633026201600,7.18020166015625,-0.2872423827648163,0.12953650951385498,1.591409683227539
1788862633036242400,7.190242431640625,-0.2594430446624756,0.16749651730060577,1.566366195678711
1788862633046284500,7.200284423828125,-0.24750995635986328,0.2398412823677063,1.5450239181518555
1788862633056326400,7.210326416015625,-0.247802272439003,0.26570045948028564,1.552417278289795
1788862633066367500,7.220367431640625,-0.2522739768028259,0.24016420543193817,1.6008460521697998
1788862633076409300,7.230409423828125,-0.25767582654953003,0.16148340702056885,1.6402305364608765
1788862633086451200,7.240451171875,-0.27614670991897583,0.08533323556184769,1.624730110168457
1788862633096492300,7.2504921875,-0.3132180869579315,0.0666428655385971,1.5781221389770508
1788862633106534400,7.260534423828125,-0.36017176508903503,0.055136941373348236,1.5538463592529297
1788862633116575500,7.270575439453125,-0.40314215421676636,0.01549579668790102,1.5650827884674072
1788862633126617300,7.280617431640625,-0.4342462718486786,-0.0449981726706028,1.6195164918899536
1788862633136659500,7.290659423828125,-0.45550045371055603,-0.06698255985975266,1.6853753328323364
1788862633146700300,7.3007001953125,-0.4434800148010254,-0.02139296755194664,1.7310192584991455
1788862633156742400,7.310742431640625,-0.40302902460098267,0.02666112780570984,1.7299649715423584
1788862633166783200,7.320783203125,-0.33584120869636536,0.05406559258699417,1.7105273008346558
1788862633176825600,7.33082568359375,-0.2694597542285919,0.04470829665660858,1.6927497386932373
1788862633186867500,7.340867431640625,-0.20263758301734924,0.024580124765634537,1.6642597913742065
1788862633196908500,7.350908447265625,-0.13317152857780457,-0.008326839655637741,1.6428699493408203
1788862633206950400,7.360950439453125,-0.06492723524570465,-0.03570067137479782,1.6174328327178955
1788862633216991500,7.370991455078125,0.005408117547631264,-0.014962068758904934,1.578070878982544
1788862633227033300,7.381033447265625,0.07345107942819595,-0.0010196221992373466,1.5527085065841675
1788862633237075500,7.391075439453125,0.12514308094978333,-0.04665743187069893,1.5470948219299316
1788862633247116300,7.4011162109375,0.1482744961977005,-0.109651580452919,1.5426238775253296
1788862633257158400,7.411158447265625,0.15904200077056885,-0.13197770714759827,1.5383260250091553
1788862633267200500,7.421200439453125,0.16353368759155273,-0.1001337468624115,1.5116113424301147
1788862633277241300,7.431241455078125,0.16710850596427917,-0.06468237936496735,1.4520777463912964
1788862633287283500,7.441283447265625,0.16138164699077606,-0.0728854387998581,1.379176139831543
1788862633297324500,7.451324462890625,0.15339823067188263,-0.07828204333782196,1.3441942930221558
1788862633307366400,7.461366455078125,0.15298889577388763,-0.059881459921598434,1.3426928520202637
1788862633317408300,7.471408203125,0.1696021407842636,-0.01871899887919426,1.3495672941207886
1788862633327449300,7.481449462890625,0.1989126205444336,0.05088084936141968,1.350207805633545
1788862633337491500,7.491491455078125,0.24561141431331635,0.14703667163848877,1.3162684440612793
1788862633347532500,7.501532470703125,0.28737321496009827,0.20075343549251556,1.243914008140564
1788862633357574400,7.511574462890625,0.3353216350078583,0.13141421973705292,1.1388294696807861
1788862633367616500,7.521616455078125,0.3454056978225708,0.006992397829890251,1.0145882368087769
1788862633377657300,7.5316572265625,0.31650200486183167,-0.025059618055820465,0.924312174320221
1788862633387699500,7.541699462890625,0.27825450897216797,0.04466060921549797,0.8741602897644043
1788862633397740300,7.551740234375,0.2576926350593567,0.1035701259970665,0.8363014459609985
1788862633407782400,7.561782470703125,0.259610116481781,0.1498318910598755,0.8122515082359314
1788862633417824500,7.571824462890625,0.30282682180404663,0.22488565742969513,0.807356595993042
1788862633427865600,7.581865478515625,0.3846290111541748,0.39310476183891296,0.8288406133651733
1788862633437907500,7.591907470703125,0.4306780695915222,0.6077026724815369,0.8259637355804443
1788862633447949300,7.60194921875,0.4541069567203522,0.7633470892906189,0.6966150403022766
1788862633457990400,7.611990478515625,0.507641077041626,0.7868148684501648,0.44885745644569397
1788862633468032300,7.6220322265625,0.5895300507545471,0.7103768587112427,0.22230899333953857
1788862633478073300,7.6320732421875,0.6642246246337891,0.5529839992523193,0.07977263629436493
1788862633488115200,7.642115234375,0.7044625878334045,0.3743479251861572,0.0008573161903768778
1788862633498157600,7.652157470703125,0.7185453176498413,0.21160165965557098,-0.028381502255797386
1788862633508198400,7.662198486328125,0.6909323334693909,0.017791975289583206,-0.029407884925603867
1788862633518240500,7.672240478515625,0.6036480665206909,-0.1683472841978073,-0.0583488866686821
1788862633528281300,7.68228125,0.465711772441864,-0.2642626464366913,-0.11916563659906387
1788862633538323500,7.692323486328125,0.3123283386230469,-0.215783029794693,-0.17168109118938446
1788862633548365300,7.702365234375,0.17611455917358398,-0.1401655077934265,-0.20282170176506042
1788862633558406400,7.712406494140625,0.0671359971165657,-0.10736767202615738,-0.23891589045524597
1788862633568448300,7.7224482421875,-0.014407333917915821,-0.021425863727927208,-0.28557607531547546
1788862633578489300,7.7324892578125,-0.05725875496864319,0.13834527134895325,-0.3404065668582916
1788862633588531500,7.742531494140625,-0.0965193435549736,0.23258201777935028,-0.3756367266178131
1788862633598573600,7.752573486328125,-0.1386040300130844,0.2133335918188095,-0.39053553342819214
1788862633608614400,7.762614501953125,-0.17086343467235565,0.13159160315990448,-0.38865426182746887
1788862633618656800,7.77265673828125,-0.18571393191814423,0.06104009225964546,-0.3917965292930603
1788862633628699000,7.782698974609375,-0.19393058121204376,0.0183205958455801,-0.38557085394859314
1788862633638739700,7.79273974609375,-0.1955484002828598,-0.032973844558000565,-0.3836647570133209
1788862633648781800,7.80278173828125,-0.21465790271759033,-0.05100024864077568,-0.3870605528354645
1788862633658822700,7.81282275390625,-0.22467085719108582,0.011889766901731491,-0.40256813168525696
1788862633668865000,7.822864990234375,-0.23239588737487793,0.08642099052667618,-0.43834397196769714
1788862633678907000,7.832906982421875,-0.24731358885765076,0.1527201235294342,-0.5111393928527832
1788862633688948000,7.842947998046875,-0.2547665238380432,0.229689821600914,-0.5991805791854858
1788862633698989800,7.85298974609375,-0.24950067698955536,0.29367175698280334,-0.6763486266136169
1788862633709031000,7.863031005859375,-0.24539461731910706,0.3475983738899231,-0.7411249876022339
1788862633719072800,7.87307275390625,-0.241993248462677,0.43503424525260925,-0.7699331641197205
1788862633729115000,7.883114990234375,-0.234034925699234,0.487166166305542,-0.7607353925704956
1788862633739155700,7.89315576171875,-0.223225399851799,0.500918447971344,-0.7174747586250305
1788862633749198000,7.903197998046875,-0.21620477735996246,0.46881935000419617,-0.6750303506851196
1788862633759239000,7.913239013671875,-0.19455094635486603,0.3993551433086395,-0.6570125818252563
1788862633769281000,7.923281005859375,-0.1514950841665268,0.3148181438446045,-0.6667126417160034
1788862633779323000,7.933322998046875,-0.10399200022220612,0.22027455270290375,-0.6934779286384583
1788862633789364000,7.943364013671875,-0.06578335911035538,0.18541456758975983,-0.7403210401535034
1788862633799405800,7.95340576171875,-0.0461249053478241,0.14575287699699402,-0.792025625705719
1788862633809447700,7.96344775390625,-0.03778921440243721,0.11941953748464584,-0.8758094906806946
1788862633819488800,7.97348876953125,-0.01622627303004265,0.14642146229743958,-0.9555573463439941
1788862633829531000,7.98353076171875,0.034509606659412384,0.20197686553001404,-1.0183969736099243
1788862633839572000,7.993572021484375,0.09645652770996094,0.24597132205963135,-1.022210955619812
1788862633849613800,8.00361376953125,0.14200350642204285,0.2702715992927551,-1.0095614194869995
1788862633859656000,8.013656005859374,0.15072864294052124,0.298484206199646,-1.0000677108764648
1788862633869696800,8.02369677734375,0.15020693838596344,0.29289424419403076,-1.0264991521835327
1788862633879739000,8.03373876953125,0.1576809138059616,0.20454515516757965,-1.0913509130477905
1788862633889779700,8.04377978515625,0.1837833672761917,0.06056082248687744,-1.1428927183151245
1788862633899821800,8.05382177734375,0.2034270018339157,-0.07084774225950241,-1.1557695865631104
1788862633909864000,8.063864013671875,0.18559633195400238,-0.12871290743350983,-1.1395548582077026
1788862633919905000,8.073905029296874,0.14861838519573212,-0.12236534804105759,-1.1537913084030151
1788862633929947000,8.08394677734375,0.12263099104166031,-0.104840949177742,-1.2165071964263916
1788862633939988000,8.093988037109375,0.13079047203063965,-0.09312602132558823,-1.2778429985046387
1788862633950029800,8.10402978515625,0.1620064526796341,-0.09390313178300858,-1.2965117692947388
1788862633960071700,8.11407177734375,0.20393499732017517,-0.12098481506109238,-1.2714064121246338
1788862633970112800,8.12411279296875,0.2222791165113449,-0.1568935364484787,-1.2618788480758667
1788862633980155000,8.13415478515625,0.20655742287635803,-0.1730528175830841,-1.271771788597107
1788862633990197000,8.144197021484375,0.18960613012313843,-0.27148592472076416,-1.2562540769577026
1788862634000237800,8.15423779296875,0.1898578703403473,-0.4440084993839264,-1.2496103048324585
1788862634010280000,8.164280029296876,0.2027294635772705,-0.58558589220047,-1.2585997581481934
1788862634020320800,8.17432080078125,0.20112277567386627,-0.6101383566856384,-1.2735675573349
1788862634030363000,8.18436279296875,0.18712866306304932,-0.5418775677680969,-1.3617770671844482
1788862634040404700,8.19440478515625,0.18310317397117615,-0.5932372808456421,-1.422619342803955
1788862634050445800,8.20444580078125,0.1769949495792389,-0.7299805283546448,-1.4703290462493896
1788862634060487700,8.21448779296875,0.1697380244731903,-0.8145508766174316,-1.491888403892517
1788862634070529000,8.224529052734376,0.1573876142501831,-0.7534403800964355,-1.436897873878479
1788862634080571000,8.23457080078125,0.1356523036956787,-0.6304044127464294,-1.386752724647522
1788862634090613000,8.244613037109374,0.12060011178255081,-0.5343894362449646,-1.376089096069336
1788862634100653800,8.25465380859375,0.11470109224319458,-0.4941083788871765,-1.3977320194244385
1788862634110696000,8.264696044921875,0.12157844007015228,-0.5190776586532593,-1.4339749813079834
1788862634120736800,8.27473681640625,0.16491544246673584,-0.5663255453109741,-1.513833999633789
1788862634130779000,8.28477880859375,0.21267203986644745,-0.5084283947944641,-1.5404821634292603
1788862634140821000,8.294821044921875,0.2626093029975891,-0.4642926752567291,-1.524081826210022
1788862634150862000,8.304862060546874,0.2692967653274536,-0.4731239974498749,-1.5040532350540161
1788862634160904000,8.314904052734375,0.23681983351707458,-0.44657495617866516,-1.4557424783706665
1788862634170945000,8.324945068359375,0.19506199657917023,-0.3279796242713928,-1.4421685934066772
1788862634180987000,8.33498681640625,0.1592620462179184,-0.21596485376358032,-1.5000662803649902
1788862634191028700,8.34502880859375,0.133940190076828,-0.24800588190555573,-1.5691059827804565
1788862634201069800,8.35506982421875,0.11756744235754013,-0.2670058012008667,-1.6187986135482788
1788862634211111700,8.365111572265626,0.11785213649272919,-0.1868310570716858,-1.6481536626815796
1788862634221154000,8.375154052734375,0.1361570805311203,-0.15731148421764374,-1.6406946182250977
1788862634231195000,8.38519482421875,0.15736623108386993,-0.18411993980407715,-1.5786323547363281
1788862634241237000,8.395237060546876,0.14015093445777893,-0.12573641538619995,-1.5015093088150024
1788862634251277800,8.40527783203125,0.08671672642230988,0.015915265306830406,-1.4071435928344727
1788862634261320000,8.41531982421875,0.048586826771497726,0.10582156479358673,-1.3805160522460938
1788862634271361800,8.42536181640625,0.03743244335055351,0.045422133058309555,-1.3671735525131226
1788862634281403000,8.43540283203125,0.019744260236620903,0.046262625604867935,-1.3271840810775757
1788862634291444700,8.44544482421875,0.01799083687365055,0.15733401477336884,-1.264014720916748
1788862634301485800,8.45548583984375,0.03875211998820305,0.20331132411956787,-1.2279573678970337
1788862634311528000,8.46552783203125,0.06466201692819595,0.1699589639902115,-1.1762322187423706
1788862634321569800,8.47556982421875,0.09732353687286377,0.09180871397256851,-1.1122652292251587
1788862634331611000,8.48561083984375,0.10333243012428284,0.07059663534164429,-1.0351665019989014
1788862634341653000,8.495653076171875,0.11126895993947983,0.13094863295555115,-0.9196025729179382
1788862634351693800,8.50569384765625,0.12822504341602325,0.21940578520298004,-0.7901660203933716
1788862634361736000,8.51573583984375,0.14002269506454468,0.31866273283958435,-0.7099647521972656
1788862634371777800,8.52577783203125,0.13960137963294983,0.35399943590164185,-0.6582586765289307
1788862634381819000,8.53581884765625,0.11811835318803787,0.25644761323928833,-0.6119150519371033
1788862634391861000,8.545861083984375,0.0846187174320221,0.17008931934833527,-0.5153695940971375
1788862634401902800,8.55590283203125,0.04516637325286865,0.1587648093700409,-0.3165249824523926
1788862634411944000,8.56594384765625,-0.0036397818475961685,0.2872455418109894,-0.10236874222755432
1788862634421985800,8.57598583984375,-0.03826936334371567,0.40450185537338257,0.06623751670122147
1788862634432027000,8.58602685546875,-0.05043628066778183,0.43473511934280396,0.14089098572731018
1788862634442068700,8.59606884765625,-0.06202828511595726,0.3541184067726135,0.2157805860042572
1788862634452110800,8.60611083984375,-0.10585246235132217,0.3473837971687317,0.3206910192966461
1788862634462151700,8.616151611328124,-0.1691506952047348,0.3726174235343933,0.45636850595474243
1788862634472194000,8.626194091796876,-0.21310803294181824,0.3752470314502716,0.5661860704421997
1788862634482235000,8.63623486328125,-0.25237125158309937,0.3100357949733734,0.6265118718147278
1788862634492277000,8.646277099609375,-0.29403430223464966,0.28405827283859253,0.6936618685722351
1788862634502318800,8.65631884765625,-0.3165699541568756,0.3429383635520935,0.7683275938034058
1788862634512360000,8.66635986328125,-0.285197913646698,0.3361233174800873,0.8374949097633362
1788862634522401800,8.67640185546875,-0.27038466930389404,0.2868298590183258,0.9289796948432922
1788862634532443000,8.68644287109375,-0.2922811806201935,0.3083055913448334,1.0579240322113037
1788862634542484700,8.696484619140625,-0.2993175983428955,0.3442841172218323,1.191835880279541
1788862634552526800,8.70652685546875,-0.24822619557380676,0.350506067276001,1.3053702116012573
1788862634562568000,8.71656787109375,-0.17942441999912262,0.36745813488960266,1.3967344760894775
1788862634572609800,8.72660986328125,-0.11639219522476196,0.37259164452552795,1.5042200088500977
1788862634582652000,8.73665185546875,-0.09528873860836029,0.37775275111198425,1.6055279970169067
1788862634592692700,8.746692626953125,-0.08597006648778915,0.36461564898490906,1.6390966176986694
1788862634602734800,8.75673486328125,-0.07712546736001968,0.31786981225013733,1.6179386377334595
1788862634612775400,8.766775390625,-0.07112084329128265,0.28677260875701904,1.595282793045044
1788862634622817300,8.7768173828125,-0.06399206817150116,0.2711978852748871,1.5857118368148804
1788862634632859100,8.786859130859375,-0.04538456350564957,0.22148571908473969,1.5670044422149658
1788862634642900200,8.796900146484376,-0.048655442893505096,0.15966255962848663,1.5512964725494385
1788862634652942000,8.806942138671875,-0.07469131052494049,0.1405663639307022,1.524221420288086
1788862634662983200,8.816983154296874,-0.07417164742946625,0.1349225491285324,1.507044792175293
1788862634673025300,8.827025390625,-0.038274094462394714,0.16956734657287598,1.5341073274612427
1788862634683067400,8.8370673828125,-0.011817442253232002,0.23333293199539185,1.6294429302215576
1788862634693108200,8.847108154296874,-0.014538927003741264,0.3000541627407074,1.7312196493148804
1788862634703150300,8.857150390625,-0.018288418650627136,0.336072713136673,1.805691123008728
1788862634713191200,8.867191162109375,0.010314464569091797,0.35104259848594666,1.8487695455551147
1788862634723233300,8.8772333984375,0.031045259907841682,0.3502407371997833,1.8469336032867432
1788862634733275100,8.887275146484376,0.012530433014035225,0.3198641836643219,1.8250857591629028
1788862634743316200,8.897316162109375,-0.02710588462650776,0.22280122339725494,1.8176543712615967
1788862634753358300,8.9073583984375,-0.08454174548387527,0.13823360204696655,1.884589433670044
1788862634763400200,8.917400146484376,-0.1527377963066101,0.10383060574531555,1.9768787622451782
1788862634773441300,8.927441162109375,-0.20827536284923553,0.0676845833659172,2.0640697479248047
1788862634783483400,8.9374833984375,-0.26386240124702454,-0.006529481150209904,2.106964588165283
1788862634793524200,8.947524169921875,-0.3150094747543335,-0.08102262020111084,2.099775791168213
1788862634803566300,8.95756640625,-0.3463062345981598,-0.15744252502918243,2.06671404838562
1788862634813608200,8.967608154296874,-0.34064996242523193,-0.2298637330532074,2.0237226486206055
1788862634823649300,8.977649169921875,-0.29864686727523804,-0.2554132044315338,1.9738998413085938
1788862634833691400,8.98769140625,-0.23634783923625946,-0.25170502066612244,1.9323339462280273
1788862634843732500,8.997732421875,-0.17042581737041473,-0.2552230656147003,1.8728888034820557
1788862634853774300,9.0077744140625,-0.09435873478651047,-0.26818788051605225,1.783301591873169
1788862634863816200,9.017816162109375,-0.023700151592493057,-0.27083703875541687,1.693608283996582
1788862634873857300,9.027857177734376,0.033773794770240784,-0.3073519170284271,1.620740294456482
1788862634883899100,9.037899169921875,0.08756334334611893,-0.3360140025615692,1.570252537727356
1788862634893940200,9.047940185546874,0.13719402253627777,-0.2962341010570526,1.5601201057434082
1788862634903982300,9.057982421875,0.14847537875175476,-0.23193737864494324,1.5693161487579346
1788862634914024400,9.0680244140625,0.10506957769393921,-0.12296348810195923,1.590596079826355
1788862634924065300,9.078065185546874,0.04388531669974327,0.013580028899013996,1.615883708000183
1788862634934107400,9.088107421875,-0.009880444034934044,0.07744263112545013,1.6244462728500366
1788862634944149200,9.098149169921875,-0.054260749369859695,0.04215492308139801,1.590458631515503
1788862634954190300,9.1081904296875,-0.10270790755748749,-0.034910302609205246,1.5189919471740723
1788862634964232200,9.118232177734376,-0.13918747007846832,-0.177378848195076,1.41507089138031
1788862634974273300,9.128273193359375,-0.15767914056777954,-0.31196489930152893,1.2945053577423096
1788862634984315400,9.1383154296875,-0.17825111746788025,-0.3363678753376007,1.1818132400512695
1788862634994357200,9.148357177734376,-0.20081394910812378,-0.2774025797843933,1.0735743045806885
1788862635004398300,9.1583984375,-0.19969138503074646,-0.26563698053359985,0.9252268075942993
1788862635014440200,9.168440185546874,-0.15838494896888733,-0.30058857798576355,0.7450146675109863
1788862635024481300,9.178481201171875,-0.12025784701108932,-0.321821928024292,0.5828806161880493
1788862635034523100,9.188523193359375,-0.06339829415082932,-0.22663362324237823,0.46821314096450806
1788862635044565200,9.198565185546874,0.0072914292104542255,-0.0476224422454834,0.38464802503585815
1788862635054606000,9.208606201171875,0.057037945836782455,0.15247416496276855,0.31246811151504517
1788862635064648400,9.2186484375,0.08351782709360123,0.33534881472587585,0.24646292626857758
1788862635074689300,9.228689208984376,0.10854275524616241,0.4172772169113159,0.18987901508808136
1788862635084731400,9.2387314453125,0.12244841456413269,0.4103117883205414,0.13627253472805023
1788862635094773200,9.248773193359375,0.11511566489934921,0.3853963315486908,0.08864694833755493
1788862635104814300,9.258814453125,0.1140654981136322,0.3410656750202179,0.046749066561460495
1788862635114856200,9.268856201171875,0.1107778251171112,0.28557470440864563,-0.00009700516238808632
1788862635124898300,9.278898193359375,0.09690237790346146,0.23091211915016174,-0.05567542463541031
1788862635134939100,9.288939208984376,0.10330967605113983,0.14579004049301147,-0.09209974855184555
1788862635144981500,9.2989814453125,0.11772270500659943,0.05625297129154205,-0.11589615792036057
1788862635155022300,9.309022216796874,0.13416798412799835,0.00015774276107549667,-0.13363920152187347
1788862635165064400,9.319064453125,0.1479317992925644,-0.02590956911444664,-0.1631682962179184
1788862635175106300,9.329106201171875,0.1583157181739807,-0.007771579548716545,-0.21130946278572083
1788862635185147400,9.3391474609375,0.15528962016105652,0.037459731101989746,-0.29996904730796814
1788862635195189200,9.349189208984376,0.14750200510025024,0.0992456004023552,-0.4183303117752075
1788862635205230300,9.359230224609375,0.13942554593086243,0.17150774598121643,-0.5308334827423096
1788862635215272200,9.369272216796874,0.12442076206207275,0.2504558265209198,-0.6181545853614807
1788862635225314300,9.379314208984376,0.11697442084550858,0.32458627223968506,-0.6854050159454346
1788862635235355400,9.38935546875,0.12951737642288208,0.38308101892471313,-0.7289990782737732
1788862635245397200,9.399397216796874,0.14026379585266113,0.4008696377277374,-0.7506715059280396
1788862635255438300,9.409438232421875,0.15628990530967712,0.38794824481010437,-0.7432606816291809
1788862635265480200,9.419480224609375,0.17215850949287415,0.3787655234336853,-0.7054088115692139
1788862635275522300,9.429522216796874,0.1585950255393982,0.4015645682811737,-0.6661585569381714
1788862635285563100,9.439563232421875,0.14951331913471222,0.4498884677886963,-0.6497579216957092
1788862635295605200,9.449605224609375,0.17627649009227753,0.4656756818294525,-0.6475672125816345
1788862635305646000,9.45964599609375,0.19390302896499634,0.47064638137817383,-0.6491891741752625
1788862635315688400,9.4696884765625,0.17375008761882782,0.5321512818336487,-0.6767004728317261
1788862635325730300,9.479730224609375,0.1607355773448944,0.5523856282234192,-0.7331975698471069
1788862635335771400,9.489771484375,0.1563461571931839,0.47764480113983154,-0.8016256093978882
1788862635345813200,9.499813232421875,0.14097927510738373,0.3446485698223114,-0.8811414837837219
1788862635355854300,9.509854248046874,0.12968668341636658,0.17746089398860931,-0.9503822922706604
1788862635365896200,9.519896240234376,0.12097295373678207,0.006440811790525913,-0.9667031764984131
1788862635375938300,9.529938232421875,0.09110932797193527,-0.0928221270442009,-0.935023307800293
1788862635385979100,9.539979248046874,0.0246795155107975,-0.017362888902425766,-0.9580613374710083
1788862635396021200,9.550021240234376,-0.04373016580939293,0.1772039234638214,-1.037960410118103
1788862635406063400,9.5600634765625,-0.08514658361673355,0.3041440546512604,-1.1219799518585205
1788862635416104200,9.570104248046874,-0.10556717216968536,0.28763696551322937,-1.1395394802093506
1788862635426146300,9.580146240234376,-0.14545230567455292,0.20376743376255035,-1.1039767265319824
1788862635436187400,9.5901875,-0.20438140630722046,0.1305006891489029,-1.0668237209320068
1788862635446229200,9.600229248046874,-0.2254170924425125,0.07854816317558289,-1.0473769903182983
1788862635456271000,9.61027099609375,-0.2069275677204132,0.027694571763277054,-1.0607314109802246
1788862635466312200,9.620312255859375,-0.1888311207294464,-0.03968179598450661,-1.1089348793029785
1788862635476354300,9.630354248046874,-0.16454896330833435,-0.05401093512773514,-1.1754100322723389
1788862635486395400,9.6403955078125,-0.14722348749637604,-0.06911926716566086,-1.2860881090164185
1788862635496437200,9.650437255859375,-0.114621601998806,-0.10670685768127441,-1.3899554014205933
1788862635506479400,9.660479248046874,-0.05586227402091026,-0.17731782793998718,-1.4066656827926636
1788862635516520200,9.670520263671875,0.0010425553191453218,-0.21103718876838684,-1.3649659156799316
1788862635526562300,9.680562255859375,0.03859410807490349,-0.19219046831130981,-1.3159549236297607
1788862635536603100,9.69060302734375,0.0513027124106884,-0.1287102997303009,-1.3312766551971436
1788862635546645200,9.700645263671875,0.057962797582149506,-0.08341022580862045,-1.359633445739746
1788862635556687400,9.710687255859375,0.07948513329029083,-0.2362586408853531,-1.3932875394821167
1788862635566728400,9.720728515625,0.10611770302057266,-0.41647833585739136,-1.4205764532089233
1788862635576770300,9.730770263671875,0.10689321160316467,-0.5338175296783447,-1.4369652271270752
1788862635586811400,9.740811279296874,0.09697913378477097,-0.5065070986747742,-1.4188392162322998
1788862635596853200,9.750853271484376,0.07957830280065536,-0.4439965784549713,-1.3726950883865356
1788862635606895000,9.76089501953125,0.06545411050319672,-0.42950570583343506,-1.3537689447402954
1788862635616936700,9.770936767578124,0.05430159345269203,-0.4795060157775879,-1.3695393800735474
1788862635626978800,9.780978759765626,0.06380616128444672,-0.5788373947143555,-1.3788210153579712
1788862635637021000,9.79102099609375,0.10315809398889542,-0.5821722149848938,-1.419399619102478
1788862635647061800,9.801061767578124,0.14878229796886444,-0.5285742282867432,-1.4868299961090088
1788862635657104000,9.811103759765626,0.21124567091464996,-0.5148029923439026,-1.472766399383545
1788862635667144700,9.821144775390625,0.24786429107189178,-0.5099940299987793,-1.444753885269165
1788862635677186800,9.831186767578124,0.26638656854629517,-0.5254693627357483,-1.4762550592422485
1788862635687228700,9.841228759765626,0.2847471237182617,-0.515056312084198,-1.5335972309112549
1788862635697269800,9.851269775390625,0.29241010546684265,-0.47500213980674744,-1.5622155666351318
1788862635707311900,9.861311767578124,0.307253360748291,-0.43874499201774597,-1.592602252960205
1788862635717353000,9.87135302734375,0.32416442036628723,-0.49404099583625793,-1.649696946144104
1788862635727394800,9.881394775390625,0.3611835241317749,-0.6033137440681458,-1.676271915435791
1788862635737436700,9.891436767578124,0.3909778892993927,-0.6902853846549988,-1.6803635358810425
1788862635747477800,9.901477783203125,0.38553765416145325,-0.7197681665420532,-1.680473804473877
1788862635757519600,9.91151953125,0.3393387198448181,-0.6941784024238586,-1.689988136291504
1788862635767560700,9.921560791015626,0.2879372835159302,-0.6612426042556763,-1.6839466094970703
1788862635777602600,9.9316025390625,0.23297232389450073,-0.5790174603462219,-1.6689947843551636
1788862635787645000,9.94164501953125,0.18206629157066345,-0.41387730836868286,-1.6446834802627563
1788862635797685800,9.951685791015626,0.18132832646369934,-0.25018396973609924,-1.6106277704238892
1788862635807727900,9.961727783203125,0.20623746514320374,-0.18423058092594147,-1.5085058212280273
1788862635817768700,9.971768798828125,0.19960033893585205,-0.08709444105625153,-1.4349684715270996
1788862635827810800,9.981810791015626,0.1522848755121231,0.03551044315099716,-1.3498597145080566
1788862635837852700,9.991852783203125,0.08272869884967804,0.08631183952093124,-1.2686095237731934
1788862635847893800,10.001893798828124,0.004493528511375189,0.11836492270231247,-1.1621389389038086
1788862635857935600,10.011935546875,-0.0670861154794693,0.19508154690265656,-1.0865821838378906
1788862635867978000,10.02197802734375,-0.13919803500175476,0.23476570844650269,-1.027079463005066
1788862635878018800,10.032018798828124,-0.1625044196844101,0.21841177344322205,-0.9499167203903198
1788862635888061000,10.04206103515625,-0.15347914397716522,0.2144928276538849,-0.8927071690559387
1788862635898101800,10.052101806640625,-0.14547447860240936,0.13574367761611938,-0.7971004843711853
1788862635908143900,10.062143798828124,-0.15420235693454742,0.09248025715351105,-0.736537516117096
1788862635918185700,10.072185791015626,-0.1771412193775177,0.12377186864614487,-0.6491062045097351
1788862635928226800,10.082226806640625,-0.19877652823925018,0.17274422943592072,-0.5380374789237976
1788862635938269000,10.09226904296875,-0.1825389713048935,0.20543426275253296,-0.39568406343460083
1788862635948310000,10.10231005859375,-0.17527513206005096,0.2539029121398926,-0.2167472243309021
1788862635958352000,10.112351806640625,-0.18657998740673065,0.29350438714027405,-0.09551933407783508
1788862635968393700,10.122393798828124,-0.18611691892147064,0.31503403186798096,-0.049378231167793274
1788862635978434800,10.132434814453125,-0.1630006730556488,0.314393550157547,0.0034852493554353714
1788862635988476700,10.1424765625,-0.16911214590072632,0.3041260242462158,0.1545061469078064
1788862635998517800,10.152517822265626,-0.19438394904136658,0.34047284722328186,0.3698600232601166
1788862636008559600,10.1625595703125,-0.25831812620162964,0.40276095271110535,0.5513915419578552
1788862636018602000,10.17260205078125,-0.30977892875671387,0.4821833670139313,0.681784451007843
1788862636028642800,10.182642822265626,-0.3202248811721802,0.49589455127716064,0.777692437171936
1788862636038685000,10.192684814453125,-0.32500845193862915,0.4141610860824585,0.8878836631774902
1788862636048725800,10.202725830078125,-0.3516610860824585,0.38461172580718994,1.0095958709716797
1788862636058768000,10.212767822265626,-0.41525471210479736,0.45324909687042236,1.1324695348739624
1788862636068809700,10.222809814453125,-0.4870973229408264,0.45911702513694763,1.2313926219940186
1788862636078850800,10.232850830078124,-0.4955209493637085,0.40540242195129395,1.2946068048477173
1788862636088892700,10.242892578125,-0.44952723383903503,0.38192227482795715,1.3704829216003418
1788862636098934800,10.252934814453125,-0.38996776938438416,0.4012959599494934,1.4613806009292603
1788862636108975900,10.262975830078124,-0.34100958704948425,0.4267776310443878,1.5638177394866943
1788862636119017700,10.273017822265626,-0.2888462543487549,0.4650251567363739,1.6481356620788574
1788862636129058800,10.283058837890625,-0.24614372849464417,0.530015766620636,1.720134973526001
1788862636139100700,10.2931005859375,-0.21930944919586182,0.5998038649559021,1.7866185903549194
1788862636149142800,10.303142822265626,-0.1875721514225006,0.5927107334136963,1.8467698097229004
1788862636159183600,10.31318359375,-0.15511353313922882,0.5224624276161194,1.8798551559448242
1788862636169225700,10.323225830078124,-0.12211866676807404,0.42663106322288513,1.8650295734405518
1788862636179266800,10.333266845703125,-0.08309882879257202,0.3288722634315491,1.8434911966323853
1788862636189309000,10.343308837890625,-0.04753674939274788,0.3026927411556244,1.8185217380523682
1788862636199350800,10.353350830078124,-0.018208153545856476,0.3054962456226349,1.796075463294983
1788862636209391900,10.363391845703125,0.016503602266311646,0.29383233189582825,1.773066759109497
1788862636219433700,10.373433837890625,0.03730209171772003,0.2737874984741211,1.765275239944458
1788862636229474800,10.383474853515626,0.05488152801990509,0.24356544017791748,1.8131351470947266
1788862636239516700,10.3935166015625,0.09701113402843475,0.2062516212463379,1.88372004032135
1788862636249558800,10.403558837890625,0.15066584944725037,0.15452077984809875,1.8996580839157104
1788862636259599600,10.413599609375,0.1953469067811966,0.10353608429431915,1.8510727882385254
1788862636269642000,10.42364208984375,0.21689140796661377,0.04668281972408295,1.8170527219772339
1788862636279682800,10.433682861328125,0.22624894976615906,0.014763768762350082,1.831538438796997
1788862636289725000,10.443724853515626,0.2345157414674759,-0.022933844476938248,1.8667677640914917
1788862636299766800,10.453766845703125,0.20992277562618256,-0.08806251734495163,1.8788790702819824
1788862636309807900,10.463807861328124,0.15402674674987793,-0.17479448020458221,1.878305196762085
1788862636319849700,10.473849609375,0.10951120406389236,-0.2512857913970947,1.8903841972351074
1788862636329890800,10.483890869140625,0.07196493446826935,-0.31650182604789734,1.9052236080169678
1788862636339932700,10.4939326171875,0.022066347301006317,-0.3586825728416443,1.8937534093856812
1788862636349974800,10.503974853515626,-0.01868380978703499,-0.36342668533325195,1.8550481796264648
1788862636360016000,10.514015869140625,-0.03687426820397377,-0.3118894696235657,1.7973418235778809
1788862636370057700,10.5240576171875,-0.03773413598537445,-0.26739659905433655,1.7358521223068237
1788862636380099800,10.534099853515626,-0.013205090537667274,-0.22352127730846405,1.6996699571609497
1788862636390140700,10.544140625,0.023740626871585846,-0.15753798186779022,1.7037945985794067
1788862636400182800,10.554182861328124,0.053336068987846375,-0.14380937814712524,1.7141377925872803
1788862636410223600,10.5642236328125,0.07463237643241882,-0.18091556429862976,1.7311023473739624
1788862636420265700,10.574265625,0.09408437460660934,-0.21811167895793915,1.7615091800689697
1788862636430307800,10.584307861328124,0.11015146970748901,-0.24944722652435303,1.7949477434158325
1788862636440349000,10.594348876953125,0.1118476390838623,-0.3042481541633606,1.7792659997940063
1788862636450390800,10.604390869140625,0.08958819508552551,-0.353598952293396,1.716676115989685
1788862636460432000,10.614431884765626,0.060054004192352295,-0.4506072700023651,1.5953341722488403
1788862636470473700,10.6244736328125,0.021787166595458984,-0.4937274158000946,1.4441108703613281
1788862636480515800,10.634515869140625,-0.016465147957205772,-0.5355606079101562,1.3104915618896484
1788862636490556700,10.644556640625,-0.07348345220088959,-0.5857544541358948,1.2136423587799072
1788862636500598800,10.654598876953125,-0.12856587767601013,-0.5988660454750061,1.1421831846237183
1788862636510639600,10.6646396484375,-0.17114947736263275,-0.6336792707443237,1.057340383529663
1788862636520682000,10.674681884765626,-0.2136244922876358,-0.636195957660675,0.9172338843345642
1788862636530723800,10.684723876953125,-0.26073598861694336,-0.5424759387969971,0.7771549820899963
1788862636540765000,10.694764892578124,-0.28288525342941284,-0.32771676778793335,0.7054997086524963
1788862636550806800,10.704806884765626,-0.29034337401390076,-0.052733950316905975,0.6850759387016296
1788862636560848000,10.714847900390625,-0.2515954375267029,0.2234683483839035,0.6906827092170715
1788862636570889700,10.7248896484375,-0.15153370797634125,0.38693758845329285,0.6655757427215576
1788862636580931600,10.734931640625,-0.03322836756706238,0.40931186079978943,0.6196370124816895
1788862636590973000,10.744972900390625,0.034813977777957916,0.33158040046691895,0.5395253300666809
1788862636601014800,10.755014892578124,0.038416169583797455,0.21912416815757751,0.42541903257369995
1788862636611054800,10.765054931640625,-0.008706669323146343,0.1453607678413391,0.28471609950065613
1788862636621097000,10.775096923828125,-0.05601000040769577,0.09442995488643646,0.1428937166929245
1788862636631139000,10.78513916015625,-0.0639752522110939,-0.012228049337863922,0.012275257147848606
1788862636641180200,10.79518017578125,-0.05780976638197899,-0.10522376745939255,-0.09031103551387787
1788862636651222000,10.805221923828125,-0.0567997545003891,-0.1202356144785881,-0.18041639029979706
1788862636661264000,10.815263916015626,-0.04414840787649155,-0.09653428196907043,-0.2563004791736603
1788862636671305000,10.825304931640625,-0.03166864812374115,-0.04432743415236473,-0.31637680530548096
1788862636681346800,10.835346923828125,-0.03622850775718689,0.088394396007061,-0.36766955256462097
1788862636691388000,10.845387939453126,-0.02858586609363556,0.2885269820690155,-0.4286669194698334
1788862636701430000,10.855429931640625,-0.01241062767803669,0.4413839280605316,-0.49569281935691833
1788862636711472000,10.86547216796875,-0.004102096892893314,0.530751645565033,-0.5606510639190674
1788862636721513000,10.875512939453126,0.010886440053582191,0.5970243811607361,-0.6157358884811401
1788862636731555000,10.88555517578125,0.0339185893535614,0.6083307862281799,-0.6567215323448181
1788862636741596000,10.895595947265624,0.0639720931649208,0.5400718450546265,-0.6852812767028809
1788862636751638000,10.905637939453126,0.07688168436288834,0.39321693778038025,-0.6890330910682678
1788862636761680000,10.915679931640625,0.06494619697332382,0.20624279975891113,-0.6638854146003723
1788862636771721000,10.925720947265624,0.04756490886211395,0.0268855020403862,-0.5997071266174316
1788862636781763000,10.93576318359375,0.06505255401134491,-0.06762102991342545,-0.5507776737213135
1788862636791804200,10.94580419921875,0.0763879120349884,-0.02471204847097397,-0.5558802485466003
1788862636801846000,10.955845947265624,0.06558000296354294,0.10578977316617966,-0.6214741468429565
1788862636811887900,10.965887939453125,0.09648256748914719,0.21855458617210388,-0.7456555366516113
1788862636821929000,10.975928955078125,0.1546657234430313,0.2515804171562195,-0.8570147752761841
1788862636831970800,10.985970703125,0.18219436705112457,0.21702614426612854,-0.8969206809997559
1788862636842012000,10.996011962890625,0.1786198616027832,0.19712114334106445,-0.8907378911972046
1788862636852053800,11.0060537109375,0.1543412208557129,0.2311888039112091,-0.8733731508255005
1788862636862096100,11.01609619140625,0.11247153580188751,0.29116931557655334,-0.8750419020652771
1788862636872137000,11.026136962890625,0.061449550092220306,0.35363033413887024,-0.8988776803016663
1788862636882179000,11.036178955078125,0.0217593926936388,0.3995903730392456,-0.9297583699226379
1788862636892220000,11.046219970703126,-0.003979134373366833,0.4020520746707916,-1.040995717048645
1788862636902262000,11.056261962890625,0.003598091658204794,0.35958823561668396,-1.2138447761535645
1788862636912303900,11.066303955078125,0.03776168078184128,0.2596130967140198,-1.3325139284133911
1788862636922345000,11.076344970703126,0.05997137725353241,0.1677020788192749,-1.3796639442443848
1788862636932386800,11.08638671875,0.053832657635211945,0.12709173560142517,-1.3698288202285767
1788862636942428000,11.096427978515624,0.034398507326841354,0.12157498300075531,-1.3059632778167725
1788862636952470000,11.106469970703126,0.02659120038151741,0.10234483331441879,-1.2160102128982544
1788862636962512100,11.11651220703125,0.03591039776802063,0.07422558218240738,-1.1646623611450195
1788862636972553000,11.126552978515624,0.05964014679193497,0.06087280437350273,-1.188777208328247
1788862636982595000,11.136594970703126,0.08905449509620667,0.05422768369317055,-1.3000166416168213
1788862636992636000,11.146635986328125,0.11306828260421753,-0.025715390220284462,-1.4353972673416138
1788862637002678000,11.156677978515624,0.12189826369285583,-0.1452798694372177,-1.5469932556152344
1788862637012720000,11.16672021484375,0.11405222117900848,-0.20019525289535522,-1.6016733646392822
1788862637022761200,11.17676123046875,0.0981755256652832,-0.1777389496564865,-1.6239982843399048
1788862637032803000,11.186802978515624,0.09161872416734695,-0.10504599660634995,-1.6151942014694214
1788862637042844200,11.19684423828125,0.09255190193653107,-0.03222052752971649,-1.6050392389297485
1788862637052886000,11.206885986328125,0.10574112832546234,0.011503618210554123,-1.5788944959640503
1788862637062928000,11.216927978515624,0.11053934693336487,-0.008780349045991898,-1.5172910690307617
1788862637072969000,11.226968994140625,0.09624874591827393,-0.0578729584813118,-1.4869197607040405
1788862637083010800,11.2370107421875,0.09206065535545349,-0.2011859118938446,-1.4986262321472168
1788862637093053200,11.24705322265625,0.099001944065094,-0.3640390634536743,-1.5726804733276367
1788862637103094000,11.257093994140625,0.08695486932992935,-0.4622915983200073,-1.6724779605865479
1788862637113136000,11.26713623046875,0.06726067513227463,-0.5004162192344666,-1.7283248901367188
1788862637123177000,11.277177001953126,0.07160961627960205,-0.5067771673202515,-1.7225602865219116
1788862637133219000,11.287218994140625,0.0885942280292511,-0.5591517686843872,-1.729925513267517
1788862637143261000,11.297260986328125,0.11899634450674057,-0.6402055621147156,-1.7389163970947266
1788862637153302000,11.307302001953126,0.1282361000776291,-0.6201468706130981,-1.716554045677185
1788862637163344000,11.31734375,0.12178407609462738,-0.4951798915863037,-1.7037383317947388
1788862637173385000,11.327385009765624,0.1369657814502716,-0.389712929725647,-1.7213631868362427
1788862637183427000,11.337427001953126,0.16740624606609344,-0.33106985688209534,-1.7343149185180664
1788862637193469000,11.347468994140625,0.18767769634723663,-0.30819302797317505,-1.7522603273391724
1788862637203510000,11.357510009765624,0.18593066930770874,-0.33986467123031616,-1.753176212310791
1788862637213551900,11.3675517578125,0.16187071800231934,-0.3959081172943115,-1.7819846868515015
1788862637223593000,11.377593017578125,0.13221429288387299,-0.4271022379398346,-1.800633430480957
1788862637233635000,11.387635009765624,0.09806987643241882,-0.3943021893501282,-1.7878355979919434
1788862637243677000,11.397677001953125,0.08219051361083984,-0.34277376532554626,-1.7601053714752197
1788862637253718000,11.407718017578125,0.0707334354519844,-0.3240691125392914,-1.7433710098266602
1788862637263760100,11.417760009765624,0.0730099081993103,-0.30940815806388855,-1.7227338552474976
1788862637273801200,11.42780126953125,0.09126775711774826,-0.3142237365245819,-1.6748560667037964
1788862637283843000,11.437843017578125,0.10911892354488373,-0.34583786129951477,-1.625625729560852
1788862637293885000,11.447885009765624,0.14055564999580383,-0.2883862853050232,-1.572941780090332
1788862637303926000,11.457926025390625,0.15824516117572784,-0.22066500782966614,-1.462356686592102
1788862637313967900,11.4679677734375,0.15848514437675476,-0.13356740772724152,-1.3758517503738403
1788862637324009000,11.478009033203126,0.16617608070373535,-0.11818046122789383,-1.2839328050613403
1788862637334050800,11.48805078125,0.16876189410686493,-0.16109803318977356,-1.1987061500549316
1788862637344093200,11.49809326171875,0.13688518106937408,-0.12113490700721741,-1.1159085035324097
1788862637354134000,11.508134033203126,0.07598915696144104,-0.016157662495970726,-0.991664707660675
1788862637364176100,11.518176025390625,0.020757321268320084,-0.001806952990591526,-0.8587186932563782
1788862637374217000,11.528217041015624,-0.03959023207426071,-0.03653501719236374,-0.7150800228118896
1788862637384259000,11.538259033203126,-0.10999169200658798,-0.06439433991909027,-0.5810516476631165
1788862637394301000,11.548301025390625,-0.16419915854930878,-0.021574294194579124,-0.49513694643974304
1788862637404342000,11.558342041015624,-0.17856745421886444,0.0663776695728302,-0.4348514974117279
1788862637414383900,11.5683837890625,-0.16861318051815033,0.08722761273384094,-0.38539159297943115
1788862637424425000,11.578425048828125,-0.15854988992214203,0.06551992148160934,-0.2723686397075653
1788862637434467000,11.588467041015624,-0.17095419764518738,0.08073972910642624,-0.10607662051916122
1788862637444509000,11.598509033203126,-0.19164295494556427,0.20471546053886414,0.03313693031668663
1788862637454550000,11.608550048828125,-0.19373171031475067,0.3445434868335724,0.13676276803016663
1788862637464592000,11.618591796875,-0.16577357053756714,0.37093594670295715,0.2152959257364273
1788862637474633000,11.628633056640625,-0.15378648042678833,0.29121869802474976,0.3042995035648346
1788862637484674800,11.6386748046875,-0.16420184075832367,0.2977602183818817,0.46571609377861023
1788862637494717000,11.648717041015624,-0.19423288106918335,0.3869595527648926,0.6355910897254944
1788862637504757800,11.6587578125,-0.24982158839702606,0.43234115839004517,0.7933772802352905
1788862637514800000,11.668800048828125,-0.31559479236602783,0.4283381998538971,0.923575222492218
1788862637524842000,11.678842041015624,-0.377594530582428,0.42867377400398254,1.040809988975525
1788862637534883000,11.688883056640625,-0.42494121193885803,0.45390212535858154,1.128252625465393
1788862637544925000,11.698925048828125,-0.438319593667984,0.4869234561920166,1.1934199333190918
1788862637554966000,11.708966064453126,-0.43331071734428406,0.46019303798675537,1.257414698600769
1788862637565008000,11.7190078125,-0.44193723797798157,0.46540215611457825,1.3491110801696777
1788862637575050000,11.729050048828125,-0.4674822986125946,0.5433735251426697,1.4927921295166016
1788862637585090800,11.7390908203125,-0.4754749834537506,0.5880911946296692,1.6283934116363525
1788862637595133200,11.74913330078125,-0.44390103220939636,0.5730836391448975,1.717520833015442
1788862637605174000,11.759174072265624,-0.3884846270084381,0.6020191311836243,1.7737271785736084
1788862637615216400,11.76921630859375,-0.31627950072288513,0.6131520867347717,1.7779844999313354
1788862637625258500,11.779258544921875,-0.23803263902664185,0.6252119541168213,1.7750887870788574
1788862637635299300,11.78929931640625,-0.1714286357164383,0.6676899194717407,1.7989650964736938
1788862637645341400,11.799341552734376,-0.10989336669445038,0.6599425077438354,1.8484677076339722
1788862637655382300,11.80938232421875,-0.06486862897872925,0.5598803758621216,1.881677508354187
1788862637665424600,11.819424560546874,-0.03716323897242546,0.4895273745059967,1.912886381149292
1788862637675466500,11.829466552734376,0.0023164786398410797,0.4916751980781555,1.9849687814712524
1788862637685507600,11.839507568359375,0.05586519092321396,0.5116625428199768,2.08439040184021
1788862637695549400,11.849549560546874,0.10604837536811829,0.48657935857772827,2.138679265975952
1788862637705590500,11.859590576171875,0.14353397488594055,0.39298203587532043,2.1452414989471436
1788862637715632400,11.86963232421875,0.1950407326221466,0.25428229570388794,2.11213755607605
1788862637725674500,11.879674560546874,0.2403717190027237,0.15065227448940277,2.0352227687835693
1788862637735715300,11.88971533203125,0.27395209670066833,0.10942412912845612,1.945810079574585
1788862637745757700,11.8997578125,0.2892724573612213,0.10031398385763168,1.8894424438476562
1788862637755798500,11.909798583984376,0.2857266068458557,0.047556161880493164,1.9093831777572632
1788862637765840600,11.919840576171875,0.26040953397750854,-0.013616383075714111,1.9922559261322021
1788862637775882500,11.929882568359375,0.20813962817192078,-0.024197958409786224,2.0689141750335693
1788862637785923600,11.939923583984376,0.15453046560287476,-0.030297663062810898,2.122147798538208
1788862637795965400,11.94996533203125,0.11667387187480927,-0.07299524545669556,2.1635031700134277
1788862637806006500,11.960006591796875,0.11093635857105255,-0.13457393646240234,2.152594566345215
1788862637816048400,11.97004833984375,0.1267794519662857,-0.24870572984218597,2.0799720287323
1788862637826090500,11.980090576171875,0.13421845436096191,-0.3875717520713806,1.9475558996200562
1788862637836131600,11.990131591796874,0.13574551045894623,-0.40960991382598877,1.8598401546478271
1788862637846173400,12.00017333984375,0.10687337815761566,-0.2985233664512634,1.8637669086456299
1788862637856214500,12.010214599609375,0.07530194520950317,-0.21421390771865845,1.913657784461975
1788862637866256400,12.02025634765625,0.0729069635272026,-0.2184818983078003,1.940796136856079
1788862637876298500,12.030298583984376,0.07483360916376114,-0.3175446689128876,1.9465025663375854
1788862637886339300,12.04033935546875,0.07276033610105515,-0.41360941529273987,1.9185817241668701
1788862637896381400,12.05038134765625,0.07665620744228363,-0.46933844685554504,1.8715462684631348
1788862637906422300,12.06042236328125,0.08019261807203293,-0.48824819922447205,1.8177157640457153
1788862637916464600,12.070464599609375,0.08211339265108109,-0.5095537900924683,1.7524428367614746
1788862637926506500,12.080506591796874,0.06996005773544312,-0.47616124153137207,1.6742526292800903
1788862637936547600,12.090547607421875,0.04224381223320961,-0.3608858585357666,1.5856077671051025
1788862637946589400,12.10058935546875,0.00819157063961029,-0.2559240460395813,1.4902944564819336
1788862637956630500,12.110630615234374,-0.00868038646876812,-0.2393551617860794,1.3815590143203735
1788862637966672400,12.12067236328125,-0.01667865924537182,-0.30361083149909973,1.2819607257843018
1788862637976714500,12.130714599609375,-0.019145004451274872,-0.39986222982406616,1.1987106800079346
1788862637986755600,12.140755615234376,-0.02707802876830101,-0.4504292607307434,1.1365708112716675
1788862637996797400,12.15079736328125,-0.0445270761847496,-0.4172356128692627,1.0895580053329468
1788862638006838500,12.160838623046875,-0.06242858245968819,-0.3469092547893524,1.0394008159637451
1788862638016880600,12.170880615234376,-0.06911531090736389,-0.28540483117103577,0.9366865158081055
1788862638026922500,12.180922607421875,-0.09940237551927567,-0.17874976992607117,0.7816596627235413
1788862638036963600,12.190963623046875,-0.13775603473186493,-0.026092778891324997,0.5843878388404846
1788862638047005400,12.20100537109375,-0.15918488800525665,0.12320909649133682,0.39316892623901367
1788862638057047600,12.211047607421875,-0.1524621695280075,0.25086021423339844,0.27908065915107727
1788862638067088600,12.221088623046874,-0.10724516957998276,0.3311348259449005,0.23633132874965668
1788862638077130500,12.231130615234376,-0.029169883579015732,0.37728002667427063,0.20080086588859558
1788862638087171600,12.241171630859375,0.07447288930416107,0.32193660736083984,0.14559966325759888
1788862638097213400,12.25121337890625,0.14465366303920746,0.13478019833564758,0.03661593422293663
1788862638107254500,12.261254638671875,0.12537796795368195,-0.05400462821125984,-0.09960395842790604
1788862638117296400,12.27129638671875,0.10554033517837524,-0.18783937394618988,-0.19425760209560394
1788862638127338500,12.28133837890625,0.10902055352926254,-0.23964744806289673,-0.23940803110599518
1788862638137379300,12.29137939453125,0.10141412168741226,-0.23050859570503235,-0.26829323172569275
1788862638147421700,12.301421630859375,0.08283164352178574,-0.10858162492513657,-0.29948416352272034
1788862638157463600,12.311463623046874,0.07653533667325974,0.09240052103996277,-0.348821222782135
1788862638167504600,12.321504638671875,0.09354414790868759,0.27279800176620483,-0.4438436031341553
1788862638177546500,12.33154638671875,0.12423572689294815,0.33821162581443787,-0.57188481092453
1788862638187587600,12.341587646484374,0.16079400479793549,0.3019516170024872,-0.704005777835846
1788862638197629400,12.35162939453125,0.19940871000289917,0.3028629720211029,-0.8158536553382874
1788862638207670500,12.36167041015625,0.22306343913078308,0.35522153973579407,-0.8864423036575317
1788862638217712400,12.37171240234375,0.23229794204235077,0.38428786396980286,-0.8972771763801575
1788862638227754500,12.38175439453125,0.22738760709762573,0.37763530015945435,-0.8820569515228271
1788862638237795600,12.391795654296875,0.20914264023303986,0.3194877505302429,-0.8629611134529114
1788862638247837400,12.40183740234375,0.18434754014015198,0.23375312983989716,-0.8510615825653076
1788862638257879600,12.411879638671875,0.16120198369026184,0.1480257213115692,-0.8578210473060608
1788862638267920400,12.42192041015625,0.1548018753528595,0.08530428260564804,-0.8725358247756958
1788862638277962500,12.43196240234375,0.15421701967716217,0.025517456233501434,-0.8986517190933228
1788862638288003300,12.44200341796875,0.15456855297088623,-0.017257969826459885,-0.9287944436073303
1788862638298045400,12.45204541015625,0.15209852159023285,-0.03470868244767189,-0.9682462215423584
1788862638308087600,12.462087646484376,0.16108588874340057,-0.03754974156618118,-1.0186971426010132
1788862638318128600,12.472128662109375,0.16426950693130493,-0.03863108903169632,-1.0871952772140503
1788862638328170500,12.48217041015625,0.12982045114040375,-0.0070976633578538895,-1.1603717803955078
