time,seconds_elapsed,z,y,x
1789635184179592000,0.049592041015625,9.79946739501953,3.7379473419189453,1.5257050079345702
1789635184189630700,0.059630615234375,8.990227233886719,3.106476654052734,1.09804073638916
1789635184199670800,0.0696708984375,7.8992194648742675,2.6337714637756346,0.45804070510864253
1789635184209710800,0.0797109375,6.776488523864746,3.0843302886962887,-0.3350385948181152
1789635184219749600,0.08974951171875,6.207715991973877,3.6897640335083004,-0.8969277969360351
1789635184229789700,0.099789794921875,6.172102242279053,3.7442321212768555,-1.0773907470703123
1789635184239829800,0.109829833984375,5.744886883544922,3.0831331878662107,-0.936581761932373
1789635184249868800,0.119868896484375,6.361393811035156,2.855085479736328,-1.0295067138671874
1789635184259908900,0.129908935546875,7.160009702301025,3.0564976943969726,-0.49021278991699213
1789635184269948700,0.13994873046875,7.504475466156006,3.3898902755737303,0.28221652069091796
1789635184279988700,0.14998876953125,7.025934409332275,3.7017350418090817,0.8723872299194335
1789635184290027800,0.16002783203125,5.717652839660644,3.4772786361694332,1.401954709625244
1789635184300067800,0.17006787109375,4.703259523773193,3.0636802993774412,1.8620903411865233
1789635184310107600,0.180107666015625,3.629310441589355,2.3847744911193844,2.2635680320739744
1789635184320146700,0.190146728515625,3.0948049209594726,0.8436568099975585,2.4664766227722166
1789635184330186800,0.200186767578125,2.1627122871398923,-0.5571007987976074,2.5321675308227536
1789635184340226800,0.210226806640625,1.0140940406799315,-1.6454150909423828,2.6581623931884764
1789635184350265900,0.220265869140625,0.689530078125,-2.392256371307373,2.6601076820373533
1789635184360305700,0.2303056640625,2.0521300979614256,-3.2837972145080565,1.5876549758911132
1789635184370345700,0.240345703125,5.489754769134521,-3.009361849212646,-2.0415058280944822
1789635184380384800,0.250384765625,8.865429472351074,-3.329885596466064,-0.12375029830932617
1789635184390424800,0.2604248046875,8.287529046630858,-3.139696202087402,4.550629167938232
1789635184400465000,0.27046484375,4.545840764617919,-2.7479449554443356,8.175151206207275
1789635184410504000,0.28050390625,1.7613842338562011,-2.4507646743774414,7.962665808868408
1789635184420544000,0.2905439453125,0.3329436683654785,-2.5769091743469237,5.663932939910889
1789635184430583800,0.300583740234375,1.1878232986450195,-3.9495349136352536,4.597465737915039
1789635184440622800,0.310622802734375,2.567631642913818,-5.495291360473632,5.084685775756836
1789635184450663000,0.320662841796875,3.08358210067749,-5.9108349861145015,6.600365064239502
1789635184460703000,0.330702880859375,4.00938995513916,-5.4698529678344725,8.265382681274414
1789635184470741800,0.34074169921875,4.543446562957763,-5.04996985168457,9.84510686416626
1789635184480781800,0.35078173828125,4.827758010101318,-4.401290839385986,11.118373234558105
1789635184490822000,0.36082177734375,5.519233377075195,-3.661332888793945,12.316371890258788
1789635184500860700,0.370860595703125,5.20963317489624,-2.38776724319458,13.84177762298584
1789635184510900700,0.380900634765625,3.8660371307373045,-0.4873696754455566,15.39202319793701
1789635184520940800,0.39094091796875,2.8202199180603027,1.1399392654418945,17.310377278137207
1789635184530979800,0.400979736328125,3.106775929260254,2.324470536804199,19.08792237319946
1789635184541020000,0.41102001953125,3.634697395324707,3.535038751220703,20.165462757873534
1789635184551059700,0.421059814453125,3.127126643371582,4.837634091949463,20.879383765411376
1789635184561098800,0.4310986328125,1.6062100387573242,5.317222611999512,20.864868917846678
1789635184571138800,0.441138916015625,-0.3981856636047363,5.372289250183105,19.88773536529541
1789635184581179000,0.451178955078125,-1.9933225196838378,4.902427174377441,17.884387126159666
1789635184591217700,0.4612177734375,-3.4138322921752926,4.583250165557861,16.112827535247803
1789635184601257700,0.4712578125,-4.412962572479247,4.27110612411499,14.50512112045288
1789635184611297800,0.4812978515625,-5.2165165046691895,3.7771523941040037,12.76199267425537
1789635184621336600,0.491336669921875,-6.909965266418457,3.1543606872558594,11.480945148468017
1789635184631376600,0.501376708984375,-18.08145985031128,5.7694274505615235,14.364312135314941
1789635184641416700,0.511416748046875,-31.66077311630249,8.480112642669678,20.457704998016357
1789635184651456000,0.5214560546875,-11.28073003463745,2.2526444869995115,13.339893099975585
1789635184661495800,0.531495849609375,-0.028431144714355466,-0.0674865592956543,6.516867281341552
1789635184671535600,0.54153564453125,-1.9425953720092772,-2.1529858428955078,4.715230532073974
1789635184681575000,0.551574951171875,0.03531447448730469,-3.045723786926269,3.3774703544616695
1789635184691615000,0.561614990234375,0.5901707092285156,-2.0929811637878415,4.757577973937988
1789635184701654800,0.57165478515625,-4.827009822082519,-2.081758343505859,9.099013771820069
1789635184711693800,0.58169384765625,-5.47778376083374,-3.0630817489624023,12.982109589385985
1789635184721734000,0.59173388671875,2.0301333702087403,-3.6706104202270504,14.85033507232666
1789635184731774000,0.60177392578125,5.13915386352539,-2.3687632675170898,14.955380670166015
1789635184741812700,0.611812744140625,3.555389465332031,-0.7706336593627929,11.783811658477783
1789635184751852800,0.621852783203125,0.613514175415039,-1.1122563087463377,10.631602109527588
1789635184761892900,0.631892822265625,1.1513117233276366,-4.359541947937012,9.471162492370604
1789635184771932000,0.641931884765625,-1.8474258560180663,-5.530007284545898,5.879560726928711
1789635184781971700,0.6519716796875,-5.3938370651245116,-6.283881532287597,7.577049703979492
1789635184792011800,0.66201171875,-5.908590422058105,-5.753565864562988,10.154557428741455
1789635184802050800,0.67205078125,-1.1736077262878417,-6.372766268920898,9.279327084350586
1789635184812091000,0.6820908203125,-2.2750901275634763,-8.827421520996094,6.693290016174316
1789635184822130700,0.692130615234375,-5.128230318450927,-7.425766086578369,7.765892359924316
1789635184832169700,0.702169677734375,-3.630657180023193,-6.632686786651611,10.243741440582275
1789635184842209800,0.712209716796875,0.8502408645629882,-10.659434703826904,8.137891442871092
1789635184852249900,0.722249755859375,0.7224503509521484,-14.975581746673583,3.8434418525695797
1789635184862288600,0.73228857421875,-0.7730278610229492,-15.708806005096434,4.591779508972167
1789635184872328700,0.74232861328125,-1.6882114456176758,-14.879364767456053,6.297947467041015
1789635184882368800,0.75236865234375,-3.38360549621582,-13.583952031707764,4.442890093231201
1789635184892408800,0.762408935546875,-3.1061773788452145,-9.09796630859375,3.4561797340393063
1789635184902447600,0.772447509765625,-3.1028853515624997,-6.474819114685058,4.518905995941162
1789635184912487700,0.78248779296875,-2.7455507537841797,-6.70361501083374,4.957044899749755
1789635184922527700,0.79252783203125,-2.535908470916748,-7.76978293762207,4.62859035949707
1789635184932566800,0.80256689453125,-2.4467244590759276,-7.947702048492431,3.8709751716613767
1789635184942606600,0.812606689453125,-1.7741034301757812,-7.757961566925048,2.8669068504333493
1789635184952646700,0.822646728515625,-2.431311785888672,-7.097161908721923,2.1787235107421874
1789635184962686000,0.83268603515625,-1.792658493041992,-6.813897924804687,2.9767408515930174
1789635184972726000,0.84272607421875,-2.252943762207031,-8.348132276153564,4.392911133575439
1789635184982766000,0.85276611328125,-2.4500164863586424,-10.17610524368286,4.931905782318115
1789635184992805000,0.86280517578125,-1.9342156661987304,-9.899574951934813,4.573374083709717
1789635185002845000,0.872844970703125,-2.476352704620361,-8.435520636749267,3.893869725036621
1789635185012885000,0.882885009765625,-2.532766081237793,-7.063792723083496,3.962254109954834
1789635185022924000,0.892924072265625,-2.627636322021484,-6.41586189880371,4.655375490570068
1789635185032964000,0.902964111328125,-2.6491841369628903,-6.9342065582275385,5.523423229980469
1789635185043004200,0.913004150390625,-2.360682836914062,-7.992294054412842,5.313631309509277
1789635185053043200,0.923043212890625,-2.738068873596191,-7.6354083694458,5.1988592674255365
1789635185063083000,0.9330830078125,-2.616263864135742,-5.818658222198486,5.943156708526611
1789635185073123000,0.943123046875,-2.135927156066894,-6.788010619354248,5.102941563415527
1789635185083162000,0.953162109375,-3.3954268669128416,-7.973738991546631,4.874893855285644
1789635185093202200,0.9632021484375,-4.074033399963379,-7.9110408355712885,4.984129306030273
1789635185103242200,0.9732421875,-3.6619314392089843,-7.829637979125976,4.806659107971191
1789635185113281000,0.983281005859375,-4.1943420333862305,-7.971195152282714,4.459350229644775
1789635185123321000,0.993321044921875,-3.866934956359863,-7.3940429145812985,4.3162966804504395
1789635185133361200,1.003361083984375,-4.225167379760742,-6.443095942687988,4.680514608001709
1789635185143400000,1.01339990234375,-4.285770609283447,-6.2475195945739745,4.580107775878906
1789635185153440000,1.02343994140625,-2.45151286239624,-5.991190379333496,4.537461058807373
1789635185163480000,1.03347998046875,-1.4324807807922362,-6.2307601829528805,4.679018231964111
1789635185173519000,1.04351904296875,-1.471536195373535,-5.357175852203369,4.612728773498535
1789635185183559000,1.053558837890625,-1.6328455322265625,-4.4844893470764156,4.284723146057129
1789635185193599000,1.063598876953125,-1.9960159965515136,-5.386355184936523,4.114136277770996
1789635185203638000,1.073637939453125,-3.293523658752441,-7.417236743164062,4.427627057647705
1789635185213678000,1.083677978515625,-4.14960038986206,-8.36339531173706,4.466981747436523
1789635185223718100,1.09371826171875,-4.1241619972229,-7.776666267395019,4.289361911773681
1789635185233757000,1.1037568359375,-4.336647394561767,-5.395931991577148,4.237587300872803
1789635185243797000,1.113796875,-3.2399533966064453,-2.7584195877075195,3.969885627746582
1789635185253837000,1.123837158203125,-3.819200560760498,-3.7377977043151853,3.005920184326172
1789635185263875800,1.133875732421875,-3.5865140869140624,-4.370465493011475,2.3555951583862305
1789635185273916000,1.143916015625,-2.4239795433044433,-6.90158556060791,2.1232079597473144
1789635185283956000,1.1539560546875,-3.5901053894042967,-9.04604206008911,2.7486931434631345
1789635185293995300,1.163995361328125,-3.615693419647217,-10.486453633880615,2.5564088226318358
1789635185304035000,1.17403515625,-2.0395605392456053,-6.445340506744384,4.262876055908203
1789635185314075000,1.184074951171875,-3.3255461059570313,-5.872078846740722,6.903530849456787
1789635185324115000,1.194114990234375,-5.067926364135742,-9.66015478591919,6.980294940185546
1789635185334154200,1.204154296875,-3.854215760040283,-13.194744624328612,4.5699324188232415
1789635185344194000,1.214194091796875,-7.668927192687987,-16.82345651550293,2.4377462028503416
1789635185354233900,1.22423388671875,-4.4930186904907226,-12.235866859436035,4.786906944274902
1789635185364273200,1.234273193359375,-2.6063877822875976,-4.703259523773193,5.308393993377686
1789635185374313200,1.244313232421875,-6.471527087402343,-7.8652517288208,4.381089762878418
1789635185384353300,1.254353271484375,-4.261080404663086,-7.715614125061035,5.073014042663574
1789635185394392000,1.26439208984375,-1.3670891479492187,-6.207117441558838,6.200533386993408
1789635185404432100,1.27443212890625,-4.99864415359497,-9.227253198242186,2.963423104858398
1789635185414472200,1.28447216796875,-5.9756280685424805,-10.57878003540039,1.3519757499694824
1789635185424511000,1.294510986328125,-6.02066898727417,-10.068665444183349,1.8510171585083006
1789635185434551000,1.304551025390625,-6.508487575531006,-12.457629788208006,-0.3844190040588379
1789635185444591000,1.314591064453125,-3.135356711578369,-12.364405561065674,0.9228151023864746
1789635185454630100,1.324630126953125,-5.741594856262207,-12.275520824432371,0.29343934097290036
1789635185464670000,1.334669921875,-5.820304235839844,-13.117681258392333,1.0446201118469238
1789635185474710000,1.3447099609375,-5.761047744750976,-13.753790711975096,2.8399720817565917
1789635185484749000,1.3547490234375,-5.17132594833374,-12.911331002807616,4.780173252105713
1789635185494789000,1.3647890625,-4.646846147155761,-12.473341736602782,4.303876759338379
1789635185504829000,1.374828857421875,-5.392639964294434,-10.971578745269774,2.1868039413452145
1789635185514868000,1.384867919921875,-6.063614979553222,-8.38329711303711,1.2389993591308592
1789635185524908000,1.394907958984375,-6.1373863182067865,-6.396109735107421,0.7926303871154785
1789635185534948000,1.404947998046875,-5.785289036560059,-4.61572152557373,1.1435305679321288
1789635185544987000,1.41498681640625,-4.493317965698242,-2.7343279335021973,2.8968343711853026
1789635185555027000,1.42502685546875,-3.7204397422790527,-3.604769874572754,3.4822166770935055
1789635185565067000,1.43506689453125,-3.2032921836853023,-5.162048416900634,3.3473931961059566
1789635185575106000,1.44510595703125,-3.0160955413818358,-6.387131478881836,3.2537200561523436
1789635185585145900,1.455145751953125,-4.466981747436523,-7.202506781768799,3.303100465393066
1789635185595186000,1.46518603515625,-6.105064595794677,-7.389703424072265,3.060837184906006
1789635185605225000,1.475224853515625,-5.52282467956543,-7.385663208770752,2.9798832412719727
1789635185615265000,1.48526513671875,-4.345924925994873,-6.376956121826171,3.0808886238098143
1789635185625304800,1.495304931640625,-5.172074136352538,-6.313360140228271,2.250998473358154
1789635185635344100,1.50534423828125,-4.877886607360839,-7.827692690277099,1.3290811965942382
1789635185645384200,1.51538427734375,-4.677222580718994,-7.266850951385497,1.5046061058044433
1789635185655424000,1.525424072265625,-6.492177076721191,-6.330418827056884,1.0160393295288086
1789635185665463000,1.535463134765625,-5.4135892288208005,-6.191704768371582,0.5931634613037109
1789635185675503000,1.545503173828125,-4.135235179901123,-5.220257444763183,1.7302596122741698
1789635185685543200,1.555543212890625,-3.7759552932739258,-4.753238483428955,2.639308055114746
1789635185695583200,1.565583251953125,-4.811597148895263,-4.2329485351562495,2.9637223800659176
1789635185705622000,1.5756220703125,-5.721543417358398,-4.59671754989624,3.199850518798828
1789635185715662000,1.585662109375,-6.136338854980468,-5.034856453704833,2.552518244934082
1789635185725702100,1.5957021484375,-5.068824189758301,-5.456834496307373,1.9366098678588866
1789635185735741200,1.6057412109375,-4.559008873748779,-5.949291850280761,1.4155717315673828
1789635185745781000,1.615781005859375,-4.659565343475341,-8.623465467071533,2.0970213790893553
1789635185755821000,1.625821044921875,-5.089174903869629,-9.754426476287842,2.821267381286621
1789635185765860000,1.635860107421875,-5.044882173156738,-10.01075569152832,3.7098154724121093
1789635185775900200,1.645900146484375,-4.802618892669678,-8.813355586242675,5.336525862884521
1789635185785940000,1.65593994140625,-4.505438611602783,-5.73949992980957,6.457161877441406
1789635185795979000,1.66597900390625,-5.9023056427001945,-5.933130989074707,5.379022942352295
1789635185806019000,1.67601904296875,-6.682815383911133,-8.55538035736084,1.6098013412475585
1789635185816059100,1.68605908203125,-7.155969486999512,-12.170924139404296,-3.145681706237793
1789635185826098000,1.696097900390625,-4.621557392120361,-12.394183444213866,-3.406051136779785
1789635185836138000,1.706137939453125,-4.38632707901001,-10.557531495666503,-1.2892775939941405
1789635185846178000,1.716177978515625,-4.818330841064453,-14.032116654968261,-2.5234885498046875
1789635185856217000,1.726217041015625,-3.1440356925964354,-13.813496115875243,-1.8486229568481445
1789635185866257000,1.7362568359375,-3.4754829849243163,-10.639532902526854,-0.28909985046386716
1789635185876297000,1.746296875,-4.407425981140136,-11.118223596954346,-1.7546505416870115
1789635185886336000,1.7563359375,-4.221576077270508,-10.243891078186035,-2.6550200035095215
1789635185896376000,1.7663759765625,-4.341735073089599,-9.701754039764404,-2.5604490379333495
1789635185906415900,1.776415771484375,-4.530428091430664,-9.498246898651123,-1.438316647338867
1789635185916455000,1.786454833984375,-5.143942266845703,-8.997709114074706,-1.3346177879333496
1789635185926495000,1.796494873046875,-5.457732321929932,-7.6231380859375,-2.111386589050293
1789635185936535000,1.80653515625,-5.3390697021484375,-7.42501789855957,-2.899677485656738
1789635185946574000,1.816573974609375,-5.3865048225402825,-8.071601984405516,-2.6213515426635743
1789635185956614100,1.8266142578125,-5.372289250183105,-8.85510447769165,-1.2496236289978027
1789635185966654200,1.836654296875,-5.926247659301757,-9.288006065368652,0.10773907470703124
1789635185976694000,1.846694091796875,-6.152798991394042,-9.316736485290527,0.6253355461120605
1789635185986733300,1.8567333984375,-6.015581308746338,-9.14255831451416,0.23552958831787107
1789635185996773000,1.866773193359375,-5.845892266082763,-8.911368216705322,-0.3763385734558105
1789635186006813200,1.876813232421875,-5.680093801116943,-8.616282862091063,-0.4471171600341797
1789635186016852200,1.886852294921875,-5.446359864044189,-8.310273962402343,-0.020949264526367185
1789635186026892300,1.896892333984375,-5.523722505187988,-7.805097412109374,-0.13437456817626953
1789635186036932400,1.906932373046875,-5.998971534729003,-7.717709051513672,-0.5360018966674804
1789635186046971400,1.916971435546875,-5.947196923828125,-7.71890615234375,-0.37918168792724605
1789635186057011200,1.92701123046875,-6.03323854598999,-7.930792999267577,-0.3778349494934082
1789635186067051300,1.93705126953125,-6.406285092163086,-8.12636934738159,-0.3687070556640625
1789635186077090300,1.94709033203125,-6.32697716217041,-7.754070989227294,-0.23642741394042968
1789635186087130400,1.95713037109375,-6.024110652160644,-7.276128482818603,-0.7170633972167968
1789635186097170200,1.967170166015625,-5.621286222839355,-6.932710182189941,-0.9056067779541015
1789635186107209200,1.977209228515625,-5.416881256103515,-6.719626234436035,-1.149815347290039
1789635186117249300,1.987249267578125,-5.604077898406982,-7.001693117523193,-1.0609306106567382
1789635186127289300,1.997289306640625,-6.453720212554932,-7.586327235412597,-1.0809820495605469
1789635186137328000,2.007328125,-5.869086094665527,-7.917325614929199,0.37289690856933594
1789635186147368200,2.0173681640625,-5.259013584136962,-8.674342252349852,0.982520506286621
1789635186157408300,2.027408203125,-5.863998416137695,-8.834454488372803,0.1158195053100586
1789635186167447300,2.037447265625,-6.386981841278076,-8.854655564880371,-1.5378256538391113
1789635186177487000,2.047487060546875,-6.329969914245605,-8.961347176361084,-1.9168577041625976
1789635186187527200,2.057527099609375,-6.426785443878173,-8.91870045928955,-1.6109984420776366
1789635186197566200,2.067566162109375,-6.5683426170349115,-9.08494783706665,-1.8957588020324705
1789635186207606300,2.077606201171875,-6.580912175750732,-8.994267449188232,-1.684769780731201
1789635186217646000,2.08764599609375,-6.64555562057495,-8.75993496170044,-1.4621090263366698
1789635186227686100,2.09768603515625,-6.704363198852539,-8.311620700836182,-1.1800421432495116
1789635186237725200,2.10772509765625,-6.791751559448242,-8.46619634552002,-1.9904794052124022
1789635186247765200,2.11776513671875,-6.614730274200439,-8.047211054992676,-1.472882933807373
1789635186257805000,2.12780517578125,-6.3046811592102046,-7.855824559783935,-1.5752350547790526
1789635186267844000,2.137843994140625,-6.552331393432617,-7.781005757904052,-2.0700866104125977
1789635186277884200,2.14788427734375,-5.894823762512207,-7.0449383850097655,-1.8679262077331542
1789635186287924200,2.15792431640625,-6.038924774932861,-7.422324421691894,-2.20251588973999
1789635186297963300,2.16796337890625,-6.024858840179443,-8.249820370483398,-2.9315502952575683
1789635186308003000,2.178003173828125,-6.449081446838378,-8.205078726959227,-3.318513138580322
1789635186318043100,2.188043212890625,-6.0425160774230955,-7.645583726501465,-3.1473277198791503
1789635186328082400,2.19808251953125,-5.6778492370605465,-9.083601098632812,-4.984428581237792
1789635186338122200,2.208122314453125,-6.328623175811767,-8.686612535858155,-3.4024598342895507
1789635186348162000,2.218162109375,-6.093692137908935,-8.40738876724243,-2.976591213989258
1789635186358201300,2.228201416015625,-6.745214264678955,-9.421632445526123,-3.197157041931152
1789635186368241400,2.238241455078125,-6.405686541748047,-9.674519995880127,-2.6415526191711423
1789635186378281200,2.24828125,-5.734561888885498,-9.330802420043945,-2.2001216880798338
1789635186388320300,2.2583203125,-5.480177962493896,-7.951293350982666,-1.605611488342285
1789635186398360300,2.2683603515625,-6.188263103485107,-5.698798501586913,-1.1233294914245604
1789635186408400400,2.278400390625,-7.72489165649414,-2.6692355758666992,-0.4079121078491211
1789635186418439200,2.288439208984375,-6.385784740447997,-2.300827795410156,-0.5035305366516113
1789635186428479200,2.298479248046875,-5.229235700988769,-3.12832374420166,-0.174926358795166
1789635186438519300,2.308519287109375,-5.671115544891357,-2.602946117401123,0.5048772750854492
1789635186448558300,2.318558349609375,-5.868936457061767,-3.2632968627929686,0.11043255157470702
1789635186458598100,2.32859814453125,-6.8764464431762695,-4.415356774139404,-0.4709095390319824
1789635186468638200,2.33863818359375,-8.028057441711425,-4.594323348236084,-0.9747393508911132
1789635186478678300,2.34867822265625,-7.119757186889648,-5.456984133911132,-1.568052449798584
1789635186488717300,2.35871728515625,-3.40260947189331,-7.4506059288024895,-2.356642621612549
1789635186498757000,2.368757080078125,-2.989609685516357,-8.42788911895752,-2.0450971305847165
1789635186508797200,2.378797119140625,-6.087556996154785,-8.2483239944458,-1.8596961395263671
1789635186518836200,2.388836181640625,-6.632686786651611,-7.085490175628662,-1.7446248222351073
1789635186528876300,2.398876220703125,-5.888688620758057,-5.219209981536865,-1.7805378471374511
1789635186538916000,2.408916015625,-6.148309863281249,-4.77568412399292,-2.5028385604858396
1789635186548955100,2.418955078125,-6.351218453979492,-5.730072760772705,-2.903119150543213
1789635186558995200,2.4289951171875,-5.773766941070556,-5.569661249542236,-2.880074959564209
1789635186569035300,2.43903515625,-5.525368518829345,-5.946299098205566,-2.839672806549072
1789635186579074000,2.449073974609375,-4.878485157775879,-7.276128482818603,-2.652476164245605
1789635186589114000,2.459114013671875,-4.537161783599854,-7.4217258712768555,-2.5279776779174803
1789635186599154200,2.469154296875,-4.801870704650879,-7.2258502479553215,-2.8254572341918944
1789635186609193200,2.479193115234375,-4.974402861785888,-6.694038204193115,-2.845059760284424
1789635186619233000,2.48923291015625,-5.050119489288329,-6.123470021057129,-2.4877251625061034
1789635186629273000,2.499273193359375,-4.915445645904541,-6.62685092010498,-2.66878666305542
1789635186639312400,2.5093125,-4.64789361038208,-6.931064168548583,-2.6695348510742187
1789635186649352200,2.519352294921875,-4.4850878974914545,-7.097461183929443,-2.811391299438476
1789635186659392000,2.52939208984375,-4.350713329315186,-7.145494854736327,-2.87932677154541
1789635186669431300,2.539431396484375,-4.3631332504272455,-7.165695931243896,-2.823212670135498
1789635186679471400,2.549471435546875,-4.131194964599609,-7.275679570007323,-2.658012755584717
1789635186689511400,2.559511474609375,-3.6954502624511716,-7.517643575286865,-2.5813983024597165
1789635186699551200,2.56955126953125,-3.4748844345092773,-7.85911658706665,-2.625092482757568
1789635186709590300,2.57959033203125,-3.4874539932250976,-8.238298274993896,-2.715323957824707
1789635186719630300,2.58963037109375,-3.656843760681152,-8.583212951660157,-2.673575066375732
1789635186729670400,2.59967041015625,-3.998616047668457,-8.930821105194092,-2.507178050994873
1789635186739709200,2.609709228515625,-4.427776695251465,-9.183110105133055,-2.316988656616211
1789635186749749200,2.619749267578125,-4.71163922958374,-9.331999520874023,-2.2137387100219725
1789635186759789300,2.629789306640625,-4.831050037384033,-9.378836090850829,-2.089988411712646
1789635186769828400,2.639828369140625,-4.9348985343933105,-9.393949488830566,-2.0655974822998044
1789635186779868200,2.6498681640625,-5.1399020515441896,-9.508871168518066,-2.1082441993713377
1789635186789908200,2.659908203125,-5.026327110290527,-9.520243626403808,-1.9295769004821777
1789635186799947300,2.669947265625,-4.944176065826416,-9.32751039276123,-1.6569371864318847
1789635186809987300,2.6799873046875,-4.983530755615234,-9.199570241546631,-1.5619173080444335
1789635186820027100,2.690027099609375,-4.880131171417236,-9.446771562957764,-1.7857751632690428
1789635186830066200,2.700066162109375,-4.648791436004639,-9.960926369476319,-2.2233155166625975
1789635186840106200,2.710106201171875,-4.5611038002014155,-10.247781655883788,-2.3784897117614743
1789635186850146300,2.720146240234375,-4.92891303024292,-10.182539660644531,-2.162413011932373
1789635186860185000,2.73018505859375,-5.154566536712646,-10.108319409179687,-1.696291876220703
1789635186870225200,2.74022509765625,-5.206041872406005,-10.046070166015625,-1.0211270080566406
1789635186880265200,2.75026513671875,-5.569361974334717,-9.90181951599121,-0.7145195579528808
1789635186890305300,2.76030517578125,-6.366182214355469,-9.655067107391357,-0.917428148651123
1789635186900344000,2.770343994140625,-6.902333748626709,-9.54403600540161,-1.2195464706420898
1789635186910384000,2.780384033203125,-6.864774710083007,-9.431807802581787,-1.1249755050659178
1789635186920424200,2.790424072265625,-6.496516567230224,-9.18685104522705,-0.5262754524230957
1789635186930463200,2.800463134765625,-6.147112762451171,-8.909123652648926,0.41898529052734373
1789635186940503000,2.8105029296875,-5.570858350372314,-8.82981572265625,1.0441711990356444
1789635186950543000,2.820543212890625,-4.83942974319458,-8.883685260009765,0.694617756652832
1789635186960582100,2.83058203125,-4.746355153656006,-9.088988052368164,0.11282675323486327
1789635186970622000,2.8406220703125,-4.899135147094726,-9.54403600540161,-0.3899555953979492
1789635186980662000,2.850662109375,-4.501548033905029,-9.898078575897216,-1.3347674255371094
1789635186990701300,2.860701416015625,-4.333804280090332,-10.03559553375244,-2.203712990570068
1789635187000741000,2.8707412109375,-4.152293866729736,-9.845705414581298,-2.3829788398742675
1789635187010781000,2.880781005859375,-3.074005294036865,-9.207351396942139,-2.411409984588623
1789635187020820200,2.8908203125,-1.8601450523376464,-8.45991156616211,-2.5631425148010254
1789635187030860300,2.9008603515625,-1.373822840118408,-7.880814039611816,-2.629880886077881
1789635187040900000,2.910900146484375,-1.8484733192443847,-7.677306898498535,-2.63676421585083
1789635187050940200,2.920940185546875,-3.01340206451416,-7.898770552062988,-2.59202257232666
1789635187060979200,2.930979248046875,-4.076128326416016,-8.440309040069579,-2.5986066268920895
1789635187071019300,2.941019287109375,-4.720916761016845,-8.851662812805175,-2.887556839752197
1789635187081059000,2.95105908203125,-5.454141019439697,-9.045144234466552,-3.272424756622314
1789635187091098000,2.96109814453125,-6.178985572052001,-9.054870678710937,-3.368492098236084
1789635187101138200,2.97113818359375,-6.307224998474121,-8.732401642608641,-3.264194688415527
1789635187111178200,2.98117822265625,-5.967398000335693,-8.3639938621521,-3.2181063064575195
1789635187121217000,2.991217041015625,-5.293729508209228,-8.303689907836914,-3.208679137420654
1789635187131257000,3.001257080078125,-4.781071077728271,-8.240542839050292,-2.9625252792358396
1789635187141297200,3.011297119140625,-4.563797277069091,-8.161534184265136,-2.7451018409729
1789635187151336200,3.021336181640625,-4.356100283050536,-8.366687339019775,-2.714126856994629
1789635187161376000,3.0313759765625,-4.191199643707275,-8.648454946899413,-2.864811923980713
1789635187171416000,3.041416015625,-3.944896147918701,-8.442403966522216,-3.0467712501525877
1789635187181455000,3.051455078125,-4.143016335296631,-8.03703569793701,-3.1591490905761717
1789635187191495200,3.0614951171875,-4.598064288330078,-7.979874133300781,-2.798372827911377
1789635187201535000,3.071534912109375,-4.525490050506591,-8.009352741241454,-1.9940707077026365
1789635187211574000,3.081573974609375,-4.468178848266601,-8.016086433410644,-1.022174471282959
1789635187221614000,3.091614013671875,-4.5875896560668945,-7.9165774269104,0.04833294601440429
1789635187231654100,3.101654052734375,-4.665700485229492,-7.620145333862304,0.8065466842651366
1789635187241694000,3.11169384765625,-4.817881928253174,-7.2641574745178215,0.9832686943054199
1789635187251733000,3.12173291015625,-5.10698177871704,-7.15641839981079,0.6521206771850585
1789635187261773000,3.13177294921875,-4.843769233703613,-7.523778717041015,0.026485855865478514
1789635187271813000,3.141813232421875,-4.248959758758545,-8.135646878814697,-0.8840589630126953
1789635187281852000,3.151851806640625,-4.161571398162842,-8.491485100555419,-1.6358382843017578
1789635187291892000,3.16189208984375,-4.414309310913086,-8.80347950439453,-1.9077298103332518
1789635187301932000,3.17193212890625,-5.143942266845703,-9.407716148376464,-1.8212392753601072
1789635187311971000,3.18197119140625,-5.934477727508544,-10.223540364074706,-2.1583727966308595
1789635187322011000,3.192010986328125,-6.123619658660888,-11.171045671081542,-3.1907226249694824
1789635187332051000,3.202051025390625,-5.440823272705078,-11.897087324523925,-4.078372890472412
1789635187342090200,3.21209033203125,-4.618863915252685,-12.473341736602782,-4.411765471649169
1789635187352130000,3.222130126953125,-4.649389986419678,-12.496984477996826,-4.055328699493408
1789635187362169900,3.232169921875,-5.1410991523742675,-11.610830588531494,-3.0816368118286133
1789635187372210000,3.2422099609375,-5.237765044403075,-10.432883371734619,-1.9961656341552734
1789635187382249200,3.252249267578125,-5.285349802398681,-9.60149684524536,-1.3696329872131348
1789635187392289300,3.262289306640625,-5.566219584655761,-8.863484183502196,-1.4595651870727537
1789635187402329000,3.2723291015625,-5.49035331954956,-7.961019795227051,-2.0183119995117185
1789635187412368100,3.2823681640625,-5.180753117370605,-7.258471245574951,-2.6032453926086423
1789635187422408200,3.292408203125,-5.1605520408630365,-6.96518154220581,-2.7959786262512205
1789635187432448300,3.3024482421875,-5.199757093048095,-6.785167504882812,-2.8966847335815427
1789635187442487000,3.312487060546875,-5.1617491416931145,-6.508637213134765,-3.116203098297119
1789635187452527000,3.322527099609375,-4.430919084930419,-6.144419285583496,-3.240851222229004
1789635187462567200,3.332567138671875,-3.4289456901550293,-5.73994884262085,-2.948309706878662
1789635187472606200,3.342606201171875,-2.539649411010742,-5.3591211410522455,-2.345719076538086
1789635187482646000,3.35264599609375,-2.0661960327148434,-5.318569350433349,-2.0151696098327636
1789635187492686000,3.36268603515625,-1.9972130973815916,-5.700145240020752,-2.4678233612060545
1789635187502725000,3.37272509765625,-2.5923218475341794,-6.330269189453125,-3.3637036949157713
1789635187512765200,3.38276513671875,-3.3750761528015136,-7.077858657836914,-4.2205286140441896
1789635187522805000,3.392804931640625,-4.062212029266357,-7.634510543823242,-4.598363563537597
1789635187532845000,3.402844970703125,-4.61587116317749,-7.701697827911376,-4.508880276489258
1789635187542884000,3.412884033203125,-4.931157594299316,-7.530811684417724,-4.050241020965576
1789635187552924200,3.422924072265625,-4.974552499389648,-7.229142275238036,-3.577086917877197
1789635187562964200,3.432964111328125,-5.067627088928222,-6.725162825775146,-3.130717945861816
1789635187573003000,3.4430029296875,-5.416731618499756,-6.158185945129394,-2.4980501571655274
1789635187583043000,3.45304296875,-5.655253958892822,-5.764040496826172,-1.823334201812744
1789635187593083100,3.463083251953125,-5.20963317489624,-5.496189186096191,-1.3467384338378905
1789635187603122000,3.473121826171875,-4.774187747955322,-5.109226342773437,-1.2677297790527342
1789635187613162000,3.483161865234375,-5.014505739593505,-4.704007711791992,-1.58331548538208
1789635187623202000,3.4932021484375,-5.593453628540039,-4.659714981079102,-2.0018518630981443
1789635187633241000,3.503240966796875,-6.202628313446045,-5.015104290008544,-2.0596119781494138
1789635187643281000,3.513281005859375,-6.476016215515136,-5.43947653427124,-1.7316063507080077
1789635187653321000,3.523321044921875,-6.184821438598632,-5.859359650421142,-1.3250409812927246
1789635187663360000,3.533360107421875,-5.841103862762451,-6.329670639038086,-0.9745897132873534
1789635187673400000,3.543400146484375,-5.987150164031982,-6.788309894561767,-0.7827543052673339
1789635187683440000,3.553440185546875,-6.657825904083252,-7.317727736663818,-0.8334814529418945
1789635187693480000,3.56347998046875,-7.303961077117919,-7.830386167144775,-1.0558429321289062
1789635187703519200,3.573519287109375,-7.275230657196045,-8.01818135986328,-1.3371616271972655
1789635187713559000,3.58355908203125,-6.252307997894286,-8.269273258972168,-1.5158289260864257
1789635187723599000,3.59359912109375,-5.321861377716064,-8.95147109451294,-1.5670049865722655
1789635187733638100,3.60363818359375,-4.152892417144775,-9.963170933532714,-1.806125877380371
1789635187743678200,3.61367822265625,-2.0952257278442383,-10.519822819519042,-2.557456285858154
1789635187753718000,3.623718017578125,-1.3497311859130858,-10.232219345092773,-3.978863883972168
1789635187763757000,3.633757080078125,-1.8052280517578123,-9.935338339233398,-5.15247161026001
1789635187773797000,3.643797119140625,-1.9761141952514647,-10.187178426361083,-4.534318669128417
1789635187783837200,3.653837158203125,-2.354547695159912,-11.112687005615234,-2.8405706321716306
1789635187793876200,3.663876220703125,-4.15588516921997,-12.190077752685546,-2.0772692153930663
1789635187803916000,3.673916015625,-6.750002667999267,-12.818854963684082,-2.3362919075012205
1789635187813956000,3.6839560546875,-8.070853796386718,-12.83262162322998,-2.3802853630065917
1789635187823996200,3.69399609375,-6.8505591377258295,-12.08533143005371,-0.6388029304504395
1789635187834035200,3.70403515625,-4.333804280090332,-11.042058056640624,1.883937431335449
1789635187844075300,3.7140751953125,-4.298489805603027,-9.962871658325195,2.405574118041992
1789635187854115000,3.724114990234375,-5.438578708648682,-9.268702814483643,1.175852290344238
1789635187864154000,3.734154052734375,-5.561281543731689,-8.945784865570069,-0.4565443290710449
1789635187874194200,3.744194091796875,-4.66734649887085,-8.70127702102661,-1.5879542510986326
1789635187884234200,3.754234130859375,-3.189525524139404,-8.335861992645263,-2.266860059356689
1789635187894273000,3.76427294921875,-2.04943662109375,-7.88440534210205,-2.9761423011779784
1789635187904313000,3.77431298828125,-1.9217957450866698,-7.703792754364013,-3.934122240447998
1789635187914353200,3.784353271484375,-2.103156520843506,-7.6288243148803705,-4.604648342895508
1789635187924392000,3.794391845703125,-1.9940707077026365,-7.884106066894531,-4.457404940795898
1789635187934432000,3.804431884765625,-1.0146925910949707,-8.365041325378417,-3.927538185882568
1789635187944472000,3.81447216796875,-0.4326023124694824,-8.564657888793946,-3.1688755348205566
1789635187954511000,3.824510986328125,-1.2868833923339842,-8.64426509399414,-2.355295883178711
1789635187964551200,3.83455126953125,-2.0241478660583496,-9.153481859588622,-1.8754080879211426
1789635187974591200,3.84459130859375,-2.2233155166625975,-9.708188456726074,-1.485602130126953
1789635187984631000,3.854631103515625,-2.532466806030273,-9.702202952575684,-1.0314520027160643
1789635187994670000,3.864670166015625,-2.8259061470031734,-9.296086495971679,-0.8255506599426269
1789635188004710100,3.874710205078125,-3.028515462493896,-8.955960222625732,-0.8349778289794921
1789635188014750200,3.884750244140625,-3.7184944534301754,-8.609100257110596,-1.001075569152832
1789635188024789000,3.8947890625,-4.471620513153076,-8.418013037109375,-1.066916114807129
1789635188034829000,3.9048291015625,-4.777928688049316,-8.57408505783081,-1.055394019317627
1789635188044869000,3.914869140625,-4.950311207580566,-9.008931934356688,-1.4836568412780762
1789635188054908200,3.924908203125,-5.354931288146973,-9.624391398620604,-2.0834043571472165
1789635188064948000,3.934947998046875,-5.347150132751464,-10.238803399658202,-2.447023734283447
1789635188074988000,3.944988037109375,-4.908113403320312,-10.65434702529907,-2.4061726684570313
1789635188085027300,3.95502734375,-4.221276802062988,-10.536133318328856,-1.8168997848510742
1789635188095067100,3.965067138671875,-3.1329625099182126,-9.904213717651366,-1.1385925270080566
1789635188105107000,3.97510693359375,-2.007089179229736,-9.002796792602538,-0.9409212524414062
1789635188115147000,3.98514697265625,-2.7726351600646972,-8.391078268432617,-1.1053729789733886
1789635188125186300,3.995186279296875,-3.67719447479248,-8.394370295715332,-1.0589853218078613
1789635188135226400,4.005226318359375,-3.0358477050781247,-8.549245215606689,-0.6625953094482422
1789635188145266200,4.01526611328125,-2.377591886138916,-8.61269155960083,-0.07945756759643555
1789635188155305200,4.02530517578125,-2.538901222991943,-9.017012364959717,0.5096656784057617
1789635188165345300,4.03534521484375,-1.831115357208252,-9.222165519714355,0.7429507026672363
1789635188175385300,4.04538525390625,-1.0896610305786132,-8.954613484191894,-0.2859574607849121
1789635188185424100,4.055424072265625,-1.6726491348266601,-9.020154754638671,-1.6020201858520506
1789635188195464200,4.065464111328125,-2.3740005836486815,-9.143605777740477,-2.0630536430358886
1789635188205504300,4.075504150390625,-2.664746447753906,-9.117718472290038,-1.8136077575683593
1789635188215543300,4.085543212890625,-2.6219500930786133,-9.233687615203857,-1.915361328125
1789635188225583000,4.0955830078125,-2.2307973968505856,-9.394847314453125,-2.4622867698669433
1789635188235623200,4.105623046875,-2.1471499763488766,-9.610175826263427,-3.21122297668457
1789635188245662200,4.115662109375,-2.5321675308227536,-9.899275676727294,-3.322254078674316
1789635188255702300,4.125702392578125,-2.23453833694458,-10.286837070465086,-2.884414450073242
1789635188265742000,4.1357421875,-2.315641918182373,-10.38140803604126,-2.3509563926696777
1789635188275782100,4.1457822265625,-1.8593968643188477,-10.39337904434204,-1.5863082374572752
1789635188285821200,4.1558212890625,-0.06209960556030273,-10.349984139251708,-0.6325181510925293
1789635188295861200,4.165861328125,0.049829322052001954,-10.073603485107421,-0.1452981132507324
1789635188305901300,4.1759013671875,-1.4294880287170408,-9.424774835205078,-0.25947160491943355
1789635188315940000,4.185940185546875,-2.373102758026123,-8.952368920135498,0.16460136413574217
1789635188325980200,4.195980224609375,-2.2168810997009274,-8.842385281372069,0.8565256439208984
1789635188336020200,4.206020263671875,-1.251868193054199,-9.070732264709472,0.881664761352539
1789635188346059000,4.21605908203125,-0.8667010009765624,-9.616610243225097,0.11537059249877929
1789635188356099000,4.22609912109375,-1.4890437950134277,-10.496180078124999,-1.3741221153259278
1789635188366139100,4.23613916015625,-2.3892636192321777,-11.148749668121336,-2.816179702758789
1789635188376178200,4.24617822265625,-2.907458641052246,-11.164461616516112,-3.1387983764648437
1789635188386218000,4.256218017578125,-2.426523382568359,-10.902745447540283,-2.5616461387634275
1789635188396258000,4.266258056640625,-1.0187328063964842,-10.265289255523681,-1.8411410766601561
1789635188406298000,4.276298095703125,-0.0076315177917480465,-9.073874654388428,-1.4845546669006346
1789635188416337200,4.286337158203125,0.01331774673461914,-8.091204510498047,-1.566107160949707
1789635188426377000,4.296376953125,-0.4382885414123535,-7.975983555603027,-2.082656169128418
1789635188436417000,4.3064169921875,-0.9415198028564452,-8.371775017547607,-2.4958055931091305
1789635188446456300,4.316456298828125,-1.4217068733215332,-9.161263014984131,-2.4281693962097166
1789635188456496000,4.32649609375,-1.8462287551879881,-9.956736516571045,-2.009782656097412
1789635188466536200,4.3365361328125,-1.5894506271362303,-10.357166744232178,-1.4797662635803221
1789635188476575200,4.3465751953125,-0.6042366439819336,-10.485256533050537,-1.4930840103149414
1789635188486615300,4.356615234375,-0.2587234169006348,-10.072107109069824,-2.101061594390869
1789635188496655000,4.366655029296875,-1.2482768905639647,-9.448267938995361,-2.7494413314819335
1789635188506694100,4.376694091796875,-2.7904420349121093,-9.532962822723388,-3.140444390106201
1789635188516734200,4.386734130859375,-3.7771523941040037,-10.29791025314331,-2.795529713439941
1789635188526774300,4.396774169921875,-4.265270257568359,-11.330110443878173,-1.8748095375061034
1789635188536814300,4.406814453125,-4.044255516815185,-12.28345161743164,-1.3775637802124023
1789635188546853000,4.41685302734375,-3.202543995666504,-12.328342898559569,-2.00439570236206
1789635188556893200,4.42689306640625,-2.759317413330078,-11.277737282562255,-3.1178491119384764
1789635188566933200,4.436933349609375,-3.0092122116088866,-9.931896674346923,-3.727921622467041
1789635188576972300,4.44697216796875,-3.8284780921936035,-8.972569996643067,-3.2154128295898436
1789635188587012400,4.457012451171875,-4.5410523612976075,-8.464251056671142,-1.6148890197753905
1789635188597052200,4.46705224609375,-4.505737886810302,-8.387786241149902,0.4474164352416992
1789635188607091200,4.47709130859375,-4.192247106933594,-8.40275000152588,1.6864157943725584
1789635188617131300,4.48713134765625,-4.096778315734863,-8.428188394165039,1.2012906829833985
1789635188627171300,4.49717138671875,-4.411017283630371,-8.300248242950438,-0.23298574905395505
1789635188637210000,4.507210205078125,-4.684105910491943,-8.45886410293579,-1.348384447479248
1789635188647250200,4.517250244140625,-4.461445156097412,-8.809764283752441,-1.8567033874511718
1789635188657290200,4.527290283203125,-4.200177899932861,-8.870666788482666,-2.1556793197631836
1789635188667330300,4.537330322265625,-4.685452648925781,-8.334066341400145,-1.7981950843811034
1789635188677369000,4.547369140625,-5.559485892486572,-8.303390632629394,-1.1662754837036131
1789635188687409200,4.5574091796875,-5.967248362731933,-8.627356044769286,-0.2902969512939453
1789635188697449200,4.56744921875,-5.279513935852051,-8.88712692489624,0.7671919944763184
1789635188707488000,4.577488037109375,-3.9362171669006347,-8.888772938537597,1.3600561805725098
1789635188717528000,4.587528076171875,-3.338414939880371,-8.749909242248535,1.7706617652893066
1789635188727568100,4.597568115234375,-3.300107713317871,-8.437316287994385,1.90892691116333
1789635188737607200,4.607607177734375,-3.150021196746826,-8.219294299316406,1.9054852462768554
1789635188747647200,4.617647216796875,-3.53683440246582,-8.377461246490478,1.6416741508483885
1789635188757687000,4.62768701171875,-4.493467603302002,-8.547449564361571,1.5976806953430174
1789635188767726000,4.63772607421875,-5.127033217620849,-8.65623610229492,1.7408838821411132
1789635188777766100,4.64776611328125,-5.204994409179688,-8.876801930236816,1.9680337646484374
1789635188787806200,4.65780615234375,-5.0285716743469235,-9.245808261108397,1.8372504989624023
1789635188797845200,4.66784521484375,-4.586691830444336,-9.813982242584228,1.0293570762634277
1789635188807885000,4.677885009765625,-4.2411786033630365,-10.270526571655273,-0.2937386161804199
1789635188817925000,4.687925048828125,-4.241926791381836,-10.402058025360107,-1.6666636306762694
1789635188827965200,4.697965087890625,-4.40503177947998,-10.287136345672607,-2.6972178077697753
1789635188838004200,4.708004150390625,-4.553023369598389,-10.198101971435547,-2.9981390289306638
1789635188848044000,4.7180439453125,-4.9084126785278315,-10.196306320190429,-2.512864279937744
1789635188858084000,4.728083984375,-5.160103128051757,-10.02377416305542,-1.552639776611328
1789635188868123100,4.738123046875,-5.449053340911865,-9.660603698730467,-0.3491045295715332
1789635188878163200,4.7481630859375,-5.79696076965332,-9.328258580780028,0.6672340751647949
1789635188888203300,4.758203369140625,-5.757306804656982,-9.192237998962401,1.3688847991943358
1789635188898242300,4.7682421875,-6.038326224517822,-10.10652375793457,1.0956465347290039
1789635188908282400,4.778282470703125,-6.096235977172851,-10.273070410919189,0.42541970748901364
1789635188918322200,4.788322265625,-5.837362922668457,-9.67856021118164,-0.025438392639160156
1789635188928362200,4.7983623046875,-6.168361302185058,-8.832958112335204,0.023792378997802732
1789635188938401300,4.8084013671875,-6.636876639556885,-7.773224602508544,0.5306149429321289
1789635188948441300,4.81844140625,-7.504475466156006,-6.951414882659912,1.354070676422119
1789635188958481200,4.828481201171875,-6.870909851837157,-6.583904927825928,1.7289128738403319
1789635188968521200,4.838521240234375,-6.494421640777587,-6.391470969390869,1.8755577255249023
1789635188978561300,4.848561279296875,-6.511330690002441,-6.546196251678467,1.4531307701110838
1789635188988601000,4.85860107421875,-6.051195058441162,-6.799831990051269,0.8538321670532226
1789635188998640000,4.86864013671875,-5.288492192077636,-7.008277172088623,0.3000233955383301
1789635189008680200,4.87868017578125,-4.6541783897399895,-6.845172183990478,-0.5294178421020508
1789635189018720300,4.88872021484375,-4.498555281829834,-6.2018801254272455,-1.325938806915283
1789635189028759000,4.898759033203125,-5.024082546234131,-5.364208819580078,-1.7886182777404784
1789635189038799000,4.908799072265625,-5.856217260742187,-4.836137715911865,-1.6531962463378904
1789635189048839200,4.918839111328125,-6.547692627716064,-4.74321276397705,-1.1095628318786621
1789635189058878200,4.928878173828125,-6.796091049957275,-4.879382983398437,-0.2953846298217773
1789635189068918000,4.93891796875,-7.039102518463134,-5.0388966690063475,0.8373720306396484
1789635189078958000,4.9489580078125,-7.352593298339843,-4.911255792999268,2.25997672958374
1789635189088998100,4.958998046875,-7.2614639976501465,-4.984129306030273,3.131466133880615
1789635189099037200,4.969037109375,-6.866271086120605,-5.01151298751831,2.688389189147949
1789635189109077000,4.979076904296875,-6.954407634735107,-4.912003981018066,1.5765817932128905
1789635189119117000,4.989116943359375,-6.772897221374511,-4.538957434844971,0.05835866546630859
1789635189129156000,4.999156005859375,-6.89515114364624,-3.9074867469787598,-0.6845920372009276
1789635189139196200,5.009196044921875,-7.2052002586364745,-3.4093431640625,-0.1744774459838867
1789635189149236200,5.019236328125,-7.32281541519165,-3.4295442405700682,0.41404724960327144
1789635189159275000,5.02927490234375,-7.3100962188720695,-3.9553707801818847,0.7091326042175292
1789635189169315000,5.039315185546875,-7.381622993469238,-4.703409161376952,1.1997943069458008
1789635189179355100,5.049355224609375,-7.61640439376831,-5.262006336212158,1.6970400642395018
1789635189189395200,5.059395263671875,-7.867496292877197,-5.4427685615539545,1.7021277427673338
1789635189199434000,5.06943408203125,-8.246229067993164,-5.363610269165039,1.3251906188964844
1789635189209474000,5.07947412109375,-8.72761323928833,-5.367500846862793,0.9443629173278808
1789635189219514000,5.08951416015625,-9.651176529693602,-5.3673512092590325,1.1791443176269532
1789635189229553000,5.099552978515625,-8.82338130569458,-5.181501305389404,1.5574281799316405
1789635189239593000,5.109593017578125,-8.05633894882202,-5.174917250823975,1.6733973228454588
1789635189249633000,5.119633056640625,-9.526378768157958,-5.442020373535156,1.7847277000427244
1789635189259672000,5.129672119140625,-10.607959368133544,-6.126462773132324,2.0724808120727536
1789635189269712000,5.1397119140625,-10.434978298187255,-6.673986765289306,2.517951958465576
1789635189279752000,5.149751953125,-9.9215716796875,-6.926275765228271,2.3540987823486326
1789635189289791200,5.159791259765625,-9.900772052764893,-6.731148329925537,1.7152958518981933
1789635189299831000,5.1698310546875,-10.20842696609497,-5.849782843780517,1.1363479629516602
1789635189309871000,5.17987109375,-10.612298858642578,-4.758176524353027,0.9424176284790039
1789635189319910100,5.18991015625,-10.434529385375976,-4.435408213043212,1.0874164665222168
1789635189329950200,5.1999501953125,-9.419986431884766,-4.567687854766845,1.0613795234680174
1789635189339990000,5.209989990234375,-8.4666452583313,-4.677222580718994,0.6830956611633301
1789635189350030000,5.220030029296875,-7.277624858856201,-4.3725604194641114,-0.15233108062744138
1789635189360069000,5.230069091796875,-6.864325797271728,-3.558531855010986,-0.7166144844055176
1789635189370109200,5.240109130859375,-7.397933492279052,-3.059939359283447,-0.5698199951171875
1789635189380149200,5.250149169921875,-7.072322066497803,-3.071760729980469,0.03366846084594726
1789635189390188000,5.26018798828125,-6.168660577392577,-2.9192800117492674,0.7369651985168456
1789635189400228000,5.27022802734375,-5.651812294006347,-2.6849475242614744,1.3105261337280272
1789635189410268200,5.28026806640625,-5.842749876403809,-2.373701308441162,1.593490842437744
1789635189420307200,5.29030712890625,-6.411821683502197,-2.3410803108215332,1.5017629913330077
1789635189430347300,5.30034716796875,-7.631817066955566,-2.7834090675354,1.396867031097412
1789635189440387000,5.310386962890625,-8.149263900756836,-3.3999159950256344,1.020229182434082
1789635189450426000,5.320426025390625,-8.236352986145018,-4.356249920654297,0.2859574607849121
1789635189460466200,5.330466064453125,-7.988852389526366,-5.087528890228271,-0.758513013458252
1789635189470506200,5.34050634765625,-9.310302068328857,-5.571756175994873,-0.7176619476318359
1789635189480546000,5.350546142578125,-10.675894840240478,-6.369623879241943,-0.0383072265625
1789635189490585000,5.360585205078125,-11.928062308502197,-7.199813304901123,-0.004638765716552734
1789635189500625200,5.370625244140625,-13.86676710281372,-7.940369805908203,0.08125321884155273
1789635189510665200,5.380665283203125,-14.628871418762206,-8.397363047790527,1.0657190139770507
1789635189520704000,5.3907041015625,-13.344980778503418,-7.873032884216308,2.5637410652160644
1789635189530744000,5.400744140625,-10.709413663482666,-6.547094077301025,2.9870658462524413
1789635189540784000,5.4107841796875,-8.54221224822998,-4.749497543334961,2.5776573623657226
1789635189550823000,5.420822998046875,-7.225999885559082,-3.1202433135986327,2.2254104431152344
1789635189560863000,5.430863037109375,-6.682965021514892,-2.422932080078125,1.7067665084838866
1789635189570903000,5.440903076171875,-6.541258210754394,-3.070413991546631,0.9325415466308593
1789635189580942000,5.450942138671875,-6.836493202972412,-4.6736312782287595,0.009576806640625
1789635189590982100,5.460982177734375,-7.649025391387939,-6.240037714385986,-0.9428665412902831
1789635189601022000,5.47102197265625,-8.811260659790038,-6.909665991210937,-1.3356652511596678
1789635189611062000,5.48106201171875,-9.139415924835205,-6.591835720825195,-1.3027449783325196
1789635189621101000,5.49110107421875,-9.09123261642456,-5.821202061462402,-0.8922890312194823
1789635189631141000,5.50114111328125,-8.881291058349609,-4.860528645324707,-0.203656778717041
1789635189641181000,5.511180908203125,-7.963713272094726,-3.6728549842834473,0.03561374969482422
1789635189651220000,5.521219970703125,-7.12499450302124,-2.6636989845275876,0.027084406280517576
1789635189661260000,5.531260009765625,-7.3849150207519525,-2.414103461456299,0.354940396118164
1789635189671300000,5.541300048828125,-7.84026224899292,-3.08343246307373,0.1954267105102539
1789635189681339100,5.551339111328125,-8.995165274810791,-3.662081076812744,-0.24031799163818357
1789635189691379000,5.56137890625,-10.172663578796387,-4.3610383239746096,-0.1771709228515625
1789635189701419000,5.5714189453125,-10.186130963134765,-5.093364756774902,-0.1610100616455078
1789635189711458300,5.581458251953125,-9.328258580780028,-5.376628740692138,-0.8949825080871582
1789635189721498000,5.591498046875,-8.185326563262938,-4.94193150177002,-1.6261118400573729
1789635189731538200,5.6015380859375,-7.740603604888916,-4.579359587860107,-1.152957736968994
1789635189741578000,5.611577880859375,-7.17617056350708,-4.9260699157714845,-0.6602011077880859
1789635189751617300,5.6216171875,-6.730400141906738,-5.599289495086669,-0.9714473236083984
1789635189761657000,5.631656982421875,-6.987926457977294,-6.374861195373534,-1.8353052101135252
1789635189771697200,5.641697265625,-7.911190473175048,-6.976404362487792,-2.7932851493835447
1789635189781736200,5.651736083984375,-8.976759849548339,-6.729502316284179,-3.86229619064331
1789635189791776300,5.6617763671875,-10.000580334472655,-5.34969397201538,-4.427776695251465
1789635189801816000,5.671816162109375,-9.937882178497313,-4.067898258209229,-3.3539772506713863
1789635189811855000,5.681855224609375,-8.969128331756592,-3.8813001663208007,-0.9415198028564452
1789635189821895200,5.691895263671875,-7.879317663574218,-3.993378731536865,1.218798282623291
1789635189831935200,5.701935302734375,-7.9098437347412105,-4.058321451568603,2.3478140029907224
1789635189841974000,5.71197412109375,-8.033444395446777,-3.8648400299072265,1.5931915672302246
1789635189852014000,5.72201416015625,-8.815001599884033,-2.1402666465759275,-0.6373065544128418
1789635189862054100,5.73205419921875,-10.459967778015136,-0.589272883605957,-1.2394482719421387
1789635189872094200,5.74209423828125,-10.3942768699646,-0.3591302490234375,-0.3511994560241699
1789635189882133000,5.752133056640625,-9.880870251464843,-0.6263830093383789,0.9454103805541991
1789635189892173000,5.762173095703125,-8.865579109954833,-1.5505448501586914,1.665017617034912
1789635189902213000,5.772213134765625,-8.046313229370117,-2.3341969810485836,1.1968015548706055
1789635189912252200,5.782252197265625,-8.500164081573486,-2.104353621673584,0.8563760063171386
1789635189922292000,5.7922919921875,-9.09123261642456,-2.0356699615478515,1.0313023651123046
1789635189932332000,5.80233203125,-9.146748167419434,-2.2973861305236816,0.5707178207397461
1789635189942371000,5.81237109375,-9.83163947982788,-1.294664547729492,-0.32396541213989255
1789635189952411100,5.8224111328125,-11.109095703125,-0.33414076919555663,0.11522095489501953
1789635189962449700,5.83244970703125,-10.181043284606933,-1.3964181182861328,0.7650970680236816
1789635189972489700,5.84248974609375,-9.067589875030517,-2.6198551666259764,0.9253589416503906
1789635189982529000,5.852529052734375,-8.035240046691895,-3.1657331451416013,0.780809016418457
1789635189992568800,5.86256884765625,-7.265803488159179,-2.723105113220215,0.6242880828857421
1789635190002609000,5.87260888671875,-8.059182063293457,-1.450586930847168,0.08005611801147461
1789635190012648000,5.88264794921875,-8.728062152099609,-0.7333738960266113,-0.6509235763549804
1789635190022688000,5.89268798828125,-9.037811991882323,-1.2312182037353514,-0.7000047103881836
1789635190032728000,5.90272802734375,-9.070283351898192,-2.1302409271240235,0.08649053497314453
1789635190042766800,5.912766845703125,-8.760084599304198,-2.7308862686157225,1.229572190093994
1789635190052807000,5.922806884765625,-8.902689235687255,-2.674472891998291,1.8242320274353025
1789635190062847000,5.932846923828125,-8.476222064971923,-2.1944354591369626,1.6148890197753905
1789635190072885800,5.9428857421875,-7.375936764526367,-1.862239978790283,0.6425438705444335
1789635190082925800,5.95292578125,-8.04361975250244,-2.18321263885498,-0.12958616485595703
1789635190092966000,5.9629658203125,-10.268730920410155,-3.0174422798156737,-0.579696076965332
1789635190103006000,5.973005859375,-10.17056865234375,-3.2519244049072262,-1.2312182037353514
1789635190113044700,5.983044677734375,-9.24416224746704,-2.493561029052734,-1.609502066040039
1789635190123084800,5.993084716796875,-9.820566297149657,-1.9883844787597655,-0.907851342010498
1789635190133124900,6.003124755859375,-10.549002152252196,-1.9256863227844236,0.006284779357910156
1789635190143164000,6.013163818359375,-9.633220017242431,-2.2622212936401365,0.5023334358215332
1789635190153203700,6.02320361328125,-8.114847251892089,-2.7729344352722167,0.4107552223205566
1789635190163243800,6.033243896484375,-7.946504947662353,-2.301725621032715,-0.43679216537475585
1789635190173282800,6.04328271484375,-9.056965605163574,-0.9017162002563476,-1.524507907104492
1789635190183323000,6.053322998046875,-10.720935758972168,0.29224224014282224,-1.4867992309570313
1789635190193363000,6.063363037109375,-11.101015272521972,0.38307226562499996,0.14634557647705076
1789635190203401700,6.073401611328125,-9.919626390838623,-0.4604349067687988,1.7649755363464354
1789635190213441800,6.08344189453125,-8.781632414245605,-1.5828665725708007,2.033425397491455
1789635190223481900,6.09348193359375,-9.3730002243042,-2.070984436035156,0.8979752601623535
1789635190233522000,6.10352197265625,-10.775403846740723,-1.8885761970520019,-0.14320318679809568
1789635190243560700,6.113560791015625,-10.758943710327149,-1.5279495719909668,-0.43978491744995113
1789635190253600800,6.123600830078125,-10.59209778213501,-1.458816999053955,0.5565022483825683
1789635190263640800,6.133640869140625,-9.92830537185669,-1.8963573524475097,1.474229672241211
1789635190273679600,6.1436796875,-8.27974789123535,-1.7679682884216308,0.9931447761535644
1789635190283719700,6.1537197265625,-7.889493020629883,-0.6856395004272461,0.39743747558593745
1789635190293759700,6.163759765625,-8.502109370422362,0.37065234451293944,0.5508160194396973
1789635190303799000,6.173799072265625,-8.724919762420654,0.6810007347106933,1.3548188644409178
1789635190313838800,6.1838388671875,-7.803451398468017,0.04563946914672851,1.818845073699951
1789635190323878700,6.193878662109375,-7.147440143585205,-0.712424631500244,1.2952630981445312
1789635190333918000,6.20391796875,-8.10137986755371,-0.9344868354797363,0.38576574249267576
1789635190343958000,6.2139580078125,-9.641300447845458,-0.8873509902954101,0.009127893829345703
1789635190353997800,6.223997802734375,-10.162787496948242,-0.7662941688537597,0.47749359359741206
1789635190364037600,6.23403759765625,-9.937133990478515,-0.9956886154174804,1.126172605895996
1789635190374077000,6.244076904296875,-10.485256533050537,-1.5415665939331054,1.5843629486083983
1789635190384117000,6.254116943359375,-10.705223810577392,-2.111236951446533,1.6680103691101074
1789635190394157000,6.264156982421875,-10.298508803558349,-2.212242333984375,1.2623428253173827
1789635190404195800,6.27419580078125,-9.865008665466307,-2.015468885040283,0.8004115425109862
1789635190414236000,6.28423583984375,-9.06639277420044,-1.7754501686096191,0.5078700271606446
1789635190424276000,6.29427587890625,-8.450185121917723,-1.7034744812011717,0.04249707946777344
1789635190434314800,6.304314697265625,-8.590844469451904,-1.772307778930664,-0.28655601119995117
1789635190444354800,6.314354736328125,-8.67613790359497,-1.8601450523376464,-0.13332710494995118
1789635190454395000,6.324394775390625,-8.506149585723877,-1.7796400215148924,0.14350246200561523
1789635190464435000,6.33443505859375,-9.418938968658447,-1.848323681640625,0.31169512863159177
1789635190474474000,6.344473876953125,-9.680954412841796,-2.5145102935791015,0.8438064476013183
1789635190484513800,6.354513671875,-8.117690366363524,-3.573794890594482,1.3093290328979492
1789635190494553900,6.364553955078125,-7.104943064117431,-4.343231449127197,0.5135562561035156
1789635190504593000,6.374593017578125,-7.804648499298096,-4.25225178604126,-0.5117606048583984
1789635190514633000,6.384633056640625,-9.577405191040038,-3.4653076278686523,-0.6227917068481444
1789635190524672800,6.3946728515625,-11.40852054824829,-2.8903999542236325,0.21996727752685546
1789635190534711800,6.4047119140625,-11.131242068481445,-3.4042554855346676,2.3024738090515133
1789635190544751900,6.414751953125,-8.449885846710204,-4.23938295211792,3.7535096527099605
1789635190554792000,6.4247919921875,-6.978499288940429,-4.502595497131347,2.7570728492736816
1789635190564830700,6.434830810546875,-7.867496292877197,-3.8036382499694823,1.2888286811828613
1789635190574870800,6.444870849609375,-9.509918631744384,-2.3397335723876953,0.8149263900756836
1789635190584910800,6.454910888671875,-10.251971508789062,-1.541716231536865,0.8738836059570312
1789635190594949600,6.46494970703125,-10.173561404418944,-2.1046528968811034,1.3268366325378418
1789635190604989700,6.47498974609375,-8.398111235809326,-3.370287749481201,2.176329309082031
1789635190615029800,6.48502978515625,-7.09282241821289,-4.444386469268799,2.366817978668213
1789635190625069800,6.49506982421875,-8.195352282714843,-4.698321482849121,1.7459715606689452
1789635190635108900,6.50510888671875,-8.551040866851807,-4.331410078430175,1.3398551040649413
1789635190645148700,6.515148681640625,-8.602965115356445,-3.83072265625,1.1520599113464354
1789635190655188700,6.525188720703125,-9.803507610321045,-3.7366006034851074,1.207276187133789
1789635190665227800,6.535227783203125,-9.439588957977294,-4.630685285949707,1.9812018737792967
1789635190675267800,6.545267822265625,-7.742249618530273,-5.915773027038574,2.934243772125244
1789635190685307600,6.5553076171875,-8.666411459350586,-6.450727460479736,3.1329625099182126
1789635190695347000,6.565346923828125,-10.581922425079345,-6.763170777130126,2.7301380805969235
1789635190705386800,6.57538671875,-10.871620825958251,-6.871358764648437,2.6924294044494625
1789635190715426800,6.5854267578125,-8.208969304656982,-6.16701456375122,2.0412065528869627
1789635190725466600,6.595466552734375,-7.496395035552978,-5.055356805419922,0.7254431030273437
1789635190735506000,6.605505859375,-10.23416463394165,-4.436306038665771,-0.5253776268005371
1789635190745546000,6.6155458984375,-10.008960040283203,-4.313154290771484,-0.5437830520629883
1789635190755585800,6.625585693359375,-5.408950463104247,-4.813392800140381,0.19826982498168944
1789635190765624800,6.635624755859375,-3.9769185951232906,-5.625326438140869,0.3389291725158691
1789635190775665000,6.645664794921875,-6.463147381591797,-6.411821683502197,0.03067570877075195
1789635190785705000,6.655705078125,-8.793902697753905,-7.305607090759277,0.4510077377319336
1789635190795744000,6.665743896484375,-9.143456140136719,-8.44629454421997,1.5804723709106445
1789635190805783800,6.67578369140625,-8.698284268951415,-9.428366137695312,1.8644845428466796
1789635190815824000,6.685823974609375,-7.575553327941894,-8.845826946258544,0.6349123527526855
1789635190825863000,6.69586279296875,-8.128015361022948,-6.966677918243408,-0.21113865890502928
1789635190835903000,6.705903076171875,-8.992771073150633,-5.425859512329101,-0.23612813873291014
1789635190845942800,6.71594287109375,-7.914781775665283,-4.9251720901489255,-0.30960020217895506
1789635190855981800,6.72598193359375,-5.404610972595215,-4.855440966796874,-0.16849194183349608
1789635190866022000,6.73602197265625,-4.235941287231445,-4.747402616882324,0.18300678939819334
1789635190876062000,6.74606201171875,-4.0915409996032714,-4.416553874969482,0.5807435401916503
1789635190886101800,6.756101806640625,-4.499752382659912,-4.378545923614502,0.9504980590820312
1789635190896140800,6.766140869140625,-5.501276864624023,-5.128978506469727,1.3446435073852538
1789635190906180900,6.776180908203125,-6.887968538665771,-6.865073985290527,2.0341735855102536
1789635190916221000,6.786220947265625,-6.72890376586914,-8.794351610565185,2.028188081359863
1789635190926259700,6.796259765625,-5.850082118988037,-9.228300661468506,1.3631985702514648
1789635190936299800,6.8062998046875,-6.9050272254943845,-8.116942178344726,0.9308955329895019
1789635190946339800,6.81633984375,-9.137320998382569,-7.590068175506591,1.0579378585815429
1789635190956379000,6.82637890625,-10.145279897308349,-8.113799788665771,1.3395558288574219
1789635190966419000,6.8364189453125,-8.91914937210083,-8.555679632568358,1.5312415992736816
1789635190976459000,6.846458984375,-7.315483172607421,-8.746916490173339,1.0778396598815918
1789635190986498000,6.856498046875,-6.509535038757324,-8.238298274993896,0.46402620925903315
1789635190996538000,6.8665380859375,-7.00977354812622,-7.794323504638672,0.02902969512939453
1789635191006578200,6.876578125,-6.946327204132079,-7.723096005249023,-0.3173813575744629
1789635191016618000,6.886617919921875,-6.047454118347168,-7.373392925262451,-0.25094226150512694
1789635191026657000,6.896656982421875,-5.560533355712891,-6.92088881149292,0.6539163284301758
1789635191036697000,6.906697021484375,-5.371241786956787,-7.1416042770385735,1.394323191833496
1789635191046737200,6.916737060546875,-4.734084870147705,-7.397484579467773,1.1777975791931152
1789635191056776000,6.92677587890625,-4.669591062927246,-7.756016278076172,0.6021417175292968
1789635191066816000,6.93681591796875,-5.764190134429931,-8.403498189544678,-0.11477204208374023
1789635191076856000,6.94685595703125,-6.794594673919677,-8.884134172821044,-0.9184756118774413
1789635191086895000,6.95689501953125,-7.827543052673339,-9.507674067687988,-1.0902595809936524
1789635191096935000,6.966934814453125,-8.484302495574951,-10.416572872924805,-0.7050923889160156
1789635191106975000,6.97697509765625,-7.8261963142395015,-10.473135887145995,-0.36795886764526364
1789635191117014300,6.98701416015625,-6.79923343963623,-9.493308857727051,-0.33414076919555663
1789635191127054000,6.99705419921875,-6.08456424407959,-8.472630762481689,-0.3172317199707031
1789635191137094100,7.00709423828125,-6.101024380493164,-7.871237232971191,-0.22565350646972654
1789635191147134000,7.017134033203125,-6.502801346588134,-7.451354116821289,0.1409586227416992
1789635191157173200,7.02717333984375,-6.481552806854248,-7.401075881958008,0.584185205078125
1789635191167213300,7.03721337890625,-5.946299098205566,-7.89098939666748,0.6150105514526367
1789635191177253000,7.047253173828125,-5.555146401977539,-8.746916490173339,-0.053719899749755856
1789635191187292200,7.057292236328125,-5.0577510070800775,-8.865579109954833,-1.288978318786621
1789635191197332200,7.067332275390625,-5.489156218719482,-8.707412162780761,-2.0759224769592284
1789635191207372300,7.077372314453125,-6.640467942047119,-8.99576382522583,-1.507299582672119
1789635191217411000,7.0874111328125,-6.276250014495849,-8.895057717895508,0.061650692749023434
1789635191227451100,7.097451171875,-4.9275662918090815,-8.06950705795288,0.7950245887756348
1789635191237491200,7.1074912109375,-4.359541947937012,-7.170633972167968,1.1561001266479491
1789635191247530000,7.117530029296875,-3.160795104217529,-6.10970336151123,1.2367547950744628
1789635191257570000,7.127570068359375,-2.829946362304687,-5.496488461303711,1.4062942001342773
1789635191267610000,7.137610107421875,-4.079869266510009,-6.477213316345215,1.8441338287353515
1789635191277650200,7.147650146484375,-4.8035167182922365,-7.975983555603027,1.7533038032531738
1789635191287689000,7.15768896484375,-5.083488674926757,-8.448688745880126,1.3353659759521483
1789635191297729000,7.16772900390625,-4.340837247467041,-8.496273503875733,2.1143793411254883
1789635191307769000,7.17776904296875,-7.108534366607666,-8.323442071533202,2.9378350746154784
1789635191317808000,7.18780810546875,-10.841992580413818,-8.448988021087645,0.9693523971557617
1789635191327848200,7.19784814453125,-8.507645961761474,-8.40125362548828,0.2214636535644531
1789635191337888000,7.207887939453125,-7.33523533630371,-8.39466957092285,0.8506897773742675
1789635191347927000,7.217927001953125,-6.348824252319336,-8.396016309356689,1.0615291610717772
1789635191357967000,7.227967041015625,-5.1325698089599605,-8.175300843811035,0.6509235763549804
1789635191368007200,7.238007080078125,-4.6830584472656245,-7.7042416671752925,0.3507505432128906
1789635191378046000,7.2480458984375,-4.484040434265136,-7.352144385528564,0.5415384880065918
1789635191388086000,7.2580859375,-4.98592495727539,-7.495048297119141,1.139639990234375
1789635191398126000,7.2681259765625,-6.057779113006592,-8.691101663970947,1.8091186294555663
1789635191408166100,7.278166259765625,-5.00477929534912,-9.447819026184082,2.704550050354004
1789635191418205000,7.288204833984375,-4.979939453125,-9.278129983520508,5.165340444183349
1789635191428245000,7.298244873046875,-7.719953615570068,-9.984120198059081,2.3789386245727537
1789635191438285000,7.30828515625,-9.037512716674804,-9.320178150177002,0.06254851837158203
1789635191448324000,7.318323974609375,-8.885031998443603,-7.580940281677246,-0.3193266464233398
1789635191458364000,7.328364013671875,-7.935132489776611,-7.431601953125,-0.4038718925476074
1789635191468404000,7.338404052734375,-7.461080561065673,-8.21585263442993,0.589272883605957
1789635191478443300,7.348443359375,-6.460304267120361,-8.46619634552002,2.0968717414855957
1789635191488483000,7.358483154296875,-6.94602792892456,-8.693196590423584,3.0741549316406247
1789635191498523000,7.36852294921875,-7.512406259155273,-8.117241453552246,3.7517140014648436
1789635191508562200,7.378562255859375,-7.319523387908935,-7.070825690460205,4.2700586608886715
1789635191518602200,7.388602294921875,-7.224054596710205,-7.048978600311279,3.660734338378906
1789635191528642300,7.398642333984375,-7.475146495819091,-7.317727736663818,3.26883345413208
1789635191538681900,7.408681884765625,-7.3549875,-7.454945419311523,3.284246127319336
1789635191548721200,7.41872119140625,-6.354211206054687,-7.097461183929443,3.8857892944335934
1789635191558761200,7.42876123046875,-5.250334603118896,-6.977302188110351,4.108001136016846
1789635191568801300,7.43880126953125,-4.204816665649414,-7.216871991729736,3.251475492095947
1789635191578840000,7.448840087890625,-4.122964896392822,-7.179013677978515,1.22583125
1789635191588880100,7.458880126953125,-4.796783026123046,-6.470329986572265,-0.6054337448120117
1789635191598920200,7.468920166015625,-5.201852019500732,-5.133467634582519,-2.1315876655578614
1789635191608959200,7.478959228515625,-5.4239142234802245,-3.937563905334472,-2.5076269638061524
1789635191618999000,7.4889990234375,-5.616048906707763,-3.504363042449951,-3.2640450508117675
1789635191629039000,7.4990390625,-6.076633451080322,-3.7116111236572262,-2.752434083557129
1789635191639078100,7.509078125,-7.051522439575195,-4.263175331115723,-0.25902269210815426
1789635191649118200,7.5191181640625,-8.871863889312744,-4.830750762176513,0.7727285858154297
1789635191659158000,7.529157958984375,-10.888230599975586,-4.674828379058837,0.22520459365844725
1789635191669198000,7.539197998046875,-12.537685906219481,-5.119102424621582,1.1457751319885254
1789635191679237000,7.549237060546875,-11.962927870178222,-6.361393811035156,3.245041075134277
1789635191689277200,7.559277099609375,-10.366444275665282,-7.829039428710937,3.627365152740478
1789635191699317000,7.56931689453125,-9.694571434783935,-8.438363751220702,2.176329309082031
1789635191709356000,7.57935595703125,-10.074202035522461,-7.523928354644775,0.2685994987487793
1789635191719396000,7.58939599609375,-10.448744957733153,-6.317400355529784,-0.6259340965270995
1789635191729436200,7.599436279296875,-9.927108271026611,-6.370521704864502,0.28999767608642574
1789635191739475000,7.609474853515625,-8.683619783782959,-6.958148574829101,1.2921207084655761
1789635191749515000,7.619514892578125,-7.833079644012451,-6.910264541625976,1.031003089904785
1789635191759555000,7.62955517578125,-7.591414913940429,-6.243329741668701,0.12464812393188476
1789635191769594000,7.639593994140625,-7.6744637840270995,-5.5276130828857415,-0.6542156036376953
1789635191779634000,7.649634033203125,-7.701398552703857,-4.976048875427246,-0.8017582809448242
1789635191789674000,7.659674072265625,-7.417835293579101,-4.5696331436157225,-0.12644377517700195
1789635191799713000,7.669713134765625,-8.045714678955077,-4.136581918334961,1.022773021697998
1789635191809753000,7.679753173828125,-9.28217019882202,-3.7084687339782714,2.0877438476562498
1789635191819793000,7.68979296875,-9.996540119171142,-3.4023101966857907,3.0328549530029294
1789635191829833000,7.6998330078125,-10.075698411560058,-4.107851498413086,2.4947581298828125
1789635191839872000,7.7098720703125,-9.58892728652954,-4.602104503631591,1.4680945304870605
1789635191849912000,7.719912109375,-8.170213165283203,-4.461594793701171,1.4429554130554199
1789635191859951900,7.729951904296875,-6.724265000152587,-3.915716815185547,2.5384523101806638
1789635191869991200,7.7399912109375,-8.533233992004394,-3.727771984863281,3.948637088012695
1789635191880031200,7.75003125,-8.553435068511963,-4.961234752655029,3.6809354148864744
1789635191890071000,7.760071044921875,-7.565527608489989,-5.671564457702637,2.964919480895996
1789635191900110000,7.770110107421875,-8.162132734680176,-4.862773209381103,2.15163910446167
1789635191910150100,7.780150146484375,-9.35354733581543,-4.050540296173096,1.4411597618103027
1789635191920190200,7.790190185546875,-8.829666085052489,-4.085555495452881,0.4674678741455078
1789635191930230000,7.80022998046875,-7.981969059753418,-4.241328240966797,-0.38232407760620113
1789635191940269000,7.81026904296875,-7.508366043853759,-4.544942938995361,-0.7709329345703124
1789635191950309000,7.82030908203125,-8.367585164642334,-4.215889848327636,-0.7917325614929199
1789635191960349200,7.83034912109375,-10.368988114929198,-3.7951089065551757,-0.843956085205078
1789635191970388500,7.840388427734375,-11.260977870941161,-4.005050464630127,-0.7612064903259277
1789635191980428300,7.85042822265625,-10.579378585815428,-4.5617023506164545,-0.6476315490722656
1789635191990468400,7.86046826171875,-9.047239160919188,-5.194669414520264,-0.47061026382446286
1789635192000507400,7.87050732421875,-7.170933247375488,-4.658817155456543,-0.11013327636718749
1789635192010547500,7.88054736328125,-6.91430475692749,-2.5047838493347165,0.12315174789428711
1789635192020587300,7.890587158203125,-8.898050469970702,-0.8411129707336426,0.19692308654785154
1789635192030626300,7.900626220703125,-11.309460454559325,-1.3652934967041015,-0.32576106338500976
1789635192040666400,7.910666259765625,-11.75418341293335,-3.3596634796142575,-0.910395181274414
1789635192050706400,7.92070654296875,-9.497349073028564,-5.327846881866455,-1.300500414276123
1789635192060745200,7.9307451171875,-6.250811621856689,-4.998344878387451,-1.4851532173156738
1789635192070785300,7.940785400390625,-5.778555344390869,-2.4377462028503416,-1.3684358863830566
1789635192080825300,7.950825439453125,-7.120206099700927,-0.7905354606628417,-0.4026747917175293
1789635192090865400,7.960865478515625,-7.631966704559326,-1.2324153045654296,0.31319150466918944
1789635192100904200,7.970904296875,-7.383568282318115,-2.9478607940673824,0.023942016601562498
1789635192110944300,7.9809443359375,-6.553378856658935,-3.7873277511596677,-1.2629413757324217
1789635192120984300,7.990984375,-6.71633420715332,-2.2752397651672362,-2.7582699501037595
1789635192131023400,8.0010234375,-7.704989855194091,-1.0579378585815429,-2.5899276458740235
1789635192141063200,8.011063232421876,-7.979574858093261,-1.3657424095153807,-1.5759832427978515
1789635192151103200,8.021103271484375,-8.850615349578858,-2.093579714202881,-0.8315361640930176
1789635192161142300,8.031142333984375,-9.65357073135376,-2.9472622436523435,-0.72140288772583
1789635192171182300,8.041182373046874,-9.39769042892456,-3.3726819511413573,-1.0895113929748534
1789635192181222100,8.05122216796875,-8.756194021606445,-1.8707693222045898,-1.5336358009338378
1789635192191262200,8.06126220703125,-9.437494031524658,-0.3242646873474121,-1.6582839248657226
1789635192201301200,8.07130126953125,-10.262446141052246,-0.5032312614440918,-1.0048165092468262
1789635192211341300,8.08134130859375,-9.65282254333496,-1.5572785423278808,-0.4569932418823242
1789635192221381000,8.091381103515625,-9.14869345626831,-1.7736545173645017,-1.2279261764526366
1789635192231420200,8.101420166015625,-10.212317543792723,-0.8557774559020995,-2.2240637046813965
1789635192241460200,8.111460205078124,-11.297489446258544,0.2539350135803223,-2.5565584602355957
1789635192251500300,8.121500244140625,-10.578929673004149,0.6584054565429687,-1.0790367607116698
1789635192261539300,8.131539306640626,-8.776993648529052,-0.2642600082397461,0.9543886367797851
1789635192271579400,8.141579345703125,-8.199542135620117,-1.7877204521179197,1.3091793952941895
1789635192281619200,8.151619140625,-9.03377177658081,-1.360505093383789,-0.40940848388671874
1789635192291658500,8.161658447265625,-10.383054049682617,-0.12045827102661132,-1.9370587806701658
1789635192301698300,8.1716982421875,-10.933870069122314,0.5168482833862305,-1.9940707077026365
1789635192311738400,8.18173828125,-9.584438158416747,0.6521206771850585,0.02319382858276367
1789635192321777400,8.19177734375,-6.820481979370117,-0.029628245544433593,1.9482816009521484
1789635192331817500,8.2018173828125,-5.640888748931885,-0.27667992935180663,1.35975690536499
1789635192341857300,8.211857177734375,-6.664858871459961,0.369006330871582,-0.02454056701660156
1789635192351897300,8.2218974609375,-7.948899149322509,0.7161655715942382,-0.6820481979370117
1789635192361936400,8.231936279296875,-8.15240629043579,0.7070376777648926,-1.3088801200866698
1789635192371976400,8.2419765625,-9.090783703613281,0.47629649276733393,-0.9171288734436035
1789635192382016300,8.252016357421875,-9.14884309387207,-0.7652467056274413,0.27578210372924805
1789635192392055300,8.26205517578125,-7.468712078857421,-1.9629460861206054,0.7255927406311035
1789635192402095400,8.272095458984374,-6.591386808013915,-1.9087772735595703,0.012120645904541014
1789635192412135400,8.282135498046875,-8.482207569122314,-0.853532891845703,-1.6374842979431152
1789635192422174200,8.29217431640625,-11.551424459838866,-0.14215572357177733,-2.25369195022583
1789635192432214300,8.30221435546875,-10.730213290405272,-0.9638158058166504,-1.032948378753662
1789635192442254300,8.31225439453125,-8.067711406707764,-2.0005051246643064,0.10579378585815429
1789635192452294400,8.32229443359375,-8.831611373901367,-2.4334067123413083,0.060902504730224606
1789635192462333200,8.332333251953125,-10.684573821258544,-2.244264781188965,-1.0275614250183105
1789635192472373200,8.342373291015624,-10.826879182434082,-1.6493056686401366,-1.6617255897521972
1789635192482413300,8.352413330078125,-9.636512044525146,-1.5566799919128418,-1.101931314086914
1789635192492452400,8.362452392578126,-8.63124662246704,-1.8523638969421385,-0.8307879760742187
1789635192502492200,8.3724921875,-9.534908111572266,-2.3536498695373536,-0.49949032135009763
1789635192512532200,8.3825322265625,-10.055796610260009,-2.8522423652648925,0.2620154441833496
1789635192522571300,8.3925712890625,-8.841188180541991,-3.312228359222412,1.0791863983154297
1789635192532611300,8.402611328125,-7.806893063354492,-3.4911949333190915,1.1290157203674316
1789635192542651400,8.4126513671875,-7.874229985046386,-3.3047464790344234,0.5609913764953613
1789635192552690200,8.422690185546875,-8.285883032989501,-2.8275521606445313,0.09861118087768554
1789635192562730200,8.432730224609376,-8.03119983139038,-2.2891560623168945,-0.4100070343017578
1789635192572770300,8.442770263671875,-8.322394608306885,-1.8562544746398926,-0.7908347358703612
1789635192582809000,8.45280908203125,-9.644293199920654,-2.0034978767395017,-0.5382464607238769
1789635192592849200,8.46284912109375,-9.971999552154541,-2.8363807792663573,0.5850830307006836
1789635192602889200,8.47288916015625,-8.980800064849854,-4.310011901092529,1.4116811538696288
1789635192612929300,8.48292919921875,-8.944138851928711,-5.715707550811767,0.8726865051269531
1789635192622968300,8.49296826171875,-10.478822116088866,-6.034286009216308,-0.14649521408081054
1789635192633008000,8.503008056640626,-11.704653366088866,-5.68847350692749,-0.25962124252319335
1789635192643048200,8.513048095703125,-11.884218490600585,-5.176862539672851,0.09247603912353515
1789635192653087500,8.52308740234375,-11.135282283782958,-4.955099610900879,0.642244595336914
1789635192663127300,8.533127197265625,-9.272144479370116,-4.980388365936279,0.9642647186279296
1789635192673167000,8.5431669921875,-7.5718123878479,-4.874594580078124,0.7866448829650878
1789635192683206400,8.553206298828124,-7.108534366607666,-4.301332920074462,0.49096097793579097
1789635192693246500,8.56324658203125,-7.756165915679931,-3.649212242889404,0.17552490921020505
1789635192703286500,8.57328662109375,-9.08539674987793,-3.4166754066467284,0.4586392555236816
1789635192713325300,8.5833251953125,-9.021202217864989,-3.921851956939697,1.3103764961242674
1789635192723365400,8.593365478515626,-6.594229922485352,-4.7472529792785645,1.5881038887023924
1789635192733405400,8.603405517578125,-5.264101262664795,-5.354033462524414,1.4429554130554199
1789635192743445500,8.613445556640626,-5.5273138076782224,-5.636100345611572,1.057339308166504
1789635192753484300,8.623484375,-6.169708040618896,-5.801599535369872,0.7173626724243164
1789635192763524400,8.6335244140625,-6.485443384552002,-6.0522425216674804,0.40072950286865233
1789635192773564400,8.643564453125,-6.74850629196167,-6.683563571929931,0.20260931549072264
1789635192783603200,8.653603271484375,-6.977601463317871,-7.315782447814941,-0.07885901718139648
1789635192793643300,8.663643310546876,-7.257573419952392,-7.5716627502441405,-0.10624269866943359
1789635192803683300,8.673683349609375,-7.502829452514648,-7.483226926422119,-0.19946692581176756
1789635192813722400,8.683722412109375,-7.668179004669189,-7.114669508361816,-0.29658173065185545
1789635192823762400,8.693762451171875,-7.710825721740722,-7.03581049118042,-0.7627028663635254
1789635192833802200,8.70380224609375,-8.550741591644286,-7.594557303619385,-1.09804073638916
1789635192843841300,8.71384130859375,-9.548674771118163,-8.581417300415039,-0.8084919731140137
1789635192853881300,8.72388134765625,-9.176226775360107,-9.69127940750122,-0.4064157318115234
1789635192863921400,8.73392138671875,-8.885031998443603,-10.228628042602539,0.41045594711303707
1789635192873961200,8.743961181640625,-9.050980101013183,-10.020781410980224,1.5601216567993164
1789635192884000300,8.754000244140625,-7.9210665550231925,-8.915707707214356,1.9194015434265135
1789635192894040300,8.764040283203125,-6.97820001373291,-7.668029367065429,1.8270751419067381
1789635192904080400,8.774080322265625,-7.256675594329834,-7.084293074798584,1.9636942741394041
1789635192914119200,8.784119140625,-7.38656103439331,-7.24635059967041,1.5530886894226072
1789635192924159200,8.7941591796875,-6.706308487701415,-7.381622993469238,0.856824919128418
1789635192934199300,8.80419921875,-6.254702199554443,-7.640496047973633,0.41539398803710936
1789635192944238000,8.814238037109375,-6.1741971687316894,-7.853131082916259,0.2780266677856445
1789635192954278100,8.824278076171876,-5.838260748291015,-7.921216192626953,0.33309330596923825
1789635192964318700,8.834318603515625,-5.451148267364502,-7.838765872955322,0.3302501914978027
1789635192974357500,8.844357421875,-5.464166738891601,-7.803152123260498,0.30256723480224607
1789635192984397600,8.8543974609375,-5.313930584716797,-7.5148004608154295,0.4451718711853027
1789635192994437600,8.864437744140625,-5.247192213439941,-7.116465159606933,0.7038952880859375
1789635193004476700,8.8744765625,-5.150376683807373,-6.759130561828613,0.7656956184387207
1789635193014516500,8.8845166015625,-5.089174903869629,-6.436062975311279,0.723946726989746
1789635193024556500,8.894556640625,-4.938639474487305,-6.23779315032959,0.48976387710571284
1789635193034596600,8.9045966796875,-5.321711740112304,-7.122600301361084,0.06464344482421874
1789635193044635600,8.9146357421875,-5.492148970794678,-8.001870861053467,-0.4165910888671875
1789635193054675500,8.924675537109374,-5.991190379333496,-8.054543297576904,-1.1590928787231445
1789635193064715500,8.934715576171875,-7.236474517822265,-7.8149734939575195,-1.520766967010498
1789635193074754800,8.9447548828125,-8.105868995666503,-7.652616693878174,-0.7341220840454101
1789635193084795000,8.954794921875,-7.4895117057800284,-7.614159829711913,0.6233902572631835
1789635193094834700,8.964834716796876,-6.24422756729126,-7.869291944122314,1.5460557220458984
1789635193104873700,8.974873779296875,-5.167734645843505,-7.811531829071044,1.466448516845703
1789635193114913800,8.984913818359376,-5.076455707550049,-7.7233952804565424,0.6159083770751953
1789635193124953900,8.994953857421875,-5.323357753753662,-8.001122673034667,-0.32995091629028317
1789635193134992600,9.00499267578125,-5.587617761993408,-8.687659999084472,-0.7471405555725097
1789635193145032700,9.01503271484375,-5.59255580291748,-9.650428341674804,-0.9112930068969726
1789635193155072800,9.02507275390625,-6.178387021636962,-10.41253265762329,-0.7706336593627929
1789635193165112800,9.03511279296875,-7.3651628570556635,-10.651653548431396,0.03232172241210937
1789635193175151600,9.045151611328125,-8.182633086395263,-10.362254422760008,1.1367968757629394
1789635193185191700,9.055191650390626,-8.572588681793212,-9.725845693969726,1.983596075439453
1789635193195231700,9.065231689453125,-8.731803092193603,-8.891915328216552,2.131138752746582
1789635193205270800,9.075270751953125,-8.545354637908934,-8.059331700897216,1.507299582672119
1789635193215310600,9.085310546875,-8.156296868133545,-7.859864775085449,0.5389946487426758
1789635193225350700,9.0953505859375,-7.947402773284912,-8.412476445770263,0.023792378997802732
1789635193235389700,9.1053896484375,-7.931391549682616,-9.170091633605956,0.1135749412536621
1789635193245429800,9.1154296875,-7.710526446533203,-9.592817864227294,0.5380968231201172
1789635193255469600,9.125469482421876,-7.841160074615478,-9.524583116912842,1.1751041023254394
1789635193265508600,9.135508544921874,-8.359055821228027,-8.760683149719238,1.7322049011230467
1789635193275548700,9.145548583984375,-8.605060041809082,-7.4685624412536615,1.8480244064331053
1789635193285588700,9.155588623046874,-8.550292678833006,-6.410474945068359,1.9776105712890624
1789635193295628800,9.16562890625,-7.879616938781738,-5.878812538909912,2.099864493560791
1789635193305667600,9.17566748046875,-7.137414424133301,-5.231031352233886,2.188749230194092
1789635193315707600,9.185707763671875,-6.45461803817749,-4.32811805114746,1.9301754508972166
1789635193325747700,9.195747802734376,-5.885396593475342,-3.8147114326477047,1.3795090690612792
1789635193335786500,9.205786376953125,-5.341763179016113,-4.285620971679688,0.4122515983581543
1789635193345826600,9.21582666015625,-5.233126278686523,-4.7846623802185055,-0.5032312614440918
1789635193355866600,9.22586669921875,-5.453392831420898,-4.876689506530761,-0.9660603698730468
1789635193365905700,9.23590576171875,-5.70164161605835,-5.0382981185913085,-1.3193547523498534
1789635193375945500,9.245945556640624,-6.3426891105651855,-5.470601155853271,-1.1953051788330078
1789635193385985500,9.255985595703125,-7.30336252670288,-5.842600238800048,-0.7246949150085449
1789635193396024600,9.266024658203126,-8.38958189239502,-5.95677373046875,-0.08005611801147461
1789635193406064600,9.276064697265625,-9.418789331054686,-5.806387938690185,0.6221931564331055
1789635193416104400,9.2861044921875,-10.217105947113037,-6.069151570892334,1.4559738845825194
1789635193426143700,9.296143798828124,-9.961524919891357,-6.509235763549804,1.9301754508972166
1789635193436183800,9.306183837890625,-9.204657920074462,-6.696133130645752,1.697488977050781
1789635193446223600,9.3162236328125,-9.124751439666747,-6.640767217254639,1.3537714012145996
1789635193456263700,9.326263671875,-9.41729295501709,-6.921487361907959,1.2428899368286133
1789635193466302700,9.336302734375,-8.82308203048706,-7.327603818511962,1.5875053382873534
1789635193476342800,9.3463427734375,-8.173654830169678,-7.64184278640747,1.8276736923217773
1789635193486382800,9.3563828125,-8.091204510498047,-6.859836669158935,1.797895809173584
1789635193496421600,9.366421630859374,-9.418938968658447,-5.38156678161621,1.7966987083435058
1789635193506461700,9.376461669921875,-10.960505562591552,-4.894047468566894,2.270900274658203
1789635193516501800,9.386501708984374,-10.387842453002929,-5.374084901428223,2.2252608055114744
1789635193526540800,9.396540771484375,-8.886229099273681,-5.5415293800354,1.6358382843017578
1789635193536580600,9.40658056640625,-8.464251056671142,-5.379771130371093,0.5686228942871093
1789635193546620700,9.41662060546875,-9.275286869049072,-5.0376995681762695,-0.2672527603149414
1789635193556659700,9.42665966796875,-9.82535470046997,-4.908711953735351,-0.5283703788757323
1789635193566699800,9.43669970703125,-8.986037380981445,-5.239859970855712,-0.8494926765441894
1789635193576739800,9.44673974609375,-7.850587243652344,-5.709871684265137,-0.9041104019165038
1789635193586779600,9.456779541015624,-6.948571768188476,-5.514145698547363,-0.7820061172485351
1789635193596818700,9.466818603515625,-6.56968935546875,-4.262726418304443,-0.6437409713745117
1789635193606858800,9.476858642578126,-6.624755993652343,-2.703951499938965,-0.5234323379516601
1789635193616898800,9.48689892578125,-7.170484334564208,-2.007837367248535,-0.513256980895996
1789635193626937600,9.4969375,-7.348702720642089,-2.045695680999756,-0.8749310691833495
1789635193636977700,9.506977783203125,-8.718036432647704,-2.428468671417236,-0.9584288520812988
1789635193647017700,9.517017822265625,-10.24763201828003,-3.597587269592285,-0.7595604766845703
1789635193657056500,9.527056396484374,-10.477774652862548,-5.131073432922363,-0.6579565437316894
1789635193667096600,9.5370966796875,-10.098293689727782,-6.208763455200195,-0.45878889312744137
1789635193677136600,9.54713671875,-9.595062428283692,-6.414664797973632,-0.27518355331420896
1789635193687175700,9.55717578125,-9.118017747497557,-5.626523538970947,-0.42182840499877927
1789635193697215500,9.567215576171876,-8.78477480392456,-4.1192239562988275,-0.5738602104187012
1789635193707255600,9.577255615234375,-8.603713303375244,-2.9213749382019043,-0.8845078758239746
1789635193717295600,9.587295654296875,-8.084770093536376,-3.0538042175292968,-1.4606126502990722
1789635193727334700,9.597334716796874,-7.175272737884521,-3.792864342498779,-2.23438869934082
1789635193737374700,9.607374755859375,-6.717830583190918,-3.356221814727783,-2.621501180267334
1789635193747414500,9.61741455078125,-7.367108145904541,-2.035969236755371,-1.9773112960815429
1789635193757453600,9.62745361328125,-8.276455863952636,-2.169445979309082,-1.1385925270080566
1789635193767493600,9.63749365234375,-8.82921717224121,-3.510647821807861,-1.0883142921447753
1789635193777533700,9.64753369140625,-9.677213472747802,-4.261828592681884,-1.1746551895141601
1789635193787572700,9.65757275390625,-9.956137966156005,-3.5326445495605467,-1.5631144088745117
1789635193797612500,9.667612548828124,-9.5890769241333,-1.6165350334167479,-1.8972551780700682
1789635193807652600,9.677652587890625,-9.260622383880614,-1.3989619575500487,-1.2262801628112792
1789635193817691600,9.687691650390626,-7.746439471435546,-2.9204771125793454,-0.6498761131286621
1789635193827731700,9.697731689453125,-6.081272216796875,-3.7024832298278807,-0.785896694946289
1789635193837771800,9.707771728515626,-6.757634185791015,-2.233790148925781,-1.3594576301574706
1789635193847810800,9.717810791015625,-8.636184663391113,-0.8360252922058105,-1.0503063407897948
1789635193857851000,9.727850830078125,-8.374318856811524,-1.334917063140869,-0.7116764434814453
1789635193867890700,9.737890625,-7.665036614990234,-2.1535843933105467,-0.9950900650024413
1789635193877930800,9.7479306640625,-7.492803733062743,-2.3153426429748536,-1.477970612335205
1789635193887969800,9.7579697265625,-7.944110746002197,-1.941398271179199,-1.454926421356201
1789635193898009900,9.768009765625,-8.10901138534546,-1.3711293632507324,-1.0975918235778808
1789635193908049700,9.778049560546876,-7.9192709037780755,-0.6423942329406738,-0.723946726989746
1789635193918088700,9.788088623046875,-8.413823184204102,-0.7595604766845703,-0.34237083740234375
1789635193928128800,9.798128662109375,-7.59725078048706,-1.4462474403381347,-0.04399345550537109
1789635193938168800,9.8081689453125,-6.683413934326172,-1.293467446899414,-0.8994716361999511
1789635193948207600,9.81820751953125,-7.720851441192626,-0.5758054992675781,-1.599925259399414
1789635193958247700,9.82824755859375,-8.930821105194092,-0.3806780639648437,-1.9598036964416503
1789635193968287200,9.838287353515625,-9.731681560516357,-0.015861585998535155,-2.1389199081420895
1789635193978326000,9.848325927734376,-10.238204849243164,-0.25213936233520506,-1.8359037605285644
1789635193988366000,9.858365966796875,-10.254964260864257,-1.8454805671691894,-0.5648819541931152
1789635193998406100,9.86840625,-8.64486364440918,-3.0693665283203124,-0.7827543052673339
1789635194008446200,9.8784462890625,-8.566004627227782,-2.494159579467773,-2.204461178588867
1789635194018485000,9.888485107421875,-9.535207386779785,-0.4930559043884277,-3.5845687980651855
1789635194028525000,9.898525146484374,-10.576984384155272,0.013617021942138671,-2.993500263214111
1789635194038565000,9.908565185546875,-10.264690705108642,-1.3034931663513183,-2.268954985809326
1789635194048604200,9.918604248046876,-9.992799179077148,-2.020706201171875,-1.5840636734008788
1789635194058644000,9.92864404296875,-9.280973097991943,-1.5206173294067382,-1.1972504676818847
1789635194068684000,9.93868408203125,-7.794922055053711,-0.4709095390319824,-1.3385083656311034
1789635194078723000,9.94872314453125,-7.319373750305175,0.6166565650939941,-2.151040554046631
1789635194088763100,9.95876318359375,-7.2140288772583006,0.5776011505126952,-2.0000562118530274
1789635194098803200,9.96880322265625,-6.163722536468505,-0.4112041351318359,-0.953191535949707
1789635194108842200,9.97884228515625,-5.89961216583252,-1.0266635993957518,-0.39115269622802734
1789635194118882300,9.98888232421875,-7.448361364746093,-1.071405242919922,-0.7959224143981933
1789635194128922000,9.998922119140625,-9.048136986541747,-0.814028564453125,-1.4589666366577148
1789635194138962200,10.008962158203126,-9.88296517791748,-0.8149263900756836,-1.3756184913635252
1789635194149001200,10.019001220703124,-10.02990930480957,-1.2026374214172362,-0.47016135101318357
1789635194159041300,10.029041259765625,-9.58354033279419,-2.067393133544922,0.47270519027709956
1789635194169081000,10.0390810546875,-8.441356503295898,-2.9686604209899903,0.5732616600036621
1789635194179120000,10.0491201171875,-7.626879026031494,-3.0205846694946286,-0.2193687271118164
1789635194189160200,10.05916015625,-9.111583330535888,-2.314295179748535,-1.0012252067565917
1789635194199200300,10.0692001953125,-10.829423021697997,-1.6919523857116698,-1.3608043685913085
1789635194209239300,10.0792392578125,-9.574412438964844,-1.905784521484375,-1.243638124847412
1789635194219279400,10.089279296875,-7.202207506561279,-2.6397569679260253,-0.7166144844055176
1789635194229319200,10.099319091796875,-6.8864721626281735,-2.9288568183898924,-0.4709095390319824
1789635194239358200,10.109358154296874,-8.74616830215454,-2.476502342224121,-0.2998737579345703
1789635194249398300,10.119398193359375,-10.677840129089354,-2.19638074798584,0.3941454483032226
1789635194259438300,10.129438232421874,-8.406939854431151,-2.4320599739074704,1.1233294914245604
1789635194269477000,10.13947705078125,-4.72435842590332,-2.8262054222106934,0.4121019607543945
1789635194279517200,10.14951708984375,-7.1023992248535155,-3.5776854682922363,-0.8662520881652832
1789635194289557200,10.15955712890625,-11.973851415252685,-4.281131843566894,-1.1749544647216796
1789635194299597300,10.169597412109376,-11.244368096923827,-4.8403275688171385,0.05057751007080078
1789635194309636000,10.179635986328124,-6.69718059387207,-5.29881718673706,1.2086229255676268
1789635194319676200,10.18967626953125,-5.635801070404052,-5.006724584197998,1.415422093963623
1789635194329716200,10.19971630859375,-6.861632320404052,-4.319139794921875,1.0103531005859374
1789635194339755000,10.209755126953125,-8.030451643371581,-3.666420567321777,0.38845921936035155
1789635194349795000,10.219795166015626,-8.24173993988037,-3.4395699600219722,-0.40282442932128903
1789635194359835100,10.229835205078125,-7.606528311920165,-3.9372646301269527,-1.0630255371093749
1789635194369874200,10.239874267578125,-6.328473538208008,-4.793939911651611,-1.3229460548400878
1789635194379914200,10.249914306640624,-6.558765810394287,-5.797708957672119,-1.186177285003662
1789635194389954000,10.2599541015625,-9.541043253326416,-6.89515114364624,-0.6290764862060546
1789635194399993000,10.2699931640625,-10.567108302307128,-7.678354361724853,0.26231471939086914
1789635194410033200,10.280033203125,-8.08955849685669,-7.92331111907959,1.0672153900146484
1789635194420073200,10.2900732421875,-7.567622534942626,-7.889044107818603,1.0763432838439941
1789635194430113000,10.300113037109375,-10.095600212860107,-7.669525743103027,0.5955576629638671
1789635194440152000,10.310152099609375,-10.982801565551757,-6.848164936065674,0.4542997650146484
1789635194450192100,10.320192138671874,-9.17413184890747,-5.893177748870849,0.6470329986572265
1789635194460232200,10.330232177734375,-7.742099980926513,-5.711068785095215,-0.03067570877075195
1789635194470271200,10.340271240234374,-9.515006310272216,-6.130203713226318,-0.6679822631835937
1789635194480311000,10.35031103515625,-11.378443389892578,-6.930615255737305,-0.6444891593933105
1789635194490351000,10.36035107421875,-8.724321212005615,-7.653813794708252,0.2919429649353027
1789635194500390400,10.370390380859375,-5.006275671386718,-7.723844193267822,1.2609960868835448
1789635194510430200,10.38043017578125,-4.208258330535888,-7.32281541519165,1.4130278923034667
1789635194520470000,10.390469970703125,-6.42244595336914,-7.257124507141113,0.9503484214782715
1789635194530509300,10.40050927734375,-9.02703808441162,-7.849390142822265,0.577152237701416
1789635194540549400,10.41054931640625,-8.297854041290282,-8.398410511016845,1.2879308555603026
1789635194550589200,10.420589111328125,-4.368071291351318,-8.296806578063965,1.7494132255554198
1789635194560629200,10.430629150390626,-4.044255516815185,-8.391976094055176,1.2095207511901855
1789635194570668300,10.440668212890625,-7.4320508659362785,-9.343820891571044,0.0076315177917480465
1789635194580708400,10.450708251953126,-9.976039767456054,-10.175357055664062,-0.5264250900268554
1789635194590748200,10.460748046875,-10.35507181777954,-10.082731378936767,0.1197100830078125
1789635194600787200,10.470787109375,-9.513210659027099,-9.911396322631836,0.263661457824707
1789635194610827300,10.4808271484375,-7.915081050872803,-8.802581678771972,0.35464112091064454
1789635194620867300,10.490867431640625,-7.115118421173095,-7.611316715240478,0.3666121292114258
1789635194630906000,10.500906005859376,-7.171681435394286,-7.116165884399414,-0.12719196319580078
1789635194640946200,10.5109462890625,-6.814346837615966,-7.076063006591797,-0.6525695899963379
1789635194650986200,10.520986328125,-6.040870063781738,-6.880785933685302,-0.8167220413208007
1789635194661025300,10.531025390625,-5.593603266143798,-6.6976295066833496,-0.6066308456420898
1789635194671065000,10.541065185546875,-5.757905355072021,-6.874950067138672,-0.09950900650024413
1789635194681105200,10.551105224609374,-6.1553428306579585,-7.196521277618408,0.7682394577026367
1789635194691144200,10.561144287109375,-5.806238301086426,-7.313687521362304,1.2853870162963867
1789635194701184300,10.571184326171876,-5.103839389038086,-7.167042669677734,0.741903239440918
1789635194711224000,10.58122412109375,-5.418527269744873,-6.9059250511169425,0.20096330184936523
1789635194721264000,10.59126416015625,-5.685031842041015,-6.412569871520995,0.3345896820068359
1789635194731303200,10.60130322265625,-5.157409651184082,-6.381594887542724,0.43035774841308594
1789635194741343200,10.61134326171875,-5.521178665924072,-7.239616907501221,0.43035774841308594
1789635194751383000,10.621383056640624,-5.973233866882324,-8.134749053192138,0.30406361083984373
1789635194761422000,10.631422119140625,-6.398503936767578,-8.661623056030272,0.5301660301208496
1789635194771462100,10.641462158203124,-7.40586428527832,-9.297433234405517,1.0727519813537596
1789635194781502200,10.651502197265625,-8.072200534820556,-10.063577765655516,1.3832500091552733
1789635194791541000,10.661541015625,-8.641421979522704,-10.528950713348388,1.1278186195373534
1789635194801581000,10.6715810546875,-8.939799361419677,-10.00402199935913,0.6021417175292968
1789635194811621000,10.68162109375,-8.753949457550048,-8.490437637329102,0.31797990798950193
1789635194821660200,10.69166015625,-8.31236888885498,-7.447463539123535,0.4016273284912109
1789635194831700000,10.701699951171875,-7.6294228652954095,-7.30994658126831,0.685040950012207
1789635194841740000,10.711739990234374,-7.047482224273681,-8.187571127319336,1.0443208366394043
1789635194851780000,10.721780029296875,-6.459705716705322,-9.188796334075928,0.98955347366333
1789635194861819400,10.7318193359375,-5.900958904266357,-9.45485199356079,0.7074865905761718
1789635194871859200,10.741859130859375,-6.001964286804199,-8.951321456909179,0.6690297264099121
1789635194881899000,10.75189892578125,-6.628048020935058,-8.374169219207763,0.6610989334106445
1789635194891938300,10.761938232421874,-7.196521277618408,-7.980921596527099,0.5210381362915039
1789635194901978400,10.771978271484375,-7.7964184310913085,-7.551611311340332,0.4291606475830078
1789635194912018200,10.78201806640625,-8.160037808227539,-7.183203530883788,0.5571007987976074
1789635194922057200,10.79205712890625,-8.015936795806883,-6.763470052337646,0.6233902572631835
1789635194932097300,10.80209716796875,-7.572111663055419,-6.28208588104248,0.6061819328308106
1789635194942137300,10.812137451171875,-7.4232222473144525,-6.062567516326904,0.5807435401916503
1789635194952176000,10.822176025390625,-7.273734281158447,-6.358251421356201,0.34745851593017574
1789635194962216200,10.83221630859375,-6.827066033935546,-6.386233653259277,0.12105682144165038
1789635194972256800,10.8422568359375,-6.6717422012329095,-6.216245335388183,0.35838206100463865
1789635194982296800,10.852296875,-6.829011322784424,-6.269665959930419,0.5930138236999511
1789635194992336000,10.8623359375,-6.736385646057128,-6.4272343566894525,0.49470191802978514
1789635195002375700,10.872375732421874,-6.782773303222656,-6.213701496124267,0.560542463684082
1789635195012415700,10.882415771484375,-7.599495344543457,-5.955726267242431,0.7565677246093749
1789635195022454800,10.892454833984376,-7.94845023651123,-5.725583632659911,0.9394248764038086
1789635195032494800,10.902494873046875,-7.402422620391845,-5.371092149353027,0.8445546356201171
1789635195042535000,10.912534912109376,-7.330446932983398,-5.103839389038086,0.7561188117980957
1789635195052573700,10.92257373046875,-7.507168943023681,-5.102043737792968,0.5434837768554687
1789635195062613800,10.93261376953125,-7.585728684997558,-4.905419926452637,0.5853823059082031
1789635195072653800,10.94265380859375,-7.842656450653076,-4.601057040405273,0.7236474517822266
1789635195082692600,10.952692626953125,-8.619724526977539,-4.489726663208008,0.8653542625427245
1789635195092732700,10.962732666015626,-9.779864868927001,-4.623652318572998,0.8834604125976562
1789635195102772700,10.972772705078125,-11.060613119506835,-4.951358670806885,1.0504559783935545
1789635195112811800,10.982811767578125,-11.328763705444334,-5.181501305389404,1.0703577796936035
1789635195122851600,10.9928515625,-10.795006372833251,-4.997297415161133,1.0353425804138183
1789635195132891600,11.0028916015625,-11.013626911926268,-4.797231938934326,1.13649760055542
1789635195142931700,11.012931640625,-11.279832209014891,-5.2073886108398435,1.2349591438293457
1789635195152970800,11.022970703125,-9.74335329360962,-6.115090315246582,0.9736918876647949
1789635195163010600,11.033010498046876,-7.898172001647949,-7.039252156066894,0.3737947341918945
1789635195173050600,11.043050537109375,-7.1398086257934565,-7.243357847595214,-0.49799394531249996
1789635195183089700,11.053089599609375,-7.575852603149413,-6.444442681121826,-1.2536638442993164
1789635195193129700,11.063129638671874,-9.465027350616454,-5.406705899047851,-1.3673884231567381
1789635195203169800,11.073169677734375,-10.3176624168396,-4.974253224182129,-1.2177508193969726
1789635195213208600,11.08320849609375,-9.311349531555175,-4.903773912811279,-1.261594637298584
1789635195223248600,11.09324853515625,-7.933187200927734,-4.6079403701782224,-1.469740544128418
1789635195233288700,11.103288818359376,-6.962637702941894,-4.209455431365966,-1.4395137481689453
1789635195243327700,11.11332763671875,-5.959018294525146,-3.919308117675781,-1.370081900024414
1789635195253367600,11.123367431640625,-6.232106921386718,-3.623773850250244,-1.4465467155456542
1789635195263407600,11.13340771484375,-8.681075944519042,-3.464858715057373,-1.2892775939941405
1789635195273447700,11.14344775390625,-10.384550425720214,-3.8830958175659176,-1.0761936462402344
1789635195283486700,11.15348681640625,-10.308384885406493,-4.748001167297363,-1.273116732788086
1789635195293526500,11.163526611328125,-10.13151323776245,-5.935375553131103,-1.4291887535095213
1789635195303566600,11.173566650390624,-8.66326906967163,-6.10985299911499,-1.2609960868835448
1789635195313606000,11.18360595703125,-7.16943687133789,-4.568286405181884,-1.1062708045959473
1789635195323646000,11.19364599609375,-8.311321425628662,-2.760514514160156,-0.6221931564331055
1789635195333685800,11.203685791015625,-9.510068269348144,-2.466326985168457,-0.5398924743652344
1789635195343724800,11.213724853515625,-9.360580303192139,-3.042132484436035,-1.1968015548706055
1789635195353764900,11.223764892578124,-9.968408249664305,-3.7585973312377927,-1.5634136840820312
1789635195363805000,11.233804931640625,-9.675417821502686,-4.051288484191894,-1.8224363761901854
1789635195373843700,11.24384375,-8.0950950881958,-3.1051299156188965,-1.8698714965820311
1789635195383883800,11.2538837890625,-7.096413720703125,-2.1404162841796874,-1.1136030471801757
1789635195393923800,11.263923828125,-6.246322493743896,-2.50238964767456,-0.3598784370422363
1789635195403964000,11.2739638671875,-5.204096583557129,-2.5016414596557617,-0.40985739669799803
1789635195414002700,11.284002685546875,-5.773018753051757,-1.9270330612182616,-0.8970774345397948
1789635195424042800,11.294042724609374,-6.229413444519043,-1.5037082801818846,-1.2662334030151365
1789635195434082800,11.304082763671875,-5.736207902526855,-1.1308113716125487,-1.2208932090759277
1789635195444121600,11.31412158203125,-5.47119970626831,-1.257105509185791,-1.1469722328186034
1789635195454161700,11.32416162109375,-4.97978981552124,-1.3548188644409178,-1.5083470458984374
1789635195464201700,11.33420166015625,-5.4810757881164545,-0.1497872413635254,-2.3210288719177243
1789635195474240800,11.34424072265625,-7.6547116203308105,1.003619408416748,-2.180968074798584
1789635195484280800,11.35428076171875,-8.837746515655517,0.6877344268798827,-1.8851345321655273
1789635195494320600,11.364320556640624,-9.510517182159424,0.4352957893371582,-2.1467010635375976
1789635195504359700,11.374359619140625,-9.824905787658691,0.7896376350402832,-2.4402900421142575
1789635195514399700,11.384399658203124,-11.117325771331787,0.20440496673583983,-1.6813281158447264
1789635195524439800,11.394439697265625,-11.067646086883544,-1.24498486328125,-0.8943839576721191
1789635195534479600,11.404479736328126,-9.343970529174804,-2.000205849456787,-0.7074865905761718
1789635195544518700,11.4145185546875,-9.49974327468872,-2.064849294281006,-1.0880150169372558
1789635195554558700,11.424558837890626,-11.381136866760253,-1.6626234153747557,-2.255637239074707
1789635195564598800,11.434598876953125,-12.256217573547362,-0.8167220413208007,-2.651877613830566
1789635195574637600,11.444637451171875,-11.039364579772949,-0.4004302276611328,-2.4461259086608886
1789635195584677600,11.454677734375,-9.328707493591308,-0.816572403717041,-1.0332476539611817
1789635195594717700,11.4647177734375,-6.814646112823486,-1.29601128616333,-0.3779845870971679
1789635195604756700,11.4747568359375,-6.877493906402587,-0.7441478034973145,-1.3296797470092772
1789635195614796500,11.484796630859375,-8.762478800964354,-0.13736732025146484,-2.2863129478454587
1789635195624836600,11.494836669921876,-8.247875081634522,-0.3736450965881347,-1.613243006134033
1789635195634875600,11.504875732421874,-4.527734614562988,-0.35449148330688474,-0.4100070343017578
1789635195644915700,11.514915771484375,-3.611054653930664,0.45055882492065424,-0.3458125022888183
1789635195654955500,11.52495556640625,-6.815095025634765,1.1170447120666502,-1.1614870803833006
1789635195664994800,11.534994873046875,-9.330203869628905,1.1831845329284667,-1.5402198554992674
1789635195675035000,11.545034912109376,-9.047688073730468,0.3990834892272949,-1.1701660614013671
1789635195685074700,11.55507470703125,-7.770231850433349,-1.177199028778076,-0.49470191802978514
1789635195695114500,11.565114501953126,-8.17200881652832,-2.7090391784667966,-0.22670096969604492
1789635195705153800,11.57515380859375,-10.296413877105712,-3.6927567855834957,-0.11806406936645507
1789635195715193900,11.58519384765625,-10.699238306427,-4.257489102172851,0.2518400871276855
1789635195725234000,11.59523388671875,-7.8621093391418455,-4.2971430671691895,0.3526958320617676
1789635195735272700,11.605272705078125,-6.091447573852538,-3.8557121360778805,0.1954267105102539
1789635195745312800,11.615312744140626,-7.230189738464355,-2.942324202728271,-0.032172084808349606
1789635195755352800,11.625352783203125,-8.605209679412841,-1.8480244064331053,-0.17133505630493162
1789635195765392000,11.635391845703126,-8.097938202667235,-1.31516489944458,-0.29433716659545894
1789635195775431700,11.645431640625,-6.414365522766113,-1.5574281799316405,-0.5044283622741699
1789635195785471700,11.6554716796875,-5.877166525268555,-1.9490297889709471,-0.8394669570922851
1789635195795510800,11.6655107421875,-7.457189983367919,-2.1871032165527344,-0.787841983795166
1789635195805550800,11.67555078125,-8.993668898773192,-2.533364631652832,-0.27877485580444333
1789635195815590700,11.685590576171874,-8.468141634368896,-3.290381269073486,0.19048866958618163
1789635195825630700,11.695630615234375,-7.265803488159179,-4.4819455078125,-0.06673837127685546
1789635195835669800,11.705669677734376,-8.007407452392577,-5.770474913787841,-0.8572738319396972
1789635195845709800,11.715709716796875,-11.571176623535155,-6.654234601593017,-0.9290998817443847
1789635195855749600,11.72574951171875,-13.277643856811522,-7.236923430633545,-0.0526724365234375
1789635195865788700,11.73578857421875,-10.861744744110107,-7.2809168861389155,0.9967360786437988
1789635195875828700,11.745828857421875,-7.710526446533203,-6.770203744506835,1.1854290969848633
1789635195885868800,11.755868896484374,-7.8238021125793455,-6.292111600494384,0.23418284988403318
1789635195895907600,11.765907470703125,-10.474033712768554,-5.961262858581542,-0.821660082244873
1789635195905947600,11.77594775390625,-11.630582752227783,-5.8916813728332516,-0.9398737892150878
1789635195915987700,11.78598779296875,-8.717587519836425,-6.3618427238464355,-0.6907271789550781
1789635195926026800,11.79602685546875,-8.08342335510254,-8.132354851531982,-0.5566518859863281
1789635195936066600,11.806066650390624,-11.53571251144409,-10.586411553192137,-0.031573534393310544
1789635195946106600,11.816106689453125,-11.608436386871338,-11.438597706604003,1.8507178833007811
1789635195956146700,11.826146728515624,-6.506392649078369,-9.506626604461669,3.1459809814453124
1789635195966185700,11.836185791015625,-3.845087866210937,-7.595904042053222,2.509721890258789
1789635195976225300,11.846225341796876,-6.598419775390624,-6.782922940826416,1.8989011917114256
1789635195986265300,11.856265380859375,-8.688108911895752,-6.072892510986327,0.7202057868957519
1789635195996304400,11.866304443359375,-6.689249800872802,-4.990414085388183,0.2527379127502441
1789635196006344200,11.87634423828125,-4.033182334136963,-5.083339037322998,-0.2127846725463867
1789635196016384300,11.88638427734375,-3.853467572021484,-5.77780715637207,-1.1198878265380858
1789635196026423600,11.896423583984374,-7.092223867797851,-6.595875936126709,-1.4618097511291503
1789635196036463400,11.90646337890625,-9.58264250717163,-7.5333555236816405,-0.769286920928955
1789635196046503400,11.91650341796875,-7.407959211730956,-8.192509168243408,0.9235632904052734
1789635196056542500,11.92654248046875,-4.74396095199585,-8.685116159820556,2.4607903938293454
1789635196066582500,11.93658251953125,-4.695029455566406,-8.825625869750976,2.63676421585083
1789635196076622300,11.946622314453125,-5.392191051483154,-8.137891442871092,1.363048932647705
1789635196086661400,11.956661376953125,-6.500407144927978,-7.509263869476318,-0.16505027694702148
1789635196096701400,11.966701416015624,-7.2057988090515135,-7.369203072357177,-1.6062100387573242
1789635196106741500,11.976741455078125,-7.447014626312256,-7.048529687499999,-1.9607015220642088
1789635196116781300,11.98678125,-8.386439502716064,-7.03581049118042,-0.4531026641845703
1789635196126820400,11.9968203125,-7.702146740722656,-7.465569689178467,1.6440683525085449
1789635196136860400,12.0068603515625,-5.661987651062011,-7.127388704681396,1.6397288619995116
1789635196146900500,12.016900390625,-6.1744964439392085,-6.9725137847900385,0.3666121292114258
1789635196156939300,12.026939208984375,-7.402123345184326,-7.134272034454345,-0.5930138236999511
1789635196166979300,12.036979248046874,-8.190414241790771,-7.370998723602295,-0.6950666694641113
1789635196177019400,12.047019287109375,-9.049034812164306,-8.59892490005493,-0.44502223358154297
1789635196187058400,12.057058349609376,-8.790012120056153,-10.295516051483153,-0.20964228286743164
1789635196197098200,12.06709814453125,-8.278101877593993,-11.049988849639892,0.17806874847412107
1789635196207138300,12.07713818359375,-8.437017012786864,-11.10954461593628,0.9093477180480957
1789635196217177300,12.08717724609375,-8.041075913238524,-10.346542474365235,1.857152300262451
1789635196227217400,12.097217529296875,-6.843077257537842,-8.910620028686523,2.1143793411254883
1789635196237257200,12.10725732421875,-5.783194110107422,-8.168417514038085,1.325938806915283
1789635196247296300,12.117296142578125,-5.706130744171142,-8.314613452911377,0.5576993492126464
1789635196257336300,12.12733642578125,-5.830479592895507,-8.84163709335327,0.1970727241516113
1789635196267376400,12.13737646484375,-6.060023677062988,-9.618705169677733,-0.08065466842651367
1789635196277416200,12.147416259765626,-6.9910688476562495,-10.182090747833252,-0.148739778137207
1789635196287455200,12.157455322265625,-8.520814070892333,-10.416722510528563,0.027832594299316404
1789635196297495300,12.167495361328125,-9.507674067687988,-9.56348889389038,0.5018845230102539
1789635196307535400,12.177535400390624,-9.64653776397705,-8.532635441589354,0.9454103805541991
1789635196317574100,12.18757421875,-9.48702407836914,-8.60595786743164,0.8294412376403808
1789635196327614200,12.1976142578125,-8.679429930877685,-8.540865509796141,0.5657797798156738
1789635196337654300,12.207654296875,-8.054244022369383,-7.93573104019165,0.7899369102478027
1789635196347693600,12.217693603515626,-7.41214906463623,-7.5465236328125,0.9111433692932128
1789635196357733400,12.2277333984375,-6.524199523925781,-6.854599353027344,0.4827309097290039
1789635196367773200,12.237773193359375,-6.167762751770019,-5.814169094085693,0.3182791831970215
1789635196377812500,12.2478125,-6.016628771972656,-5.2350715675354005,0.45774142990112304
1789635196387852500,12.2578525390625,-5.7417444938659665,-5.023184720611572,0.5933130989074706
1789635196397892400,12.267892333984374,-5.567416685485839,-4.596118999481201,0.8851064262390136
1789635196407932200,12.27793212890625,-5.691017346191406,-4.223072453308105,1.2006921325683593
1789635196417971500,12.287971435546876,-5.398775106048584,-4.325274936676025,0.92565821685791
1789635196428011500,12.298011474609375,-5.2645501754760735,-4.6173675392150875,0.46836569976806636
1789635196438051300,12.30805126953125,-5.806687213897705,-4.938489836883544,0.28206688308715816
1789635196448090400,12.31809033203125,-6.209362005615234,-5.293579870605469,0.06419453201293945
1789635196458130400,12.32813037109375,-6.488436136627197,-5.542427205657959,0.299424845123291
1789635196468170500,12.33817041015625,-6.778134537506103,-5.8479871925354,0.4933551795959472
1789635196478209300,12.348209228515625,-7.219116555786132,-5.703886180114746,0.8530839790344238
1789635196488249300,12.358249267578126,-7.990648040771484,-5.157559288787842,1.441010124206543
1789635196498289400,12.368289306640625,-8.81604906311035,-5.108777429962158,1.9223942955017088
1789635196508328400,12.378328369140625,-8.981099340057373,-5.715857188415527,1.8089689918518066
1789635196518368300,12.3883681640625,-8.778938937377928,-6.538864009094238,1.3648445838928223
1789635196528408300,12.398408203125,-8.664166895294189,-7.443722599029541,0.6530185028076172
1789635196538448400,12.408448486328124,-8.824877681732177,-7.944110746002197,0.2780266677856445
1789635196548487400,12.4184873046875,-9.923965881347655,-8.115595439910889,0.3821744400024414
1789635196558527200,12.42852734375,-11.289708290863036,-8.333318153381347,0.373495458984375
1789635196568567300,12.4385673828125,-12.407950103759765,-8.678981018066406,0.14200608596801756
1789635196578606300,12.4486064453125,-12.714407916259765,-8.762329163360596,-0.11103110198974608
1789635196588646400,12.458646484375,-11.71452944793701,-7.759009030151367,-0.3510498184204101
1789635196598686500,12.4686865234375,-10.7252752494812,-6.27580110168457,-0.2825157958984375
1789635196608725200,12.478725341796874,-10.338462043762206,-5.7517702133178705,0.3076549133300781
1789635196618765300,12.488765380859375,-9.190143072509764,-5.848885018157959,0.6603507453918457
1789635196628805400,12.498805419921876,-7.647678652954101,-5.8180596717834465,0.5322609565734863
1789635196638844200,12.50884423828125,-6.97146632156372,-5.280711036682129,-0.34536358947753903
1789635196648884200,12.51888427734375,-6.834847189331055,-4.069693909454346,-0.907851342010498
1789635196658924300,12.52892431640625,-6.6264020072937,-2.985270195007324,-1.2535142066955565
1789635196668963300,12.53896337890625,-7.46960990447998,-2.6870424507141113,-0.8153753028869628
1789635196679003100,12.549003173828124,-7.840711161804199,-3.4721909576416015,-0.6627449470520019
1789635196689043200,12.559043212890625,-7.300519412231445,-4.056825075531005,-1.073799444580078
1789635196699083300,12.569083251953124,-7.333888597869873,-3.985597576141357,-1.7085621597290037
1789635196709122300,12.579122314453125,-8.295010926818847,-3.6727053466796873,-1.6771382629394531
1789635196719162000,12.589162109375,-8.362647123718261,-4.000860611724853,-0.939724151611328
1789635196729202200,12.5992021484375,-6.6528878631591795,-4.595370811462402,-0.256628490447998
1789635196739241500,12.609241455078125,-5.19691397857666,-4.546140039825439,-0.49036242752075193
1789635196749281300,12.61928125,-5.665728591156006,-3.5091514457702635,-1.3850456604003905
1789635196759321300,12.6293212890625,-6.794145761108398,-2.3376386459350584,-1.950975077819824
1789635196769360400,12.6393603515625,-7.573458401489257,-1.9388544319152832,-2.0040964271545407
1789635196779400400,12.649400390625,-8.388085516357421,-2.363525951385498,-2.065298207092285
1789635196789440500,12.6594404296875,-9.785850373077391,-3.2673370780944824,-2.0150199722290036
1789635196799479300,12.669479248046875,-10.292224024200438,-4.237736938476562,-1.6784850013732908
1789635196809519400,12.679519287109375,-8.913912055969238,-4.230255058288574,-1.3712790008544922
1789635196819559400,12.689559326171874,-7.398532042694091,-3.0737060188293457,-1.1068693550109863
1789635196829598500,12.699598388671875,-7.158513326263427,-1.4770727867126463,-0.6711246528625487
1789635196839638300,12.70963818359375,-7.175721650695801,-0.5987000526428222,-0.4691138877868652
1789635196849678300,12.71967822265625,-7.742548893737792,-0.6036380935668945,-0.8885480911254883
1789635196859718400,12.729718505859376,-8.953117108154297,-0.41374797439575195,-1.9328689277648925
1789635196869757400,12.73975732421875,-11.154286259460449,-0.19333178405761717,-2.0952257278442383
