time,seconds_elapsed,z,y,x
1788862385106811100,0.05981103515625,0.9329115489870309,-1.0936188282936812,-0.35021018925849345
1788862385116853000,0.06985302734375,0.4486959536582231,-0.7604837290093303,-0.3531565083760768
1788862385126894000,0.07989404296875,-0.3667190967172384,-0.3396656700968742,-0.2032517415801063
1788862385136936200,0.089936279296875,-0.8307143263161182,0.18998802658766506,0.09474179209843277
1788862385146977300,0.099977294921875,-1.0433335791677236,0.5880746137320995,0.4449610414462164
1788862385157019100,0.11001904296875,-1.2983610641598702,0.4983227388754487,0.9867856894504279
1788862385167060200,0.120060302734375,-1.3539829981386662,0.2925023523837328,1.2613982379436492
1788862385177102000,0.13010205078125,-1.113195635423064,0.2650400527015328,0.9878883899953216
1788862385187143200,0.14014306640625,-1.0606114617049693,-0.17106909884512422,1.0161658785179257
1788862385197185000,0.15018505859375,-1.0104156444281338,-0.7114496489882469,1.0611728949800132
1788862385207226000,0.16022607421875,-1.2250146729201077,-1.0132231030642986,1.044247333011776
1788862385217268000,0.17026806640625,-1.7255974656820297,-1.106755957764387,0.9629522477898746
1788862385227309000,0.18030908203125,-2.2220172935456035,-1.1707850700825453,0.9287593977436422
1788862385237350000,0.190349853515625,-2.1743150466501713,-1.1651461874127387,1.0857805358834565
1788862385247392300,0.200392333984375,-1.8169705119997261,-1.1026052678257225,1.4765560693621635
1788862385257433000,0.21043310546875,-1.378103293916583,-0.9218021259516477,1.9095593638479709
1788862385267475200,0.22047509765625,-1.283584935310483,-0.5608738875955342,2.1407623211383817
1788862385277516000,0.23051611328125,-1.6568226201415062,-0.4133043222814798,2.35796422560513
1788862385287558100,0.24055810546875,-1.8840321238815783,-0.4038151939243078,2.4710832397848366
1788862385297599000,0.250598876953125,-2.006313518682122,-0.41311902884244917,2.5529464072182773
1788862385307641000,0.26064111328125,-2.1068249802231787,-0.6243412743777036,2.555744513504207
1788862385317682000,0.270681884765625,-2.35447696801126,-0.8436100482463836,1.923150228435546
1788862385327724000,0.28072412109375,-2.3575661661982537,-0.7236193947315216,-4.730637944564223
1788862385337764900,0.290764892578125,-0.6820394301086664,-0.4598357718318701,-4.28557830158174
1788862385347807200,0.30080712890625,-0.1330956342816353,-1.0964268714517353,-1.4329992517083883
1788862385357848000,0.31084814453125,-0.21619944942593572,-1.6197645168572663,1.9678958174824714
1788862385367890200,0.32089013671875,-1.006075569397211,-1.284573361825943,3.034687136866152
1788862385377931000,0.330930908203125,-1.146146887910366,-0.39435295357406136,2.9971415423259136
1788862385387972000,0.34097216796875,-0.28429975670576096,0.10119213728159665,2.363907936440408
1788862385398014200,0.35101416015625,0.40346097365915773,-0.08047288211882114,1.4898571572229264
1788862385408055300,0.36105517578125,-0.053905193188786504,-0.903248524390161,0.5983242050677537
1788862385418097200,0.37109716796875,-0.8188339189082383,-1.6033572796747086,-0.10098287844508885
1788862385428138200,0.38113818359375,-1.378839791497588,-2.0115686627313494,-0.6531190405726433
1788862385438180000,0.39118017578125,-1.60433372349143,-2.172634253956377,-0.9287062062516808
1788862385448221200,0.40122119140625,-1.5340876363545655,-2.197055870768428,-1.189332826425135
1788862385458263000,0.411262939453125,-1.1639479175388812,-2.220845327156782,-1.4563488553747534
1788862385468304100,0.42130419921875,-1.21260819581151,-2.3206667606070637,-1.6722455224618316
1788862385478346000,0.431345947265625,-1.4356839607477188,-2.5935548964604735,-1.8561515987873076
1788862385488387000,0.441386962890625,-1.7786007415950298,-3.1374066298454997,-2.111649039378762
1788862385498429200,0.45142919921875,-1.8206699510395525,-3.608446809519827,-2.568182262533903
1788862385508470300,0.46147021484375,-1.5321131214112043,-3.7364641176238655,-2.649485165736079
1788862385518511400,0.471511474609375,-1.1875059032589197,-3.566328207975626,-2.337455106061697
1788862385528553200,0.48155322265625,-1.0443313580334186,-3.7946354438245296,-2.065567087161541
1788862385538594300,0.49159423828125,-0.8520797704279423,-4.119541936206818,-2.1328473102301357
1788862385548636200,0.50163623046875,-0.7773077302992344,-4.2885511799126865,-2.250720825460553
1788862385558677200,0.51167724609375,-0.3282803527295589,-4.236076311787962,-2.3486229812860486
1788862385568719000,0.521718994140625,0.3645405836343765,-3.7909818897530436,-1.8476777849525212
1788862385578760200,0.53176025390625,0.7827315089136362,-3.3638583009555934,-1.04358258549273
1788862385588802000,0.541802001953125,1.021926634001732,-3.188307965043187,-0.6086380938112735
1788862385598843100,0.551843017578125,1.3801321693956852,-3.1100422375798225,-0.4585656057655811
1788862385608885200,0.56188525390625,1.8023945818975566,-3.25007147051692,-0.619599632808566
1788862385618926300,0.57192626953125,2.1490435350105166,-3.3301945162847635,-0.7734405334770679
1788862385628968200,0.58196826171875,2.4703245303720234,-3.2247645953029394,-0.6307283450663089
1788862385639009300,0.59200927734375,2.691729439486563,-2.8223820645302533,-0.014193360525369644
1788862385649050000,0.602050048828125,2.9911753273978827,-2.222343602890521,0.8892354888677596
1788862385659092200,0.61209228515625,3.166116006979346,-1.6259603027574716,1.8119810331493615
1788862385669133300,0.62213330078125,3.415436512501538,-1.0744846503652632,2.541204239237308
1788862385679175200,0.632175048828125,4.082446423521637,-0.4784117313556373,2.969078354141116
1788862385689216300,0.64221630859375,4.9822483145892615,-0.274448151711747,3.525504614678025
1788862385699258400,0.65225830078125,5.3436985309928655,-0.008288885721936822,4.339317490553856
1788862385709299200,0.66229931640625,5.170117741587758,0.5371323254695162,5.327249500495195
1788862385719341300,0.67234130859375,4.396216604861617,1.2536520077310502,6.388275972741842
1788862385729382400,0.68238232421875,3.7415146790117024,1.6701315990477799,7.214848961469531
1788862385739424300,0.69242431640625,3.770810331600904,1.6871557990849018,7.629163922098279
1788862385749465300,0.70246533203125,4.04570162397027,1.526389044675976,7.669336358010768
1788862385759507200,0.712507080078125,3.9317958433270452,1.5640712712079285,7.507966815403103
1788862385769548300,0.72254833984375,3.1035680731296535,1.7737620693922043,7.245935589128732
1788862385779589000,0.732589111328125,1.6501508872926234,2.3074688408598303,6.559529780504107
1788862385789631200,0.74263134765625,0.6384669034291058,2.6146865318164227,6.069850659072399
1788862385799672000,0.752672119140625,-0.09250643426179886,2.4482116288937625,5.843531382170319
1788862385809714400,0.76271435546875,-0.8373451426327229,2.316867368324101,5.263156090769171
1788862385819755300,0.77275537109375,-1.813171704238653,2.315952591566741,3.888209215056896
1788862385829797400,0.78279736328125,-3.3733716869711876,2.5937463273793457,2.5221383042395114
1788862385839838200,0.792838134765625,-4.778906008648872,2.5024150743767617,1.6589689845204352
1788862385849880300,0.80288037109375,-5.198882648301124,2.037708627768606,0.7946779672950506
1788862385859921200,0.812921142578125,-4.6800633571028705,1.613004521203041,-0.308708806297183
1788862385869963300,0.82296337890625,-3.6170612008690832,1.051672514576465,-1.4065718480318783
1788862385880004000,0.833004150390625,-3.326213629955053,0.7859992785379291,-2.18451846075654
1788862385890046200,0.843046142578125,-4.073778548419475,0.7298381231158971,-3.1139597032845017
1788862385900087000,0.853087158203125,-4.477449365437031,0.1936129390865564,-5.15763703019917
1788862385910128000,0.863128173828125,-3.269965088510513,-1.085361433688551,-7.346794256672263
1788862385920170200,0.873170166015625,-2.945357871335745,-1.7289955836877227,-8.35602858236134
1788862385930211300,0.88321142578125,-3.8665292981684205,-1.082886129616201,-8.083324570903182
1788862385940253200,0.893253173828125,-11.126210504055022,-0.18930062884539364,-6.026658583077788
1788862385950294300,0.903294189453125,-12.525655276685953,-0.21094138276726007,-4.363862149223685
1788862385960336100,0.913336181640625,-3.0958512151420114,-3.1349621593028307,-9.843633869004249
1788862385970377200,0.923377197265625,0.7379509946838021,-5.180979911863804,-12.549412584370375
1788862385980419000,0.933419189453125,-1.3760805559173226,-4.9193233641207215,-10.166093552756308
1788862385990460200,0.943460205078125,-3.0822391616359353,-4.012825190284848,-6.577621317511796
1788862386000502000,0.953501953125,-0.014311433947086333,-3.725040514072776,-3.9801346345603466
1788862386010543000,0.963543212890625,6.285391936850547,-2.7538094635635613,1.3723323092997073
1788862386020585200,0.973585205078125,8.744514105206727,-0.7916063047647476,9.606735330420731
1788862386030626300,0.983626220703125,5.037806535682082,2.0750462786465884,12.276429171448946
1788862386040667400,0.99366748046875,4.613275593726336,4.470801013463736,6.369746044316887
1788862386050709200,1.003709228515625,0.8671256561294197,6.53291123816967,7.952965083587169
1788862386060750300,1.013750244140625,-4.673911556474864,3.4940094062179323,12.355455361890792
1788862386070792200,1.023792236328125,-5.7239878879010675,1.801985708835721,9.738336342230438
1788862386080833300,1.033833251953125,-3.930580622318387,-0.9303618645042181,5.744527987104654
1788862386090875100,1.043875244140625,-0.5380640898942947,-2.1445897704720496,2.866294856014848
1788862386100916200,1.053916259765625,2.1356123910292983,-1.2059662735790013,1.9142267711371181
1788862386110958000,1.0639580078125,2.356636191871762,0.3842214356601238,1.9046984798133373
1788862386120999200,1.073999267578125,1.7176754405111074,1.182911561205983,2.061290725016594
1788862386131041300,1.084041259765625,0.17087123818546532,1.0687164422273636,1.9456652809739112
1788862386141082400,1.094082275390625,-1.473582021987438,1.2321288888394832,2.0714625749409197
1788862386151123200,1.104123291015625,-2.20240483058095,1.4740519775867462,2.3287404692083595
1788862386161165300,1.114165283203125,-2.2258079180002213,-0.41099312272965904,3.993042631450295
1788862386171206100,1.1242060546875,3.6473911649420856,-5.045850141406059,0.8096414354100823
1788862386181248300,1.134248291015625,3.654783028759062,-6.523564148631691,-1.4358584405317902
1788862386191289000,1.1442890625,0.5962254792228341,-7.003765832144022,-4.198181465418637
1788862386201331200,1.154331298828125,-2.7543419630050656,-4.477480345097184,-2.2960078279078004
1788862386211372000,1.1643720703125,2.0190078728213905,0.39580899760127064,3.7959824745193123
1788862386221414400,1.174414306640625,-1.8585536914929746,1.3938631731063127,2.06991359193325
1788862386231455200,1.184455322265625,3.0544027679443357,0.3114975602328777,-2.565795075136423
1788862386241497300,1.194497314453125,-0.9714283266469835,0.30788346138894557,-4.091402467915415
1788862386251538200,1.2045380859375,-2.5958713567093015,0.08902326832115649,-5.127784912770986
1788862386261580300,1.214580322265625,0.5880819202557206,-0.05168167192041874,-3.1459470791757105
1788862386271621000,1.22462109375,-0.55231210321635,1.6508926455706356,0.09984043041169643
1788862386281662200,1.234662109375,0.046071138562262054,2.7381787637114523,1.7778357485719025
1788862386291704000,1.2447041015625,0.4696951948061585,2.987883007854223,1.8093822488278148
1788862386301745200,1.2547451171875,0.6371794209018349,1.4573276372790336,1.2428363069452344
1788862386311787000,1.264787109375,1.395636027997732,-1.0674275714606045,0.04495967018902301
1788862386321828000,1.274828125,1.4410206456005572,-1.3232611121386288,0.35479572695046663
1788862386331870200,1.2848701171875,0.41736470358818767,-0.4655453816503286,0.07980389681607485
1788862386341911300,1.294911376953125,-0.03433919971436262,0.5488000034421682,-0.34762320497259497
1788862386351953200,1.304953125,0.4627081123977899,1.0599988827645779,-0.2937706187538802
1788862386361994200,1.314994140625,0.6632020431697369,1.2335329104185104,-0.18218100609853863
1788862386372036000,1.3250361328125,1.0427499340608715,1.448757377332449,0.5263977636285125
1788862386382077000,1.335076904296875,-0.2668456408187747,1.6310568952441216,1.0635220884546637
1788862386392119000,1.345119140625,-0.7992679254338145,1.9408020588517187,0.3743199271097779
1788862386402159900,1.355159912109375,1.1920026301562785,0.9171855720669031,-0.23197408779338
1788862386412201000,1.365200927734375,-0.33095512489676476,0.7852081281602382,-0.7449130887813866
1788862386422243000,1.3752431640625,-0.6787833509221672,1.753465715816617,0.4945350370302796
1788862386432284200,1.3852841796875,-1.0820040860846638,2.4449790767133233,1.0997215290829538
1788862386442326000,1.395325927734375,-0.3240934224337339,3.0482173573076725,0.5952545883640646
1788862386452367000,1.4053671875,-0.64076955434829,1.916664811939001,0.27905834892094133
1788862386462409000,1.415408935546875,0.14139438381046057,1.3698235413491726,-0.01601210038512945
1788862386472450000,1.425449951171875,0.7821466947630047,2.5496914970755578,0.0382005513176322
1788862386482492000,1.435491943359375,0.6127379303455353,3.014207535678148,-0.8579948396906256
1788862386492533000,1.445532958984375,0.6608420360401273,3.692126086464524,-0.6738578772187233
1788862386502574800,1.455574951171875,-0.126674953584373,2.65287831530571,-0.30399697534441944
1788862386512616000,1.465615966796875,-0.9586471710070967,3.535848314037919,1.3832856649905443
1788862386522658000,1.475657958984375,0.21432313416004178,4.24275856603086,0.7900280956625938
1788862386532699100,1.48569921875,0.958406055727601,3.1470290291935203,-0.2696455006703734
1788862386542741000,1.495740966796875,-0.278089211627841,1.7665724501490592,-0.1282607614710927
1788862386552782000,1.505781982421875,-1.0827861763730644,0.04702946220040321,0.16034282990843057
1788862386562823200,1.5158232421875,-0.802172706964612,6.559483018752932,1.9337936413943766
1788862386572865000,1.525864990234375,-0.15456512328982352,6.163707338899374,-3.7425419762328267
1788862386582906000,1.535906005859375,5.230680639100075,-2.9257454083710908,-3.4291681007340546
1788862386592948000,1.545947998046875,-0.3422653312012553,-6.22790654708743,-1.0690244852632285
1788862386602989000,1.555989013671875,-2.0633242766708135,-7.625069930782914,-0.07219020694196224
1788862386613031000,1.566031005859375,0.11087941855937242,-5.648203455859423,1.7830869470983743
1788862386623072000,1.576072021484375,-0.15829174259752035,-2.3259096296966075,1.7597382202148437
1788862386633114000,1.586114013671875,-2.19412332444787,1.3853443510860204,0.5064765269756317
1788862386643155200,1.5961552734375,0.8202548916220664,2.950005404880643,-0.18022797233462332
1788862386653197000,1.606197021484375,5.795192590937018,-2.3585282892286776,2.282567185445875
1788862386663238100,1.616238037109375,0.8155605963259935,-2.782171050173044,3.2653023573964832
1788862386673280000,1.626280029296875,-4.289725192128121,0.5104769947886467,2.3889763267233968
1788862386683321000,1.636321044921875,-1.2864479235261679,1.0864987671554087,2.2387546394653617
1788862386693363000,1.646363037109375,0.8038239813029766,-1.2352782927811146,0.20630144800692796
1788862386703404000,1.656404052734375,0.9225187497884034,-3.370852397626638,-0.5458695029482246
1788862386713444900,1.66644482421875,2.672690100234747,-3.7951930777072906,-0.37397242884635923
1788862386723487000,1.676487060546875,0.08375614157319068,-3.2602608560979363,-0.25555720795467496
1788862386733527800,1.68652783203125,-1.4366349778622387,-3.918739377877116,-0.29796368652954697
1788862386743570200,1.696570068359375,-1.3610598046571016,-3.6231361368685957,-0.4534963396772742
1788862386753611000,1.706611083984375,-1.5016922641843558,-2.8383471109032627,-1.4320488191157579
1788862386763653000,1.716653076171875,-0.8813967580661177,-3.1537948700666427,-3.0991262912899256
1788862386773694000,1.72669384765625,0.45587855863869187,-2.6467449271172283,-3.099700291785598
1788862386783736000,1.736736083984375,0.4140381895139813,-2.2889637546151875,-2.9967259472623464
1788862386793777000,1.74677685546875,0.20526830556690692,-1.0349147103905678,-1.2192743757024407
1788862386803819000,1.756819091796875,-0.07997253138124942,0.9719804075717925,-0.6529391539610921
1788862386813859800,1.76685986328125,-0.305547711917758,2.3609096314072606,-1.033686191508919
1788862386823902000,1.77690185546875,-0.17128654098808765,2.357235326808691,-1.1897665416672825
1788862386833942800,1.78694287109375,-1.641921403607726,0.6751262897193432,-2.640781050276756
1788862386843985200,1.796985107421875,-1.5116963563263415,1.9833488226801155,-3.4934888894751666
1788862386854026000,1.80702587890625,1.028804410816729,1.296653091198206,-3.2001684987068173
1788862386864067000,1.817067138671875,1.8643728991657493,1.4745365462332962,-0.9848892812445759
1788862386874109000,1.82710888671875,0.28522593163996934,0.6867535991489887,-0.061389776790514584
1788862386884150000,1.83714990234375,-0.8915385051131248,0.22070435962975024,1.2637770959042012
1788862386894191900,1.84719189453125,0.7505155849635601,-1.9156454057633876,4.424032540287077
1788862386904233000,1.85723291015625,0.8781868561089038,-5.541308430761099,3.4694054185763
1788862386914274800,1.86727490234375,-0.926747473399341,-6.827795517253875,1.1443364774875342
1788862386924316000,1.87731591796875,-1.603520653542876,-5.46976295146346,-0.09749587657954543
1788862386934357800,1.887357666015625,-1.8010192018911242,-3.9034412709802386,-0.8551450032174587
1788862386944399000,1.897399169921875,-1.7478420307159424,-3.0602672760635614,-1.2119158296331762
1788862386954441000,1.90744091796875,-0.48921910270452496,-2.8213106359064577,-0.17239064803877843
1788862386964482000,1.91748193359375,-0.22120120323598383,-2.8947926362246275,1.31717433957085
1788862386974524000,1.92752392578125,-0.6977829426854848,-2.885429180073738,1.169893601135537
1788862386984565000,1.93756494140625,-0.41048751129508015,-1.1649001036971807,0.6749216339927167
1788862386994606800,1.94760693359375,1.1024287422150372,0.41839550794064995,0.27236308906599876
1788862387004648000,1.95764794921875,1.9749659019991754,0.9098293640851974,0.11912824626555665
1788862387014690000,1.96768994140625,3.002115239085257,1.831891017755866,-0.9913052127014845
1788862387024731000,1.97773095703125,3.8044302771300074,3.1002111639171837,-1.192352174246311
1788862387034772000,1.98777197265625,2.124376126743853,3.2053999696195126,0.2097007715890184
1788862387044814000,1.99781396484375,-2.159668973921239,4.552987129241227,1.0931249072968958
1788862387054855200,2.007855224609375,-1.9731109217822551,5.53632479712963,1.7051292626708745
1788862387064897000,2.01789697265625,-0.5362234304636716,5.407412001490592,0.9502409425158053
1788862387074938000,2.027938232421875,0.530316252246499,3.3678999775618315,0.12359873360996133
1788862387084980000,2.03797998046875,0.7914426386356354,1.8966057742506264,-0.040165238986723126
1788862387095021000,2.04802099609375,1.1802338664293288,0.9259820419847965,-0.24540797172095624
1788862387105063000,2.05806298828125,1.3340540165707468,-0.45690790168643,-0.4160192803286016
1788862387115104000,2.06810400390625,-0.0674427201539278,-2.1501012273699045,-0.48214017729423936
1788862387125145900,2.078145751953125,-1.173633445250988,-2.5486142232328652,0.4109142853397876
1788862387135187000,2.08818701171875,0.8714116628855466,1.9642589222848414,3.4884073484271765
1788862387145229000,2.09822900390625,1.7576614139407871,3.730470722427964,4.316964788970351
1788862387155270100,2.108270263671875,1.3357163968250154,2.190887995788455,3.2203143378958106
1788862387165312000,2.11831201171875,0.8868366110324859,1.8436439993917941,3.0313521472245455
1788862387175353000,2.12835302734375,-0.6412643521279097,2.0820827531546353,2.799724242520332
1788862387185395000,2.13839501953125,-2.1629621702477335,3.4780151337504384,0.9070938016414641
1788862387195436000,2.14843603515625,-2.1287126946434376,4.881057054090499,-1.73607312085852
1788862387205477000,2.15847705078125,1.3936413470491766,4.3148283614635465,-0.015202811562549321
1788862387215519000,2.16851904296875,0.7497434315472841,4.299946434152126,-0.9704693454217165
1788862387225560000,2.17856005859375,-0.42098552443385123,1.9414520471930503,-1.3920901720844208
1788862387235602000,2.188601806640625,-0.8362526712208985,0.006014730244874954,-0.9058160367906093
1788862387245643000,2.19864306640625,-0.9704507137864827,0.8017448369413613,-0.602045417547971
1788862387255685000,2.20868505859375,0.20986498570740222,1.820184213349223,-0.4146666601432487
1788862387265726200,2.218726318359375,-0.864476895186305,-8.481297468540072,-2.2441985840849576
1788862387275768000,2.22876806640625,-0.8629843185409903,-13.842663758170604,-2.6346310032144187
1788862387285809200,2.23880908203125,1.0857087858214973,-5.046724001631141,2.216522495521605
1788862387295851000,2.24885107421875,0.24524112725406882,-2.145914881595969,0.8668333951845765
1788862387305892000,2.25889208984375,0.25406039352566,-1.6878011112511158,-0.5635456275554374
1788862387315934000,2.268933837890625,0.4165563098147511,0.4822375732541084,-0.880991684396565
1788862387325975000,2.27897509765625,0.15413842231035232,-0.32715164096057414,-0.8239334340043365
1788862387336017000,2.289016845703125,-0.04794891513288021,-1.5227315450817345,-1.9822347239583729
1788862387346058000,2.29905810546875,-0.6656535279750824,-0.7504372590303421,-2.994693856912851
1788862387356100000,2.30910009765625,-0.13655308125913143,-0.42326574432551856,-2.1832604235194624
1788862387366141200,2.31914111328125,-0.1776227582722902,-1.0144804096490143,-2.156927858519554
1788862387376182000,2.32918212890625,-1.662052045227587,-3.4077637859165666,-3.698836397758126
1788862387386224000,2.33922412109375,-1.9291572137653827,-1.8496423630237577,-2.7697908765494823
1788862387396265000,2.349264892578125,-1.6861919224888084,-0.6305564956307411,-2.803170875842869
1788862387406307000,2.35930712890625,-0.8940107404455542,-1.0677905595541,-3.5446924224898217
1788862387416348000,2.369347900390625,0.039679099437594414,-0.37330782745778557,-2.39762315903753
1788862387426390000,2.37939013671875,0.8754898721098899,0.06091010351479053,-1.1340806025415657
1788862387436430800,2.389430908203125,1.4932336479187012,0.7379501179009675,0.68572542514503
1788862387446473000,2.399472900390625,1.644701974236965,1.6645745494425295,2.569093532159924
1788862387456513800,2.409513671875,1.4055471811592577,1.561198346120119,3.802780756357312
1788862387466556200,2.41955615234375,1.123755607882142,1.1299614767849444,4.916825702086091
1788862387476597000,2.429596923828125,2.2141510902151462,2.6109938147783276,6.192656370007992
1788862387486639000,2.43963916015625,2.738235462334752,1.4857248797237872,3.4164866060763597
1788862387496680000,2.449679931640625,1.5501348080530761,0.5659066210657357,0.6977024247951805
1788862387506722000,2.45972216796875,0.3117436439484358,-0.02011690535545349,-0.767261552581191
1788862387516763000,2.469762939453125,-0.21935411406457422,-1.1628975317031145,-1.4010216665588318
1788862387526805000,2.479804931640625,-1.4328905306369066,-1.09375151476264,-0.6110168056413531
1788862387536845800,2.489845703125,-1.8553607406705617,-0.7220528760671615,0.0027570436231791973
1788862387546888000,2.499887939453125,-1.6883441320866346,-0.8500503104269505,0.21370164126083255
1788862387556928800,2.5099287109375,-1.700312802299857,-1.7341075198739766,0.3215697491750121
1788862387566971100,2.51997119140625,-0.9176286396592855,-1.6131284398436545,0.5015535374902188
1788862387577012000,2.530011962890625,-0.7702718403130769,-1.564948638564348,-0.31764643825143574
1788862387587053000,2.540052978515625,-0.7779319996774197,-1.4274597377598284,-0.3817199742332101
1788862387597095000,2.550094970703125,-0.5145800461933017,-0.8788625634133815,0.4419812584504485
1788862387607136000,2.560135986328125,-0.24764672709107396,-1.0095178188055753,0.6780968299627304
1788862387617177900,2.570177734375,-0.030740006178617475,-1.3292378484606742,-0.27605361414700746
1788862387627219000,2.580218994140625,-0.18197218565344808,-1.07526893261075,0.06371361662819981
1788862387637260800,2.5902607421875,-0.23102935428917407,-1.6315660138100385,0.08517141519859432
1788862387647302000,2.600302001953125,-0.5337766218334437,-1.9816858579039573,-0.4451940830171108
1788862387657343700,2.61034375,-0.239968447548151,-1.7632739931255579,-0.8227829487949609
1788862387667384800,2.620384765625,0.2993126169204712,-1.3198644554376602,-0.3096659608915448
1788862387677427000,2.630427001953125,-0.30567396864593027,-2.088703632599115,-0.9997015043206512
1788862387687468000,2.640468017578125,0.332646146723628,-0.37308103296458717,-0.8089348945759236
1788862387697510000,2.650510009765625,-0.020488076755404473,-0.8020406050175428,-0.6549276974298059
1788862387707551000,2.660551025390625,0.17733517350256442,-0.5253431400090456,-0.08009352741241454
1788862387717592800,2.6705927734375,0.8748468980312347,0.29540976426303384,0.8605763806164264
1788862387727634000,2.680634033203125,1.3816831982299684,1.781494709470868,0.9312805867843329
1788862387737676000,2.690676025390625,0.4804436755746603,1.2978887704730033,-0.9770067113012075
1788862387747716900,2.700716796875,-2.124089126496017,1.5474334401398897,-2.189297219465673
1788862387757758000,2.710758056640625,-1.8318226286947725,3.500623855921626,-1.4746886680550872
1788862387767799800,2.7207998046875,-0.3343102805435657,3.929270708763599,-0.565957328339666
1788862387777841000,2.7308408203125,0.0604191051274538,3.37961496527493,-0.9440462525941431
1788862387787883000,2.740883056640625,0.6373258436352014,2.273444698444009,-0.8362884731866419
1788862387797924000,2.750924072265625,1.7955957155376672,0.6402250722080469,-0.34314883603751656
1788862387807966000,2.760966064453125,2.0403946519821883,-0.057660746330022807,0.27398995961546896
1788862387818007000,2.771007080078125,1.6524240929216145,0.02704115166068077,0.8095731924794614
1788862387828049000,2.781048828125,1.291608082768321,0.641959348654747,1.2440958054870366
1788862387838090000,2.791090087890625,0.7457201673805713,0.6607756928056479,1.2571030249677597
1788862387848131800,2.8011318359375,1.460852012012899,0.544594952967763,0.8143550199285149
1788862387858173000,2.8111728515625,1.5150801535457372,0.3720300626069307,0.30018735392838714
1788862387868214800,2.82121484375,0.8988374299496412,0.4748649986594915,-0.42264425142630935
1788862387878255900,2.831255859375,0.3087567370921373,0.4341612323492765,-1.0311952514760196
1788862387888298000,2.841298095703125,0.33072891492545603,0.4815536826431751,-0.8528368724055587
1788862387898339000,2.851339111328125,0.23641484671980142,0.5607903009653091,0.282002001157403
1788862387908381000,2.861380859375,-0.2520209966525435,-0.33005437666475773,0.21435995903909205
1788862387918422000,2.871422119140625,-0.23353052345514297,-0.9036129737883806,-0.145354811874032
1788862387928464000,2.8814638671875,0.15192776052355766,-0.48461833091080186,-0.011244739852845667
1788862387938505000,2.8915048828125,0.15338029741942882,0.0421153866738081,0.11836173713877797
1788862387948546800,2.901546875,0.0034036709636449812,0.4623953931868076,-0.25381883985474707
1788862387958588000,2.911587890625,-0.08229892850220202,1.0382242733299731,-0.3493295704990625
1788862387968629000,2.92162890625,-0.11401450171470641,0.6818605664104223,-0.5860192886374891
1788862387978671000,2.931671142578125,0.11223404803872108,0.4871043025076389,-0.76022303224653
1788862387988712200,2.941712158203125,0.23049159415066242,0.29904958207011223,-0.8778943029031157
1788862387998754000,2.951754150390625,0.1368418350726366,0.16467793650329113,-0.9133027392841875
1788862388008795100,2.961795166015625,-0.04101414743363857,0.0625105244487524,-0.8383736088976264
1788862388018837000,2.9718369140625,-0.20350918693989514,0.013250526717305183,-0.7172605272240936
1788862388028878000,2.981878173828125,-0.29241029018610715,0.045887890949845314,-0.5699984204240143
1788862388038920000,2.991919921875,-0.3100605131670832,0.14517010295689106,-0.4621263669870794
1788862388048961000,3.0019609375,-0.27387539332509037,0.15852058291733265,-0.3405988592937588
1788862388059003000,3.0120029296875,-0.09218728531002998,0.027079730105400084,-0.22719854395464062
1788862388069044000,3.0220439453125,0.030033026953041553,-0.18249825535416603,-0.10128726821914315
1788862388079086000,3.032086181640625,0.06490472610890866,-0.27842414267063137,0.019053952299058437
1788862388089127200,3.042127197265625,0.05027268190532923,-0.21793664848208427,0.05813450132161378
1788862388099169000,3.0521689453125,-0.015174772778153418,-0.13415712603330612,-0.04449789789617061
1788862388109210000,3.062210205078125,-0.0010544774889945983,-0.02294599130153656,-0.28419644246175885
1788862388119252000,3.072251953125,-0.045510582070052624,0.13343757958710192,-0.5488103787057101
1788862388129293000,3.08229296875,-0.07269231124520302,0.24219138429462908,-0.850063316038996
1788862388139335000,3.0923349609375,-0.18876520679444073,0.41856794189810753,-1.1359100099258124
1788862388149376000,3.1023759765625,-0.43055239420235153,0.7573971611708402,-1.054683532960713
1788862388159417900,3.11241796875,0.004916705875098705,0.9769657947689294,-0.6213724876999854
1788862388169459000,3.122458984375,0.6637436027005315,1.1612170312702654,-0.32452523797973987
1788862388179499800,3.132499755859375,0.6828969237208365,1.3377385503023862,-0.14593100432679057
1788862388189542100,3.142542236328125,0.42349896855950353,1.2269915259510278,0.10528861281499266
1788862388199583000,3.1525830078125,0.020413842475414275,0.7797194676160812,0.40327319600209593
1788862388209625000,3.162625,-0.23706249697357415,0.1040595094114542,0.694782737956196
1788862388219666000,3.172666015625,-0.04973930568099021,-0.5260463198423385,0.9572836275689304
1788862388229708000,3.1827080078125,0.42017683839946984,-1.0106944613695144,1.1762918508052824
1788862388239748900,3.192748779296875,1.094146943821013,-1.436217044711113,0.9416603803709149
1788862388249791000,3.202791015625,1.4216130575582384,-1.8077736445873975,0.17211144750490784
1788862388259831800,3.212831787109375,1.1480784404948352,-1.9261399117708204,-0.8225006247222423
1788862388269874000,3.2228740234375,0.4221265111625194,-1.7351579057097435,-1.5553947744078933
1788862388279914800,3.232914794921875,-0.5109130481183528,-1.2890654125481844,-1.5599322717070578
1788862388289957000,3.24295703125,-1.3962038910135626,-0.9362614439368248,-1.274710285589844
1788862388299998000,3.252998046875,-1.9663947652697562,-0.7235872460275888,-0.9406392206296325
1788862388310040000,3.2630400390625,-2.0886606702402233,-0.662698185300827,-0.3395581180691719
1788862388320081000,3.273080810546875,-1.5926523457869886,-0.47711949958801264,0.47441506293490526
1788862388330123000,3.283123046875,-0.8217910151481628,-0.13383680803775785,1.2485412405885756
1788862388340163800,3.293163818359375,-0.13411270236968995,0.2397591887116432,1.8032514909878372
1788862388350206000,3.3032060546875,0.3666404785230756,0.5820511156588792,1.997893188600242
1788862388360246800,3.313246826171875,0.45171997765451666,0.842203104057908,1.9412905730210244
1788862388370289000,3.323288818359375,0.42283612073659893,1.0056599743336438,1.6810595280364156
1788862388380330500,3.33333056640625,0.5460054042875766,1.0259282708585262,1.280159490906447
1788862388390371600,3.34337158203125,0.6339131125822663,0.7693962265223264,0.7797269202701747
1788862388400413400,3.353413330078125,0.6154831374004482,0.22558394836485385,0.16658157816752792
1788862388410454500,3.36345458984375,0.6524056316062807,-0.35660394541621204,-0.5249504874296486
1788862388420496600,3.37349658203125,0.5382134352371096,-0.7545844418376684,-1.225205373186618
1788862388430537700,3.383537841796875,0.12896920200139284,-0.8637544261306523,-1.8572639439433811
1788862388440579600,3.39357958984375,-0.11028028362244367,-0.6734814451217651,-2.1390074402950705
1788862388450620700,3.40362060546875,0.13423223709613083,-0.26741467287838455,-1.7267125873170792
1788862388460662500,3.41366259765625,0.5027703659340739,0.09538111291527747,-0.8277193822838366
1788862388470703600,3.42370361328125,0.5219944141030312,0.4033995988607406,0.26392215458750723
1788862388480745500,3.433745361328125,0.35176439643055196,0.5615870043009519,0.959746948942542
1788862388490786600,3.44378662109375,0.20393647244125604,0.5722779096633196,1.2370758437223732
1788862388500828400,3.453828369140625,0.07770926262438296,0.4744324524611234,1.24556295543015
1788862388510869500,3.463869384765625,-0.18258476459383963,0.3126210113048553,1.2142236681841314
1788862388520911600,3.47391162109375,-0.33473172082602975,0.17615736189484596,1.2263356923907995
1788862388530952700,3.48395263671875,-0.38131168569326396,0.12847966491878032,1.1908280334189534
1788862388540994600,3.49399462890625,-0.4469377118140459,0.22885434833765028,0.9705063894964754
1788862388551035600,3.50403564453125,-0.529087294973433,0.4998357737869024,0.5632140209808946
1788862388561077500,3.514077392578125,-0.802422590072453,0.6636439417183398,-0.06885916282311082
1788862388571118600,3.52411865234375,-1.265520286309719,0.5665221226155758,-0.49122094404622907
1788862388581159700,3.53415966796875,-1.517338015475124,0.31810148854255677,-0.524918046464771
1788862388591201500,3.544201416015625,-1.6821872168920933,0.16111352201998233,-0.3676600308291614
1788862388601242600,3.55424267578125,-1.6654359885774552,0.17695406523048876,-0.07197144962474704
1788862388611284500,3.564284423828125,-1.375426768183708,0.12810440186560154,0.33240999988019465
1788862388621325600,3.57432568359375,-1.0980337221264838,-0.016349077254533766,0.7055566454268991
1788862388631367700,3.58436767578125,-0.5866454577118158,-0.1061246252477169,0.9483576860524714
1788862388641408800,3.59440869140625,-0.07723638441562652,0.0041273090630769725,1.0201315672785043
1788862388651450600,3.60445068359375,0.14504443075060844,0.24323767847716807,0.6642671881832182
1788862388661491700,3.61449169921875,0.17777561074644327,0.46767771750390524,0.3800710379824042
1788862388671533600,3.624533447265625,0.528447535765171,0.5325041176795959,-0.4175485357224941
1788862388681574700,3.63457470703125,0.9430712700821459,0.40727205637991426,-1.3348885676987468
1788862388691616500,3.644616455078125,0.613049772773683,0.21073533880114553,-1.1728164297796786
1788862388701657600,3.65465771484375,0.6796294463574886,-0.17679390623271465,-0.8729808118984103
1788862388711699500,3.664699462890625,0.46201749978512524,-1.3800170185834169,-0.5745455623343586
1788862388721740500,3.674740478515625,0.06641600745469331,-2.878317886763811,0.6734707775972784
1788862388731782700,3.68478271484375,0.5623053817033767,-3.225036982503533,1.6868348965674638
1788862388741823700,3.69482373046875,0.5729375426158309,-2.6450679338157177,0.8533109196580946
1788862388751865600,3.704865478515625,-0.20862901417165994,-1.1744716496407985,-0.12639715955629943
1788862388761906700,3.71490673828125,-0.5063350726783276,0.42366789538562294,-0.003774988494068384
1788862388771947500,3.724947509765625,-0.3350777577847242,1.2245745279371738,-0.12068345808461307
1788862388781989600,3.73498974609375,-0.09203414057493209,1.3350596864819526,-0.13204773266389966
1788862388792030500,3.745030517578125,-0.03363894249051809,1.0981132171034813,-0.31791509912498295
1788862388802072600,3.755072509765625,-0.7089645541742443,0.5891951421946287,-0.5921442012585699
1788862388812113400,3.765113525390625,-1.848772886712849,0.26043197438418864,-0.7372365628041326
1788862388822155500,3.775155517578125,-2.719650881113112,0.24787819775938985,-0.5025178524777293
1788862388832196400,3.7851962890625,-2.9998256668433547,0.6278998436421156,-0.10283793172724544
1788862388842238700,3.79523876953125,-2.9809529163300987,1.2629600804328918,0.408983682603389
1788862388852279600,3.805279541015625,-2.917774283361435,1.5210171423792838,0.8472106300216168
1788862388862321700,3.81532177734375,-2.9116841497927903,1.35766840865314,1.276010262272507
1788862388872362500,3.825362548828125,-2.528105103689432,0.7718120554924011,1.7184335654020308
1788862388882404600,3.835404541015625,-1.7659736074730752,-0.015556465572118759,2.0539877085268494
1788862388892445400,3.845445556640625,-0.9215594032369554,-0.5699988588154316,2.1242289733581243
1788862388902487600,3.855487548828125,-0.2912017911791801,-0.6583142711281776,1.9649413515910505
1788862388912528600,3.865528564453125,-0.21277371276095508,-0.48712008459866046,1.6538010803632437
1788862388922570500,3.875570556640625,-0.4560793419077992,-0.33305297395884986,1.3147073649354277
1788862388932611600,3.885611572265625,-1.0484111746929585,-0.27355507532954215,0.9143449418134987
1788862388942652700,3.895652587890625,-2.1448449142768977,-0.19007833521962164,0.4656939963407814
1788862388952694500,3.905694580078125,-3.269612329550087,0.013001520392298698,0.24286650707721708
1788862388962735600,3.915735595703125,-3.585833703434467,0.17659633783400058,0.2178694284647703
1788862388972777700,3.92577783203125,-3.596132979130745,0.14757014983594416,0.21390739296600222
1788862388982818600,3.935818603515625,-3.39522462233901,0.03264262492954731,0.09680077045485377
1788862388992860700,3.945860595703125,-2.180114526709169,-0.17469313456118105,-0.2138743674792349
1788862389002901500,3.955901611328125,-0.32747721965312954,-0.45581543027460575,-0.4408472859844565
1788862389012943600,3.965943603515625,0.5964312309280038,-0.6018640696316957,0.2768386270448565
1788862389022984400,3.975984375,0.20107903718352316,-0.24199323137402534,1.5659629301734268
1788862389033026800,3.98602685546875,-1.1773897290445863,0.5494786333560944,1.8546439707033335
1788862389043067600,3.996067626953125,-2.782967168986797,1.2637743194252251,1.4389441315874456
1788862389053109800,4.00610986328125,-3.654195876520872,1.4858166496604681,1.0095894227370619
1788862389063150600,4.016150634765625,-3.5573896992385383,1.4763316129565238,0.8998474837750196
1788862389073192700,4.026192626953125,-3.005807956123352,1.3872896399348973,1.0864109427414834
1788862389083233500,4.036233642578125,-2.2276678666532037,1.1279431226998566,0.9852129602409898
1788862389093275600,4.046275634765625,-1.8994424589812755,0.7473352013617753,0.5826151792824268
1788862389103316500,4.05631640625,-1.9416952082991599,0.5408142653852701,0.20746099330559373
1788862389113357600,4.066357666015625,-2.2348190535821018,0.5245154570132494,0.48494376347288487
1788862389123399400,4.0763994140625,-2.862041290223598,0.6366273399770259,1.3354409408845007
1788862389133440500,4.0864404296875,-3.5215269432187077,0.872998055294156,2.275936661390215
1788862389143482600,4.096482666015625,-3.970108915108442,1.000734208369255,2.858707469625771
1788862389153523700,4.106523681640625,-4.03153661275655,0.9617968672096728,2.8956746797561643
1788862389163565600,4.116565673828125,-3.5339001025795933,0.9030886576533317,2.846579517197609
1788862389173606700,4.126606689453125,-2.318306461216509,0.9628098436444997,2.982261953102052
1788862389183648500,4.1366484375,-1.062536584548652,0.6373737744301557,2.7704192375808954
1788862389193689600,4.146689697265625,-0.6575795271128416,0.07055413017272949,2.328286295700073
1788862389203731500,4.1567314453125,-1.1310659308955073,-0.40046646801829333,1.6707698969513176
1788862389213772500,4.1667724609375,-1.8459560757264495,-0.7162199321299791,0.8238255897156894
1788862389223814400,4.176814453125,-2.097390796923637,-1.0895394500255584,-0.22362609229534863
1788862389233855500,4.18685546875,-1.6388529559478162,-1.522657895323634,-1.7142590561963618
1788862389243897600,4.196897705078125,-1.3257912151381372,-1.8374200103104112,-3.7749838178932666
1788862389253938700,4.206938720703125,-1.6056535739183424,-1.918839233368635,-5.586309602004289
1788862389263979800,4.216979736328125,-1.8239973418965936,-1.7065169176369905,-6.085823888751864
1788862389274021600,4.227021728515625,-1.811271423575282,-1.4110773427575827,-5.162720032551884
1788862389284062700,4.237062744140625,-1.8823986774608492,-1.1237860030204057,-3.310223449140787
1788862389294104600,4.2471044921875,-2.1769646843761206,-0.9487760575950145,-1.1462059246212244
1788862389304145700,4.257145751953125,-2.332497775915265,-1.0540759224563836,0.7981407480347901
1788862389314187500,4.2671875,-2.469676295596361,-1.6297481507331133,2.065939719866216
1788862389324228600,4.277228515625,-2.304115731039643,-2.322626370242238,2.7483693183362483
1788862389334270500,4.2872705078125,-1.599829982331395,-3.049239686092734,2.785244174008071
1788862389344311600,4.2973115234375,-0.998923359555006,-3.4369127235114574,2.320455163682997
1788862389354353700,4.307353759765625,-0.5530597067132592,-3.4998020181447265,1.2051472853463143
1788862389364394800,4.317394775390625,-0.6218243231207132,-3.050283057665825,-0.29919795929854737
1788862389374436600,4.3274365234375,-1.1787369058698416,-2.151189607128501,-1.8699090521134436
1788862389384477400,4.3374775390625,-1.436582370892167,-0.8805348805397748,-2.6360183659195897
1788862389394519300,4.347519287109375,-1.0773621054977178,0.266800340372324,-2.8106755523845552
1788862389404560400,4.357560302734375,-0.5221580802321434,1.2105115157932043,-2.5093331832021475
1788862389414602200,4.367602294921875,-0.4184463613450527,1.5063246001601218,-2.176738182143867
1788862389424643300,4.377643310546875,-0.7020084514260292,1.245318625280261,-2.026453074260801
1788862389434684200,4.38768408203125,-0.6895189722090959,0.7512783860296011,-2.0123519220635293
1788862389444726500,4.3977265625,-0.6683861678093671,0.4569681074410677,-1.5454656471982597
1788862389454767400,4.407767333984375,-1.1202788716822862,0.2923784337431192,-0.33293391415644435
1788862389464809500,4.4178095703125,-1.8396435315787791,-0.2092687733799219,1.091060010656342
1788862389474850300,4.427850341796875,-1.5779133340775966,-0.8627098855137825,2.1535534136503935
1788862389484892400,4.437892333984375,-1.3583704194426536,-0.9379214861035347,2.9949264966249465
1788862389494933200,4.447933349609375,-1.412922678363323,-0.9032745356142521,2.8256603555485604
1788862389504975400,4.457975341796875,-1.568371014228463,-0.5781628760486841,2.2043252772495148
1788862389515016200,4.46801611328125,-1.493352890384197,0.30629297732710836,1.775433509735763
1788862389525058300,4.478058349609375,-0.7647346644520759,1.1841671142250298,1.2538067599013447
1788862389535099400,4.488099365234375,0.18268997853398322,1.7940958323687315,0.8367052372939884
1788862389545141500,4.4981416015625,1.1733142962992191,2.230000693514943,0.5043308201838285
1788862389555182300,4.508182373046875,1.7118413275301456,2.383352349361777,0.253595990884304
1788862389565224400,4.518224365234375,1.666157434719801,2.0812761129468678,0.008458762396126985
1788862389575265300,4.528265380859375,1.2117612235933541,1.4579261876940726,-0.22372677619084713
1788862389585306400,4.538306396484375,0.7916150725930928,0.6436521240472793,-0.3195226073868572
1788862389595348500,4.548348388671875,0.5287047253966332,0.04735854802429676,-0.12426131657138466
1788862389605389300,4.558389404296875,-0.036976270219683645,-0.3507622336506843,0.19650778374522923
1788862389615431400,4.568431396484375,-0.5217617743909359,-0.7099602872133255,0.6014214404307305
1788862389625472300,4.57847216796875,-0.6801368113577365,-0.9694549807474017,1.0293374947801233
1788862389635514400,4.588514404296875,-0.38067280326783653,-1.0060559879139066,1.359963387722522
1788862389645555200,4.59855517578125,0.2433364626765251,-0.8949655569523572,1.6377686678424477
1788862389655597600,4.60859765625,0.6805342862427234,-0.8396545886188745,1.6381944920390843
1788862389665638400,4.618638427734375,0.8068506356477737,-0.7395324186563491,1.2683556558661162
1788862389675680500,4.628680419921875,1.1518553286850453,-0.7989958304941653,0.6766705965518951
1788862389685721300,4.638721435546875,1.2878104440510272,-1.0694012096211314,0.13868132545948028
1788862389695763500,4.648763427734375,1.4666191972374916,-1.1368041822865604,-0.3524202299907803
1788862389705804300,4.65880419921875,1.4925526799172162,-0.6448094773888587,-0.5658078368663787
1788862389715846400,4.668846435546875,1.4080430896282194,0.05519026456326246,-0.3760135792851448
1788862389725887200,4.67888720703125,0.8381096972644329,0.5409495822027325,-0.011712065103650093
1788862389735929600,4.6889296875,0.6341629956901073,0.1876788728624582,0.06868862856179475
1788862389745970400,4.698970458984375,0.9251315626353025,-0.41637919968217607,-0.23705840532034633
1788862389756011500,4.709011474609375,1.5265496420651674,-0.7367395730674267,-0.6514630900591611
1788862389766053400,4.719053466796875,2.117281492307782,-0.5105044673174619,-0.7058142734497785
1788862389776094500,4.729094482421875,2.233445281010866,0.7938707425653934,-0.37796325204819436
1788862389786136300,4.73913623046875,2.0947627865076064,1.6009575250566004,0.10326192929297685
1788862389796177400,4.749177490234375,1.825913696911931,1.7889803890511393,0.3919903160959482
1788862389806219300,4.75921923828125,0.7540612947463989,1.630322735750675,0.4769298222348094
1788862389816260400,4.76926025390625,0.4464566502988338,1.1671885068953036,0.4508209829881787
1788862389826302200,4.77930224609375,0.4107867865025997,0.6945996364742517,0.7021575045078993
1788862389836343300,4.78934326171875,0.8927718463003634,0.11549641083553433,1.084833172030747
1788862389846385400,4.799385498046875,1.8974819725632666,-0.006683715547621249,1.5859405731886624
1788862389856426500,4.809426513671875,1.7425158672571182,0.8866660767711698,1.9671181111082434
1788862389866468400,4.81946826171875,0.6570400134086608,1.2489163575112818,1.8602245473146437
1788862389876509400,4.829509521484375,0.43178982704281804,0.07278598087802529,0.9241481045559048
1788862389886551300,4.83955126953125,1.2757657859921454,-0.7709579228810965,-0.27207331233918663
1788862389896592400,4.84959228515625,2.7130045749664307,-0.34417554873675105,-0.821824332895875
1788862389906634200,4.85963427734375,1.9446113880068063,0.7080683359868825,-0.24321400534063575
1788862389916675300,4.86967529296875,-0.5656178672522306,0.8492179512560367,0.5854132855683565
1788862389926716400,4.87971630859375,-1.8749848940730094,-0.4474225727215409,0.7858657152861356
1788862389936758300,4.88975830078125,-1.3445359553575515,-1.2310254576422273,0.5744400561332702
1788862389946799400,4.89979931640625,0.13605565313100815,-1.0492070012457668,0.23498247582912443
1788862389956841500,4.909841552734375,0.3509165474295616,-0.5659158272854984,0.04724252042919397
1788862389966882600,4.919882568359375,0.2611737326622009,-0.8699987273477018,-0.5375771831601858
1788862389976924400,4.92992431640625,-0.0093371526658535,-1.5590603111781178,-1.1882739650219678
1788862389986965500,4.939965576171875,-0.24128829797506332,-1.486582957857847,-1.0197826077103613
1788862389997007400,4.95000732421875,-0.21563947745561599,-1.2449831097155808,-0.1508113237142563
1788862390007048400,4.96004833984375,-0.9300286870270967,-0.384075597448647,0.45671150233149527
1788862390017090300,4.97009033203125,-2.017598882806301,0.7430265443824231,0.46503918569386005
1788862390027131400,4.98013134765625,-1.9909008454948662,0.40007301172129806,0.018311901760101317
1788862390037173200,4.99017333984375,-0.1653273403227329,-0.025586349742487073,-1.0398670721009373
1788862390047214300,5.00021435546875,2.1196271786510943,-0.033595980131626124,-1.230066695612669
1788862390057256400,5.01025634765625,3.294752908286452,0.47372949182353913,-0.12865589826852084
1788862390067297500,5.020297607421875,3.150547266447544,0.5920609068892896,0.7457733588725328
1788862390077339400,5.03033935546875,2.091559606552124,0.7447834710523485,0.8750082260727882
1788862390087380500,5.04038037109375,0.6651297963619232,1.0519613414552063,0.5474795684933662
1788862390097421300,5.05042138671875,0.3368693173766136,0.8210104592297226,0.3707140115723014
1788862390107463400,5.06046337890625,1.2264601955533028,0.5382726180784404,0.3636041795670986
1788862390117504300,5.070504150390625,1.7149194198012352,0.7675781442496925,0.1705173101812601
1788862390127546400,5.08054638671875,1.1786673477649687,0.2800361809771508,-0.4268965020433068
1788862390137587200,5.090587158203125,1.0929928053498268,-0.41217517212107774,-0.7908589935287833
1788862390147629300,5.10062939453125,1.3367127143859863,-0.23155863886028527,-0.9060586133748293
1788862390157670100,5.110670166015625,2.3057447935461997,-0.322163038893044,-0.33952129319012164
1788862390167712500,5.12071240234375,3.389527287480235,0.0636514381121844,1.015120753379166
1788862390177753300,5.13075341796875,2.487998134228587,1.2481991491526365,2.14011291731894
1788862390187795500,5.14079541015625,0.6788309894561767,1.3778288608893752,2.0149986371800304
1788862390197836300,5.150836181640625,-1.6979922503978013,0.37263781924173234,1.6005808006986975
1788862390207878400,5.16087841796875,-2.8605636188864705,-0.251636819640547,0.5560445677429438
1788862390217919200,5.170919189453125,-3.547413079625368,-0.24112433958500623,-0.688543405175209
1788862390227961300,5.18096142578125,-2.7550620939731596,-0.9953641327034681,-1.5630664780795573
1788862390238002200,5.191002197265625,-2.1562632571309805,-1.766492662911117,-1.9778253830835222
1788862390248044500,5.20104443359375,-1.7344003653407096,-1.9344043206386268,-1.2051526191085575
1788862390258085400,5.21108544921875,-1.209590893816948,-1.7976577626340091,0.3126268565237522
1788862390268126500,5.22112646484375,-0.678390259951353,-1.1672873641598969,0.9920341845631598
1788862390278168300,5.231168212890625,1.0091033927857875,-0.641685573214665,0.6319160935461521
1788862390288209400,5.24120947265625,1.7106255219995974,-0.20098850935585796,0.4362564510628581
1788862390298251300,5.251251220703125,1.2030980246663092,0.17099639893509447,0.26504765148609877
1788862390308292400,5.261292236328125,0.7917723089814186,0.49368119667991994,-0.012645546561479568
1788862390318334500,5.27133447265625,0.6054097794145346,0.4492207812499255,-0.125927057826519
1788862390328375300,5.281375244140625,0.8229448613584041,0.2608333217266947,0.07326455817520618
1788862390338417400,5.29141748046875,0.9498469016969203,0.153982354965806,0.18141893568485976
1788862390348458200,5.301458251953125,1.051337437403202,0.136213985497877,0.1363794782578945
1788862390358500600,5.31150048828125,0.9940975468337535,0.2368071339730173,0.03805792797654867
1788862390368541400,5.32154150390625,1.3293553373605012,0.33022052701190113,-0.18829145180284976
1788862390378583600,5.33158349609375,1.5051123017609118,0.17165113651677966,-0.4262092504315078
1788862390388624100,5.3416240234375,0.779430713802576,-0.2920454754617065,-0.1955591047182679
1788862390398666200,5.351666259765625,0.19144085574448108,-0.48025852826610205,0.4723091766968369
1788862390408707000,5.36170703125,-0.20631167713999746,-0.3705978378467262,1.0211277387090028
1788862390418749200,5.371749267578125,-0.08176993619203567,-0.1779028903879225,1.121272412764281
1788862390428790000,5.3817900390625,0.41802199845314025,0.21622107673585414,0.7025270684726536
1788862390438831000,5.3918310546875,1.1644196267038582,0.9052344375103711,0.1983288616925478
1788862390448873000,5.401873046875,1.1658669029027222,1.385918497712165,-0.5512587947711348
1788862390458914000,5.4119140625,0.3630640813410282,1.542580154889822,-1.629020567110926
1788862390468956200,5.4219560546875,-0.1413853237211704,1.5388224097914993,-2.5950147398799657
1788862390478997200,5.431997314453125,-0.08883446775078772,1.3718223139509558,-2.805298827782273
1788862390489039000,5.4420390625,-0.3662795362561941,1.135248915668577,-1.8077246908791362
1788862390499080200,5.452080078125,-0.8297019344031811,0.7606712144054472,-0.32628917891234155
1788862390509122000,5.4621220703125,-0.941912017044425,0.45657092481702566,0.7533676133938133
1788862390519163100,5.4721630859375,-1.024561658680439,0.45592444360703227,1.2052531568735838
1788862390529205000,5.482205078125,-1.087307745450735,0.6829707196094096,1.1288045618347824
1788862390539246000,5.49224609375,-0.925263080060482,0.9313482451930641,0.9030024406746029
1788862390549288000,5.502287841796875,-0.5755997475624084,1.1600032715663313,0.6981105672046541
1788862390559329000,5.5123291015625,-0.3754290573954582,1.3239835811942815,0.7350421214997768
1788862390569371100,5.52237109375,-0.15820903275012968,1.3193873394452034,1.0497704803474246
1788862390579412200,5.532412109375,0.18997019867002962,1.1877613393247126,1.3942651780359445
1788862390589454000,5.5424541015625,0.32001755129694937,1.0689135722346603,1.558411930271983
1788862390599495200,5.5524951171875,-0.10216507396697998,0.9529910449415445,1.240036885485053
1788862390609536300,5.562536376953125,-0.41829321660995483,0.9196724204465746,0.9073150431767105
1788862390619578000,5.572578125,0.0813368054717779,0.9917825478896498,0.9134750271111727
1788862390629619200,5.582619140625,0.3730634973078966,1.0914657419130205,0.8589426419347524
1788862390639661000,5.5926611328125,0.040164252606034276,1.0681453643411398,0.7757923573002219
1788862390649702100,5.6027021484375,-0.07472001768052577,0.9404305463150143,0.776927060418576
1788862390659744000,5.612743896484375,0.34181203447580333,0.7783125234276056,0.851866566068679
1788862390669785000,5.62278515625,0.7619839044392108,0.6767012839511036,0.7696521009795367
1788862390679827200,5.6328271484375,0.5047364053100347,0.6564417552545666,0.4505497648313641
1788862390689868300,5.642868408203125,0.05035772984027862,0.6702078302785753,0.12958689550831914
1788862390699910100,5.65291015625,0.014478607207536697,0.5957721824973822,-0.022255232558399438
1788862390709951200,5.662951171875,0.32935587300658226,0.47654316100478167,-0.25268822838962074
1788862390719993000,5.6729931640625,-0.24047581254839895,0.4028925261214375,-0.6290855462953447
1788862390730034200,5.6830341796875,-0.9730354695826768,0.3339320948809385,-0.8713533568270504
1788862390740076000,5.693075927734375,-0.5008955119729042,0.3854033389210701,-0.8174452410288154
1788862390750117000,5.7031171875,0.5329471852719784,0.5931500173002481,-0.7543228682920337
1788862390760159000,5.713158935546875,0.6220452723950147,0.8700938582852482,-0.7282491003587842
1788862390770200000,5.723199951171875,-0.017788754668831824,1.0812287177979945,-0.6776739283755421
1788862390780241000,5.733240966796875,-0.42109307646155353,1.1197975179061292,-0.4576286171764135
1788862390790283300,5.743283203125,-0.11658405994176864,1.0246469988763331,-0.04646276822835207
1788862390800324000,5.753323974609375,0.39147885944247246,0.7888157972633838,0.12003785365745424
1788862390810366200,5.7633662109375,0.2954898437619209,0.5430088528200984,0.024214988324046133
1788862390820407000,5.773406982421875,0.06430091499686241,0.3249111685574054,-0.1088155448321253
1788862390830449200,5.78344921875,0.4414075502157211,0.2274091179654002,-0.1001798184338957
1788862390840490000,5.793489990234375,0.8076900090813637,0.30728724906146526,0.03860876679234206
1788862390850532000,5.803531982421875,0.8022375888943671,0.45818800462484355,0.2518202133834362
1788862390860573000,5.813572998046875,0.3479869237184524,0.6621963732585311,0.4115830514468252
1788862390870615300,5.823615234375,-0.3555255025297403,0.7422679811000824,0.5652819863613695
1788862390880656100,5.83365625,-0.5817962641149759,0.5424596945047379,0.6633443742498755
1788862390890698200,5.8436982421875,-0.45625791334509846,0.15920973422527313,0.551015560599789
1788862390900739000,5.853739013671875,-0.3896902224600315,-0.17131284447312353,0.28759149172753096
1788862390910781200,5.86378125,-0.5249368972957134,-0.3350081996798515,0.008112287046015262
1788862390920822000,5.873822021484375,-0.7452426129966974,-0.2065320418924093,-0.19561697238534687
1788862390930864000,5.883864013671875,-0.8804963020950556,0.051907881891727445,-0.4413428144164383
1788862390940905200,5.8939052734375,-1.149798396155238,0.3244949889719486,-0.6425345181941986
1788862390950947000,5.903947021484375,-1.3508148894965648,0.47568625191450115,-0.5624439864564686
1788862390960988200,5.91398828125,-1.174382802313566,0.4693897821187973,-0.17757701943442225
1788862390971029000,5.924029052734375,-0.6953881565034389,0.3555266715735197,0.23610234670452773
1788862390981071400,5.9340712890625,-0.3628296880632639,0.18415303682386874,0.3172445794522762
1788862390991112200,5.9441123046875,-0.36306466586291786,-0.016165537381172178,0.25228037824109195
1788862391001154300,5.954154296875,-0.4385924927949905,-0.07068506307601928,0.2449875908844173
1788862391011195100,5.964195068359375,-0.3981587755978107,-0.11456336776912211,0.2284237749006599
1788862391021237200,5.9742373046875,-0.13613397906422614,-0.17873802603781222,0.19124299508482218
1788862391031278000,5.984278076171875,0.19402444249689577,-0.20541560508310794,0.12683102092891932
1788862391041320200,5.9943203125,0.42955519985854623,-0.18744155697524548,-0.012857435746490955
1788862391051361000,6.004361083984375,0.3586807516902685,-0.1489981368124485,-0.09939794734120368
1788862391061403100,6.014403076171875,0.19746902999281882,-0.11870470535755157,-0.14024682121053336
1788862391071444000,6.02444384765625,0.11077625044584273,-0.10034311923682689,-0.20104666928388176
1788862391081486300,6.034486328125,0.10738134731054305,-0.14108371042609213,-0.3284091667409986
1788862391091527200,6.044527099609375,0.08079203107059002,-0.23615794934928416,-0.4463275440264493
1788862391101569300,6.0545693359375,0.05594225197434425,-0.35723522905707356,-0.5660954216361046
1788862391111610000,6.064610107421875,-0.2376712765216827,-0.5150204834371805,-0.6564632364340126
1788862391121652200,6.07465234375,-0.7157330253958701,-0.6936129635244608,-0.6998307420607656
1788862391131693000,6.084693115234375,-1.030540733090043,-0.8154203110724687,-0.7018289301406592
1788862391141734100,6.094734130859375,-0.9432575864344834,-0.7084767706573009,-0.6798314717356115
1788862391151776000,6.10477587890625,-0.7594289592593908,-0.45421851647198197,-0.6563495469264685
1788862391161817000,6.114817138671875,-0.8219342230111361,-0.19194354456961155,-0.7244785688441246
1788862391171859000,6.12485888671875,-0.8610983586639165,-0.024719430714845655,-0.8218255750048905
1788862391181900000,6.134900146484375,-0.830944043418765,0.07693126398921013,-0.7883169808957725
1788862391191942100,6.144942138671875,-0.7306523621082306,0.12650047380030155,-0.6217874251764267
1788862391201983200,6.154983154296875,-0.7134434531539678,0.20813655447959897,-0.3649976797521114
1788862391212025000,6.165025146484375,-0.9093477180480957,0.25250235042870045,-0.04514043358340859
1788862391222066200,6.175066162109375,-1.0839064125746487,0.16691139464378357,0.21984664682187138
1788862391232108000,6.18510791015625,-0.9584966566205024,-0.011705050840973853,0.4476617152396589
1788862391242149000,6.195149169921875,-0.5814888056010008,-0.14926234070658684,0.6719810504961758
1788862391252191000,6.20519091796875,-0.20028233384788036,-0.17482289842069149,0.8466098876494914
1788862391262232000,6.215232177734375,0.025547698232531547,-0.09830898306071757,0.8897304327778518
1788862391272274000,6.22527392578125,-0.1110831244379282,-0.032900983604788776,0.7802138270042837
1788862391282315000,6.23531494140625,-0.46611470597088334,-0.037089667466282845,0.5173799791101366
1788862391292357000,6.245357177734375,-0.5624234551250934,-0.08664134162068367,0.17259835423901676
1788862391302398200,6.255398193359375,-0.33523324060738086,-0.09493044653832912,-0.1589401235036552
1788862391312439300,6.265439208984375,-0.320877967518568,-0.0646978053599596,-0.4088601292889565
1788862391322481200,6.275481201171875,-0.562295444831252,-0.029115035325288773,-0.5748713602226228
1788862391332522200,6.285522216796875,-0.7316092244416474,-0.05157236632704734,-0.6137727532859891
1788862391342564000,6.295564208984375,-0.6523083087116479,-0.05223930580317974,-0.5690917539078741
1788862391352605200,6.305605224609375,-0.5257663338571786,-0.09199497760832309,-0.4887069884639233
1788862391362647000,6.31564697265625,-0.4314911363571882,-0.28787469258308407,-0.38943617463372643
1788862391372688100,6.325688232421875,-0.42678222801387306,-0.5659463685542345,-0.2909988524856046
1788862391382731300,6.335731201171875,-0.43253450793027876,-0.7708394110679626,-0.25817378366123883
1788862391392772000,6.345772216796875,-0.5135784679353237,-0.8418073827385902,-0.21285050432421265
1788862391402814200,6.355814208984375,-0.49716217066347596,-0.7626584426999091,-0.30032771224714816
1788862391412855000,6.36585498046875,-0.37305706756711005,-0.6746797149956226,-0.4128732739204541
1788862391422897400,6.3758974609375,-0.33118016582429405,-0.5815525184869766,-0.4593722825059667
1788862391432938200,6.385938232421875,-0.3475695750892162,-0.48247956531643865,-0.45273719187304373
1788862391442980400,6.39598046875,-0.3968739964842796,-0.3917424788147211,-0.38689098366294056
1788862391453021200,6.406021240234375,-0.39988486873805523,-0.3256231162190437,-0.2958644492279738
1788862391463063300,6.416063232421875,-0.3888759834676981,-0.25892390790879727,-0.25662512944713234
1788862391473104100,6.426104248046875,-0.4005687593489885,-0.004970774149894714,-0.11813607515674084
1788862391483146200,6.436146240234375,-0.15893442441523073,0.3954641296863556,0.0958140244398266
1788862391493187000,6.44618701171875,0.2475724928110838,0.7895125473558903,0.24722039143778382
1788862391503228200,6.456228271484375,0.6927677448719739,0.935389921799302,0.2479412530582398
1788862391513270000,6.46627001953125,1.0937789872914552,0.8382336159050464,0.13163721563424916
1788862391523311000,6.47631103515625,1.4423457567244766,0.6206079330682754,0.07734620146565138
1788862391533353200,6.486353271484375,1.6541542777150868,0.14455226331949234,-0.002913805087469518
1788862391543394300,6.496394287109375,1.5791759013593196,-0.4954875154495239,-0.32646245312001554
1788862391553436200,6.506436279296875,1.1592699888557194,-1.048569726255536,-0.8598999426595866
1788862391563477200,6.516477294921875,0.4735580077141523,-1.0264625238656997,-1.087986667625606
1788862391573519000,6.52651904296875,-0.27429391099810596,-0.5190490083009004,-0.842473080105707
1788862391583560200,6.536560302734375,-0.9961801983267068,-0.047270285218954086,-0.5874574682144448
1788862391593602300,6.546602294921875,-1.884090576070547,0.19341186355650425,-0.4017575672747567
1788862391603643100,6.55664306640625,-2.594003517010808,0.35146775157153604,-0.30855683060586453
1788862391613685200,6.566685302734375,-2.435008886840939,0.3005108867943287,-0.22014120932165532
1788862391623726300,6.576726318359375,-1.591211791589856,0.08980418956577778,-0.14002238307120277
1788862391633768400,6.5867685546875,-0.6656780778944492,-0.13137947801351546,-0.05004539422178641
1788862391643809300,6.596809326171875,0.32450141871273513,-0.03240063286721706,0.17924652354922144
1788862391653851400,6.606851318359375,1.2046733111590147,0.2327846735239029,0.572025761533156
1788862391663892200,6.616892333984375,1.9018822533488273,0.2991103723466396,0.9779042446628212
1788862391673933300,6.626933349609375,2.12601308029592,0.07184533902704715,0.9629721945993601
1788862391683975200,6.63697509765625,1.6262854430586098,-0.1818804157167673,0.4589881420265883
1788862391694016300,6.647016357421875,0.6689695206552744,-0.3151566672623157,-0.22315441966298966
1788862391704058000,6.65705810546875,-0.45373979304432865,-0.5564145700991153,-0.9140453012797981
1788862391714099200,6.66709912109375,-1.492685366386175,-0.8074819192886352,-1.506400880266726
1788862391724141300,6.677141357421875,-2.3951123452603817,-1.0843553253859282,-1.9373047182552516
1788862391734182400,6.687182373046875,-2.752598334208131,-1.3575830684572459,-2.1649134504459795
1788862391744224300,6.697224365234375,-2.3413123660117385,-1.2247311798036098,-1.9215368018895387
1788862391754265300,6.707265380859375,-1.4926374355912209,-0.6574550239503383,-1.1713178617849946
1788862391764307200,6.71730712890625,-0.9467354916781187,-0.011253215420246123,-0.2843994176879525
1788862391774348300,6.727348388671875,-0.5863362456321716,0.43638884527087207,0.5424173897329717
1788862391784390100,6.73739013671875,-0.10262918434739113,0.6502379321783781,1.1762616748627275
1788862391794431200,6.74743115234375,0.3096802816778421,0.7892956897348165,1.550964829136431
1788862391804473000,6.75747314453125,0.49573301464319225,0.7567097634285688,1.5945497038409113
1788862391814514200,6.76751416015625,0.2723977219879627,0.6973229239583015,1.3752781534932552
1788862391824556300,6.777556396484375,-0.14444178868234156,0.6669347999572753,0.958128773156181
1788862391834597400,6.787597412109375,-0.35870471708774565,0.5692196911364793,0.4418518599171191
1788862391844638500,6.797638427734375,-0.3632242403388023,0.44219899285435676,-0.00245901052467525
1788862391854680300,6.807680419921875,-0.24280220966935157,0.35633915700018404,-0.3605773425592109
1788862391864721400,6.817721435546875,-0.11952128243744373,0.40624446689784527,-0.6167652861654758
1788862391874763300,6.82776318359375,-0.07963993842601776,0.514810640078783,-0.7898128454767167
1788862391884804400,6.837804443359375,-0.16266776572465896,0.6482488041877746,-0.8172510336309671
1788862391894846200,6.84784619140625,-0.2579196993023157,0.7317641227424144,-0.7450447523370385
1788862391904887300,6.85788720703125,-0.43680385581254955,0.7169681201487779,-0.5972867517787963
1788862391914929200,6.86792919921875,-0.539891305321455,0.5012456405848265,-0.48414077652692794
1788862391924970200,6.87797021484375,-0.5651946734040976,0.09177227476835251,-0.3737447210377082
1788862391935012400,6.888012451171875,-0.5807283426225185,-0.3082750910550356,-0.26185386041346936
1788862391945053400,6.898053466796875,-0.6327502062827348,-0.4137234244763851,-0.009255173470824956
1788862391955095300,6.90809521484375,-0.7477683320820331,-0.3002870149105787,0.3519838113348931
1788862391965136400,6.918136474609375,-1.227134733814001,-0.23172376629412172,0.6785619632564485
1788862391975178200,6.92817822265625,-1.7546382667273281,-0.3174637751609087,0.6862839358106255
1788862391985219300,6.93821923828125,-1.1179910530060528,-0.30775311300754543,0.5316363584017381
1788862391995261200,6.94826123046875,-0.35489655697643757,-0.07270341716110706,0.5114622429663315
1788862392005302300,6.95830224609375,0.14444821842312813,0.19585574957728386,0.502800213083066
1788862392015344000,6.96834423828125,0.24179449393153188,0.39710196002125736,0.381168916221708
1788862392025385200,6.97838525390625,0.3280611570209265,0.46157472445368763,0.21121990744769573
1788862392035426000,6.988426025390625,0.464931049144268,0.2568240130200982,-0.06223543383441865
1788862392045468400,6.998468505859375,0.6583095949530601,-0.09388152200728654,-0.40981903744898734
1788862392055509200,7.00850927734375,0.950875075700879,-0.21702128720283506,-0.518112750364095
1788862392065551400,7.01855126953125,0.8275748592466116,0.010889642804861068,-0.48592298376858234
1788862392075592200,7.02859228515625,0.36034313194453715,0.4911021399721503,-0.4891302553772926
1788862392085634300,7.03863427734375,-0.16281564976274968,0.5552782595455646,-0.5775305694945156
1788862392095675100,7.048675048828125,-0.3442927453756332,0.2917468578413129,-0.5984546995796263
1788862392105717200,7.05871728515625,-0.10543021324276923,-0.14200257883667944,-0.44267033669315276
1788862392115758000,7.068758056640625,0.21426468197107315,-0.45784576705843205,-0.15120353790223598
1788862392125800200,7.07880029296875,0.5091267492234707,-0.4380056328177452,0.12216887433677912
1788862392135841000,7.088841064453125,0.28752281040549277,-0.1958122026965022,0.3749016725204885
1788862392145883400,7.09888330078125,-0.04185176730155945,0.1242588323533535,0.44905236588045955
1788862392155924200,7.10892431640625,-0.11423428194522857,0.3438371105626225,0.30076661512106656
1788862392165966300,7.11896630859375,-0.2535796242713928,0.26311259177029134,0.04617722928524017
1788862392176007200,7.129007080078125,-0.14866495933532714,0.04306201987415552,-0.22708134731575846
1788862392186049300,7.13904931640625,0.013099135547876357,-0.03118891898989677,-0.28928602068573234
1788862392196090000,7.149090087890625,-0.11116203489303589,-0.008000935626029968,-0.240619312672317
1788862392206131200,7.159131103515625,-0.2881704606592655,0.01049129113703966,-0.13970409263595937
1788862392216173000,7.169173095703125,-0.3076502371549606,0.047642625662684436,0.025751550241559742
1788862392226214100,7.179214111328125,-0.24745734199881553,-0.01027998647391796,0.16302958477437496
1788862392236256300,7.18925634765625,-0.3465712117016315,0.009725567461550235,0.28921251705810425
1788862392246297300,7.19929736328125,-0.4790794014841318,-0.009241875597834586,0.4210336013592779
1788862392256339200,7.209339111328125,-0.4437210878551006,-0.13297171564102173,0.4223329935200512
1788862392266380300,7.21938037109375,-0.28876082776784895,-0.35606121684163805,0.3208528330773115
1788862392276422100,7.229422119140625,0.06848959885835647,-0.6899146935284137,0.04453077725246549
1788862392286463200,7.239463134765625,0.5187725294470786,-0.8218006597593426,-0.23743659098297357
1788862392296505000,7.249505126953125,0.47864919337332246,-0.8691951558798551,-0.5455782649166881
1788862392306546200,7.259546142578125,1.1060217982709408,-0.8488486795522272,-0.7042894019700586
1788862392316588300,7.26958837890625,0.9446317973971367,-0.7727328235991299,-0.7469603767000138
1788862392326629000,7.279629150390625,0.46707858256697654,-0.6520138558097184,-0.8404603520438074
1788862392336671200,7.289671142578125,0.7545020242512226,-0.4941521751925349,-0.804287507161498
1788862392346712300,7.29971240234375,0.9859586640417575,-0.37659722439199683,-0.578074467112869
1788862392356754200,7.309754150390625,0.8487643622696399,-0.40231954853907226,-0.2306745495021343
1788862392366795300,7.319795166015625,0.9966139135688543,-0.46174759680256244,-0.010349398448318243
1788862392376837400,7.32983740234375,1.123171670514345,-0.3982147435687482,0.22674320140257476
1788862392386877400,7.33987744140625,0.4977180509805679,-0.3347624082252383,0.1955273944057524
1788862392396918500,7.34991845703125,0.14034721284508705,-0.3059710518963635,0.13582827411592005
1788862392406960400,7.35996044921875,0.5550368520051241,-0.3525137534931302,0.05782455858960747
1788862392417001500,7.37000146484375,0.6130348674654961,-0.2241361607093364,-0.008224515248835086
1788862392427043600,7.380043701171875,0.9149860161960125,0.00583506282903254,-0.05977364683076739
1788862392437084700,7.390084716796875,0.6596048954606056,0.15416158399023114,-0.2519151981905103
1788862392447126500,7.40012646484375,0.7890759095042944,0.1303035193450749,-0.13400661164671182
1788862392457167600,7.410167724609375,1.0924725808680056,0.1692669447939843,-0.0754708360478282
1788862392467209500,7.42020947265625,0.8265145365387201,0.36616372785679996,0.09613426937013864
1788862392477250600,7.43025048828125,0.1590764632344246,0.2831192416843027,0.09240735780149698
1788862392487292400,7.44029248046875,0.3966869494795799,-0.09783975811377167,0.06608151480332017
1788862392497333500,7.45033349609375,0.6257213305592536,-0.4019392074519768,0.14487433488070964
1788862392507375400,7.460375244140625,0.7609142293810844,-0.5153409110305831,0.23279680235311387
1788862392517416400,7.47041650390625,0.5193488680303097,-0.42803208194449543,0.1355079561203718
1788862392527458600,7.48045849609375,0.8381120353519916,-0.23288188682068137,0.07025061718150973
1788862392537499600,7.490499755859375,1.1798013202309607,0.14249428961006924,-0.11772650797516107
1788862392547541500,7.50054150390625,0.5088076002717018,0.5106720789693295,-0.12176701553761958
1788862392557582600,7.51058251953125,-0.17717326093912122,0.668011123951897,0.1080905184932053
1788862392567624400,7.52062451171875,0.07589549120068549,0.45629305772371587,0.4013274687618017
1788862392577665500,7.53066552734375,0.8994260434925556,0.336787666975148,0.6520460045136511
1788862392587706600,7.54070654296875,0.7861252430051565,0.49830220754407345,0.531467906499654
1788862392597748500,7.55074853515625,-0.5191325949311256,0.4197263912182301,0.12594547026604413
1788862392607789600,7.56078955078125,-0.2766577175199985,0.27638368635158983,-0.019415186826884746
1788862392617831400,7.57083154296875,0.7144915009021758,0.4800116408329457,0.43123423898667096
1788862392627872500,7.58087255859375,0.9712450790345668,0.6098205450614914,0.6012516368217766
1788862392637914600,7.59091455078125,0.8759878847599029,0.5620040972018614,0.2999966536618769
1788862392647955700,7.600955810546875,0.8629641525357962,0.449327018103376,-0.011046586932241916
1788862392657997600,7.61099755859375,1.2424515454113483,0.4977820561274886,-0.08221811835095286
1788862392668038700,7.62103857421875,1.1685001740157603,0.5670848345322534,0.052712037881463766
1788862392678080500,7.63108056640625,1.0299930360794067,0.4981560040064156,0.134092974755913
1788862392688121600,7.64112158203125,1.3948773185849188,0.4549552332486957,0.19898060359954833
1788862392698163500,7.65116357421875,1.733499032586813,0.42574521311633284,0.32455797120556235
1788862392708204500,7.66120458984375,1.7160639136612414,0.538410784440115,0.012569704846292733
1788862392718246700,7.67124658203125,1.2930197031319142,0.6881163388695567,-0.46016704961284993
1788862392728287700,7.681287841796875,1.1393009675383567,0.7728674097642302,-0.5394574439488351
1788862392738329600,7.69132958984375,1.2359610143482684,0.7841466364085674,-0.35328853725790976
1788862392748370700,7.70137060546875,1.2305986105322837,0.669627546172589,-0.0570247865140438
1788862392758411500,7.71141162109375,1.155020514717698,0.4626051634799689,0.10577917281091212
1788862392768453600,7.72145361328125,0.7358674664080143,0.24615590401142834,0.06375891707465052
1788862392778494700,7.73149462890625,0.22240473380684853,0.13294964993968605,-0.04570610464215279
1788862392788536600,7.74153662109375,0.2170551894724369,0.06845102041363715,-0.11217603424116969
1788862392798577700,7.75157763671875,0.06144611008763313,-0.015749796187132598,-0.06925941418707371
1788862392808619500,7.76161962890625,0.15131401253938673,-0.012115239077061414,-0.08607552443146706
1788862392818660600,7.77166064453125,0.04582768519520759,-0.019952070182561874,-0.058833735632151364
1788862392828702700,7.78170263671875,-0.16169979747533797,-0.061410161991417404,0.03210807966142892
1788862392838743800,7.791743896484375,0.08656886090636252,-0.17979966391995547,0.11347338057532906
1788862392848785700,7.80178564453125,0.28934534965753556,-0.1835404578834772,0.1989629218123853
1788862392858826800,7.81182666015625,0.10942483583688735,-0.029962884326279162,0.13247691786140203
1788862392868868600,7.82186865234375,-0.05115560221970081,0.18870967721492052,0.1382999249264598
1788862392878909700,7.83190966796875,0.30251170522272586,0.38128845094814895,0.24158231248557566
1788862392888951600,7.84195166015625,0.7678454899489879,0.462866517829895,0.4511195275433361
1788862392898992600,7.85199267578125,0.9547522093951701,0.508743887385726,0.6223270850110799
1788862392909034500,7.862034423828125,0.8202607368409633,0.472952443036437,0.5938871724683791
1788862392919075600,7.87207568359375,0.7274427524119615,0.3347659153565764,0.32773236345797774
1788862392929116400,7.882116455078125,0.8791945718467234,0.1851505234286189,0.13540011183172462
1788862392939158800,7.89215869140625,1.0789069968521594,0.029930151100456714,0.06277684723474085
1788862392949199600,7.90219970703125,1.2455763994336126,-0.056686640600860115,0.05930573705807328
1788862392959241700,7.91224169921875,1.0254740973502396,-0.10235095192790031,0.11902261220030486
1788862392969282600,7.922282470703125,0.5013771580100059,-0.26839900774061676,0.10477591405250132
1788862392979324700,7.93232470703125,0.20821254232525824,-0.5367085836321115,0.01623195368088782
1788862392989365500,7.942365478515625,0.3443026822477579,-0.7690542812168598,0.02152947556711733
1788862392999407600,7.95240771484375,0.40221886464357376,-0.8187406876668334,0.1223423312075436
1788862393009448400,7.962448486328125,0.19392565829753874,-0.7245525839284062,0.22300920250602066
1788862393019490600,7.972490478515625,-0.2085112330108881,-0.6322416722387075,0.2808502738390118
1788862393029531400,7.982531494140625,-0.4347849172055721,-0.593806727643311,0.04428958890773356
1788862393039573800,7.99257373046875,-0.184072372803092,-0.5456441697597504,-0.42132944250069554
1788862393049614600,8.002614501953126,-0.13376900349855422,-0.3494987895861268,-0.8234238770470023
1788862393059656700,8.01265673828125,-0.22700024490356444,-0.054716801832616326,-0.9276225757334381
1788862393069697500,8.022697509765624,-0.3912847981750965,0.15510346795022487,-0.7299148416139185
1788862393079739600,8.03273974609375,-0.46421500982940195,0.2119306860655546,-0.44294630409032104
1788862393089780500,8.042780517578125,-0.4858393971383571,0.1170259584903717,-0.2088070741523057
1788862393099821600,8.052821533203126,-0.6401636974096298,-0.1225286475598812,-0.019019392442330717
1788862393109863400,8.062863525390625,-0.833310772550106,-0.427748442697525,0.17768194111362098
1788862393119904500,8.072904541015625,-0.8565776663690805,-0.7117331421047449,0.4269052698716521
1788862393129946400,8.0829462890625,-0.6854062761932611,-0.9527584052294492,0.5291312071803957
1788862393139987500,8.092987548828125,-0.21054946084022522,-0.988505425915122,0.5447146338246762
1788862393150029600,8.103029541015625,0.22167057431340217,-0.8611801917284727,0.49862449830099936
1788862393160070700,8.113070556640626,0.17215163338482378,-0.6889771204173565,0.34883974115550515
1788862393170112500,8.123112548828125,-0.24790859289765357,-0.5650298382312059,0.1898512484654784
1788862393180153600,8.133153564453124,-0.4933452427238226,-0.32005203808844085,0.12781674403063953
1788862393190195500,8.143195556640626,-0.31123861703574657,-0.060793199136853215,0.048727279094234105
1788862393200236500,8.153236572265625,-0.0816378342449665,0.13546294793486593,0.012105229139700531
1788862393210278400,8.1632783203125,-0.15196809253394603,0.177332250893116,0.04046871544532478
1788862393220319500,8.173319580078125,-0.33800738149583337,0.1503349383741617,0.20732443437911569
1788862393230361600,8.183361572265625,-0.20299685350358485,0.10096738861501216,0.40746217212453484
1788862393240402700,8.193402587890626,0.07354045250713825,-0.05270049357414245,0.44461511408537624
1788862393250444500,8.203444580078125,0.043075171616673465,-0.2620230429679155,0.2667894536521286
1788862393260485600,8.213485595703125,-0.3722743927568197,-0.5461152944028377,-0.002871902174502611
1788862393270526700,8.223526611328126,-0.8490688981741666,-0.8155833926796913,-0.23261450458876787
1788862393280568600,8.233568603515625,-1.3414584476083515,-0.9280798910468816,-0.30526809125877913
1788862393290609700,8.243609619140624,-1.7320500028222798,-0.940140331196785,-0.23422895404808222
1788862393300651500,8.253651611328126,-1.8318717285335062,-0.9293225845843553,-0.06574833732619881
1788862393310692600,8.263692626953125,-1.432900467509031,-0.8709978213876486,0.06587335194535553
1788862393320734500,8.273734375,-1.083794184371829,-0.6195826816737652,0.12240655555017292
1788862393330775600,8.283775634765625,-0.9866711962252854,-0.34158056380748747,0.13241210899688302
1788862393340817700,8.293817626953125,-1.0550047277390957,-0.24966625021994113,0.077444839534536
1788862393350858800,8.303858642578126,-1.110477024114132,-0.33198154533505436,0.0815378810018301
1788862393360900600,8.313900634765625,-0.9586363573521375,-0.34170740505754943,0.22613551783300934
1788862393370941700,8.323941650390625,-0.5786801779210567,-0.23311843552291392,0.3412365726754069
1788862393380983600,8.333983642578126,-0.2888748095363378,-0.15147007988393305,0.44399259827286003
1788862393391024600,8.344024658203125,-0.1259574529647827,-0.18425415911078452,0.4649723310027271
1788862393401066500,8.35406640625,0.10644085159003734,-0.2206499990940094,0.31881635881364345
1788862393411107600,8.364107666015625,0.2708773805528879,-0.29557927561104297,-0.05968319206833839
1788862393421149400,8.3741494140625,0.12452537433505058,-0.3138081752628088,-0.4945220314182341
1788862393431190500,8.3841904296875,-0.3008838117599487,-0.33375089309513567,-0.7547245809607207
1788862393441231600,8.394231689453125,-0.7881202162146568,-0.5264268435925245,-0.6862831320930272
1788862393451273500,8.4042734375,-0.9608598786205053,-0.5763257237493992,-0.16326185916028915
1788862393461314600,8.414314453125,-0.7689356232732534,-0.4788303951591253,0.30622553811408576
1788862393471356400,8.4243564453125,-0.539217936104536,-0.37329789058566093,0.48454650778360664
1788862393481397500,8.4343974609375,-0.2983230213612318,-0.27628186994493004,0.43315819278657436
1788862393491439600,8.444439697265626,-0.043887072521448134,-0.27222528803050516,0.15711853409968315
1788862393501480700,8.454480712890625,0.05589022952616214,-0.47244800064563747,-0.16659414538815617
1788862393511522600,8.4645224609375,0.1662169826388359,-0.6779419316619634,-0.32429997785650194
1788862393521563600,8.474563720703125,0.3292529971539974,-0.8399304829508065,-0.20532588097304105
1788862393531605500,8.48460546875,0.3619558278381824,-0.8322709081083536,-0.05765183237120509
1788862393541646600,8.494646484375,0.22327859403192996,-0.8131850993663072,-0.003792743346467614
1788862393551688400,8.5046884765625,-0.02467909870445728,-0.7565244699895382,0.03135879566408693
1788862393561729500,8.5147294921875,-0.29320611673891545,-0.6044891574382781,0.07716974892020224
1788862393571771400,8.524771484375,-0.4658388116389513,-0.4028863886415958,0.0766597535714507
1788862393581812500,8.5348125,-0.6913368352860212,-0.21316168916523456,0.1248874125804752
1788862393591854600,8.5448544921875,-0.7831208004921675,-0.022758359774947164,0.18359131128787992
1788862393601895700,8.554895751953126,-0.6226520061165094,0.030594460228085516,0.17053243468515575
1788862393611936500,8.5649365234375,-0.442079165866971,0.04741641569137573,0.09827208511643111
1788862393621978600,8.574978515625,-0.39829672276377676,0.006058569386601448,-0.04490647869706153
1788862393632019500,8.58501953125,-0.31974048792123794,-0.2351929037094116,-0.23742716556750237
1788862393642061600,8.5950615234375,-0.28483108710348604,-0.6024357320398092,-0.3224257084172219
1788862393652102400,8.605102294921876,-0.27342005077302456,-0.780605602800846,-0.2657336609888822
1788862393662144500,8.61514453125,-0.34572891565859315,-0.7157885549753904,-0.1592925902031362
1788862393672185300,8.625185302734375,-0.5441279199779033,-0.5321896449029445,0.017703341407701374
1788862393682227700,8.635227783203124,-0.7796703677773476,-0.32519407715201376,0.21400424093659967
1788862393692268500,8.6452685546875,-0.8989303689301014,-0.15188801303505897,0.43964178265221415
1788862393702310700,8.655310546875,-0.795922998920083,-0.11504676737189293,0.5039349892666564
1788862393712351500,8.6653515625,-0.6624918490737676,-0.12840835324823854,0.4829894145347178
1788862393722393600,8.6753935546875,-0.5297796611517668,-0.2419856325894594,0.3928017786093056
1788862393732434400,8.685434326171874,-0.424383934700489,-0.2664151404470205,0.30794943929724394
1788862393742476500,8.6954765625,-0.39224575216174123,-0.28470366133153435,0.2658498347144574
1788862393752517400,8.705517333984375,-0.3931622824847698,-0.27477146538197994,0.21345698231738058
1788862393762558500,8.715558349609376,-0.48906245083808897,-0.2760012994378805,0.16415906372833997
1788862393772600300,8.725600341796875,-0.6289601663500071,-0.33410043718516824,0.09052819299139082
1788862393782641400,8.735641357421875,-0.6052572192013264,-0.41819501693248745,0.032271964986249804
1788862393792683500,8.74568359375,-0.43728024115264413,-0.4771072246283293,0.014752930636890232
1788862393802724600,8.755724609375,-0.5220148723691702,-0.23390929363965987,0.13303338270038365
1788862393812766500,8.765766357421874,-0.7662076596140861,0.037379590323567385,0.2663690362829715
1788862393822807600,8.7758076171875,-0.8636497967123985,0.05188450101613998,0.18720577545799313
1788862393832849400,8.785849365234375,-0.7690197944253683,-0.10996785667240619,0.0892035567915067
1788862393842890500,8.795890380859374,-0.4517629400134086,-0.24669044927954673,0.11273206068873405
1788862393852932400,8.805932373046875,-0.057223523956537244,-0.2449707858800888,0.20027155672553926
1788862393862973400,8.815973388671875,0.31454759545326233,-0.08113806802928447,0.13174221037868408
1788862393873015300,8.826015380859374,0.48875791493356224,0.08859130664467811,0.0614364654764533
1788862393883056400,8.836056396484375,0.31736557548344135,0.14839841735363005,0.20375519759021699
1788862393893098500,8.846098388671875,0.04533844037353992,0.015598551148176192,0.288952843208611
1788862393903139600,8.8561396484375,-0.2393073532909155,-0.25218261695504185,0.17117577408999204
1788862393913181400,8.866181396484375,-0.5392465776771307,-0.43224692316055296,0.013717778902873396
1788862393923222500,8.876222412109374,-0.7908616238772869,-0.3595037585109472,-0.09633885203152895
1788862393933263600,8.886263671875,-0.8892232139080762,-0.2617746211647987,-0.10918518186211586
1788862393943305500,8.896305419921875,-0.8865794214010239,-0.2683431859001517,0.05322597875297069
1788862393953346600,8.9063466796875,-0.7816308541953563,-0.32253011863976716,0.2611840348605066
1788862393963388400,8.916388427734375,-0.5884370173037052,-0.32233050441443917,0.5267916583169251
1788862393973429500,8.926429443359375,-0.18853519743084907,-0.489351496912539,0.7820797670066356
1788862393983471400,8.936471435546874,0.10025719451904297,0.05404664748609066,1.0472997063197196
1788862393993512400,8.946512451171875,0.19860066437125204,0.6486927485629915,1.027202236317098
1788862394003554600,8.956554443359375,0.2129495077192783,0.7046914068996906,0.6996499056011438
1788862394013595600,8.966595703125,0.29179332733154295,0.4707295062899589,0.2769352192871272
1788862394023637500,8.976637451171875,0.48063715232014653,0.2944295210540295,-0.14132088018283248
1788862394033678600,8.9866787109375,0.2650041046053171,0.11751403426826,-0.4165675618611276
1788862394043720400,8.996720458984376,-0.27481296643614767,-0.13188158231675623,-0.67674994539842
1788862394053761500,9.006761474609375,-0.4013222080647945,-0.49651393588781356,-0.716729342956841
1788862394063803400,9.016803466796874,-0.062329907184839245,-0.8419549745157361,-0.3510318443723023
1788862394073844500,9.026844482421875,0.2501034725934267,-0.8978051642924547,0.20512261348590255
1788862394083885300,9.03688525390625,0.43060032499730583,-0.7409364402353763,0.7846779668062925
1788862394093927400,9.046927490234374,0.39627135441601274,-0.4614873384311795,1.0568113387696445
1788862394103968300,9.05696826171875,0.884490340167284,-0.5084571793988347,0.8412672845125198
1788862394114010600,9.0670107421875,0.8208721467375755,-0.6930173357188701,0.5156295552462339
1788862394124051500,9.077051513671876,0.9398165060698985,-0.6042398588523268,0.21012056790366768
1788862394134093600,9.087093505859375,1.7429273706674575,-0.34940760417133565,0.19073329199701547
1788862394144134400,9.097134521484374,1.884786157119274,-0.18998510397821664,0.27409225094616413
1788862394154176500,9.107176513671876,1.2058897012114524,-0.056189358603209255,0.28838585697561503
1788862394164217600,9.117217529296875,1.2403425904333591,0.218728821773082,0.3694505675077438
1788862394174259500,9.127259521484374,1.360150873118639,0.19901918204426763,0.2511485977321863
1788862394184300500,9.137300537109375,1.2118179222166539,0.12949161844030022,0.2214534244313836
1788862394194342700,9.1473427734375,1.3018483217537402,0.013153349953144789,0.2728273455768823
1788862394204383500,9.157383544921874,1.3830056790053844,-0.1702552982442081,0.384506390081346
1788862394214425600,9.167425537109375,1.0673100825607775,-0.2865351145423949,0.5525567256271838
1788862394224466700,9.177466796875,0.8838532113075256,-0.2852193557687104,0.626175796328485
1788862394234507500,9.187507568359376,0.7736848636269569,-0.08717179523557424,0.7487877382576466
1788862394244549600,9.197549560546875,0.9323106604844331,0.004236687721684575,0.7711746343716979
1788862394254590500,9.207590576171874,0.9896937589168548,0.08524382284767926,0.7057990758806466
1788862394264632600,9.217632568359376,0.7901812403976917,-0.051196153425797815,0.6374155677452683
1788862394274673400,9.22767333984375,-0.005352466943860054,-0.24268947000987826,0.5505477238923311
1788862394284715500,9.237715576171874,0.3163911774933338,-0.29289668546356257,0.18879355610609053
1788862394294756400,9.24775634765625,0.7360358087122439,-0.19327720432616768,-0.021792437352240086
1788862394304798700,9.257798828125,0.7707727755725383,-0.08418905309773982,-0.13543605992794036
1788862394314839600,9.267839599609376,0.3858031518936157,-0.1898438688766211,-0.25721739625185724
1788862394324881700,9.277881591796875,0.28919571205377576,-0.5075954845355823,-0.21801760476380586
1788862394334922500,9.287922607421875,1.0587480059206484,-0.7998457983870059,-0.16035072095394134
1788862394344964600,9.297964599609376,0.8723276086866855,-0.6851348388407379,0.00760521430671215
1788862394355005400,9.30800537109375,0.5072551101326942,-0.3845760212514549,0.0798649793535471
1788862394365047600,9.318047607421875,1.2231927181899547,0.14335231294520198,0.5268433154389262
1788862394375088400,9.32808837890625,1.4416507601976394,0.3774043395237997,0.7136462822496891
1788862394385130500,9.338130615234375,1.2852104906857014,0.31840858173035086,0.32297493979781866
1788862394395171300,9.34817138671875,1.7650854264616964,0.18403215039055792,-0.09990414329767226
1788862394405212400,9.35821240234375,1.6936597741514443,0.15527767373966053,-0.4042909947425127
1788862394415254300,9.368254150390625,1.111658927375078,0.15096424925364554,-0.2509223877608776
1788862394425295400,9.37829541015625,1.2317781757056712,-0.08158810421857052,0.29873540155440564
1788862394435337500,9.38833740234375,1.4242133031845092,-0.12156847902452572,0.7434469617515802
1788862394445378600,9.398378662109375,0.9699532856583595,0.05886111682942137,0.7032125665187835
1788862394455420400,9.40842041015625,0.6630594198286534,0.11011563111264258,0.3198033240243792
1788862394465461500,9.41846142578125,0.8902432046055794,0.09568268967773765,0.004462240105867385
1788862394475503400,9.42850341796875,1.0313923814833164,0.293720276806131,0.044715193908661605
1788862394485544400,9.43854443359375,0.6203682790935039,0.3337018297890201,0.2706125921368599
1788862394495586300,9.44858642578125,0.7802297552257775,0.1745109829273075,0.2093997062832117
1788862394505627400,9.45862744140625,1.3914052585601806,0.16451923881024122,-0.06306026728600263
1788862394515669200,9.468669189453125,1.601842491197586,0.32688254169560965,-0.22228739103749393
1788862394525710300,9.47871044921875,1.5915414619356394,0.556208233872056,-0.267439076667279
1788862394535752400,9.48875244140625,1.4233458727002144,0.5706024507317692,-0.1277855451747775
1788862394545793500,9.49879345703125,1.4719582201778887,0.266863760997355,0.1296555768303573
1788862394555834600,9.508834716796875,1.6393687965154646,0.3495411674231291,0.4466946968384087
1788862394565876500,9.51887646484375,1.0911001234710216,0.6058436407871544,0.49603492019921536
1788862394575917600,9.52891748046875,0.5353203441441059,0.5371354307420552,0.03790025319680571
1788862394585959400,9.53895947265625,0.5025409410923719,0.4091949872665107,-0.451876044999063
1788862394596000500,9.54900048828125,0.964012205171585,0.5188346348978579,-0.5118288477890193
1788862394606042400,9.55904248046875,1.497359203416109,0.6304791926108301,-0.2991245470024645
1788862394616083500,9.56908349609375,1.547755511701107,0.7309007839113474,-0.07327770991772413
1788862394626125600,9.57912548828125,1.0690087031722069,0.8690024097867309,-0.1633295906342566
1788862394636166700,9.589166748046875,0.769286920928955,0.8885217876404523,-0.46551206390261646
1788862394646208500,9.59920849609375,0.9905863238424062,0.7694774750649929,-0.6000099661976098
1788862394656249600,9.60924951171875,1.146667112392187,0.7452730081349611,-0.324703078764677
1788862394666291500,9.61929150390625,1.0530173533141611,0.7974366183534264,-0.016556874786317347
1788862394676332500,9.62933251953125,0.6609235768437385,0.763292941211164,0.006110153443366289
1788862394686374400,9.63937451171875,0.39671617557406424,0.6390197880715132,-0.05765614322014153
1788862394696415500,9.64941552734375,0.48313247626721856,0.4715940141648054,-0.029716289154067634
1788862394706456300,9.659456298828125,0.4591162253856659,0.28947365221232174,0.23445048784427344
1788862394716498400,9.66949853515625,0.3680307638376951,0.0214779645755887,0.4987360689166933
1788862394726539300,9.679539306640624,0.2850105353236198,-0.318005919213593,0.5227212670728564
1788862394736581600,9.68958154296875,0.14951485416293142,-0.5471612963244319,0.28800694066062565
1788862394746622500,9.69962255859375,-0.3287643368542194,-0.805520263826847,0.02041618056297302
1788862394756664600,9.70966455078125,-1.1740496248364447,-1.2357114235013722,-0.185008119283244
1788862394766705400,9.719705322265625,-1.5125830760329961,-1.5684975632175802,-0.200285329522565
1788862394776747500,9.72974755859375,-1.3654758675336838,-1.6757330723166466,-0.07002740288488567
1788862394786788400,9.739788330078126,-1.1556541364461184,-1.6921178054064512,0.11977050795815884
1788862394796830500,9.74983056640625,-1.193307283014059,-1.5786504161804913,0.321033231145516
1788862394806871300,9.759871337890624,-1.0720160682946442,-1.3392495393872261,0.3236456056009978
1788862394816913400,9.769913330078126,-0.6861123786360025,-0.9871037424236535,0.21859869258739054
1788862394826954200,9.779954345703125,-0.3484855208903551,-0.5661129572927951,-0.0023800270043313502
1788862394836996600,9.78999658203125,-0.04727671495974064,-0.151125211969018,-0.25481048124060035
1788862394847037400,9.800037353515625,-0.1258627604186535,0.15704408062398434,-0.5040542682647705
1788862394857078500,9.81007861328125,-0.6110241121649742,0.39261107834279535,-0.504063474484533
1788862394867120400,9.820120361328126,-0.9508142854243516,0.48219607219994065,-0.2619883369807154
1788862394877161500,9.830161376953125,-0.8379092062562704,0.4201175094276666,0.25590149134770035
1788862394887203300,9.840203369140625,-0.3281803994864225,0.27722821088433264,0.7897793085332959
1788862394897244400,9.850244384765626,0.19221184011697767,0.1277092650681734,1.164977845108509
1788862394907286500,9.86028662109375,0.2310012972384691,-0.07885317196249961,1.2015052025169133
1788862394917327400,9.870327392578124,-0.11581424461305141,-0.38722938530445095,0.8991624241203069
1788862394927369500,9.880369384765626,-0.5139461322039366,-0.8002221574187278,0.34998693842925127
1788862394937410300,9.890410400390625,-1.0519459246903657,-1.1410270606786013,-0.22494323930852114
1788862394947452700,9.90045263671875,-1.3222802844077348,-1.399420222711563,-0.5727046106427908
1788862394957493500,9.910493408203125,-1.1011556535393,-1.5036188483327626,-0.8002196001354605
1788862394967535600,9.92053564453125,-0.7373796245366334,-1.465010592997074,-0.9480234856620431
1788862394977576400,9.930576416015626,-0.890206379726529,-1.3018950835049152,-0.960140624435246
1788862394987618600,9.94061865234375,-1.512150529834628,-0.9810936883538961,-0.7715471209459006
1788862394997659400,9.950659423828125,-1.8623533760368822,-0.5888888527244329,-0.4360596863817423
1788862395007700500,9.960700439453126,-1.7155489498764276,-0.20463468383848665,-0.18484372250176964
1788862395017742300,9.970742431640625,-1.2159586752831935,0.054392684444785115,-0.3331470089178532
1788862395027783400,9.980783447265624,-0.73837448079288,0.11617255653142929,-0.8282368302866816
1788862395037825300,9.9908251953125,-0.3878296892851591,0.03564122222363949,-1.250936172901094
1788862395047866400,10.000866455078125,-0.13639058417379854,-0.11185293976664543,-1.1894007770948112
1788862395057908500,10.010908447265624,-0.057628597626090045,-0.29672260042726994,-0.8071190773256123
1788862395067949600,10.020949462890625,-0.15084639502763747,-0.5802478656291962,-0.38080453988872465
1788862395077991400,10.030991455078125,-0.08018938900232314,-0.917103739002347,-0.07026786057725548
1788862395088032500,10.041032470703126,0.07355857268571853,-1.0716712003797293,0.2672373435501009
1788862395098074400,10.051074462890625,0.006004208850860595,-0.8335562717437743,0.583329172770679
1788862395108115500,10.061115478515624,-0.1503659180343151,-0.6217793149352073,0.42625615831315516
1788862395118157300,10.0711572265625,-0.5357476296454667,-0.5429401714980602,0.03513878912683576
1788862395128198400,10.081198486328125,-1.0321586896806956,-0.49067982290685175,-0.13118472262639552
1788862395138240500,10.091240478515624,-1.3414379893422126,-0.5323673395574092,-0.2961230270989239
1788862395148281600,10.101281494140625,-1.3451111248970031,-0.6865221284806728,-0.5431077100846916
1788862395158322700,10.11132275390625,-1.153806462752819,-0.8099977015018462,-0.6649849810637534
1788862395168364500,10.121364501953124,-0.8859943149894476,-0.8350403728216886,-0.7595614995978772
1788862395178405600,10.131405517578125,-0.4538467605501413,-0.7842489277392626,-0.8823495287463069
1788862395188447500,10.141447509765625,-0.1348848557859659,-0.6967232044994831,-0.894012055619806
1788862395198488600,10.151488525390626,0.012666004827618598,-0.7047083580344915,-0.8427211365826427
1788862395208530400,10.161530517578125,0.09119652070701122,-0.6987520799785852,-0.6422776208236813
1788862395218571500,10.171571533203124,0.0834592044532299,-0.6376596056342124,-0.3480225795537233
1788862395228613400,10.18161328125,-0.0726145698338747,-0.5316343491077423,-0.22928725986219942
1788862395238654500,10.191654541015625,-0.469255926606059,-0.448202032661438,-0.3120839818187058
1788862395248696600,10.201696533203124,-0.9075234252303839,-0.35707623910307884,-0.3887269669184461
1788862395258737700,10.211737548828125,-1.152670736721158,-0.13960136291384695,-0.3562066531943157
1788862395268779500,10.221779541015625,-1.1402023002922534,0.014165887996554374,-0.2776950612111017
1788862395278820600,10.231820556640624,-0.9992992071300745,0.007522796720266341,-0.14399550621956586
1788862395288861400,10.241861328125,-0.7496697817891835,-0.12749006935954094,-0.0067085211953148245
1788862395298903600,10.251903564453125,-0.5062281051725149,-0.2294862165004015,0.1451258254237473
1788862395308944400,10.2619443359375,-0.37191374275088307,-0.3175596367508173,0.2910411207247525
1788862395318986500,10.271986572265625,-0.2738186947017908,-0.5111708222717046,0.4429028302747756
1788862395329027300,10.28202734375,0.0784095198482275,-0.6852379338890314,0.5323069876722991
1788862395339069400,10.2920693359375,0.7176192775338888,-0.6936223158746957,0.5359165930042044
1788862395349110300,10.3021103515625,1.3113427108079194,-0.42169630305171013,0.41904396191202103
1788862395359152600,10.312152587890624,1.3847802874624728,0.02260521503984928,0.17064517434462903
1788862395369193500,10.322193359375,0.9120061236023902,0.41839141628742216,-0.04915832745525986
1788862395379235600,10.332235595703125,0.06449380722045898,0.6585463263183832,-0.25534597635678946
1788862395389276000,10.34227587890625,-1.0439321295827626,0.6820990513414145,-0.5269049459656701
1788862395399318000,10.352318115234375,-1.9022364736139774,0.4932756846189499,-0.9660411537159234
1788862395409359000,10.362359130859375,-2.3423884708106515,0.14966682985424995,-1.347556179961562
1788862395419401200,10.372401123046876,-2.5049083524972198,-0.3134147920310497,-1.462065771716833
1788862395429442000,10.382442138671875,-2.456857730555534,-0.7147329084426164,-1.0972495129462332
1788862395439483100,10.392483154296874,-2.02217042850554,-1.0776058511257172,-0.5650488717252389
1788862395449525000,10.40252490234375,-1.2913444633960722,-1.2881442060500383,-0.027705935712344944
1788862395459566000,10.412566162109375,-0.7919388977199793,-1.266311144426465,0.5914455880025401
1788862395469608200,10.422608154296874,-0.13899579823613167,-1.12340489474833,1.1020895003233104
1788862395479649000,10.43264892578125,0.5589660081475972,-0.8055366304397582,1.235388329026848
1788862395489691100,10.442691162109375,0.40765784082710743,-0.3777490247756243,1.27813996777758
1788862395499732000,10.45273193359375,-0.2711117738306522,-0.21715748080313205,1.2326197410963475
1788862395509774000,10.462774169921875,-0.92968674172163,-0.6522784980952739,0.9728053140886127
1788862395519815000,10.47281494140625,-1.238947336682677,-1.471618028438091,0.45775260888226327
1788862395529857300,10.482857177734376,-1.015844683739543,-2.077401901862025,-0.1934203391239047
1788862395539898000,10.492898193359375,-0.5837386303544044,-2.151198959478736,-0.7959190533973276
1788862395549940200,10.502940185546874,-0.9495242456138133,-1.8262533041298388,-1.0471449541494249
1788862395559981000,10.51298095703125,-1.2094576228260994,-1.6969804430067539,-0.8655928205389529
1788862395570023200,10.523023193359375,-1.1662953574478625,-1.834642070029676,-0.5858206242602318
1788862395580064000,10.53306396484375,-0.9533423425972462,-1.7654525062084196,-0.4753449641961604
1788862395590105000,10.54310498046875,-0.38079613738656043,-1.065757884682715,-0.49708523296974594
1788862395600147000,10.55314697265625,0.7861047847390175,-0.20011691415309904,-0.6136557758428156
1788862395610188000,10.56318798828125,1.4307646245241163,0.7437535434827208,-0.3857611393827945
1788862395620230100,10.573230224609375,1.3349205702722071,1.3374062496080994,-0.06953932710699737
1788862395630271200,10.583271240234374,0.9722001878023147,1.6572174646779894,0.07365852592885494
1788862395640313000,10.59331298828125,0.42829204805493354,1.7769006596788763,-0.08877630782276391
1788862395650354200,10.603354248046875,0.3765700441241264,1.6356673116490243,-0.3462450484871864
1788862395660396000,10.61339599609375,0.8233411671996116,1.4366858312666415,-0.5747424000807106
1788862395670437000,10.62343701171875,1.1619535288512706,1.1165668654218315,-0.4929207337014377
1788862395680479000,10.63347900390625,1.636072677579522,0.679216481642425,-0.05697773250192403
1788862395690520000,10.64352001953125,2.3253987575650212,-0.02643675602674484,0.45300782550796864
1788862395700562000,10.65356201171875,2.140381212866306,-0.7618402581848204,0.9119562931112944
1788862395710603000,10.66360302734375,1.718999967113137,-1.277129767821729,1.2212597043007611
1788862395720644000,10.67364404296875,1.3863888917028904,-1.3007877067849039,1.227611265284568
1788862395730686200,10.683686279296875,1.261184302932024,-0.9212203805409371,0.9611021629437804
1788862395740727300,10.693727294921874,0.6882604965806007,-0.6465194961771369,0.43319180279523134
1788862395750769200,10.70376904296875,0.024656886872649192,-0.62877268095389,-0.13407222422882914
1788862395760810200,10.713810302734375,0.4125929591417312,-0.7101892736636102,-0.6572903349079191
1788862395770852000,10.72385205078125,0.8238701595097779,-0.9147196203447878,-0.9028973728649318
1788862395780893200,10.73389306640625,1.0321937609940766,-1.3269438923045993,-0.8761290467962622
1788862395790935000,10.74393505859375,1.3690735997647046,-1.4579709036186337,-0.5428127457261085
1788862395800976100,10.75397607421875,1.6860861240267753,-1.0958399384092539,0.29118630134910345
1788862395811018000,10.76401806640625,1.7594886293679475,-0.856454478380829,0.9352423300221562
1788862395821059000,10.77405908203125,1.2549135520994663,-0.8781685897998511,1.1234297369286417
1788862395831101200,10.78410107421875,2.3560978472113607,-0.543366397553496,1.1651350814968346
1788862395841142300,10.794142333984375,3.066150488883257,0.26823472055699676,0.6931213806152343
1788862395851183000,10.80418310546875,1.8970657929778099,1.1427911477416752,-0.39491321780532596
1788862395861225200,10.81422509765625,1.6038456477135419,1.646658661262691,-0.9322714975178241
1788862395871266000,10.82426611328125,1.0277952337741851,1.9036828730300068,-0.8004878226175903
1788862395881308200,10.83430810546875,0.01789221504330635,1.8928791549429296,-0.5177259430035949
1788862395891349000,10.844348876953125,-0.9602221652388572,1.4009985779441891,-0.15819193548485636
1788862395901391000,10.85439111328125,-1.3497767786204815,0.27143832063758744,0.2223006889104843
1788862395911432000,10.864431884765626,-0.5317699581861496,-0.9671540103286504,0.30301614761352536
1788862395921474000,10.87447412109375,0.07612345473766327,-1.7457769148796796,0.37177842593342064
1788862395931515000,10.884514892578125,-0.8408639644086361,-1.9920555684879422,0.3632240942083299
1788862395941557200,10.89455712890625,-1.483524739331007,-2.0431607556946574,-0.028870997436344623
1788862395951598000,10.90459814453125,-0.4254138622701168,-2.017029412355274,-0.5491558311425149
1788862395961640200,10.91464013671875,0.6608481735199689,-1.4955163520283996,-0.926495836725831
1788862395971681000,10.924680908203126,0.7763865238010883,-1.0321989486258476,-1.0511198491297662
1788862395981723100,10.93472314453125,0.9958990432977676,-0.9248549376510083,-1.0641383206568658
1788862395991764000,10.944763916015624,1.6120973432302474,-0.7045517061680555,-1.029005778607726
1788862396001805000,10.95480517578125,2.597054136753082,-0.24389391389619558,-0.6173676359727979
1788862396011847000,10.964846923828125,3.4453462053358552,0.2697089030290954,-0.056713528607785696
1788862396021888000,10.974887939453126,3.9063001675426956,0.7588824312925339,0.2542461253561079
1788862396031929900,10.984929931640625,3.9705367851316926,1.2466235703989863,0.570457854629308
1788862396041971000,10.994970947265625,4.162535859280824,1.5691544196911156,0.8870749498330056
1788862396052013000,11.005012939453126,4.452828718921542,1.8063219844743608,1.0170238105215132
1788862396062054100,11.01505419921875,4.647938034045696,2.0643248320154846,0.8670360781498253
1788862396072096000,11.025095947265624,4.199530834200978,2.3703142963513733,0.6169334823392332
1788862396082137000,11.03513720703125,3.7151568334400653,2.521007546643913,0.40838118666559453
1788862396092179000,11.045178955078125,3.516919741684198,2.5357003811240193,0.14395268999114633
1788862396102220000,11.055219970703124,2.6890742488026618,2.321752071625739,-0.01900353728607297
1788862396112262000,11.065261962890625,1.531997970598936,1.8120935536131262,0.1463235107757151
1788862396122303000,11.075302978515625,0.8631728268504142,0.961569926586002,0.5255358861021697
1788862396132345000,11.085344970703124,0.8094552651882171,-0.05351034865230322,1.016809583248943
1788862396142386200,11.09538623046875,0.6541016218692064,-1.1469603962503372,1.303668815179169
1788862396152427300,11.10542724609375,-0.16731705283522605,-1.91779498501271,1.1075335180081427
1788862396162469000,11.11546923828125,-1.39659113676548,-2.2221999566361306,0.4602275476284325
1788862396172510200,11.12551025390625,-1.981082046791911,-2.230366750348359,-0.22673837909698485
1788862396182552000,11.135552001953124,-1.2318892348647117,-1.869366469669342,-0.4453248697899282
1788862396192593200,11.14559326171875,-0.21115268743038176,-1.169636776830256,-0.09153919666483998
1788862396202635000,11.155635009765625,0.3807423613727092,-0.6157602007761597,0.0033643618665635585
1788862396212676000,11.165676025390624,0.8881482781529426,-0.3586789981245994,-0.22952026490047572
1788862396222718000,11.175718017578125,1.2426526209414004,-0.22547142790108918,-0.43332799639552827
1788862396232759000,11.185759033203125,1.4132768986284732,-0.27631606447547674,-0.6020927638210356
1788862396242801200,11.19580126953125,1.419090553343296,-0.23406916037648914,-0.5459871379785239
1788862396252842200,11.20584228515625,1.1773176867216826,-0.09590572131127119,-0.35577604322470724
1788862396262884000,11.215884033203125,0.7839782941043376,-0.07517448344975709,-0.30923443760648367
1788862396272925200,11.22592529296875,-0.1470060862123966,-0.21551789690256118,-0.4227056992899626
1788862396282966000,11.235966064453125,-1.154472233185172,-0.4718839370220899,-0.4316092097789049
1788862396293008100,11.246008056640624,-1.8046528822183607,-0.7920338825270533,-0.2228339920695871
1788862396303049000,11.256049072265625,-2.1581600306630135,-1.1286591620147228,0.42056620304323733
1788862396313091000,11.266091064453125,-2.090001855716109,-1.4788120315954087,1.2570172463804483
1788862396323132200,11.276132080078124,-1.9838848292529583,-1.6730647298902273,1.6279460697472095
1788862396333174000,11.286174072265625,-2.0341116261899472,-1.935087188336253,1.3446988908343016
1788862396343215000,11.296215087890625,-2.177222458529472,-2.2078081509292122,0.5898827591326088
1788862396353257200,11.30625732421875,-2.084818900120258,-2.4142870013296602,-0.3879054579351097
1788862396363298300,11.31629833984375,-1.540398134675622,-2.4496084900796413,-1.1803103657316416
1788862396373340200,11.326340087890625,-0.5046522341579198,-2.114163068026304,-1.5947976872526108
1788862396383381200,11.33638134765625,0.6134989778459071,-1.489231426540017,-1.5669640700399874
1788862396393423000,11.346423095703125,1.5603098728477953,-0.7834738517135381,-1.3368347333304582
1788862396403464200,11.356464111328124,1.9567261886924505,-0.029978958678245543,-1.1826261683933437
1788862396413505000,11.366505126953125,1.7915695287615059,0.7703899137347936,-0.9229283535026014
1788862396423547100,11.376547119140625,1.5015695145875214,1.3621119440585374,-0.7021129347138106
1788862396433588000,11.386587890625,1.3860855248421429,1.7996148880511522,-0.4458136396875605
1788862396443630000,11.396630126953125,1.5134060828536748,2.028606014510989,-0.16678959489502013
1788862396453671000,11.4066708984375,1.884385175102949,2.153144248327613,0.17949417816735802
1788862396463713300,11.41671337890625,2.242995784166455,2.22122175925374,0.5282983365528285
1788862396473754000,11.426754150390625,2.348018001130223,2.2603765425562856,0.7155101764254271
1788862396483796200,11.436796142578125,2.141051074951887,2.224334922838211,0.7242413990873843
1788862396493837000,11.446837158203126,1.6474749460816382,1.8682184686779975,0.35705344274938106
1788862396503879200,11.456879150390625,0.8893331040233373,1.1119698930203914,-0.2495405780136585
1788862396513920000,11.466919921875,-0.37926702812314034,0.09223521610498428,-0.8053176539268344
1788862396523962000,11.476962158203126,-2.2848943132191897,-1.0770669219434261,-0.9577688538026065
1788862396534003000,11.4870029296875,-4.167717645832896,-2.32327577406168,-0.7139840628366917
1788862396544044000,11.4970439453125,-5.832249525177478,-3.471906295481324,-0.2149219768360257
1788862396554086000,11.5070859375,-6.635286155495047,-4.499059139698743,0.07146671497300267
1788862396564127000,11.517126953125,-6.183430861023068,-4.992984228137135,0.21242190364859997
1788862396574169000,11.527169189453126,-5.16651357961595,-4.605894543564319,0.15475618888251483
1788862396584210200,11.537210205078125,-4.434527338555455,-3.5787791087478396,-0.17275412932261824
1788862396594252000,11.547251953125,-3.823724175664782,-2.547106156757474,-0.8247484767142683
1788862396604293000,11.557293212890626,-3.4180683223098516,-2.073847424250841,-1.0907060095869003
1788862396614335000,11.5673349609375,-3.2441508482962846,-2.19919638992846,-0.7132839517433196
1788862396624376000,11.5773759765625,-2.723527722546458,-2.621456172081828,-0.08602678991891444
1788862396634418000,11.58741796875,-2.0905735181242227,-3.046121261811256,0.3104104225832969
1788862396644459000,11.597458984375,-1.450014099395275,-3.1262761640220877,0.7491125862978398
1788862396654501000,11.607501220703124,-0.7692290532618761,-2.6163193937152625,1.1953718873936683
1788862396664542200,11.617542236328125,0.3199327956229448,-1.4297194993853568,1.4416269409306346
1788862396674583300,11.627583251953125,1.4692477921754121,-0.12240414439737796,1.28803869984895
1788862396684625200,11.637625244140626,2.329390457549691,0.8772118735969066,0.867466432391107
1788862396694666200,11.647666259765625,2.7651614631831642,1.5813006384283304,0.35651086030527945
1788862396704708000,11.6577080078125,2.9617063640683887,2.002439892119169,-0.12951456092447042
1788862396714749200,11.667749267578126,2.919054970821738,2.2506635423153636,-0.43327253988124426
1788862396724791000,11.677791015625,2.6992630498617887,2.325060319390893,-0.5296781735386699
1788862396734832000,11.68783203125,2.3007699277430773,2.260236841824651,-0.4062227665226906
1788862396744874000,11.6978740234375,1.9021826976001261,2.09225694116652,-0.2466452218983322
1788862396754915000,11.7079150390625,1.60168583933115,1.8231530000269411,-0.22042210862226783
1788862396764957200,11.717957275390624,1.3586562506467104,1.421850665706396,-0.4180003711432218
1788862396774998300,11.727998291015625,0.9560808276504278,0.8339736203730106,-0.7629353599451482
1788862396785040100,11.7380400390625,0.07669803975522518,0.10401040957272052,-0.9570259995460509
1788862396795081200,11.748081298828126,-0.8211433648943901,-0.5050730899184942,-0.9192010035425424
1788862396805122000,11.7581220703125,-1.5023036740809679,-1.0512567733824252,-0.7857691961091011
1788862396815164200,11.7681640625,-2.158009808537364,-1.7227438298165798,-0.5300540941789746
1788862396825205000,11.778205078125,-2.6373949149698017,-2.296245728316903,-0.1041513524133712
1788862396835247000,11.7882470703125,-2.763169997105002,-2.4615035105347634,0.41812867369800805
1788862396845288000,11.798287841796874,-2.6635721432775257,-2.2118331686615944,0.8071309138938784
1788862396855330000,11.808330078125,-2.5601672983825203,-1.9092641802936792,0.8573034233603626
1788862396865371000,11.818370849609375,-2.3090426660478114,-1.5288848070144652,0.5723392844617367
1788862396875413200,11.828413330078124,-1.921601683819294,-1.0859084000468253,0.4005335419051349
1788862396885454000,11.8384541015625,-1.3236053955316542,-0.9992413394629954,0.42333712906129656
1788862396895496200,11.84849609375,-0.3712123164832592,-1.0922937171697615,0.6028004006337374
1788862396905537000,11.858537109375,0.21892156786620615,-0.9581360066145658,1.0921294665187598
1788862396915579100,11.8685791015625,0.4563496832817793,-0.7284113051831722,1.5555828443258999
1788862396925620000,11.878619873046874,0.3010276041448116,-0.5641963100165128,1.637734473311901
1788862396935661000,11.8886611328125,0.0501017092525959,-0.5717495018750429,1.1890314323257654
1788862396945703000,11.898702880859375,0.12591361382305621,-0.36782910378575323,0.6038245560497045
1788862396955744000,11.908743896484374,0.22032500492334364,0.007943652480840682,0.4911879185594618
1788862396965785900,11.918785888671875,0.07089081478118896,0.2527110247433185,0.6238716110393404
1788862396975827000,11.928826904296875,-0.20341420213282108,0.06913023484945297,0.5353972818378359
1788862396985869000,11.938869140625,-0.15918167717456816,-0.2734989612281322,0.14585589326396584
1788862396995910100,11.94891015625,0.3770324009388685,-0.6190116037875414,-0.3918911665704101
1788862397005952000,11.958951904296875,0.942715734642744,-0.7438000129729508,-0.6612797698702663
1788862397015993000,11.9689931640625,0.8844219511061906,-0.7666118565008044,-0.4402505622003227
1788862397026035000,11.979034912109375,0.3119944038391113,-0.894283419907093,-0.17650113383121788
1788862397036076000,11.989075927734374,-0.23982173255383968,-1.0063961796537042,0.11097060397416353
1788862397046118100,11.9991181640625,-0.4077507798075676,-1.0444731045916675,0.2776459979049861
1788862397056159000,12.009158935546875,-0.4094166671931743,-0.9140838066592812,0.29409678196832534
1788862397066200000,12.019199951171874,-0.18946224914789198,-0.6649634998843074,0.22397855899482963
1788862397076242000,12.029241943359375,0.1159931083112955,-0.4844882747903466,0.305862769216299
1788862397086283000,12.039282958984375,-0.00015256021320819854,-0.3598594400808215,0.41094796841368075
1788862397096325000,12.0493251953125,0.14839023404717444,-0.3722945587620139,0.33593539752736684
1788862397106366200,12.0593662109375,0.2132990518093109,-0.430322092577815,0.16655907407477497
1788862397116408000,12.069407958984375,-0.058438160443305964,-0.6064987436950207,0.010389584328234195
1788862397126449200,12.07944921875,0.3013151889145374,-0.847162187770009,-0.029554888047277926
1788862397136491000,12.089490966796875,0.5475871205210685,-1.07280751093328,0.05756459247916937
1788862397146532000,12.099531982421874,0.5352420182108879,-1.1688655001968145,0.13294380472078918
1788862397156574000,12.109573974609376,0.3768921156853437,-1.1605723036259412,0.15935981022045015
1788862397166615000,12.119614990234375,0.5034393512368202,-1.0340089937224983,0.171001440436393
1788862397176657200,12.1296572265625,0.4873784432739019,-0.8126575683608651,0.2802867216721177
1788862397186698200,12.1396982421875,0.575432574301958,-0.7146810321249067,0.3642033145040273
1788862397196739000,12.149739013671875,0.9274643894970417,-0.6901673531152308,0.5768826269797981
1788862397206781200,12.15978125,1.048717025771737,-0.0405640655785799,0.8506500298857689
1788862397216822300,12.169822265625,1.4394389293670653,0.29485739107728004,0.8376403261870146
1788862397226864000,12.179864013671875,1.7485650842934846,0.19323241533637045,0.8160515947133302
1788862397236905200,12.1899052734375,1.3656547312319278,-0.13419190508574247,0.87220719717741
1788862397246947000,12.199947021484375,1.164177634641528,-0.5714481808409094,0.800799957306683
1788862397256988200,12.20998828125,1.4635013574779032,-0.8215417165622114,0.6021612990126013
1788862397267030000,12.220030029296876,1.863317837154865,-0.5962317628331482,0.5914581186905503
1788862397277071000,12.230071044921875,2.280539040619135,-0.28474443173334,1.0360898916497825
1788862397287113200,12.24011328125,1.4767957233369349,0.029089754753559825,1.2043877722159027
1788862397297154300,12.250154296875,1.3142892856538295,0.29912213584966957,0.8089373787939548
1788862397307196200,12.260196044921875,2.0459294897556304,0.4786865297090262,0.12677812169790267
1788862397317237200,12.2702373046875,2.487052962332964,0.7654197971720248,-0.3723927584394812
1788862397327278000,12.280278076171875,1.8391595474541187,0.7223367345098406,-0.6952613152533769
1788862397337320200,12.2903203125,0.9583154548346996,0.23779819083698092,-0.8179112511053681
1788862397347361000,12.300361083984376,0.5985328793823719,-0.3797931708890944,-0.7486950915381312
1788862397357403100,12.310403076171875,0.7091033781230449,-0.7183549713972955,-0.4688970301657915
1788862397367444000,12.32044384765625,0.9530091651201248,-0.740566218683496,-0.0423395508185029
1788862397377486000,12.330486083984376,0.8015180424481629,-0.48566937433369456,0.5166974767386913
1788862397387527700,12.340527587890625,0.8096072408795356,-0.1477849981630221,0.9188546743229031
1788862397397569500,12.350569580078124,1.3690811985492706,0.2233092448985204,1.3449196939781307
1788862397407610600,12.360610595703125,1.6908207513332365,0.3921152576498687,1.1602531546741723
1788862397417652500,12.370652587890625,1.8335943145424127,0.5051772078800946,0.4477303234964609
1788862397427693600,12.380693603515626,1.619793158429861,0.45472924247309565,0.2688347688093781
1788862397437735700,12.390735595703125,1.2982669561356306,0.21014246920822188,0.037186698099970814
1788862397447776800,12.40077685546875,1.589477515143156,0.2661138194128871,-0.23408611151129005
1788862397457817900,12.41081787109375,1.8129419871360062,0.17722418740876017,0.3460772907048464
1788862397467859700,12.420859619140625,1.6673948675602674,0.06843161246026866,1.2845812528714537
1788862397477900800,12.43090087890625,1.257556760084629,-0.01867666054393048,1.372493345080316
1788862397487942700,12.440942626953126,1.7763409799695014,-0.007832693786500021,1.036749524602294
1788862397497983700,12.450983642578125,1.8509692277133463,0.2575544096538797,0.9482111171886324
1788862397508025600,12.461025634765624,1.4950836596995591,0.4471802883982658,1.0600390686444938
1788862397518066700,12.471066650390625,1.1550105778455733,0.34434553500879556,0.8463558398231863
1788862397528108500,12.481108642578125,1.575385276904702,0.16143712795116005,0.4484175751082599
1788862397538149600,12.491149658203126,1.7908605037093162,-0.05034983879476786,0.2008821994371712
1788862397548191700,12.501191650390625,1.4917068767428396,-0.17172537079676986,0.1446964940957725
1788862397558232800,12.51123291015625,1.7448299894183874,-0.05000562846697867,-0.011546937669813632
1788862397568274700,12.521274658203126,1.7139193028479813,0.10831037178896367,-0.30437896039932966
1788862397578315800,12.531315673828125,1.035788570615649,0.2666153391942382,-0.41749081418588757
1788862397588356600,12.541356689453124,0.770254889178276,0.4256770432509482,-0.12304244230091571
1788862397598398700,12.551398681640626,1.0057301169604063,0.43589857753589745,0.1474878783799708
1788862397608439800,12.561439697265625,0.7999749046593904,0.2232283251494169,0.3169793526448309
