time,seconds_elapsed,z,y,x
1789635313639315700,0.051315673828125,-0.4766419231891632,-0.04241510108113289,1.8424451351165771
1789635313649355500,0.06135546875,-0.5520964860916138,-0.47185540199279785,2.062943935394287
1789635313659394600,0.07139453125,-0.7105324268341064,-1.0491962432861328,2.2225840091705322
1789635313669434600,0.0814345703125,-0.8808975219726562,-1.7190760374069214,2.3237311840057373
1789635313679473400,0.091473388671875,-1.04634428024292,-2.181302070617676,2.306879758834839
1789635313689513500,0.101513427734375,-1.2135149240493774,-2.195594072341919,2.1169638633728027
1789635313699553500,0.111553466796875,-1.3049782514572144,-1.994038701057434,1.9197508096694946
1789635313709592600,0.121592529296875,-1.2316049337387085,-1.9062179327011108,1.4533774852752686
1789635313719632400,0.13163232421875,-1.0300419330596924,-1.8205294609069824,0.8221431374549866
1789635313729672400,0.14167236328125,-0.8379758596420288,-1.4287440776824951,0.27785611152648926
1789635313739711500,0.15171142578125,-0.6829620599746704,-0.7657133936882019,-0.12520159780979156
1789635313749751600,0.16175146484375,-0.5170071721076965,-0.06545330584049225,-0.4150318205356598
1789635313759790300,0.171790283203125,-0.29411789774894714,0.4714961647987366,-0.6234974265098572
1789635313769830400,0.181830322265625,0.011681956239044666,0.5898401141166687,-0.7820076942443848
1789635313779870500,0.191870361328125,0.3844110667705536,0.18412376940250397,-0.8603405952453613
1789635313789909500,0.201909423828125,0.7905569672584534,-0.47750183939933777,-0.8168500661849976
1789635313799949300,0.21194921875,1.087079405784607,-1.1139339208602905,-0.7094216346740723
1789635313809988600,0.221988525390625,1.1370099782943726,-1.7085374593734741,-0.6490238308906555
1789635313820028400,0.2320283203125,1.2440792322158813,-2.1312553882598877,-0.5420613884925842
1789635313830068500,0.242068359375,1.5136626958847046,-2.5931007862091064,-0.41542890667915344
1789635313840107500,0.252107421875,1.8859769105911255,-3.4300484657287598,-0.2655930519104004
1789635313850147600,0.262147705078125,2.4538865089416504,-4.2783026695251465,0.07694111764431
1789635313860186600,0.2721865234375,2.9062345027923584,-4.947494029998779,0.42299893498420715
1789635313870226400,0.282226318359375,3.07873272895813,-5.3021626472473145,0.6161092519760132
1789635313880266500,0.2922666015625,3.045970916748047,-5.398838996887207,0.631654679775238
1789635313890305500,0.302305419921875,2.8794825077056885,-5.333519458770752,0.6076982021331787
1789635313900345600,0.312345703125,2.6645264625549316,-5.333296298980713,0.5788159370422363
1789635313910384400,0.32238427734375,2.438812732696533,-5.667694568634033,0.4861224889755249
1789635313920424400,0.332424560546875,2.4090325832366943,-6.132558822631836,0.5575854778289795
1789635313930464500,0.342464599609375,2.55938982963562,-6.481177806854248,0.8470093011856079
1789635313940503600,0.352503662109375,2.78928542137146,-6.711195945739746,1.3453072309494019
1789635313950543400,0.36254345703125,3.2061150074005127,-6.535865783691406,2.088593006134033
1789635313960582400,0.37258251953125,3.65704607963562,-6.012181758880615,2.8580687046051025
1789635313970622500,0.38262255859375,4.018693923950195,-5.478036880493164,3.40376877784729
1789635313980662500,0.39266259765625,4.371757984161377,-5.146596908569336,3.6799724102020264
1789635313990701300,0.402701416015625,4.8111138343811035,-4.733875751495361,3.798384428024292
1789635314000741400,0.412741455078125,5.268036365509033,-4.145025730133057,3.7796363830566406
1789635314010780700,0.42278076171875,5.591628551483154,-3.402151346206665,3.5858404636383057
1789635314020820500,0.432820556640625,5.561609268188477,-2.8175690174102783,3.292287588119507
1789635314030860500,0.442860595703125,5.2071099281311035,-2.577672004699707,3.0933258533477783
1789635314040899600,0.452899658203125,4.725337028503418,-2.3765616416931152,3.0164897441864014
1789635314050939600,0.462939697265625,4.218188762664795,-2.0976226329803467,2.9760942459106445
1789635314060978400,0.472978515625,3.81691575050354,-1.7134431600570679,2.9109911918640137
1789635314071018500,0.4830185546875,3.481765031814575,-1.2559651136398315,2.808980941772461
1789635314081057500,0.4930576171875,3.105829954147339,-0.9064633250236511,2.7135884761810303
1789635314091096300,0.503096435546875,2.698780059814453,-0.84422767162323,2.619753360748291
1789635314101136400,0.513136474609375,2.3944549560546875,-1.0126919746398926,2.4829208850860596
1789635314111175400,0.523175537109375,2.3343262672424316,-1.1333985328674316,2.3362929821014404
1789635314121215500,0.533215576171875,2.515312910079956,-0.7840532660484314,2.209031343460083
1789635314131255300,0.54325537109375,2.806155204772949,-0.5888129472732544,2.184767484664917
1789635314141294600,0.553294677734375,2.811143636703491,-0.8418715596199036,2.1810717582702637
1789635314151334400,0.56333447265625,2.182731866836548,-2.1079514026641846,1.917481780052185
1789635314161373400,0.57337353515625,1.2408338785171509,-3.787728786468506,0.5422861576080322
1789635314171413500,0.58341357421875,0.7635546326637268,-4.923732757568359,-1.3008607625961304
1789635314181453600,0.59345361328125,1.4405711889266968,-2.3843870162963867,-1.6490743160247803
1789635314191492600,0.60349267578125,1.9586730003356934,0.11912772059440613,-1.737426519393921
1789635314201532700,0.61353271484375,2.7101850509643555,0.8399010896682739,-1.9144413471221924
1789635314211572500,0.623572509765625,2.9552085399627686,0.7407673001289368,-1.80411696434021
1789635314221611500,0.633611572265625,3.5160446166992188,-0.272868812084198,-1.539384365081787
1789635314231651600,0.643651611328125,4.454558849334717,-1.4409443140029907,-1.1815226078033447
1789635314241690400,0.6536904296875,5.078821182250977,-1.3990684747695923,-0.6020663976669312
1789635314251730400,0.66373046875,5.162848949432373,-0.9819929599761963,-0.49227041006088257
1789635314261770500,0.6737705078125,4.816010475158691,-0.37469184398651123,-0.6910495758056641
1789635314271809500,0.6838095703125,4.646726131439209,0.529445469379425,-0.5026383399963379
1789635314281849300,0.693849365234375,4.607738018035889,0.8188210725784302,-0.4343527853488922
1789635314291888400,0.703888427734375,4.554905891418457,0.3293520510196686,-0.8829146027565002
1789635314301928400,0.713928466796875,4.298283576965332,0.011198326013982296,-1.2755992412567139
1789635314311968500,0.723968505859375,3.5875487327575684,-0.32059240341186523,-1.2038912773132324
1789635314322007300,0.73400732421875,2.6646416187286377,-1.2289977073669434,-0.4531046450138092
1789635314332047400,0.74404736328125,1.895358920097351,-2.975205898284912,0.6862154006958008
1789635314342086700,0.754086669921875,1.2046180963516235,-3.474581241607666,1.5235955715179443
1789635314352126700,0.764126708984375,0.3417362868785858,-3.0847511291503906,1.6492631435394287
1789635314362166500,0.77416650390625,-0.16750191152095795,-2.6775145530700684,1.4290276765823364
1789635314372205600,0.78420556640625,-0.3922439515590668,-2.222332715988159,1.1845040321350098
1789635314382245600,0.79424560546875,0.09150008857250214,-1.8289180994033813,1.0562498569488525
1789635314392284400,0.804284423828125,0.6643908023834229,-2.0351314544677734,0.6382145881652832
1789635314402324500,0.814324462890625,1.2866826057434082,-1.9902420043945312,0.222618967294693
1789635314412364500,0.824364501953125,1.790160059928894,-1.6697425842285156,-0.24978506565093994
1789635314422403600,0.834403564453125,2.2177834510803223,-1.4205255508422852,-0.7536604404449463
1789635314432443400,0.844443359375,2.6026225090026855,-1.196293830871582,-1.034400224685669
1789635314442482400,0.854482421875,2.8266773223876953,-1.184785008430481,-0.8045207262039185
1789635314452522500,0.8645224609375,2.3405966758728027,-1.2662768363952637,-0.11637508124113083
1789635314462562600,0.8745625,1.8195425271987915,-1.3575255870819092,0.7509094476699829
1789635314472601300,0.884601318359375,1.5870239734649658,-1.0309128761291504,1.418969988822937
1789635314482641400,0.894641357421875,1.2259238958358765,-1.018979787826538,1.2366857528686523
1789635314492681500,0.904681396484375,0.9654653668403625,-0.9070295095443726,0.7020321488380432
1789635314502720500,0.914720458984375,0.7347163558006287,-0.538850724697113,0.05704464390873909
1789635314512760300,0.92476025390625,0.532353401184082,-0.0008005462004803121,-0.6662243604660034
1789635314522799600,0.934799560546875,0.4877749979496002,0.4695030450820923,-1.442865252494812
1789635314532839400,0.94483935546875,0.6700507998466492,1.1905003786087036,-2.219470739364624
1789635314542879500,0.95487939453125,0.7761322259902954,2.2836527824401855,-2.8685078620910645
1789635314552918500,0.96491845703125,0.3690571188926697,2.607454776763916,-1.9525314569473267
1789635314562958600,0.97495849609375,-0.15655924379825592,0.05037342384457588,0.6733281016349792
1789635314572997600,0.98499755859375,-0.14124926924705505,-0.6221232414245605,0.07176952809095383
1789635314583037400,0.995037353515625,0.05706008896231651,-0.15962988138198853,-0.058987684547901154
1789635314593077500,1.005077392578125,-0.04199458658695221,-0.1438804715871811,-0.020264791324734688
1789635314603116500,1.015116455078125,-0.1750117540359497,-0.059895291924476624,0.057074204087257385
1789635314613156600,1.025156494140625,-0.23048673570156097,-0.18643778562545776,0.1243821382522583
1789635314623195400,1.0351953125,-0.24518445134162903,-0.14981000125408173,0.10395755618810654
1789635314633235500,1.0452353515625,-0.295317143201828,-0.15092186629772186,0.11555775254964828
1789635314643275500,1.055275634765625,-0.26499491930007935,-0.40149471163749695,-0.07930947095155716
1789635314653314600,1.065314453125,-0.15201349556446075,-0.7170805931091309,-0.2061518430709839
1789635314663354400,1.075354248046875,-0.0029949909076094627,-0.9281084537506104,0.05736768618226051
1789635314673393400,1.085393310546875,0.09169530123472214,-0.8353105783462524,0.2150510549545288
1789635314683433500,1.09543359375,-0.005676261615008116,-0.5930769443511963,0.12822002172470093
1789635314693473500,1.1054736328125,-0.24319720268249512,-0.19130444526672363,-0.10475890338420868
1789635314703512300,1.11551220703125,-0.4947982728481293,-0.05570720508694649,-0.33706483244895935
1789635314713552400,1.125552490234375,-0.5820327997207642,-0.327374666929245,-0.42642587423324585
1789635314723591700,1.135591796875,-0.6704846024513245,-0.8536850810050964,-0.3362821340560913
1789635314733631500,1.145631591796875,-0.2227257490158081,-1.2282168865203857,-0.25100985169410706
1789635314743671300,1.15567138671875,0.6059202551841736,-0.9522859454154968,-0.022528212517499924
1789635314753710600,1.165710693359375,0.8951840400695801,-0.9634280800819397,-0.12322313338518143
1789635314763750700,1.175750732421875,0.8654801845550537,-1.1943275928497314,-0.3846054673194885
1789635314773790700,1.185790771484375,0.8202930092811584,-1.5486252307891846,-0.6281829476356506
1789635314783829500,1.19582958984375,0.7263918519020081,-2.0934207439422607,-0.8686941266059875
1789635314793869600,1.20586962890625,0.7405603528022766,-3.0939414501190186,-0.924925684928894
1789635314803908600,1.21590869140625,0.8794535398483276,-3.6307082176208496,-0.8906223177909851
1789635314813948400,1.225948486328125,0.9330941438674927,-1.9406217336654663,-0.2538383901119232
1789635314823988500,1.235988525390625,1.0520961284637451,-0.8562158942222595,-0.4438043534755707
1789635314834027500,1.246027587890625,1.3845009803771973,-1.0303319692611694,-0.6603251695632935
1789635314844067600,1.256067626953125,1.6191095113754272,-2.1665360927581787,-0.8007568717002869
1789635314854106400,1.2661064453125,1.3119479417800903,-2.7196693420410156,-0.8308069109916687
1789635314864146400,1.276146484375,1.5315687656402588,-1.2809640169143677,-0.3729408085346222
1789635314874186500,1.2861865234375,1.4630578756332397,-0.9611542820930481,-0.23871377110481262
1789635314884225300,1.296225341796875,1.2841371297836304,-1.1105387210845947,-0.18443109095096588
1789635314894265300,1.306265380859375,0.9658081531524658,-0.8989894390106201,-0.16621693968772888
1789635314904304400,1.316304443359375,0.6934093832969666,-0.856857180595398,-0.0981108546257019
1789635314914344400,1.326344482421875,0.46562016010284424,-0.6293622255325317,-0.07137484848499298
1789635314924384500,1.336384521484375,0.31718194484710693,-0.6792168617248535,-0.09623225778341293
1789635314934423600,1.346423583984375,0.0685763955116272,-0.878525972366333,0.01619414985179901
1789635314944463600,1.356463623046875,-0.12858887016773224,-0.9860209822654724,0.03410550579428673
1789635314954502700,1.366502685546875,-0.30101361870765686,-1.100438117980957,0.033904436975717545
1789635314964542500,1.37654248046875,-0.43823593854904175,-1.1557285785675049,-0.007119961082935333
1789635314974582500,1.38658251953125,-0.1586114764213562,-1.1540549993515015,-0.04776192829012871
1789635314984621600,1.39662158203125,0.17402026057243347,-0.9761286973953247,-0.05898156017065048
1789635314994661600,1.40666162109375,0.37017112970352173,-0.9804467558860779,-0.056361276656389236
1789635315004701400,1.416701416015625,0.4857059717178345,-0.9181393980979919,-0.07347581535577774
1789635315014740500,1.426740478515625,0.5288888812065125,-0.7679070234298706,-0.13314659893512726
1789635315024780500,1.436780517578125,0.42211368680000305,-0.46756985783576965,-0.2558687925338745
1789635315034819600,1.446819580078125,0.3068177402019501,-0.24310985207557678,-0.42583680152893066
1789635315044859400,1.456859375,0.18829934298992157,-0.16203497350215912,-0.49370718002319336
1789635315054899500,1.4668994140625,0.12646685540676117,-0.28871116042137146,-0.49646222591400146
1789635315064938500,1.4769384765625,0.17240825295448303,-0.40360498428344727,-0.4737395942211151
1789635315074978600,1.486978515625,0.33060508966445923,-0.5567077398300171,-0.49585822224617004
1789635315085017900,1.497017822265625,0.5594316124916077,-0.69487065076828,-0.4723323881626129
1789635315095058000,1.507057861328125,0.7386344075202942,-0.7693507671356201,-0.3724220395088196
1789635315105097700,1.51709765625,0.8863285183906555,-0.9582290649414062,-0.22520887851715088
1789635315115136800,1.52713671875,0.9596801996231079,-1.0761079788208008,-0.06601390242576599
1789635315125176800,1.5371767578125,0.9579408764839172,-1.114410638809204,-0.041495513170957565
1789635315135215900,1.5472158203125,0.9225424528121948,-1.0358729362487793,-0.05131378769874573
1789635315145255700,1.557255615234375,0.8757568001747131,-0.916033148765564,0.0009571401169523597
1789635315155295700,1.567295654296875,0.8730766177177429,-0.8644658327102661,0.07504894584417343
1789635315165335000,1.5773349609375,0.8990349769592285,-0.8327640891075134,0.1387469619512558
1789635315175374800,1.587374755859375,0.9004323482513428,-0.8506482839584351,0.17975644767284393
1789635315185414000,1.597413818359375,0.8670464158058167,-0.7558546662330627,0.20466633141040802
1789635315195454000,1.607453857421875,0.8464095592498779,-0.6157119274139404,0.2212170660495758
1789635315205494000,1.617493896484375,0.735225260257721,-0.42811059951782227,0.22927740216255188
1789635315215532800,1.62753271484375,0.6176885366439819,-0.2673936188220978,0.2655962407588959
1789635315225572900,1.63757275390625,0.4847981035709381,-0.1948762834072113,0.3724539875984192
1789635315235613000,1.647613037109375,0.4202907681465149,-0.23625966906547546,0.5050695538520813
1789635315245652000,1.65765185546875,0.3139110505580902,-0.30163493752479553,0.6136040091514587
1789635315255691800,1.66769189453125,0.2016308605670929,-0.2918646037578583,0.6862742304801941
1789635315265730800,1.677730712890625,0.13086161017417908,-0.4545251727104187,0.7483128309249878
1789635315275771000,1.68777099609375,-0.019943613559007645,-0.41893309354782104,0.777665913105011
1789635315285811000,1.69781103515625,-0.17126496136188507,-0.3461824357509613,0.849534809589386
1789635315295849700,1.707849609375,-0.24828676879405975,-0.14635242521762848,0.8921653628349304
1789635315305889800,1.717889892578125,-0.3367825448513031,-0.06234912946820259,0.9262271523475647
1789635315315928800,1.7279287109375,-0.4491330683231354,-0.11627254635095596,0.9423467516899109
1789635315325969000,1.737968994140625,-0.5371065735816956,0.04352830350399017,0.872402012348175
1789635315336008700,1.7480087890625,-0.5988722443580627,0.9245419502258301,0.6749789714813232
1789635315346048000,1.758048095703125,-0.6478509306907654,1.8759835958480835,0.6238529086112976
1789635315356087800,1.768087890625,-0.6247512102127075,2.354400873184204,0.7178555727005005
1789635315366127900,1.7781279296875,-0.48082441091537476,2.9754135608673096,0.8929421901702881
1789635315376167000,1.7881669921875,-0.31551453471183777,3.4735360145568848,0.9004014134407043
1789635315386207000,1.79820703125,-0.28054219484329224,2.684405565261841,0.8505342602729797
1789635315396246000,1.80824609375,-0.3533466160297394,1.0493298768997192,0.7296385169029236
1789635315406285800,1.818285888671875,-0.19854958355426788,0.07231094688177109,0.2403111308813095
1789635315416326000,1.828325927734375,-0.11488983035087585,-0.31958332657814026,-0.18033409118652344
1789635315426365000,1.838364990234375,-0.20570255815982819,-0.6099014282226562,-0.16573570668697357
1789635315436405000,1.848405029296875,-0.20674705505371094,-1.3641637563705444,0.48858165740966797
1789635315446443800,1.85844384765625,0.00472391489893198,-2.115999460220337,1.0424683094024658
1789635315456483800,1.86848388671875,-0.0070374030619859695,-2.6248607635498047,1.4152237176895142
1789635315466524000,1.87852392578125,-0.1203802078962326,-2.0260872840881348,1.2213234901428223
1789635315476563000,1.88856298828125,-0.1976502239704132,-0.6325276494026184,0.399966299533844
1789635315486602800,1.898602783203125,-0.13179637491703033,0.21285341680049896,-0.44837486743927
1789635315496641800,1.908641845703125,0.007781223859637976,0.32278576493263245,-0.8004649877548218
1789635315506681900,1.918681884765625,0.10135138779878616,0.23001402616500854,-0.759573757648468
1789635315516722000,1.928721923828125,0.10182223469018936,-0.025066470727324486,-0.3628453016281128
1789635315526760700,1.9387607421875,0.011620969511568546,-0.18024353682994843,0.008731972426176071
1789635315536800800,1.94880078125,-0.13343794643878937,-0.13890275359153748,0.2014596164226532
1789635315546840800,1.9588408203125,-0.23326867818832397,-0.07952145487070084,0.21067148447036743
1789635315556880000,1.9688798828125,-0.24219904839992523,-0.1417238414287567,0.1088993176817894
1789635315566919700,1.978919677734375,-0.21351121366024017,-0.376010924577713,0.030525417998433113
1789635315576959000,1.988958984375,-0.19041681289672852,-0.5657403469085693,0.016515860334038734
1789635315586999000,1.9989990234375,-0.16407522559165955,-0.543717086315155,0.06048145145177841
1789635315597038800,2.009038818359375,-0.14014965295791626,-0.3524520695209503,0.11084369570016861
1789635315607078000,2.019077880859375,-0.11118751019239426,-0.09960275888442993,0.14859160780906677
1789635315617118000,2.029117919921875,-0.0842680111527443,0.041484858840703964,0.15722157061100006
1789635315627157000,2.039156982421875,-0.08161629736423492,0.04332883283495903,0.16904893517494202
1789635315637196800,2.04919677734375,-0.09238132834434509,0.015918511897325516,0.20605170726776123
1789635315647236900,2.05923681640625,-0.11188045889139175,0.007260043174028397,0.26403191685676575
1789635315657276000,2.06927587890625,-0.13466887176036835,-0.04144038259983063,0.3269762694835663
1789635315667316000,2.07931591796875,-0.1456940919160843,-0.1462157964706421,0.3710417151451111
1789635315677354800,2.089354736328125,-0.14994262158870697,-0.24979731440544128,0.3773299753665924
1789635315687394800,2.099394775390625,-0.15550890564918518,-0.29845139384269714,0.3744281828403473
1789635315697435000,2.109434814453125,-0.16541825234889984,-0.19960471987724304,0.3561170995235443
1789635315707473700,2.1194736328125,-0.1900964379310608,-0.063630111515522,0.35932567715644836
1789635315717513700,2.129513671875,-0.2321927547454834,-0.010411628521978855,0.3464924395084381
1789635315727553800,2.1395537109375,-0.26321858167648315,-0.019422966986894608,0.34008219838142395
1789635315737592800,2.1495927734375,-0.2862969934940338,-0.09914229810237885,0.3586002290248871
1789635315747633000,2.1596328125,-0.33757349848747253,-0.15098285675048828,0.3880348205566406
1789635315757672000,2.169671875,-0.40066540241241455,-0.07040678709745407,0.3793180286884308
1789635315767712000,2.1797119140625,-0.441771537065506,0.021191837266087532,0.3659473657608032
1789635315777751800,2.189751708984375,-0.48334962129592896,0.02955123409628868,0.3729187250137329
1789635315787790800,2.199790771484375,-0.5242443084716797,-0.0552976094186306,0.4154416620731354
1789635315797831000,2.209830810546875,-0.5296265482902527,-0.16950806975364685,0.43385425209999084
1789635315807870000,2.219869873046875,-0.5136271119117737,-0.259940505027771,0.4074559211730957
1789635315817910000,2.229909912109375,-0.4858655035495758,-0.25604695081710815,0.34162524342536926
1789635315827949800,2.23994970703125,-0.43596240878105164,-0.17507781088352203,0.25402429699897766
1789635315837988900,2.24998876953125,-0.37274613976478577,-0.09008941054344177,0.16702599823474884
1789635315848029000,2.26002880859375,-0.27910754084587097,-0.03610154613852501,0.06058691442012787
1789635315858069000,2.270069091796875,-0.1904682070016861,-0.04006832465529442,-0.05764571949839592
1789635315868107800,2.280107666015625,-0.1154903769493103,-0.15886075794696808,-0.18601487576961517
1789635315878147800,2.29014794921875,-0.04404309019446373,-0.3014317452907562,-0.2853816747665405
1789635315888187000,2.300186767578125,0.021989189088344574,-0.30602091550827026,-0.38222432136535645
1789635315898227000,2.31022705078125,0.09806318581104279,-0.10476822406053543,-0.5016897320747375
1789635315908266800,2.320266845703125,0.2001434713602066,0.14132943749427795,-0.5974282622337341
1789635315918305800,2.330305908203125,0.3012259006500244,0.2595921456813812,-0.625831663608551
1789635315928345900,2.340345947265625,0.36511218547821045,0.28626692295074463,-0.6005204319953918
1789635315938385000,2.350385009765625,0.3794407844543457,0.30479851365089417,-0.588402509689331
1789635315948424700,2.3604248046875,0.3614676594734192,0.3057463467121124,-0.608500599861145
1789635315958464800,2.37046484375,0.33496201038360596,0.2673051953315735,-0.6184414029121399
1789635315968504000,2.380504150390625,0.3176650404930115,0.2398727834224701,-0.6266124844551086
1789635315978543900,2.3905439453125,0.3114481568336487,0.2287389039993286,-0.6302477121353149
1789635315988583700,2.400583740234375,0.24872273206710815,0.2585434019565582,-0.6198025345802307
1789635315998623000,2.410623046875,0.19626697897911072,0.36746084690093994,-0.6190006732940674
1789635316008663000,2.4206630859375,0.24721777439117432,0.46135830879211426,-0.6222582459449768
1789635316018701800,2.430701904296875,0.27918344736099243,0.3698451519012451,-0.6261603236198425
1789635316028742000,2.440741943359375,0.2955978214740753,0.5312199592590332,-0.6951993107795715
1789635316038782000,2.450781982421875,0.3703831136226654,0.6473670601844788,-0.6400044560432434
1789635316048821000,2.460821044921875,0.46248722076416016,0.5961208939552307,-0.4736115038394928
1789635316058860800,2.47086083984375,0.4799961745738983,0.6787055134773254,-0.46418285369873047
1789635316068899800,2.48089990234375,0.5015720129013062,0.5749844908714294,-0.419532835483551
1789635316078940000,2.49093994140625,0.43710410594940186,0.5539529323577881,-0.3168453276157379
1789635316088980000,2.50097998046875,0.4917260706424713,0.48675206303596497,-0.22104769945144653
1789635316099019000,2.51101904296875,0.5206711292266846,0.2544724941253662,-0.14766855537891388
1789635316109059000,2.52105908203125,0.4862023890018463,0.18523430824279785,-0.04788842797279358
1789635316119099100,2.53109912109375,0.45013388991355896,0.18603672087192535,0.12931963801383972
1789635316129138000,2.541137939453125,0.4373834729194641,0.11853144317865372,0.39176830649375916
1789635316139178000,2.551177978515625,0.4280075430870056,0.07698746025562286,0.6650635004043579
1789635316149217000,2.561217041015625,0.37669429183006287,0.08002426475286484,0.8269945979118347
1789635316159256800,2.5712568359375,0.3035130202770233,0.04184065759181976,0.8589738607406616
1789635316169297000,2.581296875,0.2060311883687973,-0.07431045174598694,0.7867137789726257
1789635316179336200,2.591336181640625,0.10458606481552124,-0.2352849543094635,0.6812360882759094
1789635316189376000,2.6013759765625,0.02593173272907734,-0.32106083631515503,0.5843212604522705
1789635316199415000,2.6114150390625,-0.03166365250945091,-0.33814048767089844,0.5022391676902771
1789635316209455000,2.621455078125,-0.12059912085533142,-0.40431126952171326,0.414237916469574
1789635316219495200,2.6314951171875,-0.23449665307998657,-0.5447770357131958,0.404184490442276
1789635316229534000,2.641533935546875,-0.35293543338775635,-0.6624626517295837,0.546034038066864
1789635316239574000,2.651573974609375,-0.44595804810523987,-0.7284419536590576,0.7621034979820251
1789635316249614000,2.661614013671875,-0.5198085904121399,-0.7543733716011047,0.9451617002487183
1789635316259653000,2.671653076171875,-0.5743932723999023,-0.7888203263282776,1.041863203048706
1789635316269693200,2.681693115234375,-0.5683340430259705,-0.7851965427398682,0.9267252087593079
1789635316279732000,2.69173193359375,-0.5117828845977783,-0.5971656441688538,0.5831747651100159
1789635316289772000,2.70177197265625,-0.43347740173339844,-0.10219507664442062,-0.06611190736293793
1789635316299812000,2.71181201171875,-0.2949533462524414,0.5421910881996155,-0.8073793649673462
1789635316309851000,2.721850830078125,-0.1308773159980774,1.0604236125946045,-1.3366906642913818
1789635316319891000,2.731890869140625,0.036387037485837936,1.374407410621643,-1.6137088537216187
1789635316329930000,2.741929931640625,0.141013041138649,1.3635752201080322,-1.5190482139587402
1789635316339970000,2.751969970703125,0.15258954465389252,1.084437608718872,-1.2280709743499756
1789635316350009900,2.762009765625,0.1103382259607315,0.6840336918830872,-1.0286904573440552
1789635316360049000,2.772048828125,0.04917526990175247,0.2435985505580902,-1.0622159242630005
1789635316370089000,2.7820888671875,0.06133100017905235,-0.14296939969062805,-1.22655189037323
1789635316380129000,2.79212890625,0.20294246077537537,-0.3502211272716522,-1.3462055921554565
1789635316390168000,2.80216796875,0.3705511689186096,-0.5181267857551575,-1.3032878637313843
1789635316400208000,2.812207763671875,0.4691925346851349,-0.6755502223968506,-1.253818392753601
1789635316410247200,2.8222470703125,0.4639839231967926,-0.6615532040596008,-1.2749300003051758
1789635316420287200,2.832287353515625,0.3748905062675476,-0.4448144733905792,-1.3012995719909668
1789635316430327000,2.8423271484375,0.25398486852645874,-0.058520302176475525,-1.257494568824768
1789635316440366000,2.852365966796875,0.12443753331899643,0.35263529419898987,-1.1706483364105225
1789635316450406100,2.86240625,0.0016791230300441384,0.5730955004692078,-1.119550347328186
1789635316460445000,2.87244482421875,-0.08303629606962204,0.49446380138397217,-1.123825192451477
1789635316470485000,2.882485107421875,-0.09417150914669037,0.28404396772384644,-1.1816391944885254
1789635316480525000,2.892525146484375,-0.09273765981197357,0.1063738465309143,-1.2535227537155151
1789635316490564000,2.902564208984375,-0.1364808827638626,0.01552063599228859,-1.2367597818374634
1789635316500604000,2.91260400390625,-0.2139061689376831,-0.015576829202473164,-1.1674443483352661
1789635316510644000,2.92264404296875,-0.31335553526878357,-0.06749621778726578,-1.128592848777771
1789635316520683000,2.93268310546875,-0.4286283254623413,-0.2057582139968872,-1.1398448944091797
1789635316530723000,2.94272314453125,-0.5612776875495911,-0.48255598545074463,-1.1779228448867798
1789635316540761900,2.952761962890625,-0.6942386627197266,-0.6654254198074341,-1.2757529020309448
1789635316550802000,2.962802001953125,-0.8388392925262451,-0.7189866304397583,-1.3844887018203735
1789635316560842000,2.972842041015625,-0.9933819770812988,-0.6952459216117859,-1.4239720106124878
1789635316570881000,2.982881103515625,-1.1245197057724,-0.6580596566200256,-1.3756779432296753
1789635316580920800,2.9929208984375,-1.189803123474121,-0.6736745834350586,-1.226801872253418
1789635316590960000,3.002960205078125,-1.1987937688827515,-0.7505331039428711,-1.0588001012802124
1789635316601000200,3.013000244140625,-1.2018097639083862,-0.7974281907081604,-1.0158734321594238
1789635316611040000,3.0230400390625,-1.2192827463150024,-0.8322703242301941,-1.096691370010376
1789635316621079000,3.0330791015625,-1.2384023666381836,-0.9280881881713867,-1.1837098598480225
1789635316631119000,3.043119140625,-1.2304164171218872,-1.05099356174469,-1.2078303098678589
1789635316641159200,3.0531591796875,-1.245911717414856,-1.1555287837982178,-1.1825921535491943
1789635316651198000,3.063197998046875,-1.2830601930618286,-1.2366881370544434,-1.1104047298431396
1789635316661238000,3.073238037109375,-1.33430814743042,-1.1987502574920654,-1.0310076475143433
1789635316671277000,3.083277099609375,-1.4062420129776,-1.0910704135894775,-1.0126144886016846
1789635316681317000,3.093317138671875,-1.449968695640564,-1.1395127773284912,-1.068180799484253
1789635316691357200,3.103357177734375,-1.455641746520996,-1.3186439275741577,-1.1383365392684937
1789635316701396000,3.11339599609375,-1.4300119876861572,-1.4292175769805908,-1.1690055131912231
1789635316711436000,3.12343603515625,-1.3967493772506714,-1.3874448537826538,-1.2054122686386108
1789635316721476000,3.13347607421875,-1.3916095495224,-1.3031119108200073,-1.2976497411727905
1789635316731515000,3.143514892578125,-1.4349486827850342,-1.2929176092147827,-1.3850575685501099
1789635316741555000,3.153554931640625,-1.4725656509399414,-1.3686450719833374,-1.4130138158798218
1789635316751594000,3.163593994140625,-1.4368976354599,-1.4174163341522217,-1.3348133563995361
1789635316761634000,3.173634033203125,-1.3300697803497314,-1.3147919178009033,-1.2006962299346924
1789635316771673900,3.183673828125,-1.1927467584609985,-1.065609335899353,-1.10844087600708
1789635316781713000,3.193712890625,-1.0388463735580444,-0.7938414216041565,-1.1445611715316772
1789635316791753000,3.2037529296875,-0.8515835404396057,-0.6486022472381592,-1.217816710472107
1789635316801792300,3.213792236328125,-0.6450096368789673,-0.7507733106613159,-1.2934843301773071
1789635316811832000,3.22383203125,-0.4625524580478668,-0.8444039821624756,-1.2696820497512817
1789635316821871900,3.233871826171875,-0.32448965311050415,-0.7863534092903137,-1.1763983964920044
1789635316831911200,3.2439111328125,-0.18054501712322235,-0.629349410533905,-1.0749319791793823
1789635316841951200,3.253951171875,-0.027755731716752052,-0.5105761885643005,-0.9861539006233215
1789635316851991000,3.263990966796875,0.12158262729644775,-0.4244769811630249,-0.941518247127533
1789635316862030000,3.274030029296875,0.2276584655046463,-0.44899269938468933,-1.0723519325256348
1789635316872070100,3.284070068359375,0.32818692922592163,-0.4934523105621338,-1.229698896408081
1789635316882109000,3.29410888671875,0.41758713126182556,-0.5647536516189575,-1.2720195055007935
1789635316892149000,3.30414892578125,0.4501248300075531,-0.6611813902854919,-1.2212388515472412
1789635316902189000,3.31418896484375,0.48145291209220886,-0.6021659970283508,-1.0000337362289429
1789635316912228000,3.32422802734375,0.5750808715820312,-0.4131942391395569,-0.7633229494094849
1789635316922268000,3.334267822265625,0.7236455678939819,-0.21103394031524658,-0.6169963479042053
1789635316932307000,3.344306884765625,0.9006928205490112,-0.01894519478082657,-0.5277389287948608
1789635316942347000,3.354346923828125,1.0405287742614746,0.10678716748952866,-0.5331579446792603
1789635316952387000,3.364386962890625,1.1742769479751587,0.1769590675830841,-0.535204291343689
1789635316962425900,3.37442578125,1.2898997068405151,0.19156597554683685,-0.5580124258995056
1789635316972466000,3.3844658203125,1.3961243629455566,0.194787859916687,-0.5770284533500671
1789635316982506000,3.394506103515625,1.4434101581573486,0.2731095552444458,-0.5464553236961365
1789635316992545000,3.404544921875,1.4385360479354858,0.4960622191429138,-0.3552342653274536
1789635317002584800,3.414584716796875,1.4239355325698853,0.8452385663986206,-0.06255418807268143
1789635317012625000,3.424625,1.3829447031021118,0.9364116191864014,0.06142793968319893
1789635317022664200,3.434664306640625,1.354320764541626,0.7903002500534058,0.01775156706571579
1789635317032704000,3.4447041015625,1.3014870882034302,0.4413742125034332,-0.10599806904792786
1789635317042743000,3.454742919921875,1.22319495677948,0.12245214730501175,-0.20230144262313843
1789635317052783000,3.464783203125,1.1507399082183838,-0.07782156020402908,-0.4085374176502228
1789635317062823200,3.4748232421875,1.101277232170105,-0.23011043667793274,-0.7662859559059143
1789635317072862000,3.484862060546875,1.0880935192108154,-0.4433654546737671,-0.8595304489135742
1789635317082902000,3.494902099609375,0.9863941073417664,-0.5169280767440796,-0.834297239780426
1789635317092940500,3.5049404296875,0.8096060156822205,-0.48619309067726135,-0.7579324245452881
1789635317102980600,3.514980712890625,0.5802308917045593,-0.4415542483329773,-0.6580578088760376
1789635317113020700,3.525020751953125,0.37070775032043457,-0.3518661558628082,-0.6377192139625549
1789635317123059700,3.535059814453125,0.23630361258983612,-0.3016863465309143,-0.754731297492981
1789635317133099500,3.545099609375,0.16783374547958374,-0.384234219789505,-0.8659036755561829
1789635317143139600,3.5551396484375,0.09519549459218979,-0.5134814381599426,-0.8540512323379517
1789635317153178600,3.5651787109375,-0.05300329625606537,-0.79103022813797,-0.8244867324829102
1789635317163218700,3.57521875,-0.3851484954357147,-1.265040636062622,-0.8049750328063965
1789635317173257500,3.585257568359375,-0.800142228603363,-1.4291963577270508,-0.7493541240692139
1789635317183297500,3.595297607421875,-1.094689965248108,-1.4274423122406006,-0.7153841853141785
1789635317193337600,3.605337646484375,-1.2244945764541626,-1.309717059135437,-0.7643008828163147
1789635317203377000,3.615376953125,-1.2419731616973877,-1.258521556854248,-0.8092723488807678
1789635317213416700,3.625416748046875,-1.192492127418518,-1.2156970500946045,-0.7597673535346985
1789635317223456500,3.63545654296875,-1.0794260501861572,-0.980140209197998,-0.6166485548019409
1789635317233495800,3.645495849609375,-0.9635724425315857,-0.663634717464447,-0.47049427032470703
1789635317243536000,3.655535888671875,-0.9109007120132446,-0.44618386030197144,-0.32155460119247437
1789635317253574700,3.66557470703125,-0.8916407227516174,-0.282581090927124,-0.1685061901807785
1789635317263614700,3.67561474609375,-0.8578012585639954,-0.07442549616098404,-0.04982934147119522
1789635317273654800,3.68565478515625,-0.7747687101364136,0.12378852069377899,0.01672678254544735
1789635317283693600,3.695693603515625,-0.7114109992980957,0.1941806674003601,0.04429449513554573
1789635317293733600,3.705733642578125,-0.6769092082977295,0.25648266077041626,0.009846505708992481
1789635317303772700,3.715772705078125,-0.6680119037628174,0.4425603747367859,-0.012704343535006046
1789635317313812700,3.725812744140625,-0.6705791354179382,0.6142690181732178,-0.05391090363264084
1789635317323852500,3.7358525390625,-0.677312970161438,0.5904662013053894,-0.2387388050556183
1789635317333891600,3.7458916015625,-0.6754953861236572,0.3877389430999756,-0.44385093450546265
1789635317343931600,3.755931640625,-0.6966584324836731,0.2557082176208496,-0.5871673822402954
1789635317353971700,3.7659716796875,-0.7585335373878479,0.267451673746109,-0.7092434763908386
1789635317364010500,3.776010498046875,-0.8321358561515808,0.2842351794242859,-0.843784749507904
1789635317374050600,3.786050537109375,-0.8473808169364929,0.17420056462287903,-0.9379522800445557
1789635317384089600,3.796089599609375,-0.8318852186203003,0.14442002773284912,-0.9572274684906006
1789635317394129700,3.806129638671875,-0.7339831590652466,0.24921914935112,-0.9513834118843079
1789635317404169500,3.81616943359375,-0.5686528086662292,0.31272009015083313,-0.9830044507980347
1789635317414208800,3.826208740234375,-0.40165263414382935,0.41183149814605713,-1.025283694267273
1789635317424248600,3.83624853515625,-0.2872093915939331,0.5781885385513306,-1.0278151035308838
1789635317434288600,3.84628857421875,-0.2232099175453186,0.8469725847244263,-1.0212898254394531
1789635317444327700,3.85632763671875,-0.15754355490207672,1.034605860710144,-1.0378050804138184
1789635317454367700,3.86636767578125,-0.06314035505056381,0.9323119521141052,-1.0432111024856567
1789635317464406800,3.87640673828125,0.10212636739015579,0.7948555946350098,-1.0465905666351318
1789635317474446600,3.886446533203125,0.2339794784784317,0.6963164806365967,-1.0247182846069336
1789635317484486700,3.896486572265625,0.30481770634651184,0.7796638607978821,-1.0339105129241943
1789635317494525700,3.906525634765625,0.3846786916255951,0.8053010106086731,-1.063977837562561
1789635317504565800,3.916565673828125,0.4740442633628845,0.614400327205658,-0.9533096551895142
1789635317514605800,3.926605712890625,0.4803335964679718,0.4523419141769409,-0.7410869002342224
1789635317524644600,3.93664453125,0.37339940667152405,0.4415464997291565,-0.5540128946304321
1789635317534684700,3.9466845703125,0.2144438475370407,0.3906140923500061,-0.4175807237625122
1789635317544723700,3.9567236328125,0.060083843767642975,0.36824700236320496,-0.2706463932991028
1789635317554763500,3.966763427734375,-0.02893630973994732,0.43382734060287476,-0.17574386298656464
1789635317564803600,3.976803466796875,-0.033679135143756866,0.5239505767822266,-0.19828565418720245
1789635317574842600,3.986842529296875,-0.052751895040273666,0.6298559904098511,-0.17485329508781433
1789635317584882700,3.996882568359375,-0.07413361221551895,0.6424348950386047,-0.07357488572597504
1789635317594922500,4.006922607421875,-0.11880574375391006,0.5517001748085022,0.10194820165634155
1789635317604961500,4.01696142578125,-0.16048075258731842,0.4575774073600769,0.29854726791381836
1789635317615001600,4.027001708984375,-0.18574003875255585,0.3369135856628418,0.4718484878540039
1789635317625041000,4.037041015625,-0.1815708577632904,0.3589128851890564,0.5619967579841614
1789635317635080400,4.04708056640625,-0.12866343557834625,0.483685165643692,0.5299198031425476
1789635317645120500,4.05712060546875,-0.0624745637178421,0.4965415894985199,0.5028138756752014
1789635317655159800,4.067159912109375,-0.032706279307603836,0.4519392251968384,0.6409099698066711
1789635317665199900,4.077199951171875,-0.025904035195708275,0.3438556492328644,0.8509630560874939
1789635317675239700,4.08723974609375,-0.03296274319291115,0.17332491278648376,0.9983141422271729
1789635317685278700,4.09727880859375,-0.06975804269313812,0.05800018459558487,1.0109434127807617
1789635317695318800,4.10731884765625,-0.11403149366378784,0.06180664151906967,0.9482517838478088
1789635317705357600,4.117357666015625,-0.15487080812454224,0.09126173704862595,0.8448817133903503
1789635317715397600,4.127397705078125,-0.18358661234378815,-0.01889912225306034,0.7333077788352966
1789635317725437700,4.137437744140625,-0.19215798377990723,-0.14054086804389954,0.7167053818702698
1789635317735476700,4.147476806640625,-0.19497402012348175,-0.05541745200753212,0.7956957817077637
1789635317745516500,4.1575166015625,-0.15850841999053955,0.045936863869428635,0.861413836479187
1789635317755556600,4.167556640625,-0.12279489636421204,0.020015252754092216,0.9016706943511963
1789635317765595600,4.177595703125,-0.1398540437221527,-0.0663534551858902,0.9658734202384949
1789635317775635700,4.1876357421875,-0.19458359479904175,-0.05519401282072067,1.0162036418914795
1789635317785674500,4.197674560546875,-0.22522114217281342,0.08021707087755203,1.0471261739730835
1789635317795714600,4.207714599609375,-0.21756242215633392,0.25676655769348145,1.021601915359497
1789635317805754600,4.217754638671875,-0.17750954627990723,0.2175522893667221,0.8844006657600403
1789635317815793700,4.227793701171875,-0.153395414352417,0.09672228246927261,0.7251423001289368
1789635317825833500,4.23783349609375,-0.18378181755542755,0.1241573691368103,0.6895930767059326
1789635317835873500,4.24787353515625,-0.23666873574256897,0.18270111083984375,0.7061446309089661
1789635317845912600,4.25791259765625,-0.2484028935432434,0.10962370038032532,0.7171120643615723
1789635317855952600,4.26795263671875,-0.2007320374250412,0.08449171483516693,0.7747103571891785
1789635317865991700,4.27799169921875,-0.09466499090194702,0.21760183572769165,0.8499723672866821
1789635317876031700,4.28803173828125,0.02575729414820671,0.4774640202522278,0.8760250210762024
1789635317886071800,4.29807177734375,0.14525972306728363,0.7327418923377991,0.82473224401474
1789635317896110600,4.308110595703125,0.28904032707214355,0.8423115015029907,0.7326803803443909
1789635317906150700,4.318150634765625,0.3903887867927551,0.8838410973548889,0.6771422624588013
1789635317916190700,4.328190673828125,0.43506598472595215,0.8756178021430969,0.693453311920166
1789635317926229800,4.338229736328125,0.46250292658805847,0.7404831647872925,0.775049090385437
1789635317936269800,4.348269775390625,0.4953298568725586,0.5548584461212158,0.8759008646011353
1789635317946308600,4.35830859375,0.5477917194366455,0.4779961407184601,0.9519155025482178
1789635317956348700,4.3683486328125,0.6089711785316467,0.49663373827934265,0.9986358880996704
1789635317966388700,4.378388671875,0.6590988039970398,0.5057180523872375,1.0050392150878906
1789635317976427500,4.388427490234375,0.6719773411750793,0.45180395245552063,0.9202406406402588
1789635317986467600,4.398467529296875,0.6257395148277283,0.36574122309684753,0.8153896331787109
1789635317996507600,4.408507568359375,0.5670170783996582,0.36796683073043823,0.8079362511634827
1789635318006546700,4.418546630859375,0.4981738328933716,0.34430092573165894,0.8726148009300232
1789635318016586500,4.42858642578125,0.4661770164966583,0.29735925793647766,0.951751172542572
1789635318026625500,4.43862548828125,0.5322422981262207,0.3112252652645111,1.0265237092971802
1789635318036665600,4.44866552734375,0.6496376395225525,0.3351207375526428,1.042312502861023
1789635318046705700,4.45870556640625,0.7439455389976501,0.39117175340652466,1.0043792724609375
1789635318056744400,4.468744384765625,0.7272149920463562,0.4101422429084778,0.9179221391677856
1789635318066784500,4.478784423828125,0.5482385754585266,0.3611651062965393,0.8511196374893188
1789635318076824600,4.488824462890625,0.3371386229991913,0.3696792423725128,0.8687705397605896
1789635318086865200,4.498865234375,0.17093871533870697,0.2755540907382965,0.8835809230804443
1789635318096905200,4.5089052734375,0.11664298921823502,0.28279387950897217,0.9226284623146057
1789635318106944300,4.5189443359375,0.1432410478591919,0.4940813481807709,0.9543104767799377
1789635318116984000,4.528984130859375,0.2610425055027008,0.6443230509757996,0.9942853450775146
1789635318127024000,4.539024169921875,0.4178864657878876,0.5902952551841736,1.0279806852340698
1789635318137063200,4.549063232421875,0.5229670405387878,0.3662147521972656,1.0578597784042358
1789635318147103200,4.559103271484375,0.5322583317756653,0.22188445925712585,1.067653775215149
1789635318157143300,4.569143310546875,0.44179606437683105,0.1893387734889984,1.0179749727249146
1789635318167182000,4.57918212890625,0.3164660930633545,0.06346312910318375,0.8995939493179321
1789635318177222100,4.58922216796875,0.24437911808490753,-0.16850459575653076,0.7945828437805176
1789635318187261400,4.599261474609375,0.21393945813179016,-0.13975763320922852,0.8017731308937073
1789635318197301200,4.60930126953125,0.21952196955680847,0.21085764467716217,0.8776130676269531
1789635318207341300,4.61934130859375,0.26166489720344543,0.5312047600746155,0.9420343637466431
1789635318217380400,4.62938037109375,0.32345449924468994,0.5788841247558594,0.9695123434066772
1789635318227420400,4.63942041015625,0.41411516070365906,0.5297378897666931,0.9800736308097839
1789635318237460200,4.649460205078125,0.5054360032081604,0.4606163501739502,0.9795271754264832
1789635318247499300,4.659499267578125,0.547610342502594,0.23789165914058685,0.9527802467346191
1789635318257539300,4.669539306640625,0.48871028423309326,-0.06484850496053696,0.9197258949279785
1789635318267578000,4.679578125,0.3521239459514618,-0.15064223110675812,0.909608006477356
1789635318277618200,4.6896181640625,0.18501245975494385,-0.07019293308258057,0.9262969493865967
1789635318287658200,4.699658203125,0.06196723133325577,0.021250959485769272,0.9558902382850647
1789635318297697300,4.709697265625,0.016082562506198883,0.26171258091926575,1.001450538635254
1789635318307737300,4.7197373046875,0.05553223565220833,0.6119616627693176,1.010689377784729
1789635318317777200,4.729777099609375,0.1932022124528885,0.7610883116722107,1.0184646844863892
1789635318327816200,4.739816162109375,0.34902775287628174,0.6631311178207397,1.0382927656173706
1789635318337856300,4.749856201171875,0.4369216561317444,0.43058839440345764,1.039451241493225
1789635318347895000,4.75989501953125,0.40830519795417786,0.23204441368579865,1.0174667835235596
1789635318357935000,4.76993505859375,0.34081482887268066,0.11793968826532364,0.9845975637435913
1789635318367975200,4.77997509765625,0.30150339007377625,0.11683180928230286,0.9514750242233276
1789635318378014200,4.79001416015625,0.3110388517379761,0.17911861836910248,0.9079821109771729
1789635318388054000,4.800053955078125,0.30834078788757324,0.24178652465343475,0.8363012671470642
1789635318398094000,4.810093994140625,0.3192163407802582,0.2954612076282501,0.7935990691184998
1789635318408133400,4.82013330078125,0.33681371808052063,0.3325052559375763,0.8458204865455627
1789635318418173400,4.83017333984375,0.30917248129844666,0.3699119985103607,0.9443627595901489
1789635318428213000,4.840212890625,0.2697630226612091,0.34712281823158264,1.0196874141693115
1789635318438252300,4.850252197265625,0.2447703331708908,0.26018762588500977,1.008030652999878
1789635318448292400,4.860292236328125,0.21669422090053558,0.13685505092144012,0.9291127324104309
1789635318458331400,4.870331298828125,0.1876404732465744,0.01986877992749214,0.8392730951309204
1789635318468371200,4.88037109375,0.1590074896812439,0.01907036453485489,0.7882293462753296
1789635318478411300,4.890411376953125,0.11103810369968414,0.06754735112190247,0.7525501847267151
1789635318488450300,4.9004501953125,0.06529378890991211,0.11019548028707504,0.7317426800727844
1789635318498490400,4.910490478515625,0.057382866740226746,0.2358388900756836,0.7211344838142395
1789635318508530200,4.9205302734375,0.10369816422462463,0.4698500633239746,0.6849343776702881
1789635318518569200,4.9305693359375,0.17489537596702576,0.6560127139091492,0.6104865074157715
1789635318528609300,4.940609375,0.21458473801612854,0.6179609894752502,0.5191443562507629
1789635318538648000,4.95064794921875,0.21597810089588165,0.28963419795036316,0.4656292200088501
1789635318548688100,4.960688232421875,0.18315863609313965,-0.11082558333873749,0.432499498128891
1789635318558728200,4.970728271484375,0.1379259079694748,-0.2664724290370941,0.3749813437461853
1789635318568767200,4.980767333984375,0.10327525436878204,-0.08185411989688873,0.2656993269920349
1789635318578807300,4.990807373046875,0.07350803911685944,0.11936474591493607,0.1598898023366928
1789635318588847000,5.00084716796875,0.010116283781826496,0.33116328716278076,0.09288040548563004
1789635318598886100,5.01088623046875,-0.033673275262117386,0.5100025534629822,0.06710713356733322
1789635318608926200,5.02092626953125,-0.005339105147868395,0.42818543314933777,0.056411344558000565
1789635318618965200,5.03096533203125,0.0006215817993506789,0.22509223222732544,0.05332474038004875
1789635318629005300,5.04100537109375,-0.019472233951091766,0.007890147157013416,0.04577308148145676
1789635318639045000,5.051045166015625,-0.03531751036643982,-0.08405309170484543,0.057612963020801544
1789635318649084400,5.06108447265625,-0.06097041070461273,0.09800006449222565,0.042020685970783234
1789635318659124200,5.071124267578125,-0.0684184730052948,0.2750970721244812,0.019358251243829727
1789635318669164300,5.081164306640625,-0.07955927401781082,0.20668074488639832,-0.009471000172197819
1789635318679203300,5.091203369140625,-0.1303958296775818,-0.06005667895078659,-0.09996228665113449
1789635318689243400,5.101243408203125,-0.19625605642795563,-0.3848435580730438,-0.24719834327697754
1789635318699282200,5.1112822265625,-0.24060355126857758,-0.6506803035736084,-0.4348108470439911
1789635318709322200,5.121322265625,-0.2964353859424591,-0.5033166408538818,-0.6457406878471375
1789635318719362300,5.1313623046875,-0.3158647418022156,0.08828538656234741,-0.7974002361297607
1789635318729401300,5.1414013671875,-0.20968292653560638,0.4815373420715332,-0.8047441840171814
1789635318739441200,5.151441162109375,-0.08524565398693085,0.5715394020080566,-0.7255739569664001
1789635318749481200,5.161481201171875,-0.059061456471681595,0.6576085090637207,-0.7024076581001282
1789635318759520300,5.171520263671875,-0.06512068212032318,0.6289440989494324,-0.7117279171943665
1789635318769560300,5.181560302734375,-0.06546822190284729,0.3787289261817932,-0.7081987261772156
1789635318779600100,5.19160009765625,-0.04761625453829765,0.00800386443734169,-0.6938834190368652
1789635318789639200,5.20163916015625,-0.004090082831680775,-0.28200292587280273,-0.6796419024467468
1789635318799679200,5.21167919921875,-0.008743157610297203,-0.2751849591732025,-0.6775651574134827
1789635318809718000,5.221718017578125,-0.061109960079193115,-0.005434979218989611,-0.6919757723808289
1789635318819758000,5.231758056640625,-0.10310374945402145,0.2410605549812317,-0.6961007714271545
1789635318829798100,5.241798095703125,-0.10106056928634644,0.41043731570243835,-0.6628272533416748
1789635318839837400,5.25183740234375,-0.058328818529844284,0.5410866737365723,-0.5878331661224365
1789635318849877000,5.261876953125,0.0005281048361212015,0.6169651746749878,-0.48004278540611267
1789635318859917000,5.2719169921875,0.06215418502688408,0.6475934386253357,-0.3829399347305298
1789635318869956400,5.281956298828125,0.09671935439109802,0.5929874181747437,-0.3060019910335541
1789635318879996400,5.291996337890625,0.10338924080133438,0.40906792879104614,-0.23697446286678314
1789635318890036200,5.3020361328125,0.11982733756303787,0.07300256937742233,-0.1683053821325302
1789635318900075300,5.3120751953125,0.14367647469043732,-0.33306825160980225,-0.11647814512252808
1789635318910115300,5.322115234375,0.14712020754814148,-0.5667694211006165,-0.1079283282160759
1789635318920154400,5.332154296875,0.11574763804674149,-0.6516646146774292,-0.1473095566034317
1789635318930194200,5.342194091796875,0.06819076836109161,-0.5791581869125366,-0.2336748093366623
1789635318940234200,5.352234130859375,0.024326911196112633,-0.4357099235057831,-0.34533369541168213
1789635318950273300,5.362273193359375,-0.008808405138552189,-0.3613768517971039,-0.46138787269592285
1789635318960313300,5.372313232421875,-0.06983820348978043,-0.3046320676803589,-0.5700951814651489
1789635318970353200,5.382353271484375,-0.11595430225133896,-0.24073991179466248,-0.6868652105331421
1789635318980392200,5.39239208984375,-0.10800662636756897,-0.026256371289491653,-0.7478001713752747
1789635318990432300,5.402432373046875,-0.05913575738668442,0.40017029643058777,-0.7630323767662048
1789635319000472300,5.412472412109375,0.001654089312069118,0.8257112503051758,-0.7786081433296204
1789635319010511000,5.422510986328125,0.06314700841903687,1.0484641790390015,-0.7751029133796692
1789635319020551200,5.43255126953125,0.09099222719669342,0.9369781017303467,-0.7438680529594421
1789635319030590200,5.442590087890625,0.07909747958183289,0.4269459843635559,-0.7042327523231506
1789635319040630300,5.45263037109375,0.07126911729574203,-0.2117426097393036,-0.6775510311126709
1789635319050670000,5.462670166015625,0.06792259216308594,-0.46164724230766296,-0.6964666843414307
1789635319060709000,5.472709228515625,0.07753420621156693,-0.4246689975261688,-0.7100639939308167
1789635319070749200,5.482749267578125,0.09572972357273102,-0.2966737449169159,-0.6835650205612183
1789635319080789200,5.492789306640625,0.07249577343463898,-0.06822246313095093,-0.6466863751411438
1789635319090827300,5.5028271484375,0.01883174479007721,0.21081316471099854,-0.6099222302436829
1789635319100867000,5.5128671875,-0.026204438880085945,0.43303266167640686,-0.52959805727005
1789635319110906000,5.522906005859375,-0.07782875001430511,0.48105236887931824,-0.43293464183807373
1789635319120946200,5.5329462890625,-0.13032791018486023,0.44493404030799866,-0.3633233606815338
1789635319130986200,5.542986328125,-0.14180533587932587,0.2865060567855835,-0.37856221199035645
1789635319141025000,5.55302490234375,-0.12350250035524368,0.023572437465190887,-0.4947894811630249
1789635319151065000,5.563065185546875,-0.12148408591747284,-0.19186797738075256,-0.6532305479049683
1789635319161105200,5.573105224609375,-0.12518082559108734,-0.2866320312023163,-0.7686106562614441
1789635319171144000,5.58314404296875,-0.1182725802063942,-0.24481001496315002,-0.835048258304596
1789635319181184000,5.59318408203125,-0.11961827427148819,-0.020744426175951958,-0.8602891564369202
1789635319191224000,5.60322412109375,-0.11440566927194595,0.21365049481391907,-0.8643283843994141
1789635319201263000,5.61326318359375,-0.09998012334108353,0.2430448681116104,-0.847140908241272
1789635319211303000,5.623302978515625,-0.09974097460508347,0.22543339431285858,-0.8390493988990784
1789635319221343000,5.633343017578125,-0.08411195129156113,0.15509025752544403,-0.8344738483428955
1789635319231382000,5.643382080078125,-0.07858002930879593,0.02732696197926998,-0.8271152377128601
1789635319241422000,5.653422119140625,-0.09065373986959457,-0.017432786524295807,-0.8432880640029907
1789635319251462100,5.663462158203125,-0.05867716297507286,-0.04934331402182579,-0.8574987053871155
1789635319261501200,5.673501220703125,0.006884803995490074,-0.11510315537452698,-0.8427125811576843
1789635319271541000,5.683541015625,0.06884723901748657,-0.22356490790843964,-0.817270040512085
1789635319281580300,5.693580322265625,0.08927581459283829,-0.3834163546562195,-0.8449477553367615
1789635319291620000,5.7036201171875,0.06765281409025192,-0.531314492225647,-0.9297968745231628
1789635319301660200,5.71366015625,0.003878894029185176,-0.5985918045043945,-1.0238738059997559
1789635319311699200,5.72369921875,-0.056228119879961014,-0.49730831384658813,-1.0760869979858398
1789635319321739300,5.7337392578125,-0.06399469822645187,-0.3458753824234009,-1.0326037406921387
1789635319331779000,5.743779052734375,-0.03352680057287216,-0.397831529378891,-0.9471505880355835
1789635319341818000,5.753818115234375,-0.008492554537951946,-0.5279282927513123,-0.8872398138046265
1789635319351858200,5.763858154296875,-0.009438509121537209,-0.5846371054649353,-0.8620859980583191
1789635319361898200,5.773898193359375,-0.0022913836874067783,-0.5364575982093811,-0.8424355983734131
1789635319371937000,5.78393701171875,0.04639599472284317,-0.3929685950279236,-0.8310716152191162
1789635319381977000,5.79397705078125,0.1227663978934288,-0.3245629072189331,-0.8239391446113586
1789635319392016100,5.80401611328125,0.2035597860813141,-0.47321203351020813,-0.7922917604446411
1789635319402056200,5.81405615234375,0.2507472634315491,-0.6862521171569824,-0.7637767791748047
1789635319412096000,5.824095947265625,0.2264600396156311,-0.825853705406189,-0.800819456577301
1789635319422135000,5.834135009765625,0.15454509854316711,-0.9397645592689514,-0.8930245041847229
1789635319432175000,5.844175048828125,0.06559178978204727,-0.9368318915367126,-0.9341828227043152
1789635319442215200,5.854215087890625,-0.0013393036788329482,-0.6876537799835205,-0.880247950553894
1789635319452254000,5.86425390625,0.009128251112997532,-0.537289559841156,-0.7840982675552368
1789635319462294000,5.8742939453125,0.05564488470554352,-0.7576570510864258,-0.722508430480957
1789635319472334000,5.884333984375,0.059904079884290695,-0.9508302807807922,-0.7629753947257996
1789635319482373000,5.894373046875,0.02876773290336132,-0.9830721020698547,-0.8576505184173584
1789635319492413000,5.904412841796875,0.029293440282344818,-0.9361631870269775,-0.9305867552757263
1789635319502453000,5.914452880859375,0.05764944851398468,-0.7608632445335388,-0.9616285562515259
1789635319512492300,5.9244921875,0.08176117390394211,-0.7195547223091125,-0.9867360591888428
1789635319522532400,5.934532470703125,0.07934621721506119,-0.9420053362846375,-0.9853575825691223
1789635319532571100,5.944571044921875,0.011113637126982212,-1.018466830253601,-0.9017396569252014
1789635319542611200,5.954611083984375,-0.04183506593108177,-0.9824100136756897,-0.775409460067749
1789635319552651300,5.9646513671875,-0.06094644218683243,-0.7997398376464844,-0.7166175246238708
1789635319562690000,5.97468994140625,-0.02683374471962452,-0.6884939670562744,-0.7669291496276855
1789635319572730000,5.984730224609375,0.0346091091632843,-0.7744677662849426,-0.868579089641571
1789635319582770200,5.994770263671875,0.0768074318766594,-0.8020256161689758,-0.9194456934928894
1789635319592809200,6.004809326171875,0.07983943819999695,-0.6676861643791199,-0.9546793103218079
1789635319602849000,6.01484912109375,0.10182170569896698,-0.5401825308799744,-1.0270235538482666
1789635319612889000,6.02488916015625,0.15940430760383606,-0.4836532175540924,-1.1668363809585571
1789635319622928100,6.03492822265625,0.19938288629055023,-0.4974987208843231,-1.2957514524459839
1789635319632968200,6.04496826171875,0.191987544298172,-0.603425145149231,-1.122916579246521
1789635319643008000,6.055008056640625,0.10270347446203232,-0.473222941160202,-0.9585307836532593
1789635319653047000,6.065047119140625,-0.00180855265352875,-0.3369141221046448,-0.9742647409439087
1789635319663087000,6.075087158203125,-0.12183588743209839,-0.36177098751068115,-1.0500463247299194
1789635319673126100,6.085126220703125,-0.13315272331237793,-0.3705644905567169,-1.1107453107833862
1789635319683166000,6.095166015625,-0.043171439319849014,-0.3175545334815979,-1.155055284500122
1789635319693206000,6.1052060546875,0.025239042937755585,-0.35637515783309937,-1.146087884902954
1789635319703245000,6.1152451171875,-0.02702282927930355,-0.26180577278137207,-1.086100697517395
1789635319713285000,6.12528515625,-0.1253557950258255,0.010211092419922352,-1.087425708770752
1789635319723325000,6.135324951171875,-0.09828129410743713,0.2648058235645294,-1.181875228881836
1789635319733364200,6.1453642578125,-0.0008343683439306915,0.24961169064044952,-1.3198844194412231
1789635319743404000,6.155404052734375,0.0046935551799833775,0.11810853332281113,-1.2805626392364502
1789635319753444000,6.165444091796875,-0.04047925025224686,0.045524872839450836,-1.0973968505859375
1789635319763483100,6.175483154296875,-0.07638558745384216,0.14502829313278198,-0.9677221775054932
1789635319773523200,6.185523193359375,-0.07325290888547897,0.4184260070323944,-0.9490978717803955
1789635319783563300,6.195563232421875,-0.04008057340979576,0.5873479247093201,-0.9757593274116516
1789635319793602300,6.205602294921875,-0.02839861810207367,0.45772895216941833,-0.9203088283538818
1789635319803642000,6.21564208984375,-0.0589115209877491,0.36513614654541016,-0.8294146060943604
1789635319813682200,6.22568212890625,-0.1324392706155777,0.2015237957239151,-0.7264818549156189
1789635319823721200,6.23572119140625,-0.22161681950092316,0.2794651985168457,-0.6453164219856262
1789635319833761300,6.24576123046875,-0.24443717300891876,0.42579126358032227,-0.4759569466114044
1789635319843801000,6.255801025390625,-0.18851451575756073,0.4887380003929138,-0.24898532032966614
1789635319853840100,6.265840087890625,-0.18268433213233948,0.5225529670715332,-0.06154511868953705
1789635319863880200,6.275880126953125,-0.24005120992660522,0.5203918218612671,0.1149393692612648
1789635319873919000,6.2859189453125,-0.2869574725627899,0.40338581800460815,0.33961960673332214
1789635319883959000,6.295958984375,-0.29516053199768066,0.4963732659816742,0.6074404120445251
1789635319893999000,6.3059990234375,-0.2427266240119934,0.6451811194419861,0.8496935367584229
1789635319904038100,6.3160380859375,-0.17245325446128845,0.7261345386505127,0.9682531952857971
1789635319914078000,6.326077880859375,-0.13670724630355835,0.6939380168914795,1.036275863647461
1789635319924118000,6.336117919921875,-0.1701781302690506,0.5253551006317139,1.1638884544372559
1789635319934157000,6.346156982421875,-0.2530690133571625,0.4849824011325836,1.3866757154464722
1789635319944197000,6.356197021484375,-0.2991637885570526,0.6357995867729187,1.5438696146011353
1789635319954237200,6.3662373046875,-0.27805373072624207,0.6280101537704468,1.4952573776245117
1789635319964276000,6.37627587890625,-0.2671310305595398,0.4171956479549408,1.435556411743164
1789635319974316000,6.38631591796875,-0.3080819249153137,0.25183144211769104,1.426275610923767
1789635319984356000,6.396356201171875,-0.39982089400291443,0.34926292300224304,1.4223506450653076
1789635319994395100,6.40639501953125,-0.46739622950553894,0.415315181016922,1.3813872337341309
1789635320004435000,6.41643505859375,-0.48108434677124023,0.22833490371704102,1.389153242111206
1789635320014475000,6.42647509765625,-0.4610198140144348,0.11665844172239304,1.4743480682373047
1789635320024514300,6.436514404296875,-0.40714940428733826,0.2927977740764618,1.5685070753097534
1789635320034554000,6.44655419921875,-0.2961520254611969,0.5268217325210571,1.5782454013824463
1789635320044594200,6.45659423828125,-0.19933068752288818,0.6375474333763123,1.5729020833969116
1789635320054633200,6.46663330078125,-0.16823960840702057,0.6751968264579773,1.5231451988220215
1789635320064673300,6.47667333984375,-0.1930629312992096,0.5639778971672058,1.4542555809020996
1789635320074712000,6.486712158203125,-0.2672380805015564,0.2493102252483368,1.46287202835083
1789635320084752100,6.496752197265625,-0.3215668499469757,0.11011505126953125,1.5311332941055298
1789635320094791700,6.506791748046875,-0.250936895608902,0.24204538762569427,1.5174369812011719
1789635320104830700,6.516830810546875,-0.16316096484661102,0.34232112765312195,1.4118596315383911
1789635320114870800,6.526870849609375,-0.08465176820755005,0.26532888412475586,1.3398081064224243
1789635320124910800,6.536910888671875,-0.021444572135806084,0.19014330208301544,1.4210259914398193
1789635320134949600,6.54694970703125,0.03592231497168541,0.2816942632198334,1.6156474351882935
1789635320144989700,6.55698974609375,0.1276482343673706,0.4160832166671753,1.759972095489502
1789635320155029800,6.56702978515625,0.2989640533924103,0.4730120301246643,1.7928965091705322
1789635320165068500,6.577068603515625,0.4810875356197357,0.43278631567955017,1.701148509979248
1789635320175108600,6.587108642578125,0.5740292072296143,0.31770259141921997,1.5704865455627441
1789635320185148700,6.597148681640625,0.49154362082481384,0.3044437766075134,1.5071600675582886
1789635320195187700,6.607187744140625,0.35332050919532776,0.1131417378783226,1.4100005626678467
1789635320205227800,6.617227783203125,0.2476484179496765,-0.40906286239624023,1.3067708015441895
1789635320215267600,6.627267578125,0.18692967295646667,-0.6553171277046204,1.3476897478103638
1789635320225306600,6.637306640625,0.2251681387424469,-0.26238900423049927,1.5356228351593018
1789635320235346700,6.6473466796875,0.2755756378173828,0.33644726872444153,1.6851437091827393
1789635320245386800,6.65738671875,0.3352634906768799,0.646084189414978,1.593586802482605
1789635320255425800,6.66742578125,0.45846638083457947,0.3179670572280884,1.2597519159317017
1789635320265465900,6.6774658203125,0.4942331612110138,-0.2833411693572998,1.043367624282837
1789635320275505700,6.687505615234375,0.36143648624420166,-0.4157061278820038,1.0998181104660034
1789635320285544700,6.697544677734375,0.1577475517988205,-0.20742562413215637,1.2790931463241577
1789635320295584800,6.707584716796875,0.06967148929834366,0.0553484782576561,1.3895127773284912
1789635320305623800,6.717623779296875,0.04916887730360031,0.1894729882478714,1.4059882164001465
1789635320315664000,6.727663818359375,0.03127163648605347,0.24625878036022186,1.3638548851013184
1789635320325703700,6.73770361328125,-0.014602112583816051,0.12276879698038101,1.2963969707489014
1789635320335742700,6.74774267578125,-0.061531804502010345,-0.10794084519147873,1.1599313020706177
1789635320345782800,6.75778271484375,-0.10896829515695572,-0.1105789765715599,1.0481115579605103
1789635320355822800,6.76782275390625,-0.10054019093513489,0.08679401874542236,1.045971155166626
1789635320365861600,6.777861572265625,-0.06683974713087082,0.1769433468580246,1.1403472423553467
1789635320375901700,6.787901611328125,-0.01623569428920746,0.11682835221290588,1.2209604978561401
1789635320385941800,6.797941650390625,-0.009489641524851322,0.08543180674314499,1.2410290241241455
1789635320395980800,6.807980712890625,-0.012864666059613228,0.09566847234964371,1.2228364944458008
1789635320406020600,6.8180205078125,-0.010526943020522594,0.17731699347496033,1.2289409637451172
1789635320416060700,6.828060791015625,-0.0023483755066990852,0.20664745569229126,1.2866343259811401
1789635320426099700,6.838099609375,0.001695900922641158,0.2231028527021408,1.3234783411026
1789635320436139800,6.848139892578125,0.013351225294172764,0.15530969202518463,1.2671384811401367
1789635320446179600,6.8581796875,-0.001972603378817439,0.10563694685697556,1.0889478921890259
1789635320456218600,6.868218505859375,-0.009459015913307667,-0.0018098842119798064,0.8960210680961609
1789635320466258700,6.8782587890625,-0.006116215605288744,-0.20925521850585938,0.7759729623794556
1789635320476298800,6.888298828125,-0.0627206414937973,-0.012196478433907032,0.7358551025390625
1789635320486337500,6.898337646484375,-0.06451747566461563,0.2816239595413208,0.6459148526191711
1789635320496377600,6.908377685546875,0.06210145354270935,0.025464346632361412,0.5507568717002869
1789635320506417700,6.918417724609375,0.0041060615330934525,-0.22892558574676514,0.48680028319358826
1789635320516457000,6.92845703125,-0.2527393102645874,0.11764433979988098,0.3436087667942047
1789635320526496800,6.938496826171875,-0.38083362579345703,0.7781594395637512,0.1931995451450348
1789635320536535800,6.948535888671875,-0.2693672776222229,0.8578792810440063,0.17253156006336212
1789635320546576000,6.958575927734375,-0.08550851047039032,0.16454873979091644,0.21967510879039764
1789635320556616000,6.968615966796875,-0.0902974084019661,-0.5844216346740723,0.18453842401504517
1789635320566654700,6.97865478515625,-0.21750196814537048,-0.6252998113632202,0.09745172411203384
1789635320576694800,6.98869482421875,-0.3255975544452667,-0.18009281158447266,0.024203339591622353
1789635320586734800,6.99873486328125,-0.3451685905456543,-0.00962493009865284,0.016593623906373978
1789635320596773600,7.008773681640625,-0.32415810227394104,0.04631609842181206,-0.0034091125708073378
1789635320606813700,7.018813720703125,-0.26018843054771423,0.1208965927362442,-0.09871619194746017
1789635320616853800,7.028853759765625,-0.18437357246875763,0.005520466715097427,-0.21661752462387085
1789635320626892800,7.038892822265625,-0.18600502610206604,0.10228802263736725,-0.37908393144607544
1789635320636932900,7.048932861328125,-0.1757369339466095,0.3332975506782532,-0.5255513787269592
1789635320646972700,7.05897265625,-0.1364222913980484,0.4219999611377716,-0.5819031000137329
1789635320657011700,7.06901171875,-0.1518113613128662,0.6082121729850769,-0.5543116927146912
1789635320667051800,7.0790517578125,-0.13035321235656738,0.8418334722518921,-0.5660935044288635
1789635320677091800,7.089091796875,-0.10150638222694397,0.7371411323547363,-0.5686112642288208
1789635320687130600,7.099130615234375,-0.034515634179115295,0.3533495366573334,-0.577712893486023
1789635320697170700,7.109170654296875,-0.0008335694437846541,0.1627175360918045,-0.6933220028877258
1789635320707210800,7.119210693359375,-0.017655426636338234,0.23090006411075592,-0.8450825214385986
1789635320717249500,7.12924951171875,-0.004554271697998047,0.2717340290546417,-0.9469457864761353
1789635320727289600,7.13928955078125,0.032941173762083054,0.3613198399543762,-0.9203463792800903
1789635320737329700,7.14932958984375,0.020143616944551468,0.528694748878479,-0.798812747001648
1789635320747368700,7.15936865234375,-0.030158167704939842,0.6865501403808594,-0.6774397492408752
1789635320757408500,7.169408447265625,-0.01104279700666666,0.6754245162010193,-0.6142346858978271
1789635320767448600,7.179448486328125,0.06329668313264847,0.3399714231491089,-0.5544608235359192
1789635320777488000,7.18948779296875,0.1455172449350357,-0.18348221480846405,-0.4694545865058899
1789635320787527700,7.199527587890625,0.14427408576011658,-0.4546958804130554,-0.38987720012664795
1789635320797566700,7.209566650390625,0.10410642623901367,-0.4527541697025299,-0.38142484426498413
1789635320807606800,7.219606689453125,0.08284401893615723,-0.29698002338409424,-0.40052902698516846
1789635320817646800,7.229646728515625,0.06174752116203308,-0.07147018611431122,-0.448041707277298
1789635320827686000,7.239685791015625,0.1023748442530632,0.1117720678448677,-0.5048554539680481
1789635320837725700,7.2497255859375,0.2193206399679184,0.16384512186050415,-0.5327038764953613
1789635320847765800,7.259765869140625,0.2598342299461365,0.08894398808479309,-0.561648428440094
1789635320857804800,7.2698046875,0.18004007637500763,0.039505332708358765,-0.6273605823516846
1789635320867844900,7.279844970703125,0.08407146483659744,0.1720508635044098,-0.6683200001716614
1789635320877884700,7.289884765625,0.07534162700176239,0.25343307852745056,-0.6242729425430298
1789635320887923700,7.299923828125,0.08348610252141953,0.1345982849597931,-0.5495624542236328
1789635320897963800,7.3099638671875,0.043648943305015564,-0.06402266025543213,-0.5320053100585938
1789635320908003800,7.32000390625,0.001344630029052496,-0.24906015396118164,-0.5739287734031677
1789635320918042600,7.330042724609375,-0.029152825474739075,-0.362229585647583,-0.6082968711853027
1789635320928082700,7.340082763671875,-0.04983759671449661,-0.34544873237609863,-0.6399959325790405
1789635320938122800,7.350122802734375,-0.05625022202730179,-0.19170790910720825,-0.665276288986206
1789635320948161800,7.360161865234375,-0.0421740859746933,-0.03532310202717781,-0.6621582508087158
1789635320958201600,7.37020166015625,-0.011627361178398132,0.041673678904771805,-0.6407523155212402
1789635320968241700,7.38024169921875,-0.02509922720491886,0.19973228871822357,-0.7082855105400085
1789635320978280700,7.39028076171875,-0.040440633893013,0.35748571157455444,-0.8397082686424255
1789635320988320800,7.40032080078125,-0.010936803184449673,0.2142430543899536,-0.8925437927246094
1789635320998360600,7.410360595703125,0.020438961684703827,-0.09290703386068344,-0.8912340402603149
1789635321008399600,7.420399658203125,0.03150998800992966,-0.22539503872394562,-0.9204161763191223
1789635321018439700,7.430439697265625,0.028450284153223038,-0.1683618426322937,-0.9997155070304871
1789635321028479700,7.440479736328125,0.025490978732705116,-0.09421944618225098,-1.1064270734786987
1789635321038518800,7.450518798828125,0.019417107105255127,-0.05402009189128876,-1.2079920768737793
1789635321048558600,7.46055859375,0.01270061545073986,-0.16896824538707733,-1.2520153522491455
1789635321058598700,7.4705986328125,-0.014664430171251297,-0.17605465650558472,-1.2808537483215332
1789635321068638000,7.480637939453125,-0.07370990514755249,-0.025003353133797646,-1.2609100341796875
1789635321078677800,7.490677734375,-0.10178228467702866,0.03229189291596413,-1.2351621389389038
1789635321088717300,7.50071728515625,-0.07277460396289825,-0.21505025029182434,-1.2267793416976929
1789635321098757400,7.51075732421875,-0.040047284215688705,-0.5858733057975769,-1.2156903743743896
1789635321108797200,7.520797119140625,-0.05949049070477486,-0.7424778342247009,-1.1273603439331055
1789635321118836200,7.530836181640625,-0.0960700735449791,-0.5956732034683228,-1.0199140310287476
1789635321128876300,7.540876220703125,-0.13002458214759827,-0.49569016695022583,-0.9880548715591431
1789635321138916400,7.550916259765625,-0.11260244250297546,-0.6767110824584961,-1.01131010055542
1789635321148955400,7.560955322265625,-0.06636916846036911,-0.9502222537994385,-0.995162308216095
1789635321158995200,7.5709951171875,-0.04695073142647743,-0.8876177072525024,-0.9304829239845276
1789635321169035300,7.58103515625,-0.02353169210255146,-0.6164658665657043,-0.9241775870323181
1789635321179074300,7.59107421875,0.02509736269712448,-0.6126255989074707,-0.9884530305862427
1789635321189114400,7.6011142578125,0.0851638987660408,-0.7548524737358093,-1.083715558052063
1789635321199154200,7.611154296875,0.08100377023220062,-0.8514804840087891,-1.1849991083145142
1789635321209193200,7.621193115234375,0.03453134372830391,-0.7909471392631531,-1.2356535196304321
1789635321219233300,7.6312333984375,0.0356711782515049,-0.6064643859863281,-1.2048354148864746
1789635321229273300,7.6412734375,0.07744898647069931,-0.45874229073524475,-1.1566041707992554
1789635321239312100,7.65131201171875,0.11019840836524963,-0.5241686701774597,-1.1916245222091675
1789635321249352200,7.661352294921875,0.11799774318933487,-0.7000014781951904,-1.244782567024231
1789635321259392300,7.671392333984375,0.1018480658531189,-0.6686955094337463,-1.2788656949996948
1789635321269431300,7.681431396484375,0.12660162150859833,-0.6074747443199158,-1.3713843822479248
1789635321279471000,7.69147119140625,0.19701799750328064,-0.6838422417640686,-1.3814836740493774
1789635321289511200,7.70151123046875,0.24782204627990723,-0.794400155544281,-1.378831148147583
1789635321299550200,7.71155029296875,0.20469242334365845,-0.6964166164398193,-1.3955578804016113
1789635321309590300,7.72159033203125,0.14726881682872772,-0.47575294971466064,-1.3999351263046265
1789635321319630000,7.731630126953125,0.13321185111999512,-0.3266896903514862,-1.4583203792572021
1789635321329669000,7.741669189453125,0.13060887157917023,-0.352923184633255,-1.5166957378387451
1789635321339709200,7.751709228515625,0.13039369881153107,-0.33861052989959717,-1.5312973260879517
1789635321349749200,7.761749267578125,0.16879966855049133,-0.2396663874387741,-1.5032151937484741
1789635321359788300,7.771788330078125,0.23342500627040863,-0.15465721487998962,-1.4834169149398804
1789635321369828400,7.781828369140625,0.26677122712135315,0.19530318677425385,-1.4975790977478027
1789635321379868200,7.7918681640625,0.32736027240753174,0.5146769285202026,-1.483870506286621
1789635321389907200,7.8019072265625,0.33018457889556885,0.4653298854827881,-1.4508733749389648
1789635321399947300,7.811947265625,0.3060464859008789,0.34731534123420715,-1.3895578384399414
1789635321409987300,7.8219873046875,0.25630661845207214,0.18564815819263458,-1.273543357849121
1789635321420026400,7.8320263671875,0.17030036449432373,0.1362989842891693,-1.198766827583313
1789635321430066400,7.84206640625,0.051955610513687134,0.14735031127929688,-1.1403197050094604
1789635321440106200,7.852106201171875,-0.08503526449203491,0.15133705735206604,-1.0833957195281982
1789635321450145300,7.862145263671875,-0.17715667188167572,0.15228034555912018,-1.019960641860962
1789635321460185300,7.872185302734375,-0.18103289604187012,0.14376036822795868,-0.9602466821670532
1789635321470225400,7.882225341796875,-0.13848038017749786,0.1478528380393982,-0.8479664921760559
1789635321480264200,7.89226416015625,-0.07505906373262405,0.31878891587257385,-0.7119095325469971
1789635321490304300,7.90230419921875,-0.008623049594461918,0.42942139506340027,-0.5333584547042847
1789635321500344300,7.91234423828125,0.01992683671414852,0.4723137319087982,-0.33454763889312744
1789635321510383000,7.922383056640625,-0.002769421087577939,0.42978811264038086,-0.1572125256061554
1789635321520423200,7.932423095703125,-0.032286033034324646,0.3706776797771454,-0.05994322896003723
1789635321530462200,7.942462158203125,0.010747186839580536,0.43448778986930847,0.0025015072897076607
1789635321540502300,7.952502197265625,0.0521785169839859,0.3822624087333679,0.08940311521291733
1789635321550542300,7.962542236328125,0.038486137986183167,0.4310246407985687,0.19884225726127625
1789635321560581000,7.9725810546875,-0.01774544082581997,0.39015334844589233,0.39838680624961853
1789635321570621200,7.98262109375,-0.09969063848257065,0.4191727638244629,0.7274072766304016
1789635321580661200,7.9926611328125,-0.15497760474681854,0.4123673141002655,1.0137839317321777
1789635321590700000,8.002699951171875,-0.17677263915538788,0.40519118309020996,1.1710540056228638
1789635321600740000,8.012739990234374,-0.14193876087665558,0.48070457577705383,1.208559513092041
1789635321610780200,8.0227802734375,-0.08138567209243774,0.4728200137615204,1.1619517803192139
1789635321620819500,8.0328193359375,-0.04294666647911072,0.2666657865047455,1.0686248540878296
1789635321630859300,8.042859375,-0.07845406234264374,0.15932627022266388,1.0934298038482666
1789635321640899000,8.052899169921876,-0.1382918357849121,0.1738884449005127,1.2318947315216064
1789635321650938400,8.0629384765625,-0.145977184176445,0.4259747564792633,1.3731956481933594
1789635321660978400,8.072978515625,-0.0013310478534549475,0.6699053645133972,1.39206063747406
1789635321671018200,8.083018310546874,0.18521779775619507,0.6617475748062134,1.3735990524291992
1789635321681057300,8.093057373046875,0.3360626995563507,0.43244117498397827,1.4554694890975952
1789635321691097300,8.103097412109374,0.3773787021636963,0.35842445492744446,1.7142586708068848
1789635321701137400,8.113137451171875,0.40636640787124634,0.7215946912765503,1.8675587177276611
1789635321711176200,8.12317626953125,0.41487228870391846,0.9321972131729126,1.6637123823165894
1789635321721216300,8.13321630859375,0.3754945397377014,0.8774721622467041,1.4022676944732666
1789635321731256300,8.14325634765625,0.2770920693874359,0.6963236927986145,1.3946822881698608
1789635321741295400,8.15329541015625,0.20469695329666138,0.2953301668167114,1.6217726469039917
1789635321751335200,8.163335205078125,0.1651546061038971,0.0859023928642273,1.917392373085022
1789635321761375200,8.173375244140624,0.21707239747047424,0.23514780402183533,2.04256534576416
1789635321771414300,8.183414306640625,0.3854036033153534,0.506879985332489,1.9160027503967285
1789635321781454300,8.193454345703126,0.5668647289276123,0.5631512403488159,1.687254786491394
1789635321791494100,8.203494140625,0.6340376734733582,0.5579333305358887,1.618146300315857
1789635321801533200,8.213533203125,0.5864432454109192,0.5342479348182678,1.7024617195129395
1789635321811573200,8.2235732421875,0.4608056843280792,0.34921419620513916,1.8290752172470093
1789635321821613300,8.23361328125,0.3485257625579834,0.21456663310527802,1.8849209547042847
1789635321831652000,8.243652099609376,0.31237679719924927,0.2946135103702545,1.811752200126648
1789635321841692200,8.253692138671875,0.3609347641468048,0.306675523519516,1.6244726181030273
1789635321851732200,8.263732177734376,0.37866660952568054,0.048471394926309586,1.4215503931045532
1789635321861771300,8.273771240234375,0.31877586245536804,-0.12265001982450485,1.353278636932373
1789635321871811000,8.28381103515625,0.23838913440704346,-0.08928993344306946,1.4423850774765015
1789635321881851100,8.29385107421875,0.18598425388336182,-0.09251368790864944,1.594925045967102
1789635321891890200,8.30389013671875,0.15191122889518738,0.02303820662200451,1.730090856552124
1789635321901930200,8.31393017578125,0.1458520144224167,0.19808006286621094,1.785224199295044
1789635321911970000,8.323969970703125,0.1884191781282425,0.19920338690280914,1.7417131662368774
1789635321922009300,8.33400927734375,0.26346200704574585,0.11657241731882095,1.6981111764907837
1789635321932049200,8.344049072265625,0.313140332698822,0.14773672819137573,1.7171729803085327
1789635321942089200,8.354089111328125,0.2998913824558258,-0.014625548385083675,1.7638746500015259
1789635321952128300,8.364128173828124,0.22258460521697998,-0.34617260098457336,1.762452244758606
1789635321962168300,8.374168212890625,0.08434657007455826,-0.37276238203048706,1.7417256832122803
1789635321972208400,8.38420849609375,-0.01992497220635414,-0.15776033699512482,1.706856369972229
1789635321982247400,8.394247314453125,-0.057684868574142456,-0.033970482647418976,1.624300241470337
1789635321992287200,8.404287353515626,-0.046727292239665985,-0.0896284207701683,1.5007253885269165
1789635322002327300,8.414327392578125,0.006382798310369253,-0.1342342346906662,1.4226734638214111
1789635322012366300,8.424366455078125,0.03868241608142853,0.1544380486011505,1.4099299907684326
1789635322022406400,8.434406494140624,0.08431914448738098,0.5208415985107422,1.4118751287460327
1789635322032446200,8.4444462890625,0.13397271931171417,0.553128182888031,1.4140570163726807
1789635322042485200,8.4544853515625,0.1827615648508072,0.2940689027309418,1.4095178842544556
1789635322052525300,8.464525390625,0.16865293681621552,-0.02965562976896763,1.3726142644882202
1789635322062565400,8.4745654296875,0.07361216843128204,-0.026443591341376305,1.323833703994751
1789635322072604200,8.484604248046875,-0.00993305817246437,0.21995232999324799,1.2534348964691162
1789635322082644200,8.494644287109375,-0.03662671893835068,0.22887632250785828,1.1324328184127808
1789635322092682500,8.5046826171875,0.009838782250881195,-0.10754643380641937,1.006351351737976
1789635322102722600,8.51472265625,0.04849616438150406,-0.3152831196784973,0.8954311609268188
1789635322112762400,8.524762451171876,-0.013943245634436607,-0.20980755984783173,0.79640793800354
1789635322122802400,8.534802490234375,-0.14327886700630188,0.045703839510679245,0.657443642616272
1789635322132841500,8.544841552734376,-0.26266756653785706,0.24645398557186127,0.4548623263835907
1789635322142881500,8.554881591796875,-0.2870352268218994,0.41440436244010925,0.2547990083694458
1789635322152920600,8.564920654296875,-0.2242506742477417,0.5012450218200684,0.08737139403820038
1789635322162960600,8.574960693359374,-0.12935586273670197,0.5881636738777161,-0.04350566491484642
1789635322173000400,8.58500048828125,-0.03573988750576973,0.4897417426109314,-0.1521623730659485
1789635322183039500,8.59503955078125,0.059896089136600494,0.2579372823238373,-0.22156967222690582
1789635322193079600,8.60507958984375,0.07045339047908783,0.09000153094530106,-0.2815001308917999
1789635322203119600,8.61511962890625,0.0584995299577713,0.007281082216650248,-0.32001155614852905
1789635322213158700,8.62515869140625,-0.0015851134667173028,-0.12023666501045227,-0.3175039291381836
1789635322223198500,8.635198486328125,-0.12699124217033386,-0.07092690467834473,-0.3426375091075897
1789635322233238500,8.645238525390624,-0.17763391137123108,0.11733754724264145,-0.4211738705635071
1789635322243277600,8.655277587890625,-0.1660076081752777,0.10067441314458847,-0.4604749381542206
1789635322253317600,8.665317626953126,-0.18108563125133514,-0.04844876006245613,-0.5025027990341187
1789635322263357700,8.675357666015625,-0.2500559091567993,0.011810054071247578,-0.6425145268440247
1789635322273396500,8.685396484375,-0.27537670731544495,0.40176981687545776,-0.8033286929130554
1789635322283436500,8.6954365234375,-0.1906335949897766,0.4943847060203552,-0.876212477684021
1789635322293476600,8.7054765625,-0.10746067762374878,0.2574501633644104,-0.8113706111907959
1789635322303515400,8.715515380859374,-0.07340151071548462,0.13676157593727112,-0.716691792011261
1789635322313555500,8.725555419921875,-0.016018647700548172,0.2659858763217926,-0.6034824252128601
1789635322323595500,8.735595458984376,0.04212374985218048,0.5081607103347778,-0.4193176329135895
1789635322333634600,8.745634521484375,0.06928399950265884,0.4986071288585663,-0.26657524704933167
1789635322343674400,8.75567431640625,0.017529726028442383,0.3003411889076233,-0.2150055170059204
1789635322353714400,8.76571435546875,-0.020116720348596573,0.1454317569732666,-0.299950510263443
1789635322363753500,8.77575341796875,0.03344397619366646,0.001502555445767939,-0.48210540413856506
1789635322373793500,8.78579345703125,0.1441824734210968,-0.25315743684768677,-0.6162970066070557
1789635322383833600,8.79583349609375,0.22401365637779236,-0.3578393757343292,-0.6458503603935242
1789635322393872400,8.805872314453126,0.27405765652656555,-0.21242943406105042,-0.618435800075531
1789635322403912400,8.815912353515625,0.31243059039115906,-0.01817447692155838,-0.5518602132797241
1789635322413952500,8.825952392578126,0.2815813422203064,0.0625038594007492,-0.49830567836761475
1789635322423991600,8.835991455078124,0.16501079499721527,0.04650278761982918,-0.5359265208244324
1789635322434031400,8.84603125,0.03867362439632416,-0.0011259844759479165,-0.6631598472595215
1789635322444071400,8.856071533203124,-0.05576366186141968,0.009347429499030113,-0.8502628803253174
1789635322454110700,8.86611083984375,-0.17184792459011078,0.16117078065872192,-1.0993646383285522
1789635322464150500,8.876150634765626,-0.2894035875797272,0.4649876654148102,-1.3276646137237549
1789635322474190600,8.886190673828125,-0.3324842154979706,0.7114722728729248,-1.436378836631775
1789635322484229600,8.896229736328126,-0.28023138642311096,0.6690877676010132,-1.3187073469161987
1789635322494269700,8.906269775390625,-0.17879770696163177,0.42398643493652344,-1.0504794120788574
1789635322504309500,8.9163095703125,-0.11382883042097092,0.1087440550327301,-0.854398250579834
1789635322514348500,8.9263486328125,-0.06021673604846001,-0.12300954759120941,-0.7844966650009155
1789635322524388600,8.936388671875,-0.013434316031634808,-0.3526448607444763,-0.7739521861076355
1789635322534428700,8.9464287109375,-0.019687950611114502,-0.4794723093509674,-0.8176115155220032
1789635322544467500,8.956467529296875,-0.06536222994327545,-0.4285103380680084,-0.876590371131897
1789635322554507500,8.966507568359376,-0.08647630363702774,-0.23854891955852509,-0.9745885729789734
1789635322564547600,8.976547607421875,-0.09340877830982208,-0.10761993378400803,-1.1046568155288696
1789635322574586600,8.986586669921875,-0.10227283835411072,-0.0745253637433052,-1.2078341245651245
1789635322584626400,8.99662646484375,-0.07550567388534546,-0.10313517600297928,-1.2278815507888794
1789635322594666500,9.00666650390625,-0.04369474947452545,-0.25058215856552124,-1.1440998315811157
1789635322604705500,9.01670556640625,-0.035478897392749786,-0.29930707812309265,-1.0167237520217896
1789635322614745600,9.02674560546875,-0.00663579860702157,-0.3420313596725464,-0.934648334980011
1789635322624785400,9.036785400390626,0.04561888426542282,-0.5403860211372375,-0.9490318298339844
1789635322634824400,9.046824462890624,0.07043422013521194,-0.8296918272972107,-1.021762490272522
1789635322644864500,9.056864501953125,0.030598921701312065,-0.9371938109397888,-1.0829001665115356
1789635322654904600,9.066904541015624,0.003114833263680339,-0.9864513874053955,-1.119492530822754
1789635322664943400,9.076943359375,0.006031527183949947,-1.0659704208374023,-1.1343239545822144
1789635322674983400,9.0869833984375,0.01654275692999363,-0.9287236332893372,-1.1449086666107178
1789635322685023500,9.0970234375,0.024659540504217148,-0.843267560005188,-1.1485803127288818
1789635322695062500,9.1070625,0.03610793501138687,-0.8501750230789185,-1.1563605070114136
1789635322705102300,9.117102294921875,0.026799123734235764,-0.7388162612915039,-1.1863093376159668
1789635322715142400,9.127142333984375,0.047151532024145126,-0.6820417046546936,-1.23799467086792
1789635322725181700,9.137181640625,0.09207373112440109,-0.5835278630256653,-1.2982158660888672
1789635322735221500,9.147221435546875,0.14727146923542023,-0.41058647632598877,-1.3593850135803223
1789635322745261300,9.15726123046875,0.23986080288887024,-0.29500314593315125,-1.3691524267196655
1789635322755300600,9.167300537109375,0.3579951524734497,-0.259007066488266,-1.3379206657409668
1789635322765340700,9.177340576171876,0.4495684802532196,-0.13012391328811646,-1.2893955707550049
1789635322775380700,9.187380615234375,0.4983479976654053,-0.1832859367132187,-1.337678074836731
1789635322785419500,9.19741943359375,0.4870753884315491,-0.39155712723731995,-1.5482563972473145
1789635322795459600,9.20745947265625,0.40949803590774536,-0.5573234558105469,-1.7530728578567505
1789635322805499600,9.217499755859375,0.31808263063430786,-0.7709763646125793,-1.868011236190796
1789635322815538700,9.22753857421875,0.19768458604812622,-0.823983907699585,-1.8576939105987549
1789635322825578500,9.23757861328125,0.1299806386232376,-0.5950348973274231,-1.7479615211486816
1789635322835618600,9.24761865234375,0.12117861956357956,-0.5049156546592712,-1.5754214525222778
1789635322845657600,9.25765771484375,0.11432870477437973,-0.47257739305496216,-1.4598785638809204
1789635322855697700,9.26769775390625,0.06956416368484497,-0.43452322483062744,-1.4321825504302979
1789635322865737500,9.277737548828124,0.050098322331905365,-0.428130567073822,-1.4705266952514648
1789635322875776500,9.287776611328125,0.060084108263254166,-0.412099152803421,-1.5965824127197266
1789635322885816600,9.297816650390626,0.0993119403719902,-0.42503970861434937,-1.6626439094543457
1789635322895856600,9.307856689453125,0.11533032357692719,-0.573318362236023,-1.62646484375
1789635322905895400,9.3178955078125,0.04725592955946922,-0.7211201190948486,-1.465453863143921
1789635322915935500,9.327935546875,-0.09375365823507309,-0.6557278037071228,-1.2991440296173096
1789635322925975600,9.3379755859375,-0.20646288990974426,-0.44016167521476746,-1.1934341192245483
1789635322936014300,9.348014404296874,-0.262184739112854,-0.3398928642272949,-1.1403796672821045
1789635322946054400,9.358054443359375,-0.30685901641845703,-0.2035275548696518,-1.101718783378601
1789635322956094500,9.368094482421874,-0.2901942729949951,0.006522081326693296,-1.0703848600387573
1789635322966133500,9.378133544921875,-0.14616812765598297,0.23819606006145477,-1.0551838874816895
1789635322976173600,9.388173583984376,-0.02774933911859989,0.2371464967727661,-1.011840581893921
1789635322986213400,9.39821337890625,-0.03634842112660408,-0.004850149154663086,-0.9110048413276672
1789635322996252400,9.40825244140625,-0.10467368364334106,-0.14001862704753876,-0.7255904674530029
1789635323006292500,9.41829248046875,-0.1896253228187561,0.09209583699703217,-0.5631296634674072
1789635323016331500,9.42833154296875,-0.20220769941806793,0.546187162399292,-0.48998382687568665
1789635323026371600,9.43837158203125,-0.1248449981212616,0.6388955116271973,-0.5064451098442078
1789635323036411600,9.44841162109375,-0.03250148519873619,0.3794559836387634,-0.44745951890945435
1789635323046450700,9.45845068359375,0.06631270796060562,0.19209326803684235,-0.21732619404792786
1789635323056490500,9.468490478515625,0.15707723796367645,0.27468323707580566,0.10018651932477951
1789635323066530600,9.478530517578125,0.19546963274478912,0.6920163035392761,0.3543202579021454
1789635323076569600,9.488569580078124,0.21386249363422394,0.9802472591400146,0.4833003580570221
1789635323086609700,9.498609619140625,0.20014534890651703,0.7422826290130615,0.5417007803916931
1789635323096650200,9.508650146484374,0.13413836061954498,0.44130948185920715,0.6728561520576477
1789635323106689300,9.518689208984375,0.011214837431907654,0.3798959255218506,0.9138125777244568
1789635323116729000,9.52872900390625,-0.1820550262928009,0.33517640829086304,1.1125686168670654
1789635323126769200,9.53876904296875,-0.384983092546463,0.2015855759382248,1.23507559299469
1789635323136808200,9.54880810546875,-0.5108574032783508,0.25526878237724304,1.3397953510284424
1789635323146848300,9.55884814453125,-0.5201933979988098,0.42158743739128113,1.3712522983551025
1789635323156888000,9.56888818359375,-0.4230404794216156,0.41463208198547363,1.3122326135635376
1789635323166927000,9.578927001953126,-0.32461562752723694,0.25410470366477966,1.290457844734192
1789635323176967200,9.58896728515625,-0.3368222415447235,0.2973158359527588,1.4925031661987305
1789635323187007200,9.59900732421875,-0.3680342137813568,0.6251443028450012,1.8165600299835205
1789635323197046000,9.6090458984375,-0.293643057346344,0.8261730074882507,2.014055013656616
1789635323207086000,9.619086181640625,-0.15774089097976685,1.0084155797958374,2.0628597736358643
1789635323217126100,9.629126220703125,0.02984577976167202,0.9569970965385437,2.040287971496582
1789635323227165200,9.639165283203125,0.11859215795993805,0.6638333797454834,2.0453474521636963
1789635323237205000,9.649205078125,0.08727791160345078,0.7968982458114624,2.0715456008911133
1789635323247245000,9.6592451171875,0.03948535770177841,0.9247350096702576,2.049504518508911
1789635323257284000,9.6692841796875,0.06181676313281059,0.5976114869117737,1.9268308877944946
1789635323267324200,9.67932421875,0.034568097442388535,0.425670862197876,1.8569782972335815
1789635323277364000,9.689364013671875,0.012177837081253529,0.45463621616363525,1.8655898571014404
1789635323287403000,9.699403076171874,0.07786630094051361,0.3568204343318939,1.890668272972107
1789635323297443000,9.709443115234375,0.1862923800945282,0.24752376973628998,1.8649789094924927
1789635323307483100,9.719483154296874,0.3039255440235138,0.29402071237564087,1.792161464691162
1789635323317522200,9.729522216796875,0.41446617245674133,0.4453495144844055,1.7186754941940308
1789635323327562000,9.73956201171875,0.5122395753860474,0.49682387709617615,1.6378358602523804
1789635323337602000,9.74960205078125,0.627255380153656,0.15740373730659485,1.5392799377441406
1789635323347641300,9.759641357421875,0.5908425450325012,-0.06315500289201736,1.5085811614990234
1789635323357681200,9.76968115234375,0.4893140494823456,0.14727281033992767,1.6183632612228394
1789635323367721000,9.779720947265625,0.46245285868644714,0.3363495171070099,1.7494866847991943
1789635323377760300,9.78976025390625,0.4796912372112274,0.23769325017929077,1.7930094003677368
1789635323387800300,9.79980029296875,0.4611433744430542,0.03458327800035477,1.7249014377593994
1789635323397840100,9.809840087890626,0.4102490544319153,-0.027906998991966248,1.6098419427871704
1789635323407879200,9.819879150390625,0.40329232811927795,0.03446503356099129,1.576839804649353
1789635323417919200,9.829919189453125,0.4175114929676056,0.05560227483510971,1.6496522426605225
1789635323427958000,9.8399580078125,0.41852107644081116,-0.16151539981365204,1.726557970046997
1789635323437998000,9.849998046875,0.3548662066459656,-0.3339473605155945,1.7629108428955078
1789635323448038100,9.8600380859375,0.21825537085533142,-0.09732548892498016,1.8226799964904785
1789635323458077200,9.8700771484375,0.07675203680992126,0.26723381876945496,1.8755741119384766
1789635323468117000,9.880116943359376,0.017167268320918083,0.24997201561927795,1.8446656465530396
1789635323478157000,9.890156982421875,0.05023840442299843,-0.26160818338394165,1.7074012756347656
1789635323488196000,9.900196044921875,0.09362715482711792,-0.6290839314460754,1.5332396030426025
1789635323498236200,9.910236083984374,0.057256896048784256,-0.2687779366970062,1.502787709236145
1789635323508276200,9.920276123046875,0.010234794579446316,0.3562185764312744,1.5744712352752686
1789635323518315000,9.93031494140625,-0.01992790214717388,0.553729772567749,1.5809917449951172
1789635323528355000,9.94035498046875,-0.0004111920716241002,0.21449099481105804,1.4718254804611206
1789635323538395100,9.95039501953125,0.06996896117925644,-0.31290358304977417,1.356189250946045
1789635323548434000,9.960433837890625,0.03907336667180061,-0.19843906164169312,1.2856335639953613
1789635323558474000,9.970473876953125,-0.088531993329525,0.41645580530166626,1.1880228519439697
1789635323568514000,9.98051416015625,-0.11815593391656876,0.5994954109191895,1.0405569076538086
1789635323578553000,9.990552978515625,-0.04447825253009796,-0.02064375951886177,0.9228643774986267
1789635323588593000,10.000593017578124,0.025000691413879395,-0.5648506283760071,0.8598955869674683
1789635323598633000,10.010633056640625,-0.05818953737616539,-0.5214424133300781,0.8083199858665466
1789635323608672300,10.02067236328125,-0.1537112593650818,0.026204705238342285,0.7362564206123352
1789635323618712000,10.030712158203125,-0.18425558507442474,0.20932525396347046,0.6746082305908203
1789635323628752000,10.040751953125,-0.184010311961174,0.17416220903396606,0.5789613723754883
1789635323638791200,10.050791259765624,-0.2168811857700348,0.4680401682853699,0.3869034945964813
1789635323648831200,10.060831298828125,-0.1682949960231781,0.79655522108078,0.12663890421390533
1789635323658871300,10.070871337890624,-0.06359229236841202,0.35141369700431824,-0.020013920962810516
1789635323668910000,10.08091015625,-0.06226204335689545,-0.33000001311302185,-0.0991356372833252
1789635323678950100,10.0909501953125,-0.1474088877439499,-0.40185263752937317,-0.23324257135391235
1789635323688990200,10.100990234375,-0.12895318865776062,-0.1956736296415329,-0.38125574588775635
1789635323699029200,10.111029296875,-0.08316892385482788,-0.30045250058174133,-0.4101443886756897
1789635323709069000,10.121069091796874,-0.08859538286924362,-0.2510729730129242,-0.40639224648475647
1789635323719108000,10.131108154296875,-0.12286254018545151,0.05757967382669449,-0.4818044602870941
1789635323729148200,10.141148193359374,-0.11877431720495224,0.32703298330307007,-0.5813230276107788
1789635323739188200,10.151188232421875,-0.10793419182300568,0.43065470457077026,-0.6619427800178528
1789635323749227000,10.16122705078125,-0.0993388369679451,0.22848111391067505,-0.7091782093048096
1789635323759267000,10.17126708984375,-0.11763901263475418,-0.08241471648216248,-0.7109763622283936
1789635323769307100,10.18130712890625,-0.10103899985551834,-0.128999263048172,-0.7107798457145691
1789635323779346200,10.19134619140625,-0.024289360269904137,-0.03205167502164841,-0.7356548309326172
1789635323789386000,10.201385986328125,0.032881516963243484,0.07763966917991638,-0.7523118257522583
1789635323799426000,10.211426025390624,0.017610952258110046,0.16878609359264374,-0.7891049981117249
1789635323809465000,10.221465087890625,-0.05348266661167145,0.21967856585979462,-0.8447744250297546
1789635323819505200,10.231505126953126,-0.1321982443332672,0.2579742968082428,-0.8881591558456421
1789635323829545000,10.241544921875,-0.10884765535593033,0.18298685550689697,-0.8756505846977234
1789635323839584000,10.251583984375,-0.04856114462018013,-0.09170648455619812,-0.7900781035423279
1789635323849624000,10.2616240234375,-0.04831506684422493,-0.10343930870294571,-0.6552220582962036
1789635323859664100,10.2716640625,-0.021930865943431854,0.15835075080394745,-0.5477472543716431
1789635323869703200,10.281703125,-0.013147493824362755,0.19593195617198944,-0.5043444037437439
1789635323879743000,10.291742919921875,-0.06547833979129791,0.09053841978311539,-0.5693268179893494
1789635323889783000,10.301782958984376,-0.13253328204154968,-0.08460063487291336,-0.7407239079475403
1789635323899822000,10.311822021484375,-0.1853695958852768,-0.24136655032634735,-0.9152645468711853
1789635323909862100,10.321862060546875,-0.24481694400310516,-0.2616475820541382,-1.0348786115646362
1789635323919902200,10.331902099609374,-0.3138847053050995,-0.17768850922584534,-1.116723895072937
1789635323929941200,10.341941162109375,-0.3432292640209198,-0.07642126828432083,-1.1850507259368896
1789635323939981300,10.351981201171874,-0.3206552565097809,0.10708597302436829,-1.2096275091171265
1789635323950021000,10.362021240234375,-0.3118148744106293,0.3976981043815613,-1.1704007387161255
1789635323960060200,10.37206005859375,-0.2726221978664398,0.34050723910331726,-1.0766619443893433
1789635323970100200,10.382100341796875,-0.17614813148975372,-0.03940572962164879,-1.0034172534942627
1789635323980139000,10.392138916015625,-0.11794421076774597,-0.3168940544128418,-1.0115412473678589
1789635323990179000,10.402178955078124,-0.08868405967950821,-0.4913119375705719,-1.0577657222747803
1789635324000219100,10.41221923828125,-0.03868694230914116,-0.5829270482063293,-1.0893934965133667
1789635324010258200,10.422258056640626,-0.02586541883647442,-0.5316638946533203,-1.1679301261901855
1789635324020298000,10.432298095703125,-0.025243304669857025,-0.372575968503952,-1.3063870668411255
1789635324030338000,10.442338134765626,-0.002555036684498191,-0.13474076986312866,-1.4272338151931763
1789635324040377000,10.452377197265625,-0.018274344503879547,0.20401091873645782,-1.444426417350769
1789635324050417200,10.462417236328125,0.013511281460523605,0.16069327294826508,-1.411793828010559
1789635324060457200,10.472457275390624,0.08479318767786026,-0.34895214438438416,-1.4427440166473389
1789635324070496000,10.48249609375,0.10076655447483063,-0.6156810522079468,-1.4564290046691895
1789635324080536000,10.4925361328125,0.10967829078435898,-0.4596802294254303,-1.4134242534637451
1789635324090576100,10.502576171875,0.13232527673244476,-0.23989515006542206,-1.3357970714569092
1789635324100615000,10.512614990234376,0.0972788855433464,-0.1271856427192688,-1.2899929285049438
1789635324110654700,10.52265478515625,0.051777444779872894,-0.2899111807346344,-1.337225079536438
1789635324120694500,10.532694580078125,0.024415060877799988,-0.5483579039573669,-1.467142105102539
1789635324130733800,10.54273388671875,-0.001160072977654636,-0.7065232992172241,-1.577649712562561
1789635324140774000,10.55277392578125,0.003625627374276519,-0.8637750148773193,-1.5882117748260498
1789635324150813700,10.562813720703126,-0.0032226911280304193,-0.834672212600708,-1.5035022497177124
1789635324160852700,10.572852783203125,0.0029941920656710863,-0.5600771307945251,-1.4258335828781128
1789635324170892800,10.582892822265626,0.08703476935625076,-0.5561162233352661,-1.4029332399368286
1789635324180932900,10.592932861328125,0.20816625654697418,-0.7206076979637146,-1.3885327577590942
1789635324190972000,10.602971923828125,0.26351818442344666,-0.7811088562011719,-1.364200472831726
1789635324201011700,10.61301171875,0.3232550323009491,-0.8262094855308533,-1.4035100936889648
1789635324211051800,10.6230517578125,0.35063737630844116,-0.8123376369476318,-1.4516578912734985
1789635324221090800,10.6330908203125,0.32593095302581787,-0.7556040287017822,-1.504447340965271
1789635324231131000,10.643130859375,0.2770768702030182,-0.8091104030609131,-1.6338876485824585
1789635324241169700,10.653169677734375,0.21349629759788513,-0.8561343550682068,-1.7558060884475708
1789635324251209700,10.663209716796874,0.16454048454761505,-0.8348442912101746,-1.80852210521698
1789635324261249800,10.673249755859375,0.1383751928806305,-0.8175148367881775,-1.8017534017562866
1789635324271288600,10.68328857421875,0.08030762523412704,-0.7579934597015381,-1.7617005109786987
1789635324281328600,10.69332861328125,0.05203976482152939,-0.7583548426628113,-1.7817705869674683
1789635324291368700,10.70336865234375,0.01684555970132351,-0.7319709062576294,-1.7795125246047974
1789635324301407700,10.71340771484375,-0.031074030324816704,-0.6657679080963135,-1.7322545051574707
1789635324311447600,10.723447509765625,-0.08084318041801453,-0.5919319987297058,-1.6507617235183716
1789635324321487600,10.733487548828125,-0.12428200244903564,-0.4655511677265167,-1.6201574802398682
1789635324331526700,10.743526611328125,-0.12936730682849884,-0.3149164021015167,-1.5544764995574951
1789635324341566700,10.753566650390624,-0.12099219858646393,-0.23460131883621216,-1.4391977787017822
1789635324351606800,10.763606689453125,-0.12620453536510468,-0.07656694948673248,-1.3299285173416138
1789635324361645800,10.773645751953126,-0.1281300038099289,0.16927237808704376,-1.230080246925354
1789635324371685600,10.783685546875,-0.08445123583078384,0.36637747287750244,-1.1074055433273315
1789635324381725700,10.7937255859375,-0.05861138179898262,0.49402835965156555,-1.0240753889083862
1789635324391764700,10.8037646484375,-0.08091934770345688,0.5390363335609436,-0.9129396080970764
1789635324401804800,10.8138046875,-0.10460470616817474,0.5037600994110107,-0.716839611530304
1789635324411844600,10.8238447265625,-0.12156238406896591,0.4872812330722809,-0.5142265558242798
1789635324421884000,10.8338837890625,-0.15280818939208984,0.3718055188655853,-0.32447928190231323
1789635324431923700,10.843923828125,-0.18371284008026123,0.2590813636779785,-0.18772701919078827
1789635324441962800,10.853962646484375,-0.19558414816856384,0.23054826259613037,-0.09427457302808762
1789635324452002800,10.8640029296875,-0.19048446416854858,0.14291587471961975,-0.04595710709691048
1789635324462043000,10.87404296875,-0.1744048297405243,0.017609354108572006,-0.05228477716445923
1789635324472081700,10.88408154296875,-0.1975357085466385,-0.01769058033823967,-0.03418087214231491
1789635324482121700,10.894121826171874,-0.16841857135295868,0.3648621141910553,0.12353339046239853
1789635324492161800,10.904161865234375,-0.07540527731180191,0.46842554211616516,0.2667805552482605
1789635324502200800,10.914200927734376,-0.06260692328214645,0.33744513988494873,0.29221880435943604
1789635324512240600,10.92424072265625,-0.14979854226112366,0.2880150079727173,0.4302768111228943
1789635324522280700,10.93428076171875,-0.23638804256916046,0.3674405813217163,0.8047915697097778
1789635324532319700,10.94431982421875,-0.3373740315437317,0.5819392800331116,1.193097472190857
1789635324542359800,10.95435986328125,-0.3876156508922577,0.6574732065200806,1.4211770296096802
1789635324552399600,10.964399658203124,-0.36029052734375,0.5442206859588623,1.5501704216003418
1789635324562438700,10.974438720703125,-0.34216800332069397,0.5859353542327881,1.6977121829986572
1789635324572478700,10.984478759765626,-0.3213058412075043,0.7524734735488892,1.8477818965911865
1789635324582518800,10.994518798828125,-0.27882444858551025,0.71608567237854,1.9316508769989014
1789635324592557600,11.0045576171875,-0.26252642273902893,0.828536868095398,2.0034852027893066
1789635324602597600,11.01459765625,-0.21831023693084717,0.955120325088501,2.0722124576568604
1789635324612637700,11.0246376953125,-0.1345495581626892,0.7969053983688354,2.1324963569641113
1789635324622676700,11.0346767578125,-0.12450304627418518,0.6433219909667969,2.242668867111206
1789635324632716500,11.044716552734375,-0.14248231053352356,0.6667631268501282,2.374354124069214
1789635324642756600,11.054756591796876,-0.09856092929840088,0.6217541098594666,2.351553201675415
1789635324652796000,11.0647958984375,-0.04050348326563835,0.5709713697433472,2.2031142711639404
1789635324662835700,11.074835693359375,-0.013735786080360413,0.6381034851074219,2.071042060852051
1789635324672875500,11.08487548828125,0.03172091022133827,0.7014108300209045,2.016590118408203
1789635324682914800,11.094914794921875,0.07139135897159576,0.6542459726333618,1.9756516218185425
1789635324692955000,11.104954833984374,0.09889622032642365,0.46768251061439514,1.8974881172180176
1789635324702993700,11.11499365234375,0.099822998046875,0.3432053029537201,1.834618330001831
1789635324713033700,11.12503369140625,0.08766327053308487,0.4075770974159241,1.8512111902236938
1789635324723073800,11.13507373046875,0.0687423124909401,0.5586798191070557,1.9119856357574463
1789635324733112800,11.14511279296875,0.07948949933052063,0.5433671474456787,1.9153417348861694
1789635324743152600,11.155152587890624,0.10541164129972458,0.4037162959575653,1.8681347370147705
1789635324753192700,11.165192626953125,0.13886840641498566,0.3177012801170349,1.835892677307129
1789635324763231700,11.175231689453126,0.19995732605457306,0.3572617173194885,1.8903052806854248
1789635324773271800,11.185271728515625,0.2629637122154236,0.4534524381160736,1.9551339149475098
1789635324783312000,11.195311767578126,0.337573766708374,0.35355061292648315,1.9311329126358032
1789635324793350700,11.2053505859375,0.36130547523498535,0.09351424127817154,1.8634209632873535
1789635324803390700,11.215390625,0.26242390275001526,0.11612101644277573,1.9252779483795166
1789635324813430800,11.2254306640625,0.16035665571689606,0.2535049617290497,2.0364975929260254
1789635324823469600,11.235469482421875,0.18407662212848663,0.034200578927993774,2.0062687397003174
1789635324833509600,11.245509521484376,0.2079782336950302,-0.38483741879463196,1.8599740266799927
1789635324843549700,11.2555498046875,0.09377575665712357,-0.38400039076805115,1.782669186592102
1789635324853588700,11.265588623046876,-0.013127786107361317,0.19405043125152588,1.8206716775894165
1789635324863628500,11.275628662109375,-0.0156527291983366,0.49853283166885376,1.8315578699111938
1789635324873668600,11.285668701171875,0.04370700195431709,0.2123631238937378,1.7563997507095337
1789635324883707600,11.295707763671874,0.0709250420331955,-0.1188020184636116,1.6569762229919434
1789635324893747700,11.305747802734375,0.06041514128446579,0.06114404648542404,1.650655746459961
1789635324903787800,11.315787841796874,0.07264704257249832,0.44595617055892944,1.695568323135376
1789635324913826800,11.325826904296875,0.11572100967168808,0.49108263850212097,1.6727250814437866
1789635324923866600,11.33586669921875,0.16106905043125153,-0.004640824627131224,1.5477173328399658
1789635324933906000,11.345906005859375,0.13700897991657257,-0.49949103593826294,1.4235211610794067
1789635324943945700,11.35594580078125,0.05206506699323654,-0.4402279853820801,1.4016599655151367
1789635324953985800,11.36598583984375,-0.05126478523015976,-0.008861934766173363,1.389810562133789
1789635324964024800,11.37602490234375,-0.11656709015369415,0.16359825432300568,1.2980902194976807
1789635324974065000,11.38606494140625,-0.15373603999614716,0.09688233584165573,1.1695327758789062
1789635324984104700,11.396104736328125,-0.14600248634815216,0.050580620765686035,1.0650266408920288
1789635324994143700,11.406143798828126,-0.09671562165021896,0.19708271324634552,0.9943993091583252
1789635325004183800,11.416183837890625,-0.011011372320353985,0.3693956136703491,0.9051429629325867
1789635325014224000,11.426223876953125,0.07289391756057739,0.3813963532447815,0.7633804678916931
1789635325024262700,11.4362626953125,0.08038005977869034,0.33444082736968994,0.5334721803665161
1789635325034302700,11.446302734375,-0.008670720271766186,0.4299814701080322,0.22789761424064636
1789635325044342800,11.4563427734375,-0.0879381075501442,0.36102744936943054,-0.1158355250954628
1789635325054381800,11.4663818359375,-0.13620257377624512,0.021853633224964142,-0.45009657740592957
1789635325064421600,11.476421630859376,-0.20441465079784393,-0.04621915891766548,-0.7417457699775696
1789635325074461700,11.486461669921875,-0.14018160104751587,0.1843613237142563,-1.0013996362686157
1789635325084500700,11.496500732421875,-0.02491600252687931,0.3310985565185547,-1.1776255369186401
1789635325094540500,11.50654052734375,0.009712282568216324,0.45616379380226135,-1.2598110437393188
1789635325104580600,11.51658056640625,-0.025492310523986816,0.6368387937545776,-1.3264579772949219
1789635325114619400,11.526619384765626,0.01194214727729559,0.7562035322189331,-1.3400176763534546
1789635325124659500,11.536659423828125,0.0709114596247673,0.6184698939323425,-1.2432395219802856
1789635325134698800,11.54669873046875,0.0867958813905716,0.40959683060646057,-1.1077280044555664
1789635325144738600,11.556738525390625,-0.0016817862633615732,0.38234230875968933,-1.0432078838348389
1789635325154778600,11.566778564453125,-0.006655239500105381,0.40487292408943176,-1.0131844282150269
1789635325164817700,11.576817626953124,0.02611788734793663,0.219090536236763,-0.9009689688682556
1789635325174857700,11.586857666015625,0.03214994817972183,-0.010529073886573315,-0.7689299583435059
1789635325184897500,11.5968974609375,0.028014058247208595,-0.1040843203663826,-0.6803916096687317
1789635325194936600,11.6069365234375,0.03632098808884621,-0.0365806482732296,-0.6317949891090393
1789635325204976600,11.6169765625,0.0588340200483799,0.07048694789409637,-0.5886707305908203
1789635325215016700,11.6270166015625,0.0713878944516182,0.13123391568660736,-0.5678727626800537
1789635325225055700,11.6370556640625,0.046727556735277176,0.23736009001731873,-0.5863987803459167
1789635325235095600,11.647095458984374,0.07803913950920105,0.24264194071292877,-0.6258183717727661
1789635325245135600,11.657135498046875,0.12660375237464905,0.18655550479888916,-0.5845305919647217
1789635325255174700,11.667174560546876,0.12695235013961792,0.07126299291849136,-0.5852900743484497
1789635325265214700,11.677214599609375,0.09311769157648087,0.04346731677651405,-0.6613683700561523
1789635325275254800,11.6872548828125,0.051649078726768494,0.14785736799240112,-0.7390881776809692
1789635325285293600,11.69729345703125,0.014522749930620193,0.27664971351623535,-0.8594515919685364
1789635325295333600,11.707333740234375,0.05393034219741821,0.20437097549438477,-1.0266094207763672
1789635325305373700,11.717373779296874,0.13191968202590942,-0.007933024317026138,-1.1721946001052856
1789635325315412500,11.72741259765625,0.12667059898376465,-0.18722368776798248,-1.2458325624465942
1789635325325452500,11.73745263671875,0.05211566388607025,-0.18241241574287415,-1.2328143119812012
1789635325335492600,11.74749267578125,0.03472762182354927,-0.06667463481426239,-1.1971412897109985
1789635325345531600,11.75753173828125,0.08821295201778412,-0.004533765371888876,-1.2116559743881226
1789635325355571500,11.767571533203125,0.17356300354003906,-0.046962715685367584,-1.2646152973175049
1789635325365610500,11.777610595703125,0.19008950889110565,-0.11365758627653122,-1.2893848419189453
1789635325375650600,11.787650634765624,0.14825977385044098,-0.17785921692848206,-1.2797287702560425
1789635325385690600,11.797690673828125,0.12316587567329407,-0.24809475243091583,-1.2727715969085693
1789635325395729700,11.807729736328126,0.09668845683336258,-0.3479505181312561,-1.3075056076049805
1789635325405769500,11.81776953125,0.041189514100551605,-0.37920165061950684,-1.3580430746078491
1789635325415809500,11.8278095703125,-0.011407916434109211,-0.25812289118766785,-1.3615727424621582
1789635325425848800,11.837848876953124,-0.06244952976703644,-0.04797258600592613,-1.3133431673049927
1789635325435888600,11.847888671875,-0.09359733015298843,-0.012713664211332798,-1.2672497034072876
1789635325445928400,11.857928466796874,-0.07395944744348526,-0.23914840817451477,-1.218205213546753
1789635325455967700,11.8679677734375,-0.0025651566684246063,-0.605067253112793,-1.2000571489334106
1789635325466007800,11.8780078125,0.011871040798723698,-0.7651336193084717,-1.2469402551651
1789635325476047600,11.888047607421875,-0.002365419641137123,-0.7480438351631165,-1.331009030342102
1789635325486086700,11.898086669921875,-0.036558009684085846,-0.6777166724205017,-1.3893163204193115
1789635325496126700,11.908126708984375,-0.028895830735564232,-0.7722578644752502,-1.3812199831008911
1789635325506166800,11.918166748046875,-0.011316836811602116,-0.8815529346466064,-1.3616808652877808
1789635325516205600,11.92820556640625,0.011165834963321686,-1.0298635959625244,-1.4073429107666016
1789635325526245600,11.93824560546875,-0.005540706682950258,-1.0808207988739014,-1.4256473779678345
1789635325536285700,11.94828564453125,-0.018984876573085785,-1.0636886358261108,-1.377498745918274
1789635325546324700,11.95832470703125,-0.027949076145887375,-1.0225811004638672,-1.3001214265823364
1789635325556364500,11.968364501953126,-0.004750280175358057,-1.1226009130477905,-1.3241745233535767
1789635325566404600,11.978404541015625,0.00827843602746725,-1.2467697858810425,-1.4297560453414917
1789635325576443600,11.988443603515625,-0.01739949733018875,-1.1592950820922852,-1.5365166664123535
1789635325586483700,11.998483642578124,-0.013027384877204895,-0.9085512757301331,-1.605677843093872
1789635325596522500,12.0085224609375,0.03232411667704582,-0.5113157629966736,-1.65171217918396
1789635325606562600,12.0185625,0.1165604367852211,-0.32829612493515015,-1.7599257230758667
1789635325616602600,12.0286025390625,0.21935153007507324,-0.5731633901596069,-1.9203583002090454
1789635325626641400,12.038641357421875,0.19017046689987183,-0.7208924293518066,-1.9717350006103516
1789635325636681500,12.048681396484374,0.10157349705696106,-0.5056072473526001,-1.9651182889938354
1789635325646721500,12.058721435546875,0.0307517871260643,-0.29124942421913147,-1.9569770097732544
1789635325656760600,12.068760498046874,-0.013390373438596725,-0.24035029113292694,-1.9517431259155273
1789635325666800400,12.07880029296875,-0.027516312897205353,-0.21251226961612701,-1.8876171112060547
1789635325676840400,12.08884033203125,-0.012634835205972195,-0.26216715574264526,-1.7906032800674438
1789635325686879700,12.098879638671875,-0.03551565110683441,-0.14171771705150604,-1.6757619380950928
1789635325696919600,12.10891943359375,-0.08229673653841019,0.08799510449171066,-1.5689550638198853
1789635325706959600,12.118959716796875,-0.07580874115228653,0.28163647651672363,-1.5389374494552612
1789635325716998700,12.12899853515625,-0.0147485863417387,0.23458987474441528,-1.54023277759552
1789635325727038700,12.139038818359374,-0.034935880452394485,-0.062254853546619415,-1.4744553565979004
1789635325737078800,12.149078857421875,-0.15728655457496643,-0.19802679121494293,-1.2772313356399536
1789635325747117600,12.15911767578125,-0.2473067343235016,-0.12491504102945328,-1.0772817134857178
1789635325757157600,12.16915771484375,-0.272454172372818,0.0289435014128685,-0.9486597776412964
1789635325767197700,12.17919775390625,-0.2890629768371582,0.048164065927267075,-0.836386501789093
1789635325777236700,12.18923681640625,-0.29428887367248535,0.05202991142868996,-0.6631689071655273
1789635325787276500,12.199276611328125,-0.24035188555717468,0.12043266743421555,-0.4925937056541443
1789635325797316600,12.209316650390624,-0.15016765892505646,0.10522814840078354,-0.34343913197517395
1789635325807355600,12.219355712890625,-0.16228771209716797,0.07144995033740997,-0.18388381600379944
1789635325817395700,12.229395751953126,-0.23596538603305817,0.07877390831708908,0.008169513195753098
1789635325827434500,12.2394345703125,-0.27056384086608887,0.18509767949581146,0.20488522946834564
1789635325837474600,12.249474609375,-0.26623621582984924,0.2883777320384979,0.2928888499736786
1789635325847514600,12.2595146484375,-0.25617504119873047,0.2666814923286438,0.3165813982486725
1789635325857553700,12.2695537109375,-0.23801229894161224,0.21536263823509216,0.43013620376586914
1789635325867593500,12.279593505859374,-0.20778276026248932,0.38488295674324036,0.7128288745880127
1789635325877633500,12.289633544921875,-0.15203480422496796,0.6058763265609741,0.9453747868537903
1789635325887672600,12.299672607421876,-0.14716388285160065,0.6885784268379211,1.0944206714630127
1789635325897712600,12.309712646484375,-0.20087531208992004,0.732974648475647,1.301296353340149
1789635325907752400,12.31975244140625,-0.21806281805038452,0.7230913639068604,1.5257723331451416
1789635325917791500,12.32979150390625,-0.23104652762413025,0.7774267792701721,1.7296110391616821
1789635325927831600,12.33983154296875,-0.22118352353572845,0.7957860827445984,1.8592449426651
1789635325937871600,12.34987158203125,-0.21642045676708221,0.49109169840812683,1.9261165857315063
1789635325947910700,12.35991064453125,-0.27834028005599976,0.5653738975524902,2.041081428527832
1789635325957950700,12.36995068359375,-0.25195446610450745,0.9307628273963928,2.092604875564575
1789635325967990500,12.379990478515625,-0.13272902369499207,0.8451666831970215,1.9204312562942505
1789635325978029800,12.39002978515625,-0.0684477686882019,0.6803673505783081,1.831106185913086
1789635325988069600,12.400069580078124,-0.07705803215503693,0.6898460984230042,2.06467866897583
1789635325998109700,12.410109619140625,-0.10159160196781158,0.6035609841346741,2.3871870040893555
1789635326008148700,12.420148681640624,-0.07878269255161285,0.5725889801979065,2.513641834259033
1789635326018188800,12.430188720703125,0.04398663341999054,0.46983247995376587,2.3792195320129395
1789635326028228600,12.440228515625,0.15778110921382904,0.36710691452026367,2.24767804145813
1789635326038267600,12.450267578125,0.16416098177433014,0.6484935879707336,2.324638605117798
1789635326048307700,12.4603076171875,0.19158248603343964,0.7282371520996094,2.351278305053711
1789635326058347800,12.47034765625,0.26084065437316895,0.35804975032806396,2.1790850162506104
