time,seconds_elapsed,z,y,x
1788862762271051500,0.041051513671875,5.7329158752441405,2.6370634910583495,-2.5516204193115235
1788862762281057500,0.0510576171875,5.698050313568115,1.89620771484375,-2.558054836273193
1788862762291063600,0.0610634765625,6.264428643798828,1.4392144729614258,-2.246060432434082
1788862762301070600,0.071070556640625,6.8596870315551755,1.4037503608703612,-1.4003086959838866
1788862762311076600,0.08107666015625,7.467215702819824,1.4140753555297851,-0.6293757614135742
1788862762321083600,0.091083740234375,7.96775348739624,1.573738678741455,-0.48976387710571284
1788862762331089700,0.101089599609375,9.280524185180663,1.908178723144531,-1.3383587280273437
1788862762341095700,0.111095703125,10.37377651824951,1.6648679794311523,-2.3391350219726563
1788862762351102500,0.1211025390625,11.023353356170654,0.9766846397399902,-3.4439094505310055
1788862762361108500,0.1311083984375,11.776329778289794,0.41045594711303707,-5.010465524291992
1788862762371115800,0.14111572265625,11.196932976531981,0.39220015945434566,-5.424961686706543
1788862762381121500,0.15112158203125,10.384700063323974,0.5059247383117675,-4.641908106231689
1788862762391127600,0.16112744140625,10.487201821899413,1.5400702178955077,-4.095281939697266
1788862762401134800,0.171134765625,9.989207876586914,2.5680805557250976,-3.088669779205322
1788862762411140600,0.181140625,8.828768259429932,2.5827450408935544,-2.4919150154113767
1788862762421147600,0.191147705078125,7.8447513771057125,2.2960393920898436,-2.185307565307617
1788862762431153400,0.2011533203125,7.254730305480956,2.192939083099365,-2.070834798431396
1788862762441159700,0.21115966796875,7.083095973968505,2.5342624572753905,-2.0738275505065915
1788862762451166700,0.221166748046875,6.870161663818359,3.0684687026977535,-2.112583689880371
1788862762461172500,0.23117236328125,5.96245995941162,3.976020769500732,-3.1880291481018066
1788862762471179800,0.2411796875,6.527641188812256,5.211728101348877,-4.760870001220703
1788862762481185800,0.251185791015625,7.547421458435058,5.629665928649902,-5.397428367614745
1788862762491191600,0.261191650390625,8.014739694976805,4.646546871948242,-4.576666110992432
1788862762501198600,0.271198486328125,8.662371244049071,2.8024130432128906,-2.7467478546142576
1788862762511204600,0.28120458984375,9.988758963775634,1.3494319107055663,-1.7640777107238768
1788862762521211600,0.291211669921875,10.777947686004637,0.41419688720703124,-1.8760066383361815
1788862762531217700,0.3012177734375,12.485761657714843,0.43993455505371093,-1.2713210815429687
1788862762541224700,0.311224609375,13.420996681213378,0.4516062881469726,-1.3474866218566894
1788862762551230700,0.321230712890625,13.107954814147948,0.045938744354248044,-1.5548843406677244
1788862762561236700,0.33123681640625,12.926893313598631,0.04967968444824218,-1.795950520324707
1788862762571243500,0.341243408203125,12.779200998687744,0.28101941986083984,-1.914014589691162
1788862762581249800,0.351249755859375,11.657966433715819,0.699106884765625,-2.436100189208984
1788862762591256600,0.361256591796875,9.662848262786865,1.6864157943725584,-2.3205799591064453
1788862762601262600,0.3712626953125,8.462156130218505,3.1976059547424316,-2.514809568786621
1788862762611268600,0.3812685546875,8.004564337921142,3.7234324943542476,-2.8254572341918944
1788862762621275600,0.391275634765625,8.774000896453856,2.946364418029785,-1.7353472908020018
1788862762631281700,0.40128173828125,10.338611681365967,2.1748329330444336,-0.8783727340698242
1788862762641288700,0.411288818359375,11.963077507781982,1.5720926651000975,-0.4607341819763183
1788862762651294700,0.421294677734375,13.302782974243163,1.1394903526306153,-0.5389946487426758
1788862762661300700,0.43130078125,13.690494005584716,0.7466916427612305,-0.7529764221191406
1788862762671307500,0.4413076171875,14.298321952056884,0.43783962860107417,-0.7119757186889648
1788862762681313800,0.451313720703125,14.317475565338134,0.3480570663452148,-0.05626373901367187
1788862762691320600,0.461320556640625,13.24068336868286,0.273238264465332,0.9171288734436035
1788862762701326600,0.47132666015625,12.109722359466552,0.29493571701049803,1.7182886039733887
1788862762711332600,0.48133251953125,10.670358248901367,1.2093711135864258,2.3255180000305176
1788862762721339600,0.491339599609375,9.428815050506591,2.0597616157531737,2.114678616333008
1788862762731345700,0.501345703125,8.002619049072266,2.3282114768981934,1.401954709625244
1788862762741352400,0.5113525390625,6.644508157348632,2.3151930053710936,0.6461351730346679
1788862762751358700,0.521358642578125,5.482123251342773,1.195754091644287,-0.31588498153686523
1788862762761364700,0.53136474609375,4.318840519714355,0.672920304107666,-0.10983400115966796
1788862762771371500,0.54137158203125,3.177853791046142,0.4917091659545898,0.8500912269592285
1788862762781377500,0.55137744140625,3.7024832298278807,0.3877110313415527,1.22583125
1788862762791384600,0.561384521484375,4.542399099731445,0.5059247383117675,1.115997248840332
1788862762801390600,0.571390625,5.062240135192871,0.9362824867248535,1.0832266136169433
1788862762811396600,0.581396728515625,5.4418707359313965,1.394323191833496,0.9469067565917968
1788862762821403600,0.591403564453125,6.28866993560791,2.076221752166748,0.181959326171875
1788862762831409700,0.60140966796875,7.979275582885742,2.9780875900268553,-1.107617543029785
1788862762841416700,0.611416748046875,8.062474090576172,3.4593221237182616,-1.5064017570495605
1788862762851422500,0.62142236328125,7.523629079437256,3.6647745536804197,-1.0664672019958497
1788862762861428700,0.6314287109375,7.847145578765868,3.656245210266113,-0.5009866973876953
1788862762871435500,0.641435546875,8.0698063331604,2.7673978439331055,0.6856395004272461
1788862762881441500,0.651441650390625,8.672097688293457,1.5502455749511719,2.4040777420043944
1788862762891448800,0.66144873046875,8.14073455734253,-0.34700960311889645,5.331587821960449
1788862762901454600,0.67145458984375,5.728277109527587,-2.2608745552062985,7.745092733001709
1788862762911461600,0.681461669921875,4.022408426666259,-3.695899175262451,8.078634951782226
1788862762921467600,0.691467529296875,3.8672342315673824,-4.435108937835693,6.968024656677246
1788862762931473700,0.7014736328125,3.7077205459594724,-4.4850878974914545,5.7806502708435055
1788862762941480700,0.711480712890625,2.9114988563537594,-3.801094410705566,6.864625072479248
1788862762951487500,0.721487548828125,1.7374422172546387,-3.220201232910156,8.91316386795044
1788862762961494500,0.73149462890625,0.4129997863769531,-2.7974750022888184,10.211419718170166
1788862762971500300,0.741500244140625,-0.8728361427307129,-2.349011103820801,10.669610060882567
1788862762981506600,0.751506591796875,-2.082656169128418,-2.115127529144287,10.549301427459715
1788862762991513600,0.761513671875,-2.352602406311035,-2.676418180847168,10.005069462585448
1788862763001519400,0.771519287109375,-0.8328829025268554,-3.580678220367431,9.963021295928954
1788862763011526700,0.781526611328125,0.5249287139892578,-4.485536810302734,10.553940193176269
1788862763021532400,0.791532470703125,0.7139210075378417,-4.879382983398437,12.784139039611816
1788862763031538400,0.801538330078125,-0.27787703018188475,-4.215141660308838,16.614562420654295
1788862763041545700,0.811545654296875,-1.862988166809082,-2.7329811950683593,20.101417863464356
1788862763051551500,0.821551513671875,-2.618957341003418,-1.5915455535888672,21.873127091979978
1788862763061558500,0.83155859375,-2.1734861946105957,-1.1902175003051758,22.290915281677243
1788862763071564500,0.841564453125,-0.7326257080078125,-1.3531728507995604,21.851728914642333
1788862763081570600,0.851570556640625,1.396867031097412,-1.8448820167541502,21.058799252319336
1788862763091577600,0.86157763671875,2.2129905220031736,-1.6349404586791991,19.92454621582031
1788862763101583400,0.871583251953125,3.9018005180358886,-0.1331774673461914,22.080674448394774
1788862763111590700,0.881590576171875,1.0908581314086914,0.7911340110778808,25.201665950012206
1788862763121596700,0.8915966796875,-2.5821464904785154,3.359513842010498,25.22381231536865
1788862763131602400,0.9016025390625,-5.12688358001709,3.1645360443115234,19.06996586074829
1788862763141609500,0.911609375,-4.285920246887207,2.7602152389526364,14.274379935455322
1788862763151615700,0.92161572265625,-3.030610388946533,1.7054197700500486,13.197737376403808
1788862763161622500,0.93162255859375,-2.1013608695983885,3.047968350982666,12.84504154434204
1788862763171628500,0.941628662109375,-2.127098537445068,1.990629042816162,11.78605622253418
1788862763181634300,0.95163427734375,-0.4086602958679199,1.3518261123657225,10.58536408996582
1788862763191641600,0.9616416015625,0.07422025146484375,3.149422646331787,10.704774897766113
1788862763201647600,0.971647705078125,-1.5575778175354003,1.0579378585815429,11.29359886856079
1788862763211654400,0.981654296875,-0.6456862602233886,-0.7851485069274902,8.313416352081298
1788862763221660700,0.99166064453125,3.4726398704528805,-1.820790362548828,7.337629537963867
1788862763231666700,1.001666748046875,5.524321055603027,-1.5726912155151367,6.45416912536621
1788862763241673500,1.011673583984375,-1.6683096443176268,3.171868286895752,6.66515814666748
1788862763251679500,1.021679443359375,-7.5342533493041985,1.0592845970153808,4.988618434143066
1788862763261686500,1.0316865234375,-8.636932851409911,2.112733327484131,3.919308117675781
1788862763271692500,1.041692626953125,-8.232612046051026,3.9680899765014646,4.614524424743652
1788862763281699300,1.05169921875,-4.001159886932373,0.18285715179443357,5.355978751373291
1788862763291705600,1.06170556640625,0.20739771881103514,-1.7613842338562011,6.891110928344726
1788862763301711600,1.071711669921875,1.3620014694213867,-1.5442600708007812,6.451176373291015
1788862763311718400,1.081718505859375,0.9307458953857422,-0.9777321029663085,6.202628313446045
1788862763321724400,1.091724365234375,0.07781155395507812,-1.2045827102661133,6.793996123504638
1788862763331731500,1.1017314453125,-0.6373065544128418,-1.7797896591186522,7.8249992134094235
1788862763341737500,1.111737548828125,-1.0730512565612793,-1.468992356109619,8.833407025146483
1788862763351743500,1.121743408203125,-1.9853917266845702,-0.936581761932373,9.092429717254639
1788862763361750500,1.13175048828125,-3.0086136611938477,-0.4786906944274902,9.190292710113525
1788862763371756500,1.141756591796875,-2.440140404510498,-0.984465795135498,8.94383957672119
1788862763381763600,1.151763671875,-0.5591957252502441,-1.8538602729797362,8.783876978302002
1788862763391769300,1.161769287109375,0.4976946701049804,-2.2105963203430172,8.936357696533202
1788862763401775600,1.171775634765625,0.17432780838012693,-2.249053184509277,9.228899211883544
1788862763411782400,1.181782470703125,-0.7776666267395019,-2.5541642585754394,9.749638072967528
1788862763421788400,1.191788330078125,-1.808071166229248,-3.1603461914062496,9.689932669067382
1788862763431795700,1.201795654296875,-1.9636942741394041,-3.2884359802246093,9.589825112152099
1788862763441801500,1.211801513671875,-0.9853636207580566,-3.411587728118896,10.255413173675537
1788862763451807500,1.221807373046875,0.43020811080932614,-3.7747581924438474,10.83421142501831
1788862763461814500,1.231814453125,1.3416507553100585,-4.285321696472168,10.63025537109375
1788862763471820500,1.241820556640625,1.687313619995117,-4.489427388000488,9.596858079528808
1788862763481827600,1.25182763671875,1.1710638870239256,-4.238185851287842,8.634089736938476
1788862763491833300,1.261833251953125,1.0817302375793456,-3.7481226989746093,7.82679486465454
1788862763501839400,1.27183935546875,1.7474679367065429,-3.2625486747741697,7.398681680297851
1788862763511846700,1.2818466796875,1.6493056686401366,-2.7760768249511716,7.525873643493652
1788862763521852400,1.291852294921875,0.3865139305114746,-2.2737433891296384,7.577498616790771
1788862763531859500,1.301859375,-0.4547486778259277,-2.000355487060547,7.4046671844482415
1788862763541865500,1.311865478515625,-1.7857751632690428,-2.2369325386047363,7.792827128601074
1788862763551872500,1.32187255859375,-3.206883486175537,-2.3042694602966307,8.155698317718505
1788862763561878500,1.33187841796875,-3.2378584701538085,-2.101660144805908,8.151508464813231
1788862763571884500,1.341884521484375,-2.192789445495605,-2.1184195564270016,7.805396687316894
1788862763581891600,1.3518916015625,-1.0342951171875,-2.3726538452148436,7.823502837371826
1788862763591897600,1.361897705078125,-0.5168482833862305,-2.673724703979492,8.69454332885742
1788862763601904600,1.371904541015625,-0.7040449256896972,-3.2695816421508788,9.540893615722656
1788862763611910700,1.38191064453125,-1.2853870162963867,-5.0556560806274415,10.00387236175537
1788862763621916400,1.39191650390625,-1.717989328765869,-6.233154384613036,9.947010072326659
1788862763631923500,1.40192333984375,-1.7516577896118164,-6.085013156890869,9.997587582397461
1788862763641929700,1.4119296875,-1.0794856735229492,-6.053289984893799,10.15710126800537
1788862763651936500,1.4219365234375,-0.29014731369018554,-6.271461611175536,11.027992121887207
1788862763661942500,1.431942626953125,-0.5360018966674804,-6.2958525405883785,11.74086566619873
1788862763671948500,1.441948486328125,-1.1851298217773436,-6.51806438217163,11.966219897460936
1788862763681955600,1.45195556640625,-1.214907704925537,-6.5674447914123535,12.166734286499024
1788862763691961600,1.461961669921875,-0.5446808776855468,-6.789806270599365,11.974749240875244
1788862763701968400,1.471968505859375,0.20395605392456054,-7.113921320343017,11.864316689300537
1788862763711974700,1.481974609375,0.7775169891357422,-6.886621800231933,11.648838539886475
1788862763721981400,1.4919814453125,0.6157587394714356,-6.2499137962341305,10.82807628326416
1788862763731987500,1.501987548828125,0.04085106582641601,-5.515342799377441,10.282198304748535
1788862763741993500,1.511993408203125,-0.1605611488342285,-4.783315641784668,9.81293477935791
1788862763752000500,1.52200048828125,-0.22954408416748046,-4.192097469329834,9.233687615203857
1788862763762006500,1.532006591796875,-0.2980781066894531,-4.252700698852538,8.867973311614989
1788862763772013300,1.542013427734375,-0.35179800643920894,-4.5702316940307615,9.030629386901856
1788862763782019600,1.55201953125,-1.0549451065063475,-4.630236373138428,8.851962088012694
1788862763792025600,1.562025634765625,-0.11731588134765625,-5.074061505889892,9.89508582382202
1788862763802032400,1.572032470703125,0.8662520881652832,-3.241300135040283,8.730755628967284
1788862763812038400,1.582038330078125,1.0890624801635742,-2.9755437507629394,8.74661721496582
1788862763822045400,1.59204541015625,0.8559270935058593,-2.607285607910156,7.510460970306396
1788862763832051500,1.602051513671875,-2.9625252792358396,1.0437222862243651,2.3968951370239258
1788862763842057500,1.612057373046875,-3.6361937713623043,-1.268627604675293,4.354603907012939
1788862763852064500,1.622064453125,0.6226420692443847,-2.282422370147705,4.599261389160156
1788862763862070500,1.632070556640625,2.4260744697570797,-1.314566349029541,2.8016648551940917
1788862763872077600,1.64207763671875,-0.656310530090332,-0.7477391059875488,1.4606126502990722
1788862763882083300,1.652083251953125,-0.7504325828552245,-0.6503250259399413,1.8804957664489745
1788862763892090600,1.662090576171875,0.2650081962585449,-1.1566986770629881,3.5110967346191404
1788862763902096400,1.672096435546875,0.4327519500732422,-1.0736498069763183,4.178779722595214
1788862763912102400,1.682102294921875,-0.5693710823059082,-0.03681085052490234,5.125237566375732
1788862763922109700,1.692109619140625,-2.1212626708984375,0.55545478515625,6.274604000854492
1788862763932115500,1.702115478515625,-1.8478747688293455,0.8583212951660156,7.136516598510742
1788862763942122500,1.71212255859375,0.45295302658081055,0.1240495735168457,8.488641986083984
1788862763952128300,1.722128173828125,2.3472154525756834,-2.66878666305542,11.964573883819579
1788862763962134300,1.73213427734375,0.7676409072875976,-5.936572653961181,13.632135340118408
1788862763972141300,1.742141357421875,-0.32665888900756834,-4.726902265167236,12.532149314880371
1788862763982147300,1.752147216796875,0.741903239440918,-4.892401454925537,13.324480426788329
1788862763992154400,1.762154296875,2.1136311531066894,-7.314136434173584,13.999645294952392
1788862764002160400,1.772160400390625,2.8380267929077148,-7.873032884216308,12.232724469757079
1788862764012166100,1.782166259765625,2.571522220611572,-7.415441091918945,11.54244620361328
1788862764022173200,1.792173095703125,2.73866742401123,-6.633883887481689,12.916867594146728
1788862764032179500,1.802179443359375,2.3777415237426758,-3.089417967224121,12.273126622772216
1788862764042186200,1.812186279296875,2.8975825592041016,-3.1753099517822263,12.198307820892333
1788862764052192300,1.822192138671875,1.7075146965026855,1.0592845970153808,11.647791076660155
1788862764062199300,1.83219921875,-1.0934019706726072,3.186383134460449,11.375301000213623
1788862764072205300,1.842205322265625,-2.1262007118225097,-1.548898836517334,12.849231397247314
1788862764082211300,1.85221142578125,0.9118915573120117,-3.6483144172668456,10.97427222213745
1788862764092218000,1.862218017578125,0.8488941261291504,-5.680991626739502,9.19418328781128
1788862764102224400,1.872224365234375,-0.5491700057983399,-3.9758711318969726,7.566126158905029
1788862764112231200,1.882231201171875,-3.087472678375244,-4.844068508911133,6.28837066040039
1788862764122237200,1.8922373046875,-1.5566799919128418,-6.731597242736816,6.393266620635986
1788862764132243200,1.9022431640625,0.046537294769287106,-7.442525498199463,6.899640271759033
1788862764142250200,1.912250244140625,0.26665420989990235,-4.358793759918212,7.794772417449951
1788862764152256300,1.92225634765625,-0.601992079925537,-5.906645133209228,8.9378540725708
1788862764162263000,1.932262939453125,-1.1133037719726562,-9.084199649047852,9.668684129333496
1788862764172269300,1.942269287109375,-1.5028104545593262,-9.292046280670165,9.515604860687255
1788862764182275300,1.952275390625,-2.6964696197509763,-8.98304462890625,9.59551134109497
1788862764192282000,1.9622822265625,-3.292925108337402,-8.22902074356079,9.72285294189453
1788862764202288000,1.9722880859375,-3.8132150566101073,-7.382670456695556,9.445574462127684
1788862764212295200,1.982295166015625,-2.8094460105895993,-6.155193193054199,8.78507407913208
1788862764222301200,1.99230126953125,0.13901333389282225,-6.179284847259521,8.795548711395263
1788862764232307200,2.00230712890625,3.8980595779418943,-7.450157015991211,9.663297175598144
1788862764242314200,2.012314208984375,6.842329069519042,-8.949376168060303,11.06345623397827
1788862764252320300,2.0223203125,7.1230492141723625,-7.5531076873779295,11.736825450897216
1788862764262327300,2.032327392578125,3.4591724861145017,-6.169109490203857,12.071564770507813
1788862764272333000,2.0423330078125,-0.8860042518615722,-3.9845501129150387,12.231677006530761
1788862764282340400,2.05234033203125,-4.028992481231689,-1.7510592391967772,11.825859825134277
1788862764292346000,2.06234619140625,-4.5313259170532225,-1.4905401710510253,11.471368341827391
1788862764302352100,2.07235205078125,-3.40260947189331,-2.6063877822875976,11.273697067260741
1788862764312359400,2.082359375,-1.4366706336975097,-3.653252458190918,11.247510486602783
1788862764322365200,2.092365234375,0.5666776054382324,-4.351760792541504,10.752060380554198
1788862764332372200,2.102372314453125,0.12075754623413085,-3.5960908935546874,10.528801075744628
1788862764342378500,2.11237841796875,-1.0130465774536133,-1.4309844047546385,10.682478894805907
1788862764352384300,2.12238427734375,-0.4885667762756347,-0.6854898628234863,9.670030867767334
1788862764362391300,2.132391357421875,0.6762123313903808,-1.110161382293701,8.891765690612793
1788862764372397300,2.142397216796875,0.1452981132507324,-0.9180266990661621,8.956858048248291
1788862764382404400,2.152404296875,-0.30795418853759765,0.18779519271850584,9.834632231903075
1788862764392410400,2.162410400390625,0.021996727752685546,1.2592004356384277,9.51859761276245
1788862764402416000,2.172416015625,-0.03172317199707031,1.3356652511596678,7.926453508758544
1788862764412423400,2.18242333984375,-0.4156932632446289,0.42287586822509765,6.1942486076354975
1788862764422429400,2.192429443359375,-1.6208745239257811,-0.4562450538635254,5.501725777435302
1788862764432436200,2.202436279296875,-2.31758720703125,-1.1189900009155274,6.454019487762451
1788862764442442200,2.212442138671875,-1.4193126716613769,-2.4398411293029785,7.8399629737854
1788862764452448300,2.2224482421875,-0.7728782234191894,-3.831321206665039,8.82936680984497
1788862764462455300,2.232455322265625,-0.647332273864746,-4.03482834777832,10.129717586517334
1788862764472461300,2.24246142578125,-0.4878185882568359,-4.501996946716308,11.134833370971679
1788862764482468400,2.25246826171875,-1.2623428253173827,-3.330783422088623,11.168651469421386
1788862764492474400,2.262474365234375,-1.1882722114562987,-3.2933740211486815,11.577461402893066
1788862764502480400,2.27248046875,-0.9156324974060058,-3.9891888786315914,11.135431921386719
1788862764512487200,2.282487060546875,0.3570353225708008,-3.9076363845825193,10.537629694366455
1788862764522493400,2.292493408203125,2.546832015991211,-3.933523690032959,9.72285294189453
1788862764532500200,2.302500244140625,3.921702319335937,-3.708019821166992,8.627954595184326
1788862764542506200,2.31250634765625,3.4798224754333495,-3.689464758300781,8.447940557861328
1788862764552513300,2.32251318359375,2.176329309082031,-3.824587514495849,8.86064106903076
1788862764562519300,2.332519287109375,1.3914800773620604,-3.677942662811279,9.050980101013183
1788862764572525300,2.342525390625,1.9393033447265624,-4.960037651824951,9.064746760559082
1788862764582532000,2.352531982421875,1.0917559570312498,-4.020912050628662,8.60670605545044
1788862764592538400,2.362538330078125,-2.0705355232238767,-2.5731682342529294,8.499415893554687
1788862764602545200,2.372545166015625,-3.892971899414062,-2.9385832626342774,8.020725199127197
1788862764612551200,2.38255126953125,-3.6456209403991697,-4.2235213661193844,7.4208280456542965
1788862764622557200,2.39255712890625,-1.5644611473083496,-5.2456958374023435,7.175721650695801
1788862764632564200,2.402564208984375,-1.0544961936950683,-3.8423943893432613,7.151779634094238
1788862764642570200,2.4125703125,-1.9476830505371092,-3.2193034072875975,8.40125362548828
1788862764652577300,2.422577392578125,-2.103006883239746,-2.7404630752563475,9.96002854385376
1788862764662583300,2.432583251953125,-1.698835715484619,-2.3335984306335447,10.0357451713562
1788862764672589300,2.44258935546875,-1.2566565963745115,-2.4166473007202147,10.0234748878479
1788862764682596000,2.45259619140625,-0.7294833183288574,-2.1721394561767577,9.880870251464843
1788862764692602000,2.46260205078125,-0.16041151123046873,-1.6533458839416504,8.979902239227295
1788862764702609400,2.472609375,0.2959831802368164,-1.467645617675781,8.162581647491455
1788862764712615200,2.482615234375,0.8016086433410644,-1.6102502540588377,8.094945450592041
1788862764722621200,2.49262109375,1.5786767196655274,-2.5475802040100097,8.898050469970702
1788862764732628200,2.502628173828125,1.5020622665405272,-3.262847949981689,9.325415466308593
1788862764742634200,2.51263427734375,0.3573345977783203,-2.8734909049987793,8.994716361999512
1788862764752641300,2.522641357421875,-0.8258499351501465,-2.831293100738525,9.099761959838867
1788862764762647000,2.53264697265625,-1.705868682861328,-2.7480945930480956,9.146897805023192
1788862764772653300,2.5426533203125,-1.781884585571289,-2.2176292877197263,9.307309316253662
1788862764782660400,2.552660400390625,-1.692401298522949,-2.886808651733398,9.51814869995117
1788862764792666000,2.562666015625,-1.4446014266967773,-3.0747534820556637,9.000252953338622
1788862764802673400,2.57267333984375,-1.256357321166992,-3.3117794464111325,8.74003316040039
1788862764812679200,2.58267919921875,-0.7770680763244628,-3.7186440910339353,8.564208975982666
1788862764822686200,2.592686279296875,-0.19647417373657225,-3.8789059646606443,8.936656971740723
1788862764832692200,2.602692138671875,0.34012627334594725,-3.69664736328125,9.413103102111815
1788862764842698200,2.6126982421875,0.4282628219604492,-3.133411422729492,9.058013068389892
1788862764852705300,2.622705322265625,-0.08858546142578125,-2.862716997528076,8.846575134277343
1788862764862711300,2.632711181640625,-0.2871545616149902,-2.864213373565674,9.131634769439696
1788862764872718300,2.64271826171875,-0.035464112091064454,-2.618358790588379,9.204059369659424
1788862764882724400,2.652724365234375,0.08005611801147461,-2.4308628730773925,8.922142124176025
1788862764892730000,2.662730224609375,-0.2380734275817871,-2.279728893280029,8.773551983642578
1788862764902737400,2.6727373046875,-0.9302969825744628,-1.9020435813903807,8.3249384475708
1788862764912743400,2.682743408203125,-1.3769652297973631,-1.6677110939025879,7.948001323699951
1788862764922750200,2.692750244140625,-1.7874211769104003,-1.6006734474182127,8.040627000427246
1788862764932756200,2.702756103515625,-2.0724808120727536,-1.823334201812744,8.043170839691161
1788862764942762500,2.712762451171875,-2.0287866317749024,-2.1356278808593747,8.392275369262695
1788862764952769500,2.72276953125,-1.9183540802001953,-2.3000796073913574,8.75290199432373
1788862764962775600,2.732775634765625,-1.8787001152038574,-2.5577555610656737,8.834903401184082
1788862764972782300,2.7427822265625,-1.4531307701110838,-2.567781280517578,9.21962168045044
1788862764982788400,2.752788330078125,-1.1309610092163085,-2.5508722312927246,9.355342987060546
1788862764992794600,2.762794677734375,-0.9454103805541991,-2.680757671356201,9.504082765197753
1788862765002801400,2.772801513671875,-0.042646717071533204,-2.2385785522460937,10.55992569732666
1788862765012807400,2.782807373046875,0.21143793411254883,-1.8924667747497557,11.56174945449829
1788862765022814500,2.792814453125,-0.30795418853759765,-1.5164274765014647,11.43440785369873
1788862765032820500,2.802820556640625,-0.5131073432922363,-1.2291232772827148,10.951078393554686
1788862765042826500,2.812826416015625,-0.4929062667846679,-1.7149965766906736,10.590751043701172
1788862765052833300,2.822833251953125,-0.38037878875732417,-2.577358087158203,10.007164389038085
1788862765062839600,2.832839599609375,-0.7272387542724609,-2.683301510620117,8.876951567840576
1788862765072846300,2.842846435546875,-1.7473182991027831,-2.127697087860107,7.247248425292969
1788862765082852400,2.852852294921875,-2.9522002845764157,-1.7558476425170897,5.7614966575622555
1788862765092859400,2.862859375,-3.4478000282287597,-1.8315642700195311,5.334430936431884
1788862765102865400,2.872865478515625,-2.891447417449951,-1.9469348625183105,6.5403603851318355
1788862765112871400,2.882871337890625,-3.200449069213867,-3.1076737548828124,8.462455405426025
1788862765122878200,2.892878173828125,-3.072209642791748,-3.03270531539917,9.833584768676758
1788862765132884500,2.902884521484375,-2.3018752586364744,-2.3636755889892576,10.326790310668944
1788862765142891500,2.9128916015625,-0.9395745140075683,-2.6636989845275876,10.28489178161621
1788862765152897300,2.922897216796875,0.23777415237426758,-3.2142157287597652,10.45039097137451
1788862765162903600,2.932903564453125,1.0269628746032715,-2.980631429290771,10.29761097793579
1788862765172910300,2.942910400390625,2.0980688423156737,-1.9138649520874023,10.17011973953247
1788862765182916400,2.952916259765625,3.2124200775146483,-1.6852186935424804,9.604639234924315
1788862765192923600,2.962923583984375,3.575889817047119,-2.3126491661071777,9.65252326812744
1788862765202929400,2.972929443359375,2.8489503379821777,-1.7114052742004393,8.70217484664917
1788862765212935400,2.982935302734375,0.5683236190795898,-1.5589245559692382,8.135946154022216
1788862765222942500,2.9929423828125,-1.1095628318786621,-2.091335150146484,8.500014443969727
1788862765232948500,3.002948486328125,-0.6723217536926269,-2.73881706161499,8.3632456741333
1788862765242955500,3.01295556640625,0.21353286056518553,-3.2315736907958983,7.717260138702392
1788862765252961300,3.022961181640625,0.28012159423828126,-4.436006763458252,8.09569363861084
1788862765262968600,3.032968505859375,-0.8545803550720215,-4.3923125831604,8.279897528839111
1788862765272974600,3.042974609375,-2.1698948921203614,-2.789394571685791,8.42115542678833
1788862765282980400,3.05298046875,-1.5216647926330567,-1.2820949890136717,8.085817556762695
1788862765292987400,3.0629873046875,0.6280290229797363,-1.2069769119262694,7.698106525421142
1788862765302993400,3.072993408203125,1.6630723281860351,-3.231274415588379,8.340051845550537
1788862765313000400,3.08300048828125,1.1236287666320801,-5.412242490386962,10.570250691986084
1788862765323006500,3.09300634765625,1.495178936767578,-3.721337567901611,10.413430483245849
1788862765333012200,3.10301220703125,2.6912323036193846,-3.732261112976074,10.645518406677246
1788862765343019500,3.11301953125,3.882796542358398,-4.986523507690429,11.289259378051756
1788862765353025500,3.123025634765625,3.9196073928833006,-5.281159949493408,10.98684178085327
1788862765363032300,3.1330322265625,2.6631004341125486,-5.02423218383789,10.551545991516113
1788862765373038600,3.14303857421875,1.6627730529785156,-5.298068998718262,9.624690673828125
1788862765383044600,3.153044677734375,0.10953472595214843,-4.5611038002014155,8.230966032409668
1788862765393051400,3.163051513671875,-1.3967173934936523,-4.06700043258667,7.467814253234863
1788862765403057400,3.173057373046875,-3.137900550842285,-2.9001263984680175,5.099948811340331
1788862765413064400,3.183064453125,-0.14305354919433594,-4.144662348937988,5.240159246063232
1788862765423070500,3.193070556640625,2.0847510955810544,-7.288398766326904,9.418789331054686
1788862765433077200,3.2030771484375,2.1446061370849607,-7.9375266914367675,11.145457640838622
1788862765443083500,3.21308349609375,-0.11926117019653319,-6.489184324645996,7.567472897338867
1788862765453089500,3.223089599609375,-0.565630142211914,-4.104709108734131,-0.9690531219482421
1788862765463096300,3.233096435546875,-0.9403227020263671,-8.182034535980224,-0.6730699417114258
1788862765473102300,3.243102294921875,-1.4136264427185057,-13.214496788024901,5.533897862243652
1788862765483109400,3.253109375,2.5472809288024902,-11.138275035858154,8.868571862030029
1788862765493115400,3.263115478515625,3.337666751861572,-7.169885784149169,7.775319528961181
1788862765503121400,3.273121337890625,-0.21487959899902342,-6.351068816375732,9.200617704772949
1788862765513128400,3.28312841796875,-0.9747393508911132,-5.111171631622314,11.021258429718017
1788862765523134500,3.293134521484375,-2.1613655487060544,-4.29639487915039,15.186121855163574
1788862765533141200,3.303141357421875,-3.426401850891113,-2.7283424293518066,17.6328463142395
1788862765543147300,3.313147216796875,-3.5416228057861328,-1.6877625328063963,17.03878502731323
1788862765553153500,3.323153564453125,-2.1333833168029783,-2.526331664276123,13.77099903640747
1788862765563160300,3.333160400390625,-0.20036475143432617,-3.8049849884033202,11.304522413635253
1788862765573166300,3.343166259765625,-0.8604162216186523,-3.3200095146179196,11.44069263305664
1788862765583173600,3.353173583984375,-2.618059515380859,-2.824409770965576,11.820023958587646
1788862765593179400,3.363179443359375,-3.2577602714538574,-2.0292355445861814,10.563666637420654
1788862765603185400,3.373185302734375,-4.5964182746887206,-1.5358803649902344,8.498069155120849
1788862765613192200,3.383192138671875,-5.389347937011719,-2.492962478637695,7.031770275878906
1788862765623198500,3.393198486328125,-4.916792384338379,-4.022408426666259,5.959616844940185
1788862765633205500,3.40320556640625,-3.609558277893066,-4.731092118072509,5.206041872406005
1788862765643211300,3.413211181640625,-2.88561155090332,-5.415534517669677,5.463568188476562
1788862765653218600,3.423218505859375,-2.6659435485839844,-5.7882817886352536,6.158036307525634
1788862765663224600,3.433224609375,-4.283226770019531,-5.8728270347595215,7.738359040832519
1788862765673230300,3.443230224609375,-5.322310290527343,-5.060893396759033,8.879046494293213
1788862765683237400,3.4532373046875,-4.624400506591797,-8.207323291015625,9.611672202301024
1788862765693243400,3.463243408203125,-4.838382279968261,-11.502792238616943,9.140164112854004
1788862765703250400,3.47325048828125,-4.4273277824401855,-12.536488805389403,8.060977714538573
1788862765713256400,3.48325634765625,-3.967192150878906,-12.438476174926757,8.01863027267456
1788862765723262500,3.493262451171875,-3.7174469902038574,-12.376526206970214,7.48247873840332
1788862765733269500,3.50326953125,-3.5896564765930172,-12.79416475906372,7.621791347503661
1788862765743275500,3.513275634765625,-3.1407436653137206,-12.900706732940673,7.153425647735595
1788862765753282600,3.523282470703125,-3.283348301696777,-12.375179468536377,5.9002107162475586
1788862765763288600,3.53328857421875,-3.388244261932373,-11.962778232574463,6.191555130767822
1788862765773295400,3.54329541015625,0.6787561706542968,-11.023353356170654,3.863194016265869
1788862765783301400,3.55330126953125,1.6446669029235839,-9.857975698089598,3.112761433410644
1788862765793307600,3.5633076171875,-0.4008791404724121,-9.011924686431884,5.223399834442138
1788862765803314400,3.573314453125,-1.6217723495483398,-8.320598957061767,7.593210565185546
1788862765813320400,3.583320556640625,-2.8411691825866696,-7.470807005310058,6.7292030410766595
1788862765823327500,3.593327392578125,-2.085798558807373,-6.810905172729492,5.5187844642639154
1788862765833333500,3.60333349609375,-0.13467384338378904,-7.092223867797851,3.527407233428955
1788862765843339500,3.613339599609375,-0.016759411621093748,-8.895805905914306,0.7861959701538086
1788862765853346300,3.62334619140625,0.6934206558227539,-9.041702569580078,-0.4209305793762207
1788862765863352600,3.6333525390625,0.8928875816345214,-6.2778960281372065,0.08903437423706054
1788862765873359400,3.643359375,-0.07751227874755859,-3.2058360229492187,0.37319618377685543
1788862765883365400,3.653365478515625,-0.2211643783569336,-1.3224971420288085,1.3040917167663573
1788862765893371400,3.663371337890625,-0.7246949150085449,-1.0307038146972656,5.462071812438965
1788862765903378400,3.67337841796875,-3.240701584625244,-1.4591162742614745,8.020874836730956
1788862765913384400,3.683384521484375,-5.651064105987548,-1.5887024391174316,7.363217568206787
1788862765923391200,3.69339111328125,-5.224896210479736,-1.8698714965820311,2.7914894981384277
1788862765933397500,3.7033974609375,-1.0525509048461914,0.0025438392639160153,-2.924666965484619
1788862765943404500,3.713404541015625,1.295412735748291,-0.5826888290405273,-3.3559225395202636
1788862765953410300,3.723410400390625,3.571999239349365,-6.553079581451415,0.4917091659545898
1788862765963415600,3.73341552734375,5.308693268585205,-9.181763366699219,5.484966365814208
1788862765973422600,3.743422607421875,3.5913024902343746,-7.249343351745605,7.6276272140502925
1788862765983428400,3.753428466796875,0.4170400016784668,-4.7554830474853516,8.95730696105957
1788862765993435600,3.763435546875,-8.557924196624755,-5.4439656623840325,11.318289073181152
1788862766003441700,3.773441650390625,-18.886360520935057,-4.689343226623535,11.839925759887695
1788862766013447400,3.783447509765625,-12.982259226989745,-3.8687306076049803,6.956502561187744
1788862766023454500,3.793454345703125,-4.9166427467346185,-8.347683363342284,6.992116310882568
1788862766033460700,3.803460693359375,-4.1946413085937495,-14.60058991165161,8.194454457092284
1788862766043467500,3.813467529296875,-4.669890338134765,-15.854253755950927,6.6784758934021
1788862766053473500,3.8234736328125,-5.96275923461914,-14.481478379058837,5.336525862884521
1788862766063480600,3.83348046875,-7.413645440673828,-11.768548622894286,4.9175405723571775
1788862766073486600,3.843486572265625,-6.211307294464111,-9.85124200592041,4.726303714752197
1788862766083492600,3.85349267578125,-5.345803394317627,-8.758588223266601,4.667645774078369
1788862766093499400,3.86349951171875,-5.41388850402832,-7.531410234832763,5.005826758575439
1788862766103505700,3.873505615234375,-4.030039944458007,-7.392546538543701,5.516689537811279
1788862766113512400,3.883512451171875,-3.63275210647583,-7.387608497619628,6.155642105865478
1788862766123518500,3.8935185546875,-4.005200102233887,-7.7513775123596185,7.968052762603759
1788862766133524500,3.9035244140625,-5.229983889007568,-9.502436751556395,7.47619395904541
1788862766143531500,3.913531494140625,-5.671564457702637,-10.59090068130493,8.635735750579833
1788862766153537500,3.92353759765625,-6.672789664459228,-11.344176378631591,10.78318500213623
1788862766163544300,3.93354443359375,-8.430881871032714,-10.607959368133544,15.116839644622802
1788862766173550600,3.943550537109375,-7.17587128829956,-8.838644341278076,14.606425778198242
1788862766183557600,3.9535576171875,-5.888239707946777,-6.395660822296143,7.269394790649414
1788862766193563400,3.9635634765625,-2.4769512550354,-1.523161168670654,-0.0805050308227539
1788862766203569400,3.9735693359375,-0.09771335525512695,-1.307383744049072,-3.611503566741943
1788862766213576400,3.983576416015625,0.792929662322998,-4.725854801940918,-6.802675104522705
1788862766223582500,3.99358251953125,1.0356418556213378,-7.6571058219909665,-9.369857834625243
1788862766233589500,4.003589599609375,1.6733973228454588,-11.663203749847412,-7.024886946105957
1788862766243595500,4.013595458984375,2.9843723693847655,-17.64032819442749,-3.8572085121154784
1788862766253602600,4.0236025390625,0.9485527702331542,-18.605640376281738,-0.7504325828552245
1788862766263608600,4.033608642578125,-2.1429601234436033,-15.033341861724853,2.7760768249511716
1788862766273614300,4.0436142578125,-4.618265364837646,-12.113762574768066,4.5221980232238765
1788862766283621600,4.05362158203125,-8.476820615386963,-11.150545319366454,6.370820980072021
1788862766293627400,4.06362744140625,-10.159794744873047,-9.628581251525878,6.382791988372802
1788862766303634400,4.073634521484375,-5.245845475006103,-7.235127779388427,5.684732566833496
1788862766313640700,4.083640625,-0.5790975265502929,-5.653009394836426,4.979041627502441
1788862766323646500,4.093646484375,-0.09217676391601562,-5.100098448944092,4.6061447189331055
1788862766333653500,4.103653564453125,-0.23927052841186522,-5.054458979797363,4.649090711212158
1788862766343659500,4.113659423828125,-1.2594997108459471,-5.3883004737854,5.655403596496582
1788862766353666600,4.12366650390625,-3.77326181640625,-6.665906334686279,6.524349161529541
1788862766363672600,4.133672607421875,-5.8536734214782715,-6.131400814056396,6.498611493682861
1788862766373679400,4.143679443359375,-6.1456163864135736,-5.7974096824645995,6.112247200775146
1788862766383685600,4.153685546875,-5.70089342803955,-6.62056614074707,6.322787309265136
1788862766393691600,4.163691650390625,-5.272630606079101,-8.03703569793701,6.966977193450927
1788862766403698400,4.173698486328125,-5.582829358673095,-8.303240995025634,6.953509809112548
1788862766413704400,4.183704345703125,-5.680692351531982,-8.418761225128174,7.964012547302246
1788862766423711500,4.19371142578125,-6.816142488861083,-8.233509871673583,8.826074782562255
1788862766433717500,4.203717529296875,-5.293579870605469,-7.385064658355712,8.07683930053711
1788862766443723500,4.2137236328125,-1.9292776252746582,-7.421276958465576,7.430255214691162
1788862766453730600,4.22373046875,-0.43664252777099605,-7.673565958404541,6.5668462409973145
1788862766463736600,4.233736572265625,-0.5385457359313964,-7.222408583068847,4.832247138214111
1788862766473743400,4.243743408203125,-2.7602152389526364,-7.371746911621093,3.699640115356445
1788862766483749600,4.25374951171875,-4.7560815979003905,-7.026682597351074,3.831919757080078
1788862766493756400,4.26375634765625,-4.9723079353332515,-6.585251666259765,4.072836299133301
1788862766503762400,4.273762451171875,-4.2119992706298826,-6.595875936126709,4.6082396453857415
1788862766513768400,4.2837685546875,-4.774935935974121,-6.417058999633789,5.66288547668457
1788862766523775500,4.293775390625,-6.76092621307373,-5.973682779693603,6.1270613235473625
1788862766533781500,4.303781494140625,-7.772626052093505,-5.4230163978576655,6.1738978935241695
1788862766543788500,4.31378857421875,-5.052214415740966,-4.905419926452637,5.565621034240722
1788862766553794600,4.323794677734375,-1.3769652297973631,-5.163245517730712,4.445284294891358
1788862766563801600,4.333801513671875,-1.9167080665588379,-5.26080923538208,3.2154128295898436
1788862766573807400,4.343807373046875,-3.4127848289489746,-5.812074167633057,3.1980548675537106
1788862766583813400,4.3538134765625,-3.231124777984619,-6.8393363174438475,3.798101658630371
1788862766593820700,4.363820556640625,-2.7569232116699216,-5.8351183586120605,4.179677548217773
1788862766603826400,4.373826416015625,-1.9304747261047361,-3.6355952209472653,6.253654736328125
1788862766613833500,4.38383349609375,-3.0725089179992673,-6.326079336547851,9.095123194122314
1788862766623839700,4.39383984375,-5.922207444000244,-8.975413111114502,8.22961929397583
1788862766633846500,4.403846435546875,-5.623381149291992,-12.217611071777343,6.211307294464111
1788862766643852500,4.4138525390625,-4.988468796539307,-11.080066007995605,7.66787972946167
1788862766653858300,4.4238583984375,-5.354781650543212,-4.915296008300781,6.8309566116333
1788862766663865600,4.433865478515625,-5.271283867645264,-3.5103485466003415,5.734412251281738
1788862766673871600,4.44387158203125,-3.5693057624816893,-5.902455280303955,5.488856943511963
1788862766683878400,4.45387841796875,-2.8986300224304196,-6.692990740966796,4.180575373840332
1788862766693884700,4.463884765625,-2.9878140342712403,-6.687603787231445,3.451241693115234
1788862766703890700,4.473890625,-3.079092972564697,-7.8255977638244625,5.865943704986572
1788862766713897500,4.4838974609375,-4.284573508453369,-7.956530667114257,8.383596388244628
1788862766723903500,4.493903564453125,-5.571905813598632,-6.044611003875732,9.036315615844726
1788862766733910500,4.50391064453125,-4.869057988739013,-4.8701054519653315,8.442254328918457
1788862766743916500,4.51391650390625,-3.6864720062255856,-5.430348640441895,6.5505357421875
1788862766753923300,4.52392333984375,-2.9863176582336424,-6.749703392791748,4.914996733093261
1788862766763929600,4.5339296875,-2.742109088897705,-7.3000704994201655,4.064755868530273
1788862766773936400,4.543936279296875,-2.5828946784973144,-7.344363230133056,4.980089090728759
1788862766783942400,4.5539423828125,-2.361580662536621,-7.309048755645752,5.708674583435058
1788862766793948400,4.563948486328125,-4.554819020843506,-6.391321331787109,5.967547637939453
1788862766803955500,4.57395556640625,-4.287865535736084,-6.360495985412597,5.697152487945556
1788862766813961500,4.58396142578125,-3.762787184143066,-7.6014406333923334,6.215946060180664
1788862766823968500,4.593968505859375,-4.8792333457946775,-7.146691955566406,7.669825018310546
1788862766833974500,4.603974609375,-5.082291574096679,-7.4691609916687005,7.835324208068847
1788862766843980500,4.61398046875,-5.13945313873291,-8.161833459472655,7.115716971588134
1788862766853987300,4.6239873046875,-4.595670086669921,-8.952817832946776,6.790105545806885
1788862766863993300,4.633993408203125,-3.1938650146484373,-8.514080378723143,5.906495495605468
1788862766874000600,4.644000732421875,-3.3541268882751463,-7.668029367065429,6.460154629516601
1788862766884006400,4.65400634765625,-3.3119290840148925,-6.423942329406738,4.977844526672363
1788862766894013400,4.664013427734375,-2.7666496559143066,-5.016002115631103,2.7910405853271483
1788862766904019700,4.674019775390625,-3.590404664611816,-4.209754706573486,2.4705168380737303
1788862766914025500,4.684025390625,-4.394706784820556,-4.03482834777832,3.8552632232666015
1788862766924032500,4.694032470703125,-5.130624520111084,-5.538835903167724,4.658368242645263
1788862766934038500,4.70403857421875,-4.463689720153808,-5.1313727081298826,5.591059426879882
1788862766944045600,4.714045654296875,-1.3955202926635741,-2.0006547622680664,7.091326042175292
1788862766954051600,4.724051513671875,-0.49859249572753905,-0.28490999755859375,7.624933737182617
1788862766964059000,4.734058837890625,-4.08615404586792,-3.649810793304443,5.736806452941894
1788862766974065000,4.74406494140625,-6.478560054779052,-10.41298157043457,4.261828592681884
1788862766984071700,4.75407177734375,-2.970605709838867,-10.461164878845214,7.112574581909179
1788862766994078000,4.764077880859375,0.11088146438598633,-6.228515618896484,8.239196100616455
1788862767004084000,4.774083984375,-0.09995791931152344,-3.4888007316589356,6.214449684143066
1788862767014090800,4.7840908203125,-4.837185179138183,-6.527042638397217,3.595791618347168
1788862767024096800,4.7940966796875,-5.297171173095703,-5.282656325531006,4.042459865570068
1788862767034103800,4.804103759765625,-1.9710265167236327,-1.8953098892211913,5.310040007019043
1788862767044109800,4.81410986328125,-0.7012018112182616,-1.1902175003051758,4.534468306732178
1788862767054116600,4.82411669921875,-3.2254385490417476,-4.159626109313964,2.4211364288330075
1788862767064123000,4.834122802734375,-6.846967835235596,-6.057629475402831,1.9399018951416014
1788862767074129000,4.84412890625,-3.7638346473693844,-5.354482375335693,2.1333833168029783
1788862767084135700,4.8541357421875,-1.5101426971435545,-6.2401873519897455,2.3186346702575684
1788862767094141700,4.8641416015625,-8.295010926818847,-9.40427448348999,5.051166952514648
1788862767104149000,4.87414892578125,-8.917952271270751,-8.846275859069824,7.457489258575439
1788862767114154800,4.88415478515625,-0.1666962905883789,-7.811681466674804,7.618648957824707
1788862767124161800,4.894161865234375,-1.3521253875732422,-8.743774100494385,6.483647733306884
1788862767134167800,4.904167724609375,-4.13059641418457,-7.698256163024902,3.740491181182861
1788862767144173800,4.914173828125,-4.44363828125,-10.912322254180907,2.833836940002441
1788862767154180900,4.924180908203125,-6.552032118225097,-14.232182131195067,7.015908689880371
1788862767164186600,4.9341865234375,-5.510105483245849,-13.11932727203369,8.987833032226561
1788862767174194000,4.94419384765625,-4.2582372901916505,-9.339182125854492,7.221211482238769
1788862767184200000,4.954199951171875,-1.1282675323486326,-8.399607611846923,4.377498460388184
1788862767194206700,4.964206787109375,-5.205144046783447,-7.997082457733153,2.3295582153320313
1788862767204213000,4.974212890625,-7.038653605651855,-6.787561706542968,2.908057191467285
1788862767214218800,4.98421875,-3.114856359863281,-7.773823152923583,4.818480478668213
1788862767224225800,4.994225830078125,-1.193359889984131,-11.162067414855956,6.387430754089355
1788862767234231800,5.004231689453125,-4.9628807662963865,-13.381193078613281,6.977152550506592
1788862767244238800,5.01423876953125,-6.655132427215576,-13.53457162246704,3.116053460693359
1788862767254244900,5.024244873046875,-0.4240729690551758,-9.87009634399414,-1.6575357368469237
1788862767264251600,5.034251708984375,2.818124991607666,-10.371083041381835,-1.3120225097656248
1788862767274258000,5.0442578125,-1.2042834350585936,-11.381136866760253,1.4495394676208495
1788862767284264700,5.0542646484375,-3.9413048454284665,-11.919084052276611,3.7783494949340817
1788862767294270700,5.064270751953125,-3.597138356781006,-11.163264515686034,2.6785131072998047
1788862767304276700,5.07427685546875,-2.5571570106506347,-11.935394551086425,0.04563946914672851
1788862767314283800,5.08428369140625,-3.2430957862854,-11.130793155670165,0.7621043159484863
1788862767324289800,5.094289794921875,-4.364928901672363,-8.590545194244385,2.6636989845275876
1788862767334296600,5.104296630859375,-3.9023990684509275,-8.277952239990235,2.830095999908447
1788862767344302800,5.114302734375,-2.316689381408691,-8.776993648529052,2.501791097259521
1788862767354310000,5.124309814453125,-2.3479636405944824,-9.392004199981688,2.707542802429199
1788862767364315600,5.134315673828125,-2.9659669441223144,-10.320804806518554,3.843890765380859
1788862767374321700,5.14432177734375,-2.605489956665039,-11.672930194091796,4.014477633666992
1788862767384329000,5.154328857421875,-5.8916813728332516,-11.258733306884764,2.776376100158691
1788862767394334700,5.164334716796875,-10.929380941009521,-11.192892761230468,1.403301448059082
1788862767404341800,5.174341796875,-11.796830130004881,-7.495497209930419,1.1345523117065428
1788862767414347800,5.18434765625,-6.59497811050415,-3.876511763000488,2.338686109161377
1788862767424354800,5.194354736328125,1.7585411193847655,-4.8965913078308105,4.422988291931152
1788862767434360800,5.20436083984375,2.046892781829834,-4.3825861389160155,5.684732566833496
1788862767444368000,5.214367919921875,-6.631340048217773,-3.47952320022583,5.709871684265137
1788862767454374000,5.224373779296875,-12.064980715942383,-3.854215760040283,6.367379315185547
1788862767464380000,5.2343798828125,-6.932560544586181,-6.330568464660645,7.395389653015136
1788862767474386700,5.24438671875,-3.3638533325195312,-7.079205396270751,7.969698776245116
1788862767484393000,5.25439306640625,-4.6812627960205075,-6.118980892944336,5.673958659362793
1788862767494399700,5.264399658203125,-6.777984899902344,-5.52881018371582,2.921674213409424
1788862767504405800,5.27440576171875,-4.936993460845947,-7.014561951446533,0.39145197143554683
1788862767514412800,5.284412841796875,-2.7211598243713375,-8.825326594543457,-0.22086510314941404
1788862767524418800,5.294418701171875,-2.9043162513732907,-8.79674581222534,2.024896054077148
1788862767534424800,5.3044248046875,-4.342034348297119,-9.426720124053954,3.257909909057617
1788862767544431600,5.314431640625,-7.199962942504882,-7.440879484558105,3.4844612411499023
1788862767554438000,5.32443798828125,-8.849867161560057,-5.655553234100341,5.467009853363037
1788862767564444700,5.334444580078125,-2.1065981857299803,-10.573692356872558,5.638793822479248
1788862767574450700,5.34445068359375,-5.060893396759033,-6.322637671661377,2.6728268783569336
1788862767584458000,5.3544580078125,-6.459705716705322,-3.6463691284179687,1.648407843017578
1788862767594463700,5.364463623046875,-4.313453565979004,-4.533420843505859,1.9583073204040526
1788862767604470800,5.374470703125,-5.421819297027588,-5.265148725891113,3.8530186592102047
1788862767614476800,5.384476806640625,-6.087407358551025,-7.0102224609374995,5.652560482025146
1788862767624482800,5.39448291015625,-6.288969210815429,-9.524882392120361,5.47119970626831
1788862767634489900,5.40448974609375,-6.03967296295166,-9.897480025482178,5.369446135711669
1788862767644495600,5.41449560546875,-5.954828441619873,-9.298929610443114,4.567238941955567
1788862767654503000,5.4245029296875,-5.709422771453857,-9.312396994781494,3.2032921836853023
1788862767664509000,5.434509033203125,-5.671115544891357,-8.827271883392333,3.175609226989746
1788862767674515700,5.444515625,-5.906944408416748,-6.144568923187255,3.3710359375
1788862767684522000,5.45452197265625,-5.617994195556641,-3.63260246887207,2.722955475616455
1788862767694527700,5.46452783203125,-4.132990615844727,-3.450792780303955,3.5517981628417967
1788862767704534800,5.47453466796875,-3.1317654090881346,-5.181351667785644,4.685153373718261
1788862767714540800,5.484540771484375,-3.8603509017944333,-6.892308029174805,3.4810195762634275
1788862767724547800,5.4945478515625,-5.090970555114746,-8.209118942260742,1.4618097511291503
1788862767734553900,5.504553955078125,-6.0060045021057125,-10.005967288208007,0.3844190040588379
1788862767744560600,5.514560546875,-6.941688438415527,-9.629778352355956,0.4462193344116211
1788862767754567000,5.52456689453125,-5.86669189300537,-8.873509902954101,1.786224076080322
1788862767764573700,5.53457373046875,-4.460098417663574,-9.48088893661499,2.7959786262512205
1788862767774579700,5.544579833984375,-5.578489868164062,-9.16814634475708,2.1486463523864745
1788862767784585700,5.554585693359375,-7.199813304901123,-7.559841379547119,1.1596914291381835
1788862767794592800,5.5645927734375,-7.68015001296997,-7.145045941925049,2.1059996353149413
1788862767804598800,5.574598876953125,-6.82482146987915,-7.625532287597656,3.570652500915527
1788862767814605800,5.584605712890625,-4.960037651824951,-7.056460480499267,4.188655804443359
1788862767824611800,5.59461181640625,-4.553322644805908,-7.266551676177978,4.969015908050537
1788862767834619000,5.604618896484375,-6.540210747528076,-8.641870892333984,3.7901708656311035
1788862767844624600,5.614624755859375,-6.6319385986328125,-8.569745567321776,1.490091258239746
1788862767854632000,5.6246318359375,-5.934777002716064,-7.4114008766174315,1.7120038246154785
1788862767864638000,5.634637939453125,-7.475445771026611,-8.46604670791626,4.42463430557251
1788862767874643700,5.644643798828125,-6.836193927764892,-8.601618376922607,4.51381831741333
1788862767884650800,5.654650634765625,-5.261707061004638,-7.946654585266113,2.946514055633545
1788862767894657000,5.664656982421875,-5.3305403587341305,-7.683142765045165,2.2852654846191407
1788862767904663800,5.674663818359375,-5.181052392578125,-8.196549383544921,2.661604058074951
1788862767914669800,5.684669921875,-5.052513690948486,-8.31281780166626,2.9028198753356933
1788862767924676900,5.6946767578125,-4.960935477447509,-7.827991965484618,3.359513842010498
1788862767934683000,5.704682861328125,-4.920084411621094,-7.249642626953125,3.8322190322875973
1788862767944689700,5.714689697265625,-5.901856729888916,-6.993313411712646,3.351134136199951
1788862767954695700,5.72469580078125,-6.21175620727539,-6.630591860198974,2.6138696624755857
1788862767964702200,5.7347021484375,-5.223399834442138,-5.570409437561035,2.2909517135620114
1788862767974709200,5.744709228515625,-4.403236128234863,-5.351190348052978,1.8987515541076658
1788862767984715300,5.75471533203125,-3.9462428863525387,-5.495590635681152,1.5735890411376952
1788862767994722000,5.76472216796875,-3.8986581283569333,-6.744765351867676,2.790741310119629
1788862768004728000,5.77472802734375,-5.580135881805419,-8.535029643249512,3.544465920257568
1788862768014735000,5.784735107421875,-6.957550024414062,-9.306561128234863,2.500145083618164
1788862768024741000,5.7947412109375,-6.522254235076904,-8.372523205566406,2.033874310302734
1788862768034748200,5.804748046875,-5.654655408477783,-6.367229677581787,3.10931976852417
1788862768044754200,5.814754150390625,-5.2828059631347655,-5.328595069885254,3.4708442192077635
1788862768054760200,5.82476025390625,-5.761795932769775,-3.965246862030029,3.5238159309387207
1788862768064767200,5.834767333984375,-5.183446594238281,-2.8330887519836425,4.235941287231445
1788862768074773000,5.84477294921875,-4.373907157897949,-2.5055320373535155,3.7761049308776853
1788862768084780300,5.8547802734375,-4.289511549377441,-5.1399020515441896,3.144185330200195
1788862768094786000,5.8647861328125,-5.685031842041015,-8.807669357299805,3.1310172210693357
1788862768104793000,5.87479296875,-7.765144171905517,-8.525452836608887,2.708739903259277
1788862768114799400,5.88479931640625,-8.845677308654786,-8.126668622589111,2.1709423553466793
1788862768124806100,5.89480615234375,-6.97805037612915,-10.569053591156004,2.6650457229614255
1788862768134812200,5.904812255859375,-4.154388793182373,-11.105205125427245,2.9372365242004395
1788862768144819200,5.914819091796875,-3.6551977470397947,-9.643395374298095,1.6162357582092284
1788862768154825200,5.9248251953125,-3.8666356811523435,-8.17844323348999,1.445349614715576
1788862768164831200,5.934831298828125,-4.071639198303222,-7.691223195648193,2.2768857788085937
1788862768174838000,5.944838134765625,-5.8631005905151365,-8.450484397125244,2.3027730842590333
1788862768184844300,5.95484423828125,-6.738929485321044,-8.961047901153563,2.531868255615234
1788862768194851000,5.96485107421875,-5.530156922149658,-9.07926160812378,3.7517140014648436
1788862768204857000,5.974857177734375,-5.1225440895080565,-7.299920861816406,3.9655461372375487
1788862768214864100,5.984864013671875,-5.715857188415527,-5.111321269226074,2.593967861175537
1788862768224870100,5.9948701171875,-5.661089825439452,-4.968566995239257,1.910872200012207
1788862768234877200,6.004877197265625,-5.379920767974853,-6.082469317626953,1.785625525665283
1788862768244883200,6.01488330078125,-4.613028048706054,-5.329193620300293,1.0935516082763672
1788862768254889200,6.02488916015625,-2.6485855865478514,-5.322908840942382,0.821061531829834
1788862768264896300,6.034896240234375,-1.7969979835510252,-5.472546444702148,0.850989052581787
1788862768274902000,6.044902099609375,-3.962703022766113,-6.6528878631591795,0.27518355331420896
1788862768284909300,6.054909423828125,-5.623830062103271,-9.498845449066161,0.48662148742675776
1788862768294915000,6.0649150390625,-6.12870733718872,-9.947010072326659,3.10273571395874
1788862768304922000,6.074922119140625,-7.0932713310241695,-7.5345526245117185,5.423465310668945
1788862768314928400,6.084928466796875,-7.241262921142578,-7.969549138641357,5.308393993377686
1788862768324935200,6.09493505859375,-6.655581340026855,-8.590844469451904,3.222146521759033
1788862768334941200,6.104941162109375,-5.9498904006958,-8.3632456741333,1.0995371124267577
1788862768344947200,6.114947265625,-5.000739080047607,-9.16859525756836,1.0069114356994628
1788862768354954200,6.124954345703125,-4.409670545196533,-9.262717310333251,3.0994436866760253
1788862768364960300,6.134960205078125,-5.122095176696777,-8.976759849548339,4.800523966217041
1788862768374967000,6.144967041015625,-6.322338396453857,-10.31676459121704,4.533271205902099
1788862768384973300,6.154973388671875,-6.354510481262206,-12.209381003570556,2.1288941886901855
1788862768394980000,6.16497998046875,-6.363039824676513,-10.14453170928955,0.601992079925537
1788862768404986000,6.174986083984375,-5.899462528228759,-7.911190473175048,2.0536264739990235
1788862768414993400,6.184993408203125,-5.813720181274414,-6.855796453857422,3.1438860549926755
1788862768424999200,6.194999267578125,-7.043890921783447,-6.115389590454101,3.149273008728027
1788862768435006200,6.205006103515625,-7.542184142303467,-6.501155332946777,2.514809568786621
1788862768445012000,6.215011962890625,-6.634931350708007,-7.15686731262207,2.5076269638061524
1788862768455018200,6.225018310546875,-6.06496171798706,-7.527818932342528,3.4712931320190425
1788862768465025300,6.235025390625,-6.785466780090331,-8.40125362548828,4.6179660896301264
1788862768475031000,6.245031005859375,-7.268347327423095,-8.91211640472412,5.426009149932861
1788862768485038300,6.255038330078125,-8.15345375366211,-9.594164602661133,5.384260258483886
1788862768495044400,6.26504443359375,-9.19986951675415,-10.09979006576538,4.727650453186035
1788862768505051100,6.275051025390625,-8.002319773864746,-10.662577093505858,4.681113158416748
1788862768515057200,6.28505712890625,-6.25649785079956,-11.254094541168213,5.08782816543579
1788862768525064200,6.295064208984375,-7.4125979774475095,-11.843367424774168,4.857535893249511
1788862768535070200,6.3050703125,-10.313472563934326,-11.418546267700195,4.148253651428222
1788862768545077000,6.315076904296875,-9.379883554077148,-11.032780525207519,4.4768578292846675
1788862768555083300,6.325083251953125,-7.222408583068847,-10.258106650543212,5.001636905670166
1788862768565089300,6.33508935546875,-7.983315798187255,-9.152584033966065,4.911854343414307
1788862768575096000,6.345095947265625,-9.154529322814941,-8.959102612304687,4.291307200622558
1788862768585102000,6.35510205078125,-8.57498288345337,-7.851485069274902,3.8756139373779295
1788862768595109000,6.365109130859375,-6.78681351852417,-5.419125820159912,4.085405857849121
1788862768605115100,6.375115234375,-6.089951197814941,-3.087323040771484,4.405929605102539
1788862768615122200,6.3851220703125,-7.539341027832031,-1.7316063507080077,4.086303683471679
1788862768625128200,6.395128173828125,-8.036287509918212,-2.645592834472656,3.145532068634033
1788862768635135200,6.40513525390625,-6.676081691741943,-5.013607913970947,1.842487815093994
1788862768645141200,6.415141357421875,-5.590161601257324,-6.309469562530517,1.0794856735229492
1788862768655148300,6.425148193359375,-7.958027043151855,-4.426280319213867,0.14290391159057617
1788862768665154300,6.435154296875,-7.8362220336914055,-2.230049208831787,-0.04967968444824218
1788862768675160000,6.44516015625,-4.910806880187988,-0.41060558471679687,-0.1623568000793457
1788862768685167000,6.4551669921875,-5.20993245010376,0.7366659233093261,-0.8499415893554687
1788862768695173400,6.46517333984375,-6.774094322204589,0.9696516723632812,-2.1351789680480957
1788862768705180200,6.47518017578125,-5.042487971496581,-0.5565022483825683,-2.1856068405151365
1788862768715186200,6.485186279296875,-4.8032174430847165,-2.2946926536560057,-0.9497498710632324
1788862768725193200,6.495193115234375,-5.751919850921631,-2.883366986846924,-0.6287772109985351
1788862768735199200,6.50519921875,-6.621164691162109,-2.7117326553344725,-1.0105027381896972
1788862768745206000,6.5152060546875,-7.315782447814941,-2.099565218353271,-1.380257257080078
1788862768755212000,6.5252119140625,-7.343914317321777,-0.824802471923828,-1.81315884475708
1788862768765219300,6.53521923828125,-7.4040686340332025,-0.43454760131835934,-0.4234744186401367
1788862768775225000,6.54522509765625,-7.591414913940429,-1.2083236503601074,2.2423194923400875
1788862768785231000,6.555231201171875,-8.160785996246338,-2.654720728302002,3.1727661125183104
1788862768795238100,6.565238037109375,-9.191938723754882,-3.4763808105468748,2.137273894500732
1788862768805244200,6.575244140625,-9.05217720184326,-3.0508114654541014,0.98955347366333
1788862768815251200,6.585251220703125,-9.313594095611572,-2.410063246154785,0.47539866714477536
1788862768825257000,6.595257080078125,-9.615413142395019,-1.9183540802001953,0.17821838607788085
1788862768835264300,6.60526416015625,-9.688885205841064,-2.348262915802002,0.6742670425415038
1788862768845270300,6.615270263671875,-9.61406640396118,-3.331381972503662,1.1507131729125977
1788862768855277000,6.625277099609375,-9.527426231384277,-3.4287960525512693,0.6289268486022949
1788862768865283300,6.635283447265625,-9.418639693450928,-2.522889999389648,0.022445640563964843
1788862768875290000,6.6452900390625,-8.47786807861328,-2.0548235748291015,0.5077203895568847
1788862768885296000,6.655296142578125,-8.093299436950684,-1.8876783714294432,1.3395558288574219
1788862768895302400,6.665302490234375,-8.595183959960938,-1.276259122467041,1.1782464920043945
1788862768905309200,6.67530908203125,-9.137470635986327,-0.6643909606933593,0.7888894470214843
1788862768915315200,6.685315185546875,-8.339752570343016,-0.3532943824768066,1.21939683303833
1788862768925322200,6.695322265625,-7.297526660156249,-0.1322796417236328,1.8186954360961913
1788862768935328300,6.705328369140625,-7.257573419952392,0.09292495193481445,1.3678373359680176
1788862768945335000,6.7153349609375,-7.532607335662841,0.24256255569458007,0.5623381149291992
1788862768955341000,6.725341064453125,-7.8824600532531734,0.3404255485534668,0.09576806640624999
1788862768965347600,6.73534765625,-8.053346196746826,0.49155952835083006,0.028730419921875
1788862768975353600,6.745353515625,-7.656058358764648,0.5801449897766113,0.6242880828857421
1788862768985360600,6.755360595703125,-7.3006690498352045,0.5442319648742675,1.5147814628601073
1788862768995366700,6.76536669921875,-7.0926727806091305,0.24226328048706053,2.117671368408203
1788862769005372400,6.775372314453125,-7.742848168945312,-0.4595370811462402,2.4986487075805663
1788862769015379700,6.785379638671875,-8.264484855651855,-1.4254478134155273,2.1377228073120116
1788862769025385700,6.7953857421875,-8.450185121917723,-2.348113278198242,1.6858172439575194
1788862769035392500,6.805392578125,-8.696638255310058,-3.387645711517334,2.110638401031494
1788862769045398800,6.815398681640625,-8.181884898376465,-4.383932877349853,2.715473595428467
1788862769055405600,6.825405517578125,-7.669376105499267,-4.687248300170898,2.239626015472412
1788862769065411600,6.83541162109375,-7.529016033172607,-4.759523262786865,1.459415549468994
1788862769075418600,6.845418701171875,-7.465868964385986,-4.792293898010254,1.4501380180358885
1788862769085424600,6.855424560546875,-7.097012271118164,-4.640112454986572,1.948580876159668
1788862769095431700,6.865431640625,-6.702118634796142,-4.428674520874023,2.3656208778381345
1788862769105437700,6.875437744140625,-6.404190165710449,-4.445433932495117,2.5164555824279784
1788862769115443700,6.885443603515625,-6.864924347686767,-4.793939911651611,2.58558815536499
1788862769125450500,6.895450439453125,-8.122628407287598,-5.175066888427734,2.7035025871276854
1788862769135456500,6.90545654296875,-8.433126435089111,-5.314828410339355,3.0310593017578125
1788862769145463800,6.9154638671875,-7.542034504699706,-5.343858105468749,3.658789049530029
1788862769155469600,6.925469482421875,-6.510732139587402,-5.585373197937011,4.092738100433349
1788862769165476600,6.9354765625,-6.678775168609619,-5.794267292785644,3.7497687126159667
1788862769175482600,6.945482666015625,-7.569418186187744,-5.930138236999511,2.890998504638672
1788862769185489700,6.95548974609375,-8.084620455932617,-6.045359191894531,2.428468671417236
1788862769195495700,6.96549560546875,-7.880215489196777,-6.366481489562988,3.027168724060058
1788862769205502700,6.975502685546875,-7.74449418258667,-6.927921778869629,3.788225576782226
1788862769215508700,6.9855087890625,-7.749432223510742,-7.497891411590576,4.035726173400879
1788862769225515500,6.995515625,-7.445518250274658,-7.69945326385498,3.8193501983642575
1788862769235521500,7.005521484375,-7.034912665557861,-7.73147571105957,3.5046623176574707
1788862769245527800,7.01552783203125,-7.139958263397216,-7.488164967346191,3.0433295852661133
1788862769255534600,7.02553466796875,-7.148637244415283,-7.1769187515258785,3.0078654731750487
1788862769265540600,7.03554052734375,-6.752396869659424,-7.408108849334717,3.6170401580810543
1788862769275547600,7.045547607421875,-6.827066033935546,-8.028207079315186,4.102314907073974
1788862769285553700,7.0555537109375,-7.1589622390747065,-8.68242268295288,4.3549031822204585
1788862769295560700,7.065560791015625,-7.593659477996826,-9.346065455627441,4.333505004882812
1788862769305566500,7.07556640625,-7.924957132720947,-9.616161330413817,3.4789246498107906
1788862769315573800,7.08557373046875,-7.333140409851074,-9.368361458587646,2.5884312698364256
1788862769325579500,7.09557958984375,-6.043862815856933,-8.889371488952635,2.5848399673461913
1788862769335586600,7.105586669921875,-5.485564916229248,-8.226476904296874,2.812139487457275
1788862769345592800,7.1155927734375,-5.551255824279785,-7.595305491638183,2.7706898712158203
1788862769355598600,7.1255986328125,-5.3199160888671875,-7.823053924560546,3.3810616569519043
1788862769365605600,7.135605712890625,-5.607968476104736,-8.515876029968261,4.326771312713623
1788862769375611600,7.145611572265625,-6.177638833618164,-9.51261210861206,4.949114106750488
1788862769385618700,7.15561865234375,-6.954257997131347,-10.200645810699463,4.861725746154785
1788862769395624700,7.165624755859375,-7.391199800109863,-10.459219589996337,4.076876514434814
1788862769405631500,7.175631591796875,-6.632686786651611,-10.960655200195312,3.4331355430603026
1788862769415637800,7.1856376953125,-5.787234325408935,-11.018864228057861,2.6036943054199218
1788862769425644500,7.19564453125,-5.178957466125488,-10.736946982574462,2.0322282966613767
1788862769435650600,7.205650634765625,-4.8713025527954095,-10.378415283966063,1.9158102409362792
1788862769445657900,7.215657958984375,-5.077353533172607,-9.781959795379638,1.6488567558288574
1788862769455663600,7.22566357421875,-5.080196647644042,-9.253589416503905,1.606359676361084
1788862769465670700,7.235670654296875,-4.403535403442382,-8.659079216766356,2.2361843505859373
1788862769475676400,7.245676513671875,-4.016572560119629,-7.92929662322998,2.8549358421325683
1788862769485683700,7.25568359375,-3.7548563911437984,-7.496395035552978,3.284246127319336
1788862769495689700,7.265689697265625,-3.427299676513672,-7.615057655334472,3.8462849670410155
1788862769505695500,7.275695556640625,-4.270208298492431,-7.850587243652344,3.9483378128051756
1788862769515702800,7.285702880859375,-5.315426960754394,-8.06352155380249,3.6795886764526364
1788862769525708800,7.295708740234375,-6.040271513366699,-8.33780728149414,3.3611598556518554
1788862769535715600,7.305715576171875,-6.662763945007324,-8.596829973602295,3.1242835289001465
1788862769545721600,7.3157216796875,-7.256525956726073,-8.658779941558837,2.7054478759765623
1788862769555728600,7.325728759765625,-7.178864040374755,-8.416367023468018,2.347065814971924
1788862769565734700,7.335734619140625,-6.543203499603271,-8.074295461273193,2.3569418968200684
1788862769575741400,7.345741455078125,-6.148309863281249,-7.586027960205078,2.485480598449707
1788862769585747700,7.355747802734375,-5.568314511108398,-7.199514029693603,3.114257809448242
1788862769595754500,7.36575439453125,-4.646546871948242,-7.211933950805664,4.959738376617431
1788862769605760500,7.375760498046875,-5.21576831665039,-7.368754159545898,6.8308069740295405
1788862769615767800,7.385767822265625,-8.1594392578125,-7.158064413452148,7.039850706481933
1788862769625773600,7.395773681640625,-9.765050746154785,-7.0753148185729975,6.256348213195801
1788862769635779600,7.405779541015625,-9.057414517974854,-7.427711375427245,5.9217585311889644
1788862769645786600,7.41578662109375,-7.834875295257568,-7.6014406333923334,6.143671097564697
1788862769655792600,7.425792724609375,-6.8682163749694825,-7.725190931701659,6.2295630821228025
1788862769665799700,7.435799560546875,-7.1023992248535155,-7.480832724761963,5.24180525970459
1788862769675805700,7.4458056640625,-7.728333321380615,-6.883329772949218,3.715052788543701
1788862769685812700,7.455812744140625,-7.343764679718017,-6.027851592254638,2.84101954498291
1788862769695818800,7.46581884765625,-5.533299311828613,-5.275473720550536,2.9507039085388183
1788862769705825500,7.475825439453125,-4.21334600906372,-5.0945618576049805,3.374477602386474
1788862769715831800,7.485831787109375,-5.482123251342773,-5.310040007019043,3.361309493255615
1788862769725838600,7.495838623046875,-7.224054596710205,-5.421520021820068,3.103184626770019
1788862769735844600,7.5058447265625,-7.703194203948974,-5.005677120971679,2.7507880699157714
1788862769745851600,7.5158515625,-6.964283716583251,-4.064905506134033,2.7570728492736816
1788862769755857700,7.525857666015625,-5.772719477844238,-3.565564822387695,3.738695529937744
1788862769765863700,7.53586376953125,-5.9014078170776365,-3.892522986602783,4.632480937194824
1788862769775870500,7.545870361328125,-7.996932820129394,-4.416104962158203,4.881028997039794
1788862769785876700,7.555876708984375,-9.769839149475096,-4.718672196960449,4.723310962677002
1788862769795883800,7.5658837890625,-9.443928448486327,-4.847809449005126,4.636072239685058
1788862769805889500,7.5758896484375,-8.057685687255859,-4.880280809020996,4.985775319671631
1788862769815896800,7.585896728515625,-7.075614093780517,-5.079448459625244,5.698050313568115
1788862769825902600,7.595902587890625,-7.4214265960693355,-5.574599290466308,5.748777461242676
1788862769835909600,7.60590966796875,-8.889820401763915,-5.666776054382324,4.582053064727783
1788862769845915600,7.61591552734375,-10.21531029586792,-4.726303714752197,2.5719711334228514
1788862769855922700,7.625922607421875,-8.926331977081299,-3.5200749908447264,1.6144401069641112
1788862769865928700,7.6359287109375,-6.829460235595703,-3.073855656433105,2.3726538452148436
1788862769875935500,7.645935546875,-6.873752966308594,-3.45408480758667,2.939930001068115
1788862769885941800,7.655941650390625,-8.183830187225341,-4.192995294952392,2.625092482757568
1788862769895947800,7.66594775390625,-10.2410479637146,-4.6082396453857415,2.0573674140930174
1788862769905954600,7.67595458984375,-11.464933924865722,-4.3369466697692864,1.6672621810913084
1788862769915960600,7.685960693359375,-9.198522778320312,-3.9535751289367673,1.6374842979431152
1788862769925967600,7.695967529296875,-6.010643267822266,-4.103661645507812,2.398990063476562
1788862769935973600,7.7059736328125,-6.0054059516906735,-4.383035051727295,2.9213749382019043
1788862769945980700,7.715980712890625,-8.52889450149536,-4.848856912231445,3.1405940277099607
1788862769955986700,7.725986572265625,-9.510068269348144,-5.115511122131347,2.5597008499145506
1788862769965994200,7.735994140625,-8.869320050048827,-5.111021994018555,1.7712603157043456
1788862769976000000,7.746,-7.001693117523193,-4.670339250946045,0.9437643669128417
1788862769986007000,7.756007080078125,-6.055983461761474,-3.7666777618408203,0.1592144104003906
1788862769996012800,7.7660126953125,-6.928221054077148,-3.1296704826354977,0.17088614349365233
1788862770006020000,7.77602001953125,-7.444770062255859,-2.727145328521728,0.8319850769042968
1788862770016026000,7.786026123046875,-7.321169401550293,-2.5987562644958495,0.8051999458312988
1788862770026033000,7.796032958984375,-7.2541317550659175,-2.5665841796874997,0.4969464820861816
1788862770036039200,7.8060390625,-6.073640699005127,-2.9536966606140136,0.6833949363708496
1788862770046045200,7.816045166015625,-5.2174143302917475,-3.425055112457275,1.4016554344177246
1788862770056052000,7.826052001953125,-6.206818166351318,-3.4570775596618653,1.433827519226074
1788862770066058000,7.83605810546875,-8.517970956420898,-1.7099088981628416,-0.7053916641235352
1788862770076065000,7.84606494140625,-7.870339407348633,-0.03366846084594726,-1.7331027267456054
1788862770086071000,7.856071044921875,-7.4208280456542965,0.15083470458984374,-1.285835929107666
1788862770096077800,7.866077880859375,-7.685237691497802,-1.1586439659118652,0.2798223190307617
1788862770106084000,7.876083984375,-8.981548252868652,-2.2960393920898436,1.3166612754821776
1788862770116091100,7.886091064453125,-9.102006523895263,-2.4307132354736325,1.481711552429199
1788862770126097000,7.896096923828125,-9.30237127532959,-1.707065783691406,1.271171443939209
1788862770136104200,7.906104248046875,-8.444199617767334,-0.999130280303955,1.032948378753662
1788862770146110000,7.91610986328125,-6.61428136138916,-1.497722776031494,1.6261118400573729
1788862770156117000,7.926116943359375,-6.525995175170898,-2.4646809715270996,1.4724340209960938
1788862770166123000,7.936123046875,-7.711723547363281,-3.438073583984375,0.6531681404113769
1788862770176129000,7.94612890625,-8.036736422729492,-3.7357027778625485,0.5382464607238769
1788862770186136000,7.956135986328125,-7.437288182067871,-3.2308255027770993,0.7447463539123534
1788862770196142000,7.96614208984375,-6.534823793792724,-2.4980501571655274,0.17761983566284179
1788862770206149000,7.976149169921875,-6.468983248138428,-1.9295769004821777,0.06958148574829101
1788862770216155100,7.986155029296875,-8.5172227684021,-1.4764742362976073,0.01705868682861328
1788862770226162000,7.996161865234375,-9.418490055847167,-1.0580874961853026,-0.09831190567016601
1788862770236168000,8.00616796875,-8.004115425109863,-0.7101800674438477,0.778265177154541
1788862770246175000,8.016175048828124,-6.34568186264038,-0.42003275375366206,2.1939865463256836
1788862770256181000,8.026180908203125,-6.271910523986816,-0.37394437179565426,2.965518031311035
1788862770266188000,8.03618798828125,-7.007678621673583,-0.9778817405700683,2.927061167144775
1788862770276194000,8.046194091796876,-7.396886029052734,-2.25384158782959,2.3738509460449215
1788862770286201000,8.056201171875,-7.91672706451416,-3.831919757080078,1.6300024177551269
1788862770296206800,8.066206787109374,-8.039729174804688,-4.9720086601257325,1.773504879760742
1788862770306214100,8.076214111328126,-7.409605225372314,-5.278915385437012,2.5637410652160644
1788862770316220200,8.08622021484375,-7.3286512817382805,-5.002085818481445,2.6402058807373043
1788862770326226000,8.096225830078126,-7.73776049041748,-4.610633847045898,2.2219687782287596
1788862770336233000,8.10623291015625,-8.282591005706786,-4.374655345916747,2.2468086204528808
1788862770346239000,8.116239013671875,-8.569595929718018,-4.446780670928955,2.866009024810791
1788862770356246000,8.12624609375,-8.250418920898436,-4.498405644226074,3.2522236801147457
1788862770366252000,8.136251953125,-6.278793853759765,-4.931606507110596,3.712359311676025
1788862770376259000,8.146259033203124,-4.736329434204102,-6.026504853820801,4.357297383880615
1788862770386265000,8.15626513671875,-6.4463879699707025,-6.846518922424316,3.9175124664306638
1788862770396271900,8.16627197265625,-8.590545194244385,-6.8216790802001945,2.568828743743896
1788862770406278000,8.17627783203125,-7.175721650695801,-7.186794833374023,2.3397335723876953
1788862770416285000,8.186284912109375,-5.3950341659545895,-7.576900066375732,2.7136779441833494
1788862770426291000,8.196291015625,-5.706729294586181,-7.249642626953125,2.6288334228515624
1788862770436298200,8.20629833984375,-6.024110652160644,-6.689549076080322,2.8758851066589353
1788862770446304000,8.216303955078125,-5.7435401451110835,-6.523152060699463,3.7298669113159177
1788862770456310000,8.22631005859375,-5.6197898468017575,-6.723367174530029,4.267963734436035
1788862770466317000,8.236317138671875,-5.9497407630920405,-7.006481520843505,4.07298593673706
1788862770476323000,8.246322998046875,-6.789506995391846,-7.213729602050781,3.361459130859375
1788862770486330000,8.256330078125,-7.63555800704956,-7.34166975326538,2.525134563446045
1788862770496336000,8.2663359375,-7.426813549804687,-8.379705810546875,2.826953610229492
1788862770506343200,8.27634326171875,-7.542034504699706,-9.829095640563965,4.01597400970459
1788862770516349200,8.28634912109375,-8.404545652770995,-10.484957257843018,5.596745655822754
1788862770526356000,8.29635595703125,-8.904035974121093,-10.782287176513671,7.1778165771484375
1788862770536362000,8.306362060546874,-8.99591346282959,-11.322329288482665,7.845349927520751
1788862770546369000,8.316369140625,-9.201216255187989,-11.710489232635497,7.291840431213378
1788862770556375000,8.326375,-8.79090994567871,-11.534964323425292,6.301538769531249
1788862770566381800,8.3363818359375,-7.849390142822265,-10.59718546066284,4.798129764556885
1788862770576388000,8.34638818359375,-6.760477300262451,-9.60224503326416,2.771438059234619
1788862770586395100,8.35639501953125,-5.5063645431518555,-9.165003955078124,2.084451820373535
1788862770596401000,8.36640087890625,-4.990264447784424,-8.965836304473877,3.181445093536377
1788862770606408200,8.376408203125,-5.440075084686279,-8.549544490814208,3.890577697753906
1788862770616414000,8.3864140625,-5.308693268585205,-8.496572779083252,4.173542406463623
1788862770626420000,8.396419921875,-5.211428826141357,-8.562413324737548,4.368520204162597
1788862770636427000,8.406427001953125,-5.100098448944092,-8.629301333618164,4.286369159698486
1788862770646433000,8.41643310546875,-5.148281757354736,-8.48549959640503,4.007444666290283
1788862770656440000,8.426440185546875,-5.217563967895508,-8.314014902496337,3.515735500335693
1788862770666446000,8.436446044921874,-5.390545037841797,-8.145074047851562,2.500145083618164
1788862770676453000,8.446453125,-5.006574946594238,-7.965060010528564,2.1157260795593262
1788862770686459100,8.456459228515625,-4.949114106750488,-7.788338000488281,2.5731682342529294
1788862770696466000,8.4664658203125,-5.616048906707763,-7.795969518280029,2.972401361083984
1788862770706472000,8.476471923828125,-5.6964042999267575,-8.144774772644043,3.6355952209472653
1788862770716479000,8.48647900390625,-5.666177503967285,-8.454374974822997,3.8979099403381343
1788862770726485000,8.496485107421876,-5.701791253662109,-8.367585164642334,3.474585159301758
1788862770736492000,8.506491943359375,-5.547514884185791,-7.85941586227417,2.8413188201904296
1788862770746498000,8.516498046875,-5.536441701507568,-7.383418644714355,2.2296002960205077
1788862770756505000,8.526505126953126,-6.033537821197509,-6.975955449676513,1.6466121917724608
1788862770766510800,8.5365107421875,-6.67189183883667,-6.70331573562622,1.8523638969421385
1788862770776516900,8.546516845703126,-6.720673697662353,-6.6319385986328125,3.1377509132385253
1788862770786524200,8.556524169921875,-6.455366226196289,-6.748356654357909,4.731989943695068
1788862770796530000,8.566530029296874,-6.795642137145996,-7.006780796051025,5.811176342010498
1788862770806537000,8.576536865234376,-7.040898169708251,-7.325209616851806,6.2575453140258785
1788862770816543000,8.58654296875,-7.179761865997314,-7.4494088279724116,6.271760886383056
1788862770826550000,8.596550048828124,-7.870489044952392,-7.128436167907714,5.6058735496521
1788862770836556000,8.60655615234375,-8.059780613708496,-6.823175456237792,4.904971013641357
1788862770846563000,8.61656298828125,-7.523629079437256,-6.78022946395874,4.71148959197998
1788862770856569000,8.626569091796876,-6.9530608963012694,-6.756885997772216,4.98592495727539
1788862770866576000,8.636575927734375,-6.658424454498291,-6.74805737915039,5.392789601898193
1788862770876582000,8.646581787109374,-7.408108849334717,-6.919093160247803,5.4884080307006835
1788862770886589000,8.6565888671875,-8.27974789123535,-7.373243287658691,5.678597425079345
1788862770896595000,8.666594970703125,-7.593360202789306,-7.78878691329956,5.9670987251281735
1788862770906601000,8.67660107421875,-6.4752680274963375,-7.91014300994873,5.570858350372314
1788862770916608000,8.68660791015625,-6.147412037658691,-7.602787371826172,4.198831161499023
1788862770926614000,8.696614013671875,-6.140379070281982,-7.0567597557067865,2.893542343902588
1788862770936621000,8.70662109375,-6.250961259460449,-6.204723239898681,2.134281142425537
1788862770946626800,8.716626708984375,-5.84170241317749,-5.273977344512939,1.8589479515075682
1788862770956634000,8.726634033203124,-5.970390752410888,-4.575169734954834,1.8344073844909667
1788862770966640000,8.73664013671875,-7.043442008972168,-4.347870214843749,1.9487305137634277
1788862770976647400,8.7466474609375,-6.6790744438171386,-4.6812627960205075,2.740911988067627
1788862770986653400,8.7566533203125,-6.433668773651123,-4.997447052764892,3.8411972885131833
1788862770996660200,8.76666015625,-7.40586428527832,-5.334131661224365,4.069843547058105
1788862771006666500,8.77666650390625,-7.46317548751831,-5.734561888885498,3.6911107719421383
1788862771016673300,8.78667333984375,-6.795492499542236,-5.5373395271301264,3.725826696014404
1788862771026679300,8.79667919921875,-7.147889056396484,-5.116408947753906,4.022408426666259
1788862771036686300,8.806686279296875,-7.804947774505615,-4.90946014175415,4.122515983581542
1788862771046692400,8.8166923828125,-8.543409349060058,-4.399794463348388,3.539378241729736
1788862771056699400,8.826699462890625,-7.7127710105895995,-4.170250379180908,3.193416101837158
1788862771066705200,8.836705078125,-6.857442467498779,-4.095431577301025,2.9804817916870117
1788862771076711400,8.84671142578125,-6.082918230438232,-3.9514802024841305,2.139368820953369
1788862771086718200,8.85671826171875,-7.179911503601073,-3.487753268432617,1.0749965454101562
1788862771096724200,8.86672412109375,-8.652195886993407,-2.447622284698486,0.4652233100891113
1788862771106731500,8.8767314453125,-6.166416013336181,-2.0675427711486813,0.6596025573730468
1788862771116737300,8.8867373046875,-6.112546475982666,-2.085050370788574,1.575683967590332
1788862771126744300,8.896744384765626,-9.006986645507812,-2.6810569465637206,2.1279963630676266
1788862771136750300,8.906750244140625,-10.7390419090271,-4.1383775695800775,2.0076877296447755
1788862771146757400,8.91675732421875,-9.054272128295898,-5.303605590057373,1.6316484313964843
1788862771156763400,8.926763427734375,-7.261613635253906,-5.623231511688232,1.3340192375183104
1788862771166770200,8.936770263671875,-7.750928599548339,-5.379621492767334,0.8053495834350586
1788862771176776400,8.9467763671875,-9.042750032806396,-4.644302307891845,0.6783072578430175
1788862771186783200,8.956783203125,-9.711480484008788,-3.4775779113769527,0.8678981018066406
1788862771196789200,8.966789306640624,-8.522609722137451,-2.6589105812072753,1.7203835304260253
1788862771206796300,8.97679638671875,-7.737012302398681,-2.289904250335693,2.420388240814209
1788862771216802300,8.98680224609375,-7.1124249443054195,-1.9168577041625976,2.086397109222412
1788862771226808300,8.996808349609376,-7.526472193908691,-2.2469582580566403,1.619078872680664
1788862771236815000,9.006815185546875,-9.058461981201171,-2.8119898498535156,1.3811550827026366
1788862771246821400,9.0168212890625,-9.751433724212646,-3.218854494476318,1.6717513092041014
1788862771256828400,9.026828369140626,-8.520814070892333,-3.2650925140380855,1.843834553527832
1788862771266834200,9.036834228515625,-8.051550545501708,-2.478447631072998,0.19602526092529296
1788862771276841500,9.046841552734374,-7.992593329620361,-1.2150573425292968,-0.9111433692932128
1788862771286847200,9.05684716796875,-7.163750642395019,-1.4419079498291014,0.3333925811767578
1788862771296854300,9.066854248046875,-7.2803183357238765,-1.4806640892028808,0.8156745780944824
1788862771306860300,9.0768603515625,-7.34825380783081,-0.7012018112182616,-0.07332242584228515
1788862771316867300,9.086867431640625,-6.018125148010253,-0.0900818374633789,-0.14320318679809568
1788862771326873300,9.096873291015624,-4.994903213500976,0.567575431060791,0.502483073425293
1788862771336880000,9.106880126953126,-4.878784432983398,0.6892308029174804,1.4080898513793945
1788862771346886400,9.116886474609375,-4.898686234283447,0.42377369384765623,1.9017443061828612
1788862771356893200,9.12689306640625,-5.524171417999267,0.21906945190429686,1.178545767211914
1788862771366899200,9.136899169921875,-7.081749235534668,0.28924948806762696,-0.10714052429199218
1788862771376905200,9.1469052734375,-7.901164753723144,0.11297639083862304,-0.2814683326721191
1788862771386912300,9.156912353515626,-6.793846485900879,-0.7237970893859863,1.5209166046142577
1788862771396918300,9.166918212890625,-5.159205302429199,-2.088192760467529,3.5769372802734374
1788862771406925300,9.17692529296875,-5.837961473083496,-3.2517747673034667,3.8269817161560056
1788862771416931300,9.186931396484376,-7.464821501159667,-3.5359365768432616,2.625242120361328
1788862771426938400,9.1969384765625,-8.01144766769409,-3.970334540557861,1.8350059349060057
1788862771436944100,9.206944091796874,-8.679729206085204,-4.453215087890625,1.7323545387268064
1788862771446951400,9.216951416015625,-9.760860893249511,-4.310909726715088,2.122759046936035
1788862771456957400,9.22695751953125,-10.294318950653075,-3.568258299255371,2.2623709312438964
1788862771466964200,9.236964111328126,-9.88910031967163,-2.9779379524230953,2.680009483337402
1788862771476970200,9.24697021484375,-9.347112918853759,-3.2179566688537595,3.8132150566101073
1788862771486977300,9.256977294921874,-8.160337083435058,-4.141519959259033,4.906467389678955
1788862771496983300,9.2669833984375,-7.40571464767456,-5.059995571136474,5.017348854064941
1788862771506990000,9.276989990234375,-7.555501889038085,-5.92475128326416,4.247313745117188
1788862771516996400,9.286996337890624,-7.461080561065673,-7.152827097320556,3.512742748260498
1788862771527002400,9.29700244140625,-7.943063282775879,-8.57408505783081,3.7288194480895993
1788862771537009200,9.307009033203125,-8.999953678131103,-9.416095854187011,4.218583325195312
1788862771547015200,9.31701513671875,-9.46816974029541,-9.74290438079834,4.656273316192626
1788862771557022200,9.327022216796875,-9.337985025024414,-9.527725506591796,5.003133281707763
1788862771567028200,9.3370283203125,-8.179490696716307,-9.0657942237854,4.990713360595703
1788862771577035300,9.34703515625,-6.124667121887207,-8.732551280212402,4.951957221221924
1788862771587041300,9.357041259765625,-4.2706572113037105,-9.128941292572021,5.24823967666626
1788862771597048300,9.36704833984375,-3.928286373901367,-9.392453112792968,4.936544548034668
1788862771607054300,9.377054443359375,-5.100098448944092,-8.348132276153564,3.028066549682617
1788862771617061400,9.387061279296875,-5.2186114311218255,-6.454019487762451,0.914884309387207
1788862771627067400,9.3970673828125,-3.8928222618103026,-5.148132119750977,0.25827450408935543
1788862771637074200,9.40707421875,-3.369090648651123,-5.512948597717285,0.9035118515014647
1788862771647080400,9.41708056640625,-3.7849335494995113,-6.845321821594238,1.8436849159240722
1788862771657087200,9.427087158203125,-5.079298822021484,-7.693767034912109,2.2194249389648437
1788862771667093200,9.43709326171875,-5.728277109527587,-7.97418790435791,2.696170344543457
1788862771677099300,9.447099365234376,-5.021837982177734,-7.962665808868408,3.4687492927551267
1788862771687106300,9.457106201171875,-4.853046765136718,-8.642319805145263,4.18835652923584
1788862771697112300,9.4671123046875,-5.792322003936767,-9.555258825683593,4.2606314918518065
1788862771707119000,9.477119140625,-6.51192924041748,-10.640730003356932,3.3291374084472656
1788862771717125400,9.48712548828125,-6.329072088623047,-11.263222434997559,2.9709049850463867
1788862771727132400,9.49713232421875,-6.573729570770263,-11.810746427154541,3.737498429107666
1788862771737138200,9.50713818359375,-7.015010864257812,-11.518504187011718,4.247463382720947
1788862771747145500,9.5171455078125,-7.249193714141845,-10.771513269042968,4.5319244674682615
1788862771757151500,9.5271513671875,-7.308450205230712,-10.91726029510498,4.3549031822204585
1788862771767158300,9.537158203125,-7.573458401489257,-10.576385833740234,4.251353960418701
1788862771777164300,9.547164306640624,-7.1029977752685545,-8.695291516876221,3.7961563697814937
1788862771787171300,9.55717138671875,-5.125836116790771,-7.115118421173095,3.8072295524597166
1788862771797177300,9.56717724609375,-4.3610383239746096,-6.5874962303161615,4.395903885650634
1788862771807184100,9.57718408203125,-4.757727611541748,-6.675483141326904,4.48852956237793
1788862771817190400,9.5871904296875,-4.646696509552002,-7.022941657257079,4.33500138092041
1788862771827197400,9.597197509765625,-5.036203192138672,-7.16315209197998,4.273799600982666
1788862771837203200,9.607203125,-5.415833792877197,-7.04149672012329,3.9833530120849607
1788862771847209200,9.617209228515625,-5.395483078765869,-7.06094960861206,3.5429695442199707
1788862771857216300,9.62721630859375,-5.712415523529052,-7.209090836334228,3.2947207595825194
1788862771867222300,9.63722216796875,-5.847239004516601,-7.349301271057128,3.080589348602295
1788862771877229300,9.647229248046875,-5.782745197296142,-7.30381143951416,2.96207636642456
1788862771887235300,9.6572353515625,-5.879560726928711,-6.966378643035888,2.6253917579650876
1788862771897242400,9.667242431640625,-5.464765289306641,-7.038503968048095,3.0883705039978024
1788862771907248400,9.677248291015625,-6.018873336029053,-7.061697796630859,3.9188592048645017
1788862771917255400,9.68725537109375,-7.407061386108398,-7.711424272155761,4.324377111053466
1788862771927261400,9.697261474609375,-8.134599415588378,-7.988253839111327,4.043208053588867
1788862771937268200,9.707268310546874,-8.313117076873779,-7.8624086143493646,3.952677303314209
1788862771947274200,9.717274169921875,-8.065766117858887,-7.793126403808594,4.2034699272155756
1788862771957281300,9.72728125,-7.164498830413818,-8.150461001586914,4.604498705291748
1788862771967286300,9.737286376953126,-7.167641220092773,-8.517372406005858,4.611082759857178
1788862771977293600,9.74729345703125,-7.602787371826172,-8.981847528076171,4.164264875030518
1788862771987299300,9.75729931640625,-7.069478952026366,-8.92543415145874,4.426579594421386
1788862771997305300,9.767305419921875,-6.994510512542724,-8.38898334197998,4.854393503570557
1788862772007312600,9.777312744140625,-7.519439226531982,-8.253860585784912,5.070919116210937
1788862772017318400,9.787318359375,-7.426813549804687,-8.233210596466064,5.210231725311279
1788862772027325400,9.797325439453125,-7.541585591888428,-8.080131327819824,5.063287598419189
1788862772037331500,9.80733154296875,-7.625233012390137,-8.05035344467163,4.874893855285644
1788862772047338500,9.81733837890625,-7.573907314300537,-7.718307601928711,4.636820427703857
1788862772057344500,9.827344482421875,-7.62927322769165,-7.474697583007812,3.899406316375732
1788862772067351300,9.837351318359374,-6.412120958709717,-7.538892115020752,3.801393685913086
1788862772077357600,9.847357666015625,-5.782445922088622,-6.878391732025146,3.6545991966247557
1788862772087364400,9.8573642578125,-6.087556996154785,-6.208164904785156,3.3283892204284666
1788862772097370400,9.867370361328126,-4.157381545257568,-6.378602135467529,3.847930980682373
1788862772107377400,9.87737744140625,-3.724031044769287,-6.391919882202148,4.036324723815918
1788862772117383400,9.887383544921875,-6.26263299255371,-5.754912602996826,3.024325609588623
1788862772127390500,9.897390380859376,-7.619846058654785,-5.015852478027344,1.9065327095031737
1788862772137396200,9.907396240234375,-8.124872971343994,-4.429422708892822,1.2939163597106933
1788862772147402500,9.917402587890624,-8.324190259552001,-4.5072342628479,1.406443837738037
1788862772157409500,9.927409423828125,-8.0567878616333,-5.075857157135009,2.402282090759277
1788862772167415300,9.937415283203125,-7.698256163024902,-5.526864894866943,4.24506918106079
1788862772177422600,9.947422607421874,-7.84594847793579,-5.856067623138427,5.466112027740478
1788862772187428400,9.957428466796875,-7.830386167144775,-6.616525925445556,5.134964010620117
1788862772197435400,9.967435302734375,-8.0950950881958,-6.807463507843017,3.70263286743164
1788862772207441400,9.97744140625,-7.0744169929504395,-5.3378726013183595,2.4446295326232907
1788862772217448400,9.987448486328125,-5.221005632781982,-3.545214108276367,1.5732897659301757
1788862772227454500,9.997454345703124,-4.180575373840332,-3.062632836151123,1.3063362808227539
1788862772237461200,10.007461181640625,-5.904699844360351,-3.2137668159484862,1.3986626823425292
1788862772247467500,10.017467529296875,-8.775646910095213,-3.0123546012878415,1.4854524925231933
1788862772257474300,10.027474365234376,-9.770437699890136,-2.7320833694458004,0.8363245674133301
1788862772267480300,10.037480224609375,-7.273584643554687,-2.799121015930176,0.371550170135498
1788862772277487600,10.047487548828125,-4.633678038024902,-2.6678888374328613,0.876577082824707
1788862772287493400,10.057493408203126,-3.5755905418395995,-2.8857611885070797,1.5837643981933593
1788862772297499400,10.06749951171875,-5.875670149230957,-2.8259061470031734,1.253214931488037
1788862772307506400,10.07750634765625,-7.918821990966796,-1.7052701324462889,0.3435679382324219
1788862772317512400,10.087512451171875,-6.3895256805419915,-0.9434650917053222,0.6558616172790527
1788862772327519500,10.09751953125,-5.0014872680664055,-0.6453869850158691,1.7254712089538573
1788862772337525200,10.107525146484376,-7.1395093505859375,-1.8209400001525877,2.034772135925293
1788862772347532500,10.117532470703125,-9.16799670715332,-2.6599580444335937,1.687313619995117
1788862772357538600,10.12753857421875,-9.757119953155517,-3.1904233497619625,1.8637363548278807
1788862772367545300,10.13754541015625,-8.903736698913574,-4.435857125854492,2.99439808883667
1788862772377551400,10.14755126953125,-9.099911597442626,-4.74994645614624,3.008912936401367
1788862772387558400,10.157558349609374,-8.106467546081543,-3.9887399658203124,1.739686781311035
1788862772397564400,10.167564453125,-6.547692627716064,-2.442085693359375,0.7881412590026855
1788862772407571200,10.1775712890625,-6.555024870300293,-1.4012065216064453,0.08020575561523437
1788862772417577500,10.187577392578126,-6.911312004852294,-2.0492869834899903,0.06673837127685546
1788862772427584500,10.19758447265625,-8.547299926757812,-1.446696353149414,-0.01705868682861328
1788862772437590300,10.20759033203125,-8.808118270111084,-0.5936123741149902,-0.5377975479125976
1788862772447596300,10.21759619140625,-7.8547770965576165,-0.8767267204284668,-0.13138181610107422
1788862772457603300,10.227603271484375,-8.570493755340575,-0.8035539321899413,0.4192845657348633
1788862772467609300,10.237609375,-8.281393904876708,-0.8462006492614745,1.1659762084960936
1788862772477616600,10.24761669921875,-6.189609841918945,-1.9479823257446287,2.5541642585754394
1788862772487622400,10.257622314453124,-6.2684688591003415,-2.572420046234131,2.98122997970581
1788862772497629400,10.26762939453125,-7.2708911666870115,-1.9268834236145018,2.058265239715576
1788862772507635500,10.277635498046875,-7.223904959106445,-1.8243816650390623,1.4052467369079589
1788862772517642500,10.287642578125,-6.361094535827636,-2.6027964797973633,1.011250926208496
1788862772527648500,10.2976484375,-5.953930615997314,-3.2522236801147457,0.8131307388305664
1788862772537655300,10.3076552734375,-7.79552060546875,-3.5823242340087886,0.3865139305114746
1788862772547661600,10.31766162109375,-9.762506906890868,-3.810820854949951,0.7206546997070312
1788862772557668400,10.32766845703125,-9.760262342834473,-5.026776023101807,2.3581389976501463
1788862772567674400,10.33767431640625,-7.982118697357177,-6.258592777252197,4.058171813964844
1788862772577681700,10.347681640625,-6.706458125305176,-6.508786850738525,4.2217257148742675
1788862772587687400,10.3576875,-6.258293502044677,-5.843049151611328,3.494187685394287
1788862772597693400,10.367693359375,-5.885396593475342,-4.646995784759521,2.8411691825866696
1788862772607700200,10.3777001953125,-5.323956304168701,-3.5907039398193357,2.168697791290283
1788862772617706500,10.38770654296875,-4.8041152687072755,-2.9319992080688473,1.5586252807617187
1788862772627713500,10.397713623046876,-4.781370352935791,-2.7156232330322263,1.8734627990722654
1788862772637719300,10.40771923828125,-5.319018263244629,-3.2411504974365233,3.039588645172119
1788862772647726600,10.4177265625,-6.467935784912109,-4.055179061889648,3.611653204345703
1788862772657732600,10.427732666015626,-7.845649202728271,-4.712237779998779,3.041533934020996
1788862772667739400,10.437739501953125,-8.856900128936767,-5.9676972755432125,2.6856957122802734
1788862772677745400,10.447745361328124,-8.534281455230712,-7.6951137733459465,2.996193740081787
1788862772687752400,10.45775244140625,-6.87584789276123,-8.790311395263672,3.7008372161865233
1788862772697758500,10.467758544921875,-5.964554885864257,-9.027786272430419,3.9811084480285643
1788862772707765200,10.47776513671875,-6.215048234558105,-8.393921382904052,3.5693057624816893
1788862772717771500,10.487771484375,-5.986102700805664,-7.712621372985839,3.201197257232666
1788862772727778600,10.497778564453125,-5.518485189056396,-7.3843164703369135,2.5800515640258785
1788862772737784300,10.507784423828125,-5.084985050964355,-7.423521522521972,1.7443255470275878
1788862772747790300,10.517790283203125,-5.5187844642639154,-7.85268217010498,1.8938135131835936
1788862772757797400,10.52779736328125,-6.819434516143798,-8.818892177581787,2.8452093978881834
1788862772767803400,10.537803466796875,-8.065167567443847,-10.183437486267088,4.622754492950439
1788862772777810400,10.547810546875,-9.468319377899169,-10.71315460357666,5.50292287826538
1788862772787816400,10.55781640625,-9.78166052017212,-11.551125184631347,5.286397265624999
1788862772797823500,10.567823486328125,-8.697835356140136,-11.41465569000244,4.457853853607178
1788862772807829500,10.57782958984375,-7.400178056335449,-10.06118356399536,2.9384336250305174
1788862772817836500,10.58783642578125,-5.629965203857422,-8.886229099273681,1.6947955001831054
1788862772827842600,10.597842529296875,-3.670311145019531,-8.288875785064697,1.7812860351562498
1788862772837849300,10.607849365234374,-2.926612254333496,-8.65773247833252,3.064877400207519
1788862772847855400,10.61785546875,-3.5494039611816404,-9.262567672729492,4.470722687530517
1788862772857862400,10.6278623046875,-5.134964010620117,-10.940603761291504,5.3481975959777825
1788862772867868400,10.637868408203126,-7.49489865951538,-11.982530396270752,4.744559502410889
1788862772877874400,10.64787451171875,-8.394071020507813,-11.608586024475096,4.693682717132568
1788862772887881500,10.657881591796874,-7.596801867675781,-10.55304236755371,5.431396103668212
1788862772897887500,10.667887451171875,-6.353612655639648,-10.324994659423828,4.910806880187988
1788862772907894300,10.677894287109375,-6.544250962829589,-10.781987901306152,2.5959131500244137
1788862772917900300,10.687900390625,-6.929867067718505,-10.051008206939697,0.323666136932373
1788862772927907600,10.697907470703125,-5.083787950134277,-9.92680899581909,1.2313678413391111
1788862772937913300,10.707913330078124,-3.6240731254577634,-9.42267990875244,2.89219560546875
1788862772947920400,10.71792041015625,-3.7032314178466796,-9.664793551635741,3.9643490364074703
1788862772957926400,10.727926513671875,-5.5820811706542965,-9.881768077087402,4.069394634246826
1788862772967934200,10.737934326171874,-7.383269007110595,-9.277232157897949,2.596960613250732
1788862772977940000,10.74793994140625,-7.244854223632812,-8.353369592285155,1.6690578323364256
1788862772987947300,10.757947265625,-4.746804066467285,-8.060977714538573,2.934094134521484
1788862772997953300,10.767953369140624,-2.6075848831176756,-8.155698317718505,4.649389986419678
1788862773007960000,10.7779599609375,-3.162740393066406,-7.980622321319579,4.7752352111816405
1788862773017966000,10.787966064453125,-4.397699536895752,-7.983615073394775,3.8015433235168454
1788862773027973000,10.79797314453125,-6.002562837219238,-7.38686030960083,2.1848586524963376
1788862773037979100,10.807979248046875,-5.300313562774658,-6.675333503723144,1.7052701324462889
1788862773047985200,10.817985107421874,-3.1286230194091793,-6.580463262939452,1.8791490280151366
1788862773057992200,10.8279921875,-1.5150807380676268,-7.8244006629943845,1.8598457771301269
1788862773067998200,10.837998291015625,-2.7240029388427733,-6.237942787933349,1.4199112220764158
1788862773078005000,10.8480048828125,-4.2390836769104006,-5.740547393035889,1.4800655387878416
1788862773088011000,10.858010986328125,-5.913378825378418,-6.227468155670166,1.5626654960632322
1788862773098018000,10.86801806640625,-6.564601676940917,-6.1741971687316894,1.9449895736694334
1788862773108024000,10.878024169921876,-7.653813794708252,-4.6636055587768555,2.3367408203125
1788862773118031000,10.888031005859375,-9.738415252685547,-5.906495495605468,2.0331261222839356
1788862773128037000,10.898037109375,-10.199598347473144,-8.858995055389403,1.5774796188354492
1788862773138044200,10.908044189453125,-9.192537274169922,-10.640730003356932,2.058265239715576
1788862773148050200,10.91805029296875,-8.792705596923827,-12.330437825012206,3.2760160591125485
1788862773158057200,10.92805712890625,-9.241019857788086,-12.879757468414306,3.9094320358276367
1788862773168063200,10.938063232421875,-9.324218365478515,-12.750470578765869,3.806780639648437
1788862773178069000,10.948069091796874,-9.88954923248291,-12.051214056396484,3.061884648132324
1788862773188076000,10.958075927734376,-9.50617769165039,-11.066598623657226,2.261473105621338
1788862773198082300,10.968082275390625,-7.447463539123535,-10.261847590637206,2.382679564666748
1788862773208089000,10.978089111328124,-4.74994645614624,-9.222165519714355,3.0404864707946775
1788862773218095000,10.98809521484375,-5.0966567840576165,-8.339752570343016,2.788197470855713
1788862773228102100,10.99810205078125,-7.680898200988769,-6.726509564208984,1.597979970550537
1788862773238108200,11.008108154296876,-8.563011875152588,-5.567715960693359,1.5529390518188475
1788862773248115000,11.018114990234375,-8.175450481414794,-4.842272857666015,2.3318027793884277
1788862773258121200,11.028121337890624,-6.7745432350158685,-4.472667976379395,2.9417256523132322
1788862773268128300,11.038128173828126,-6.366331851959228,-4.032434146118164,2.8480525123596188
1788862773278134000,11.048134033203125,-5.927295122528076,-3.610905016326904,2.3048680107116697
1788862773288141300,11.058141357421874,-4.269310472869873,-3.2728736694335936,1.734599102783203
1788862773298147300,11.068147216796875,-2.6177602401733395,-3.1548096000671384,1.8014871116638183
1788862773308154000,11.078154052734375,-3.630208267211914,-2.8344354904174804,1.7802385719299316
1788862773318160100,11.08816015625,-7.154173835754394,-2.086397109222412,1.3431471313476562
1788862773328166100,11.098166259765625,-7.985111449432373,-2.0006547622680664,1.2792518745422363
1788862773338173200,11.108173095703124,-6.950965969848633,-2.480991470336914,1.5503952125549316
1788862773348179200,11.11817919921875,-7.65456198272705,-2.6355671150207516,1.5451578964233397
1788862773358186200,11.128186279296875,-9.511265370178222,-3.0502129150390624,1.1575965026855468
1788862773368192300,11.138192138671876,-9.383624494171142,-3.687070556640625,0.30750527572631836
1788862773378199000,11.148198974609375,-8.462006492614746,-3.993378731536865,-0.23358429946899412
1788862773388205000,11.158205078125,-6.478560054779052,-4.0738837623596185,0.6061819328308106
1788862773398212000,11.168212158203126,-4.4753614532470705,-4.823418519592285,2.0765210273742674
1788862773408218000,11.178218017578125,-5.3113867454528805,-6.386682566070556,2.5375544845581053
1788862773418225200,11.18822509765625,-9.689483756256102,-5.615001443481445,0.9880570976257324
1788862773428231200,11.198231201171875,-10.48286233139038,-3.7288194480895993,-0.04025251541137695
1788862773438238200,11.20823828125,-7.977180656433105,-2.685994987487793,0.5204395858764648
1788862773448244000,11.218243896484376,-7.019799267578125,-2.0299837326049803,0.33414076919555663
1788862773458250000,11.22825,-8.24129102706909,-1.2699743431091308,-0.14335282440185546
1788862773468257300,11.23825732421875,-9.119963036346435,0.22400749282836913,-0.29433716659545894
1788862773478263000,11.248262939453125,-7.3359835243225096,-0.7383119369506835,1.6207248863220214
1788862773488270000,11.25827001953125,-7.258471245574951,-1.6316484313964843,2.1727380065917967
1788862773498276400,11.2682763671875,-8.709956002044677,-0.9452607429504394,0.8019079185485839
1788862773508283100,11.278283203125,-7.8727336090087885,-0.5159504577636719,0.7357680976867675
1788862773518289200,11.2882890625,-7.736264114379883,-1.2765583976745605,0.8577227447509765
1788862773528296200,11.298296142578126,-8.908824377441405,-2.8685528640747067,1.1391910774230956
1788862773538302200,11.30830224609375,-9.975441217041014,-3.668515493774414,1.9228432083129883
1788862773548309000,11.31830908203125,-9.102754711914063,-2.7268460533142087,1.1148001480102538
1788862773558315000,11.32831494140625,-6.0239610145568845,-2.959083614349365,1.1673229469299315
1788862773568322300,11.338322265625,-5.444863488006591,-2.8061539833068845,1.3256395317077636
1788862773578328000,11.348328125,-6.301987682342529,-1.6135422813415525,0.2929904281616211
1788862773588334000,11.358333984375,-6.120926181793212,-0.6699275520324707,-0.8255506599426269
1788862773598341000,11.368341064453125,-4.9263691909790035,-0.7445967163085937,-0.46731823654174803
1788862773608347100,11.37834716796875,-4.3540053565979004,-2.072929724884033,1.247528702545166
1788862773618354200,11.388354248046875,-7.6014406333923334,-2.0932804389953614,1.0166378799438476
1788862773628360000,11.39835986328125,-8.238447912597655,-1.9981109230041503,0.10369885940551757
1788862773638367200,11.4083671875,-7.8639049903869624,-1.4707880073547361,-0.682497110748291
1788862773648373200,11.418373291015625,-8.35785872039795,-0.29074586410522457,-1.2955623733520507
1788862773658380000,11.428380126953124,-7.434594705200195,-0.4595370811462402,0.831236888885498
1788862773668386300,11.43838623046875,-7.235277416992187,-2.364723052215576,3.9372646301269527
1788862773678393000,11.44839306640625,-7.490409531402587,-4.285022421264649,4.338742321014404
1788862773688399000,11.458399169921876,-7.076212644195556,-5.34984360961914,3.2570120834350584
1788862773698405000,11.468405029296875,-7.69960290145874,-5.365106645202636,1.7916110298156738
1788862773708412200,11.478412109375,-7.519139951324463,-5.730970586395263,1.3168109130859373
1788862773718418200,11.488418212890625,-7.70573804321289,-6.340893459320068,1.3934253662109375
1788862773728425000,11.498425048828125,-8.177246132659912,-7.02279201965332,1.3314753982543945
1788862773738431200,11.50843115234375,-7.670124293518066,-7.614908017730713,1.5286977600097655
1788862773748438000,11.51843798828125,-7.368454884338378,-7.480683087158202,1.5685013626098632
1788862773758444000,11.528444091796874,-7.055413017272949,-6.95261198348999,1.44280577545166
1788862773768451300,11.538451416015626,-5.872378121948242,-6.344933674621582,1.867477294921875
1788862773778457000,11.54845703125,-4.659864618682861,-5.934328089904785,2.8745383682250973
1788862773788464000,11.558464111328124,-5.864148053741455,-5.472546444702148,3.2294787643432614
1788862773798470100,11.56847021484375,-8.081178791046142,-5.098602072906494,2.8076503593444824
1788862773808477200,11.578477294921875,-7.7784619186401365,-6.189909117126464,3.1952117530822752
1788862773818483200,11.588483154296876,-6.3341597671508785,-8.121880219268798,4.0626609420776365
1788862773828490200,11.598490234375,-6.04595774230957,-9.861267725372313,4.549132791900634
1788862773838496300,11.608496337890625,-7.541585591888428,-10.902146897125244,4.19479094619751
1788862773848502300,11.618502197265625,-8.320000406646727,-10.86009873046875,3.1489737335205077
1788862773858509000,11.628509033203125,-7.5159975616455075,-10.695497366333008,2.493710666656494
1788862773868515300,11.638515380859374,-6.066607731628418,-10.370185215759276,2.715323957824707
1788862773878522000,11.648522216796875,-5.63086302947998,-8.79749400024414,3.094505645751953
1788862773888528100,11.658528076171875,-5.7966614944458,-7.0196496299743645,2.9562404998779295
1788862773898535200,11.66853515625,-5.979219371032714,-6.1261634979248045,2.6542718154907226
1788862773908541200,11.678541259765625,-6.38398908920288,-6.259191327667236,2.8467057739257813
1788862773918548200,11.68854833984375,-7.2532339294433585,-7.213879239654541,3.997867859649658
1788862773928554000,11.698553955078125,-7.543081967926025,-9.036614891052245,5.657648160552978
1788862773938561300,11.708561279296875,-7.27807377166748,-10.927286014556884,5.833621982574463
1788862773948567000,11.718567138671874,-6.944381915283203,-12.090868021392822,5.0674774513244625
1788862773958573000,11.728572998046875,-6.728454853057861,-12.37862113342285,4.13673155593872
1788862773968580400,11.738580322265625,-6.143072547149658,-11.626991449737549,2.6497826873779293
1788862773978586000,11.748586181640626,-4.675576567077637,-10.931775142669677,2.2854151222229
1788862773988593400,11.758593505859375,-4.4650364585876465,-10.695946279144286,3.7044285186767576
1788862773998599200,11.76859912109375,-6.023512101745605,-11.221024630737304,4.932205057525635
1788862774008606200,11.778606201171876,-7.591265276336669,-11.710489232635497,4.276044165039062
1788862774018612500,11.788612548828125,-8.175749756622315,-11.489324854278564,2.095525003051758
1788862774028619300,11.798619384765624,-6.64600453338623,-10.748169802856445,1.6367361099243163
1788862774038625300,11.808625244140625,-5.576694216918945,-9.306710765838622,2.3792378997802732
1788862774048632300,11.81863232421875,-5.191676662445068,-7.842806088256835,2.8815713356018064
1788862774058638300,11.828638427734376,-4.957044899749755,-6.8876692634582515,2.8604724334716796
1788862774068645000,11.83864501953125,-4.499752382659912,-6.669647274780273,2.837278604888916
1788862774078651100,11.848651123046874,-4.798728314971924,-6.736684921264648,2.749890244293213
1788862774088657400,11.858657470703125,-6.19290186920166,-6.41646044921875,2.1555296821594236
1788862774098664200,11.868664306640625,-5.531204385375976,-6.93929423675537,2.525733113861084
1788862774108670200,11.878670166015626,-4.48209514541626,-7.969399501037597,3.6737528099060057
1788862774118677500,11.888677490234375,-5.1690813842773435,-8.462305767822265,4.261529317474365
1788862774128683300,11.898683349609374,-6.366331851959228,-8.555679632568358,3.9873932273864745
1788862774138690300,11.908690185546876,-7.135169860076904,-8.270619997406005,3.0781951469421385
1788862774148696300,11.9186962890625,-6.70346537322998,-8.153603391265868,2.064699656677246
1788862774158703400,11.928703369140624,-5.743091232299804,-7.906551707458496,1.683572679901123
1788862774168709400,11.93870947265625,-5.332186372375488,-7.470657367706298,1.789516103363037
1788862774178716400,11.94871630859375,-4.870255089569092,-7.288099491119384,2.083853269958496
1788862774188722400,11.958722412109376,-5.189731373596191,-6.996904714202881,2.1525369300842283
1788862774198729200,11.968729248046875,-7.016956153106689,-6.028599780273437,1.673995873260498
1788862774208735200,11.9787353515625,-7.161057165527343,-5.506813455963134,2.0184616371154784
1788862774218741500,11.988741455078125,-6.659471917724609,-5.46536383972168,3.0336031410217283
1788862774228748300,11.998748291015625,-7.245153498840332,-5.865644429779052,4.146009087371826
1788862774238754300,12.00875439453125,-8.961646451568603,-6.469881073760986,4.946270992279053
1788862774248761300,12.01876123046875,-10.334122553253174,-6.99735362701416,5.293729508209228
1788862774258767400,12.028767333984375,-10.084826305389404,-7.7395561416625975,5.36959577331543
1788862774268774100,12.038774169921876,-8.850615349578858,-8.283339193725585,5.288791467285156
1788862774278780200,12.0487802734375,-8.291120349121094,-8.693645503234864,4.329764064788818
1788862774288787500,12.058787353515624,-8.86872149963379,-8.485649234008788,3.444208725738525
1788862774298793200,12.068793212890625,-8.827421520996094,-7.877372374725342,3.0193875686645506
1788862774308800300,12.07880029296875,-8.038980986785889,-7.434295429992676,2.9363386985778805
1788862774318806500,12.088806640625,-7.41873311920166,-6.987627182769775,3.336320013427734
1788862774328812300,12.098812255859375,-6.687454149627685,-6.791751559448242,3.859303438568115
1788862774338819300,12.1088193359375,-6.181679048919677,-6.689848351287841,4.079420353698731
1788862774348825300,12.118825439453126,-6.417956825256347,-6.3341597671508785,3.7298669113159177
1788862774358832400,12.128832275390625,-6.931662718963623,-5.804143374633789,2.7151743202209473
1788862774368838400,12.13883837890625,-7.2815154365539545,-5.052064778137207,1.3691840744018553
1788862774378845200,12.14884521484375,-6.304082608795166,-4.141819234466553,1.1002853004455566
1788862774388851500,12.1588515625,-5.3287447074890135,-3.5844191604614255,1.5366285530090331
1788862774398858200,12.168858154296874,-6.070947222137451,-3.452588431549072,1.7411831573486327
1788862774408864300,12.1788642578125,-8.42669201812744,-3.265691064453125,1.656039360809326
1788862774418871300,12.188871337890625,-8.840888905334472,-3.061286097717285,1.3147159866333007
1788862774428877300,12.198877197265626,-7.365911045074462,-3.149123371124267,1.1534066497802733
1788862774438884400,12.20888427734375,-5.702090528869628,-3.46007031173706,1.4981716888427734
1788862774448890000,12.21889013671875,-4.75009609375,-4.267963734436035,1.8531120849609375
1788862774458896400,12.228896484375,-6.237194599914551,-5.267243652343749,1.8733131614685057
1788862774468903400,12.2389033203125,-8.642020529937744,-5.933430264282226,1.2491747161865234
1788862774478909200,12.2489091796875,-9.224410083770751,-6.520159308624267,0.5838859298706054
1788862774488916500,12.25891650390625,-9.51889688796997,-6.367977865600586,-0.21832126388549802
1788862774498922200,12.268922119140624,-8.41412245941162,-6.141426533508301,-0.3589806114196777
1788862774508929300,12.27892919921875,-6.937049672698974,-6.553378856658935,0.5255272644042969
1788862774518935300,12.288935302734375,-7.414393628692626,-5.990142916107177,0.5837362922668456
1788862774528942300,12.2989423828125,-7.893533235931396,-4.246116644287109,-0.2587234169006348
1788862774538948400,12.3089482421875,-7.051372801971435,-2.2577321655273437,-0.23956980361938476
1788862774548955100,12.318955078125,-6.257694951629638,-0.5303156677246094,0.3633201019287109
1788862774558961400,12.32896142578125,-6.222979027557373,0.08559270935058594,0.7043442008972167
1788862774568967400,12.338967529296875,-7.334038235473632,-0.4402338302612304,0.665887336730957
1788862774578974200,12.34897412109375,-7.357680976867675,-0.9693523971557617,0.697161595916748
1788862774588980200,12.358980224609375,-6.378602135467529,-1.1662754837036131,0.9255085792541503
1788862774598987300,12.3689873046875,-5.832873794555664,-0.843956085205078,0.6567594429016113
1788862774608993300,12.3789931640625,-6.4263365310668945,0.11956044540405272,0.14215572357177733
1788862774619000300,12.389000244140625,-6.871358764648437,0.9751882637023925,-0.05970540390014648
1788862774629006300,12.39900634765625,-6.581361088562011,0.941070890045166,-0.13572130661010742
1788862774639013400,12.409013427734376,-6.855946091461181,-0.06943184814453125,-0.04997895965576172
1788862774649019100,12.41901904296875,-8.2743609375,-0.6419453201293945,0.5406406623840332
1788862774659026400,12.4290263671875,-8.047061417388916,-1.6338929954528807,2.1815666252136228
1788862774669032400,12.439032470703125,-7.828889791107177,-3.0898668800354003,3.0041245330810544
1788862774679038200,12.4490380859375,-7.886350630950927,-3.6209307357788085,2.08115979309082
1788862774689045200,12.459045166015626,-7.385812846374511,-3.521122454071045,0.9769839149475097
1788862774699051300,12.46905126953125,-7.293636082458495,-3.246537451171875,0.6462848106384277
1788862774709058300,12.479058349609375,-8.001122673034667,-3.268234903717041,0.4291606475830078
1788862774719064300,12.489064208984376,-9.754875389099121,-3.7970541954040526,-0.23687632675170897
1788862774729071400,12.4990712890625,-11.768698260498047,-4.037671462249755,-0.6163572898864745
1788862774739077400,12.509077392578124,-11.744456968688963,-3.8531682968139647,-0.08783727340698241
1788862774749084200,12.519084228515625,-10.140491493988037,-3.6023756729125975,0.9259574920654297
1788862774759090400,12.52909033203125,-8.634089736938476,-3.780743696594238,2.2822727325439454
1788862774769097200,12.53909716796875,-9.694272159576416,-3.9604584587097165,2.9314006576538083
1788862774779103200,12.549103271484375,-10.220846887207031,-4.214543109893799,3.3002573509216306
1788862774789109200,12.559109130859374,-8.620173439788818,-4.882375735473633,3.9821559112548828
1788862774799116300,12.5691162109375,-7.20160895614624,-5.610063402557373,4.776731587219238
1788862774809122300,12.579122314453125,-7.488164967346191,-5.9400143188476555,5.0097173362731935
1788862774819129300,12.58912939453125,-7.621342434692382,-5.821202061462402,4.318541244506836
1788862774829135400,12.59913525390625,-6.885574337005615,-5.172223773956299,2.879925321960449
1788862774839142400,12.609142333984375,-5.765686510467529,-4.554519745635986,1.6967407890319823
1788862774849148200,12.619148193359376,-4.867860887908935,-4.055029424285888,1.1572972274780273
1788862774859155500,12.629155517578125,-4.951657946014404,-3.565714459991455,1.1088146438598632
1788862774869161500,12.639161376953124,-4.464138632965088,-3.328089945220947,1.8206407249450682
1788862774879168300,12.649168212890626,-4.287566260528564,-3.2980127868652342,2.596511700439453
1788862774889174300,12.65917431640625,-5.294776971435547,-3.3047464790344234,2.5713725830078125
1788862774899180300,12.66918017578125,-4.69921930847168,-3.7406408187866207,2.733879020690918
1788862774909187300,12.679187255859375,-2.3994389762878416,-5.021389069366455,3.6236242126464844
1788862774919193300,12.689193359375,-1.8429367279052733,-6.81898560333252,4.122366345977783
1788862774929200400,12.699200439453126,-4.288314448547363,-7.994837893676757,3.425952938079834
1788862774939206400,12.709206298828125,-6.855347541046142,-8.235455160522461,1.8408418014526367
1788862774949213200,12.719213134765624,-6.902932299041748,-8.931868568420409,0.6578069061279297
1788862774959219200,12.72921923828125,-5.833023432159424,-10.789918694305419,0.8843582382202148
1788862774969225500,12.7392255859375,-7.139958263397216,-12.673856125640869,1.9589058708190916
1788862774979231500,12.7492314453125,-9.680355862426758,-14.436138185119628,3.801094410705566
1788862774989238500,12.759238525390625,-12.192920867156982,-16.435446208953856,5.108927067565918
1788862774999244500,12.76924462890625,-13.397353939819336,-18.184111246490477,5.9302878746032714
1788862775009250300,12.779250244140625,-13.388375683593749,-18.673276573181152,7.18275461807251
