time,seconds_elapsed,z,y,x
1788862270940402000,0.04540185546875,1.3820453095406293,-2.1871941097065806,-0.6944177040360867
1788862270950409000,0.055408935546875,0.8863964660495519,-2.813723249517381,-0.16956848502382635
1788862270960415000,0.0654150390625,0.33587329207658767,-2.107117533428967,-0.3389164591647684
1788862270970421000,0.0754208984375,-0.21965338927209377,-1.5322843863248825,-0.510507243796438
1788862270980428000,0.085427978515625,-0.6619909138143062,-1.0671741812214255,-0.5649680981066078
1788862270990434000,0.09543408203125,-1.18095925809443,-0.6999725616842508,-0.4305249582061544
1788862271000439800,0.105439697265625,-1.8971984794467687,-0.5928054416462779,-0.17413469696082173
1788862271010447000,0.115447021484375,-2.3893255785524845,-0.5414598698124289,-0.08486421241294592
1788862271020452900,0.125452880859375,-2.5426719737023116,-0.49989802536815403,-0.2619474752473645
1788862271030459000,0.135458984375,-2.1351386360377074,-0.2569274733945727,-0.5621865045640617
1788862271040466200,0.145466064453125,-1.8672317957282065,0.2513528881326318,-1.0712095742173493
1788862271050472000,0.155471923828125,-2.7554005321472883,1.7351520604908466,-3.4268428726568816
1788862271060478000,0.16547802734375,-2.03207339836061,2.6723531233653426,-3.8823599045068025
1788862271070485000,0.175485107421875,-1.206836042150855,3.957410177055001,-4.788995148725808
1788862271080491000,0.185490966796875,-0.8748685253411531,2.8422791896551844,-3.3837396439895033
1788862271090498000,0.195498046875,-0.8772089509874582,-0.418611781039834,-1.606037750930339
1788862271100503800,0.20550390625,0.14452069913744925,-1.7932903612047433,-1.455229642086476
1788862271110509800,0.215509765625,0.48280222139954565,-1.6455276114061475,-1.2835507407799363
1788862271120517000,0.22551708984375,0.45040626470744605,-1.8912573989599941,-0.6465346206810325
1788862271130523000,0.23552294921875,0.2056348007917404,-2.3943816928982735,-0.7302729343365878
1788862271140529000,0.24552880859375,0.3144254303783178,-2.191957963107526,-1.1707626390550285
1788862271150536000,0.255535888671875,0.05254676431715488,-1.903583212047815,-0.8936335046309978
1788862271160542000,0.2655419921875,-0.4330091397047043,-1.6781959552988408,-0.9412412781760096
1788862271170548000,0.2755478515625,-0.518723429608345,-1.4486039403364062,-0.5735484045231715
1788862271180554800,0.2855546875,-0.6096843879938125,-1.681052806034684,-0.15601161403739824
1788862271190561000,0.29556103515625,-0.7304372580528259,-1.707713141684234,-0.2149395855579525
1788862271200568000,0.305568115234375,-0.74492054143548,-1.7596011498317121,-0.48076607592944054
1788862271210573800,0.31557373046875,-0.9644289692789315,-2.1429966560617086,-0.03006765987500548
1788862271220579800,0.325579833984375,-1.0678916818410158,-2.426337212346494,1.2947314754858612
1788862271230587000,0.3355869140625,0.5839741926759481,-1.9166198037534952,0.820169478360936
1788862271240593000,0.345593017578125,1.6548095267534255,-1.7489800948351621,0.178388262752071
1788862271250599000,0.355598876953125,1.903181060987711,-2.150355494391918,0.47338805797472594
1788862271260606000,0.36560595703125,1.8969822063475845,-2.526192255805433,0.5387621551610529
1788862271270612000,0.375612060546875,1.9868302350550888,-3.0186212604671714,0.7646376338183879
1788862271280618000,0.385617919921875,2.177996950033307,-1.7026342309847473,-0.3263137288317084
1788862271290624800,0.395624755859375,0.5143582201361656,-1.832938773243129,0.3468839309126138
1788862271300631000,0.405631103515625,-1.8519354423969983,-2.441127369721234,0.853139508613944
1788862271310637000,0.415636962890625,-3.0266105056554076,-2.849643580943346,0.8848533282607793
1788862271320643800,0.425643798828125,-3.6481191869556904,-3.1840625825583935,1.4033362271115184
1788862271330650000,0.435650146484375,-4.75617687496841,-3.8603640535369514,2.461716861024499
1788862271340657000,0.445656982421875,-4.824720249840617,-4.277310531713068,2.3605969121962787
1788862271350663000,0.455662841796875,-2.451600540679693,-2.711092311604321,1.2825719588756561
1788862271360669000,0.4656689453125,3.8647523516237734,0.5996899404630065,-2.5328780171796677
1788862271370676000,0.475676025390625,1.7382926966041325,-0.5266393172994256,-2.035885065603256
1788862271380682000,0.485681884765625,-1.4860598107665777,-2.6517820445016027,-0.07999415869116783
1788862271390688000,0.49568798828125,-2.9115070396602154,-3.7076495265498757,0.7428478268146514
1788862271400695000,0.505695068359375,-3.7651200110048055,-4.371794111266732,1.3593050699442624
1788862271410701000,0.515701171875,-3.3462323356330392,-4.295405868113041,1.0300865595817565
1788862271420707000,0.52570703125,-2.0248867017269134,-3.8252085690036415,-0.3480149807691574
1788862271430713900,0.5357138671875,0.8410410745412111,-2.1420888935670255,-3.9451393090248104
1788862271440720100,0.54572021484375,2.7877111486434933,0.633117286029458,-8.983466069188713
1788862271450727000,0.555726806640625,2.213659215044975,3.756835582262277,-13.438964884102344
1788862271460733000,0.56573291015625,-0.35547698721289633,3.1814041770040986,-10.592539680683613
1788862271470739000,0.575739013671875,-2.2354802939698097,-1.9988123492717742,-5.407058365747332
1788862271480746000,0.58574609375,-3.2031749870464203,-4.923126263535022,-2.335296466723084
1788862271490752000,0.595751953125,-4.567906758214533,-5.661541076338291,-2.489517891141772
1788862271500758000,0.605758056640625,-4.326805214983224,-5.679948255166411,-2.8526936161637306
1788862271510765000,0.61576513671875,-2.0852102375254034,-5.058793209609389,-2.582580205720663
1788862271520771000,0.62577099609375,-2.4178720202095807,-5.268480500662326,-2.8703789104580877
1788862271530777000,0.635777099609375,-3.379716672083735,-6.284146320703625,-2.1412387064784766
1788862271540783900,0.645783935546875,-3.5192858862936496,-6.522829989138245,-0.4736714049607515
1788862271550790100,0.6557900390625,-4.042916961687803,-6.038339668521285,2.3605016351282595
1788862271560797000,0.665796875,-3.8007951354980465,-5.591301418942213,5.646437615230679
1788862271570803000,0.675802978515625,-3.5944530632197855,-5.513169546991587,7.315123691645264
1788862271580809000,0.68580908203125,-3.6701311122775078,-5.448168959292769,7.98134829750657
1788862271590816000,0.69581591796875,-3.088933398577571,-5.693491042828559,7.76146460660994
1788862271600822000,0.705822021484375,-1.9600404278069734,-6.308675781804323,7.556409651532769
1788862271610828000,0.715828125,-0.8328810758959502,-7.246715341329574,8.641804841360448
1788862271620835000,0.7258349609375,0.8794804030507802,-8.151578607439994,11.05400334597826
1788862271630841000,0.735841064453125,1.9351666833132504,-8.881361200976372,13.268207335424423
1788862271640846800,0.745846923828125,2.2598902203440665,-8.526630063694714,14.724141472518443
1788862271650854000,0.75585400390625,1.6231329703770576,-7.477506210687756,14.67465117316246
1788862271660860200,0.765860107421875,-0.6084709205508232,-6.26815321727991,15.071866530430317
1788862271670867000,0.775866943359375,-3.940912046718597,-4.3556811808556315,14.38775847735405
1788862271680873000,0.785873046875,-6.767961518537998,-1.6704852347910404,12.801969295334816
1788862271690879000,0.79587890625,-8.990254706415534,1.0798954233676195,10.48918452014923
1788862271700886000,0.805885986328125,-9.740996501350402,1.7063456527233123,9.800902396258712
1788862271710892000,0.81589208984375,-6.018537235942483,-1.5053583854764698,9.424783018511533
1788862271720897800,0.825897705078125,-1.435600520247966,-3.057556263539195,6.143195881268381
1788862271730905000,0.835905029296875,2.2896686880141495,-2.7201252206265925,3.1733693391084667
1788862271740911000,0.8459111328125,3.8897491379752753,-3.8428976626902815,2.8320272602319716
1788862271750916900,0.855916748046875,3.874822494739294,-1.0937187815368175,-0.22981296423673628
1788862271760924000,0.865923828125,5.841111461547016,-1.2112813311219215,0.6583014116466045
1788862271770930200,0.87593017578125,9.743525143045186,-5.266843254849315,5.2493122743338345
1788862271780937000,0.88593701171875,-2.9659958779558537,5.54503709589541,-1.1364379793226718
1788862271790943000,0.89594287109375,-3.1458442033231258,5.458535455006361,-1.1385323212534189
1788862271800948700,0.90594873046875,-2.049372908207774,1.7520383133620023,-0.7465221314132213
1788862271810956000,0.9159560546875,-3.1149379006668925,3.530122922128439,-0.6376099212735891
1788862271820962000,0.925962158203125,-2.0257310435965654,7.233086628949642,-6.015818040111661
1788862271830967800,0.9359677734375,-0.6489584137618541,6.032733519077301,-5.847415530127287
1788862271840975000,0.94597509765625,-3.458088198009133,5.424914924955368,-5.6384659056991335
1788862271850981000,0.955981201171875,-4.227460459133982,5.060099031510949,-6.470221850022673
1788862271860987000,0.96598681640625,0.11389818185865878,3.2884090922176834,-4.973909525310993
1788862271870994200,0.975994140625,3.2055519453108308,3.3880700744092462,-4.223577480220794
1788862271881000000,0.986,1.4412538698345423,4.013152522543073,-4.055219393900036
1788862271891007000,0.996007080078125,-0.9135048377275466,4.773344282868504,-3.7691760083973405
1788862271901013000,1.006012939453125,-4.099721383449435,6.056548109906911,-2.051722686204314
1788862271911019000,1.01601904296875,-6.834833160805702,6.68399494908452,-1.6196785921394825
1788862271921026000,1.026026123046875,-7.409373754703998,6.20825024498105,-1.6428396874964237
1788862271931032000,1.036031982421875,-5.61184034910202,4.496122501724958,-1.990934747764468
1788862271941037800,1.046037841796875,-2.259999818198383,1.6597241868019104,-2.4565035102903843
1788862271951045000,1.056045166015625,-2.2233380207553504,1.702092086932063,-2.436348611012101
1788862271961051000,1.06605078125,-0.706988285665214,0.6641682578533887,-2.3378064037173987
1788862271971058000,1.076057861328125,0.030490999853610992,0.19208207625746726,-1.310981476280093
1788862271981064200,1.086064208984375,-0.5232949753075837,1.0949211430639028,-1.4516706344306467
1788862271991070000,1.096070068359375,-0.6263917771667241,2.0348586451649666,-2.334150219297409
1788862272001077000,1.106076904296875,-0.624316432197392,2.1852619726002214,-1.3862450993180273
1788862272011083000,1.1160830078125,-1.4215829546809196,3.4126258389949795,-0.2031295399725437
1788862272021089000,1.126089111328125,-2.067971225693822,5.325547372752427,-1.194672726148367
1788862272031096000,1.136095947265625,-1.847635114854574,4.858748776170611,-1.6873907768845557
1788862272041101800,1.146101806640625,-1.0550365841820835,4.481496595001221,-1.7019821968168019
1788862272051107800,1.15610791015625,-0.04215396511852741,3.5027789881289,-0.20094927332401274
1788862272061115100,1.166115234375,-0.1766647268950939,1.8388690400749443,-0.14598551099300383
1788862272071121000,1.176120849609375,0.5547779088079929,1.7430910367965697,-1.4652151756584644
1788862272081128000,1.1861279296875,2.7062451638340947,0.8991822978645563,-0.6280903977781533
1788862272091134000,1.196134033203125,1.9839934041939675,-3.1525919240176674,0.7976251266628503
1788862272101140000,1.206139892578125,0.5154308178037404,-6.116495505869389,0.10110475125908851
1788862272111147000,1.21614697265625,-1.5269593919098376,-6.601690175363421,0.9104279145002364
1788862272121152800,1.22615283203125,-3.012377982163429,-5.569873430988192,0.8247679851323366
1788862272131159000,1.236158935546875,-3.8953567487239837,-2.8130940117031336,-0.72498366882205
1788862272141166000,1.246166015625,-2.8675393031179905,-0.9969950218409299,-2.2625322592854498
1788862272151171800,1.256171875,-1.1036745044924319,-2.460064417642355,-0.7966033823996782
1788862272161179100,1.26617919921875,-0.6118593939453363,-2.351657234415412,-2.471975220188498
1788862272171185000,1.276184814453125,2.3583552707493305,-1.6728022795617579,-4.206200228962302
1788862272181191000,1.28619091796875,2.227494263651967,-7.411489139422774,0.7727619035631418
1788862272191198000,1.296197998046875,2.546076229187846,-6.402119789177179,0.5741577320605517
1788862272201204000,1.306203857421875,3.5432062755852938,-5.001836812156439,-0.7154203061848878
1788862272211210000,1.3162099609375,3.4778280867457387,-3.5630180605143305,-2.0324439852386713
1788862272221217000,1.326217041015625,1.1471154406815767,-3.29173502177,0.7550672569185495
1788862272231222800,1.336222900390625,-4.986173379078507,-1.6939982123255728,3.0063924780130384
1788862272241230000,1.34622998046875,-3.49739028082788,2.123724677097797,3.6581127577036616
1788862272251235800,1.35623583984375,-1.1387141075611114,5.278459458363056,2.629501823632419
1788862272261241900,1.366241943359375,-0.47893736266493797,4.575819138774276,2.280995259954035
1788862272271249200,1.376249267578125,0.023927403554320333,2.8862931034266945,2.8812840430930255
1788862272281255000,1.3862548828125,0.6829033534616231,2.4450579871684313,4.085098691596091
1788862272291261000,1.396260986328125,0.3317009748280048,2.068708892318606,4.656078085881472
1788862272301268000,1.40626806640625,-0.8817880954712629,2.0799358042538163,6.547204551938176
1788862272311274000,1.41627392578125,-1.788604249215126,2.55929226911366,6.809619224572181
1788862272321280000,1.426280029296875,-1.6358628342211246,3.3266923533827066,6.093840606468915
1788862272331286800,1.436286865234375,-1.3730290593922136,3.169392836692929,5.407462270373106
1788862272341292800,1.446292724609375,-1.3336112412393093,2.4243916312366722,5.21629087921977
1788862272351300000,1.456300048828125,-1.7970868308782577,1.3127321193397044,5.104753581273555
1788862272361305900,1.466305908203125,-1.637760192275047,2.693973126760125,4.300887222133577
1788862272371311900,1.476311767578125,0.1357341660916805,4.34031702298522,1.889786157363653
1788862272381319200,1.486319091796875,0.957292541527748,5.044824890011549,0.04451923294514418
1788862272391325000,1.496324951171875,0.6484931343376636,5.420220629659295,-1.8516081101387738
1788862272401332000,1.50633203125,0.3064963909447193,5.8165621267020695,-4.0262066499054425
1788862272411338000,1.516337890625,0.5603086549282074,6.300950155988335,-4.712586155045032
1788862272421344000,1.526343994140625,1.1179045437663793,6.890184461149573,-4.870864161378145
1788862272431351000,1.53635107421875,1.7914865266531705,6.2225593408405775,-4.67926139307022
1788862272441356800,1.546356689453125,2.010655347278714,5.276835072031617,-4.722626195283234
1788862272451363000,1.556363037109375,2.009090582180023,5.015311210757494,-4.659190664944052
1788862272461370000,1.5663701171875,1.8919687620997427,4.0682881343096495,-4.912980717095732
1788862272471376000,1.5763759765625,2.1784400176256895,1.996263249310851,-4.885556703597307
1788862272481382000,1.5863818359375,1.8386872537672518,-1.6958955703794956,-3.6596585258409378
1788862272491388700,1.596388671875,0.04142046321220696,-1.758077593526244,-1.892164284671843
1788862272501394700,1.606394775390625,2.1239532251566646,2.620397018417716,-1.1464211748071014
1788862272511402000,1.616402099609375,4.428268862682581,4.699003619894385,-0.9669854488287121
1788862272521407700,1.62640771484375,4.418752846318483,5.340064558404684,-0.8447497928660362
1788862272531413800,1.636413818359375,3.3610283382266757,5.529598703745007,-1.1309827826566994
1788862272541421000,1.646421142578125,-0.17094576472640036,3.834226280456781,-1.0461743555516003
1788862272551426800,1.6564267578125,-2.5050340247035026,1.8862685046315193,-0.380783862426877
1788862272561433900,1.666433837890625,-1.4110902022391556,1.1309954960078001,0.0026953034985810515
1788862272571439600,1.676439697265625,-1.359928754800558,-0.2067553292542696,0.653190352243185
1788862272581446000,1.68644580078125,-2.116533888810873,-2.2691776886492967,1.4878133764356374
1788862272591453000,1.696452880859375,-1.7088707872867583,-3.488103397044539,1.7166190633259713
1788862272601458700,1.706458740234375,-0.25307035957500335,-3.4900007550984617,1.3208417760372162
1788862272611464700,1.716464599609375,0.5738683937251567,-4.185281944096088,0.8432841772928833
1788862272621472000,1.726471923828125,1.73652568693161,-10.552442648094893,1.0997696060083806
1788862272631477800,1.736477783203125,3.3097657685011623,-28.41777085351944,4.353270612582564
1788862272641484800,1.74648486328125,2.443244800266623,-30.53337301443815,4.904823714125156
1788862272651490800,1.75649072265625,0.3942753582932055,-18.89888214885592,3.503381337936222
1788862272661496800,1.766496826171875,-0.8444451838962733,-6.75413757584691,1.4331259468279778
1788862272671504000,1.77650390625,-1.4027584272235631,1.1087895094186067,-0.25203933602683243
1788862272681509600,1.786509521484375,-0.8971183510720729,3.995610436111688,-1.0277966220136732
1788862272691516000,1.796515869140625,-0.10550196330472826,3.1991414937466383,-1.4534664318062365
1788862272701523000,1.80652294921875,0.4026104943096637,2.4057582424372432,-1.6605200133547187
1788862272711528700,1.81652880859375,0.4723663137115538,2.2812422204524276,-1.2112570003982632
1788862272721536000,1.826535888671875,0.33406887300312516,1.5078092857599257,-0.5821234502427279
1788862272731541800,1.836541748046875,0.31528760016560553,0.33360359357893465,0.19206658642739055
1788862272741547800,1.8465478515625,0.5818599770009517,-0.6048422086596489,0.7929229403212666
1788862272751555000,1.85655517578125,0.6063419456981122,-1.0629682539641856,1.1173761359781027
1788862272761560800,1.866560791015625,0.38599253698587416,-1.0212632016569376,1.145204200232774
1788862272771566800,1.87656689453125,0.20869236173145472,-0.45435061841905117,0.8947644083570688
1788862272781574000,1.886573974609375,0.22820954762808976,0.12114449972510337,0.4927694155972451
1788862272791580000,1.896579833984375,0.22191768094226716,0.5490262134134769,0.1870791534036398
1788862272801587000,1.9065869140625,0.1570709686309099,0.6243944658696651,0.05551467421203851
1788862272811592700,1.9165927734375,0.1327022510498762,0.41545945448875427,0.10624671725742518
1788862272821598700,1.9265986328125,0.1615912225343287,0.28790625676512716,0.23204276911541818
1788862272831606000,1.93660595703125,-0.07539221785366534,-0.16862521282434462,0.39514688043072815
1788862272841611800,1.94661181640625,-0.2643587924391031,-0.36863925112485885,0.530985822071135
1788862272851617800,1.95661767578125,-0.0732681383717805,-0.3267915754765272,0.6105869628567249
1788862272861624800,1.966624755859375,-0.00913205854780972,-0.21386253091096877,0.6340358621791005
1788862272871630800,1.976630859375,0.09062778090834617,-0.1039987191349268,0.5948509759992361
1788862272881638000,1.986637939453125,0.1823158845245838,-0.013667290824651717,0.5113217750497162
1788862272891643600,1.9966435546875,0.3133165923535824,0.07645020247399807,0.350720878726989
1788862272901650000,2.00664990234375,0.4411982183139771,0.10267419253289699,0.16088395104780792
1788862272911657000,2.016656982421875,0.5552308402072638,0.17272914101183415,-0.04949914024956524
1788862272921662700,2.026662841796875,0.6605768092326819,0.2132780090212822,-0.19140088906027375
1788862272931668700,2.036668701171875,0.6859509044639766,0.23399112670421598,-0.25310659993216394
1788862272941675800,2.04667578125,0.6632375528745352,0.2718897724658251,-0.21691395437084138
1788862272951681800,2.056681884765625,0.44403724113218485,0.17726327731013297,-0.03700885731503367
1788862272961688800,2.066688720703125,0.07679623943269252,-0.043515316599607466,0.2652664818685502
1788862272971694800,2.07669482421875,-0.05648001211285591,-0.1056757124364376,0.6735869513228535
1788862272981700900,2.086700927734375,0.1888297233980149,0.02946048776209354,1.0786461539588867
1788862272991708000,2.0967080078125,0.8676086904060095,0.12515958058536053,1.3467270356610417
1788862273001713700,2.106713623046875,1.4337299040704965,0.11780220355987549,1.2519959110870957
1788862273011721000,2.116720947265625,1.500087751597166,0.23376550125479698,0.8005541658520698
1788862273021726700,2.126726806640625,1.3044757476478814,0.4557078782469034,0.22245807142928242
1788862273031732700,2.136732666015625,1.0094728106200694,0.5203425552427768,-0.2574291393063962
1788862273041740000,2.146739990234375,0.5778430695097894,0.4132534688770771,-0.5607976805541665
1788862273051745800,2.156745849609375,0.2311415824919939,0.15853870309591292,-0.7625449723880737
1788862273061751800,2.166751708984375,-0.020534838506579396,-0.2793763288289308,-0.9111408850751817
1788862273071758800,2.1767587890625,-0.32024843744337556,-0.6647001727730035,-1.038792940063402
1788862273081764900,2.186764892578125,-0.7973387109369039,-0.9546388121485709,-1.082734738446772
1788862273091772000,2.19677197265625,-1.2842448605239392,-0.9421101699650287,-0.9594142098568379
1788862273101777700,2.206777587890625,-1.5052040716975927,-0.4924252052694559,-0.6105772451803088
1788862273111783700,2.21678369140625,-1.470605636525154,0.2448649874180555,-0.12309139600917696
1788862273121791000,2.226791015625,-1.287354224716127,0.7154542084544897,0.373970967541635
1788862273131796700,2.236796630859375,-1.015585082955286,0.7652338461458682,0.8042285435158759
1788862273141802800,2.246802734375,-0.7098719513427466,0.5254740729123354,1.1243457557950167
1788862273151810000,2.25681005859375,-0.4816179800510406,0.11512801591455936,1.457191882070154
1788862273161815800,2.26681591796875,-0.4001765451610088,-0.36707273246049876,1.7232456418588757
1788862273171822800,2.27682275390625,-0.4184060293346643,-0.7325701784282922,1.8267177067711948
1788862273181828900,2.286828857421875,-0.45348779104463754,-0.5481821638047695,1.7291497513361274
1788862273191835000,2.2968349609375,-0.7869323946695774,-0.39780280176699157,1.796509907773137
1788862273201842000,2.306842041015625,-1.0856628277879208,-0.14013678496479987,1.8467615468904375
1788862273211847700,2.31684765625,-1.2503192100465297,0.36810382907390593,1.863772156793624
1788862273221853700,2.326853759765625,-1.3541180226951837,0.8014046452015637,1.9970560071237384
1788862273231861000,2.336861083984375,-1.3000392265051604,0.9824971254110336,2.1693042327508327
1788862273241866800,2.34686669921875,-1.198801788777113,0.9461042080372571,2.3146622594952584
1788862273251873800,2.356873779296875,-1.0165005172997712,0.7509259193301201,2.4506213203839957
1788862273261879800,2.3668798828125,-0.9242875130265951,0.45675709503889084,2.5372631003960966
1788862273271885800,2.3768857421875,-0.846761205753684,0.18889643195867536,2.502052963066101
1788862273281892900,2.386892822265625,-0.6493553041249513,0.06827624836862087,2.349745993966609
1788862273291899000,2.39689892578125,-0.3958914517203346,0.11658698255121708,2.08291759654358
1788862273301905000,2.40690478515625,-0.18263269538879393,0.2326087324351072,1.8012775605663656
1788862273311912000,2.416911865234375,-0.0021031462917104364,0.36745734786391254,1.513036665019393
1788862273321917700,2.426917724609375,0.1531587636232376,0.42837388111948965,1.315187403537333
1788862273331925000,2.436925048828125,0.21982465418577193,0.39171500628590583,1.188972760941088
1788862273341930800,2.4469306640625,0.16474691008627415,0.36671617410778995,1.1063614054888486
1788862273351936800,2.456936767578125,0.10410915723945945,0.34093700520694253,1.0657660679891705
1788862273361944000,2.466944091796875,0.17900566399805246,0.2794593309372663,1.0479697145357727
1788862273371949800,2.47694970703125,0.4690290955802425,0.1483487329930067,1.056540193678066
1788862273381955800,2.486955810546875,0.5775070424884557,-0.07627133877575397,1.0487463979966938
1788862273391963000,2.496962890625,0.2787713121404871,-0.41569793941974637,1.0110117106251417
1788862273401969000,2.506968994140625,0.17212006920278072,-0.5722983679294585,1.1389326456826179
1788862273411976000,2.516975830078125,0.35740532492697236,-0.20358254443705082,1.3955173700541257
1788862273421981700,2.526981689453125,0.9828677122890949,0.39120296511054037,1.855134238438308
1788862273431987700,2.53698779296875,1.593008027356863,0.5218254872769117,2.106100465340912
1788862273441995000,2.5469951171875,1.9145219546914098,0.47188218345642086,1.7956291794158517
1788862273452000800,2.557000732421875,1.8815227714091538,0.43366380422115325,1.2559633534133434
1788862273462007800,2.5670078125,1.6155676496893168,0.3389636593073606,0.8399722762659192
1788862273472013800,2.577013916015625,1.5985165616452692,0.11493979986608027,0.554075094300881
1788862273482020400,2.587020263671875,1.8395161058068275,-0.28673429037630555,0.33731464999131855
1788862273492027600,2.597027587890625,1.935603905686736,-0.8552303434133529,0.1266189125481993
1788862273502033400,2.607033447265625,1.7514765878260135,-1.419267663475871,-0.21352135279048232
1788862273512039400,2.617039306640625,1.8185814543277024,-1.6127087531268596,-0.6810572141382842
1788862273522046500,2.62704638671875,1.9999287860810755,-1.6788772155612706,-1.2138979433611035
1788862273532052500,2.637052490234375,1.9761516046524046,-1.9756980156660078,-1.849410892355442
1788862273542059500,2.6470595703125,1.901088472622633,-2.730118791374564,-2.5335575238764285
1788862273552065300,2.657065185546875,2.2250702513754366,-3.807014448404312,-3.468998591341078
1788862273562071600,2.667071533203125,3.323388051140308,-4.859745385992527,-4.513965909190476
1788862273572078600,2.67707861328125,4.669778109931945,-5.604061531794071,-5.46288312882185
1788862273582084400,2.68708447265625,5.318453615099191,-5.484917850497364,-6.317016324648261
1788862273592090400,2.69709033203125,5.092033215910196,-3.9937440577179193,-6.607164807382226
1788862273602097400,2.707097412109375,4.549416869539022,-1.4287503620922564,-6.154020642143488
1788862273612103400,2.717103515625,3.6205145561933514,1.3438205005645751,-5.365522240266204
1788862273622110500,2.7271103515625,2.4231436770021912,3.17964885776937,-4.088408546796441
1788862273632116500,2.737116455078125,1.778915214371681,4.083153695008159,-2.280737047409266
1788862273642122500,2.74712255859375,1.506510478121042,4.0145395929872985,-0.14701178530082107
1788862273652129500,2.757129638671875,0.6656745707631111,2.945407555696368,2.0254645016148687
1788862273662135300,2.76713525390625,-0.7032195807814597,1.0422294173181057,3.719521458390355
1788862273672142600,2.777142578125,-1.8247510828733444,-1.3472212489187716,4.7064627037286755
1788862273682148400,2.7871484375,-2.350319848331809,-3.644859892898798,4.71515483648926
1788862273692154400,2.797154296875,-2.7700328686118123,-5.197613651278615,3.3921146736249326
1788862273702161700,2.80716162109375,-3.7432226519733667,-5.964378944775461,1.6014698584929108
1788862273712167400,2.81716748046875,-5.3837248364329335,-5.491788320788741,0.2573722945526242
1788862273722173400,2.82717333984375,-6.623948184400796,-3.7228666771650314,-0.3420972811579704
1788862273732180500,2.837180419921875,-6.937676280164718,-1.4926193154126406,-0.5013172445163131
1788862273742186500,2.8471865234375,-6.652651131793856,0.4692436516463756,-0.7135048279523849
1788862273752193500,2.857193603515625,-5.981814063701033,1.7399848874747752,-1.6106123653694986
1788862273762199300,2.86719921875,-4.255409373289346,2.123387407967448,-2.9455095547661183
1788862273772205600,2.87720556640625,-1.6877952660322189,1.1255898375719786,-4.129617924541234
1788862273782212600,2.887212646484375,0.9659218381851911,-0.5494353787362575,-5.043402748253941
1788862273792218400,2.89721826171875,3.569972117435932,-1.5361170963555573,-5.0843420768857
1788862273802225700,2.9072255859375,4.587770273330808,-1.5340186627715826,-4.241533115889132
1788862273812231400,2.9172314453125,2.7211528101086615,-1.1415250733286142,-2.8739079613670704
1788862273822237400,2.927237548828125,0.0664017597336322,-0.45042730749547477,-0.7006725266471505
1788862273832244500,2.937244384765625,-0.6347246481608599,0.14012041835188865,1.4020242677301167
1788862273842250500,2.94725048828125,0.2605318545620888,-0.03623509646356106,2.078881326764822
1788862273852256500,2.957256591796875,0.5275595739495009,-0.8369324701786041,1.0979594878464936
1788862273862263600,2.967263671875,0.25492870079278945,-1.2596861733287572,-0.5553396343439817
1788862273872269300,2.977269287109375,0.9774188722986727,-0.5000280814886093,-2.121571298456192
1788862273882276600,2.987276611328125,1.8112047880798576,-0.4406938489884138,-3.6136698048651215
1788862273892282400,2.997282470703125,2.417176293030381,-1.6652864971041679,-5.086531111362576
1788862273902288400,3.007288330078125,1.9334458508700132,-2.695658887889981,-6.182938693591952
1788862273912295700,3.017295654296875,0.046850525436922905,-3.647151803228259,-5.676610635176301
1788862273922301400,3.027301513671875,-2.8199703272134062,-4.577094565537571,-3.0822090587586164
1788862273932308500,3.03730859375,-5.440531011760235,-5.29639317446053,0.15154840581715107
1788862273942314500,3.047314453125,-6.6468450758636,-5.469064447805285,2.98589271081984
1788862273952320500,3.057320556640625,-6.072865038457513,-5.3346127227395765,5.335058128419518
1788862273962327600,3.06732763671875,-3.6364591443002223,-4.972773799279332,6.5573249639362094
1788862273972333300,3.077333251953125,-0.6991467053193599,-4.4116953290224075,6.466922223955392
1788862273982340600,3.087340576171875,1.3697224190622568,-3.7861680597305294,5.210871192258596
1788862273992346600,3.0973466796875,2.8761826283007856,-3.1506098102897404,2.955170824819803
1788862274002352400,3.107352294921875,2.567315416571498,-2.203248880189657,0.7393366038233041
1788862274012359400,3.117359375,-0.29237792228646575,-1.5003648149728774,-0.26847441106438635
1788862274022365700,3.12736572265625,-4.462327784150839,-1.5858958572641013,0.28323534234464165
1788862274032371500,3.137371337890625,-7.954928492614626,-2.2035683214023707,1.267174483257532
1788862274042378500,3.14737841796875,-8.560729317173362,-3.1376743408709764,2.0027321530640125
1788862274052384300,3.15738427734375,-6.6172688527673476,-4.14462990797311,3.214658796352148
1788862274062391600,3.1673916015625,-3.9490918460428714,-4.626447794510423,4.477759746560454
1788862274072397600,3.1773974609375,-1.8788328016728162,-4.008880836573243,4.699064410170912
1788862274082403300,3.1874033203125,-0.5828875664830208,-2.818920525899529,3.893382818302512
1788862274092410600,3.19741064453125,0.08087327961325645,-1.6690733221665024,2.8167215545505284
1788862274102416600,3.207416748046875,-0.6783727973598986,-0.8623647253379225,1.9856413175314664
1788862274112423400,3.21742333984375,-2.6199498591721055,-0.6527846940517426,1.7179805609375238
1788862274122429400,3.227429443359375,-4.01843543138206,-1.0487944749221205,1.8819371974289416
1788862274132435500,3.237435546875,-3.387697149443626,-1.753485443430394,2.2373498872339725
1788862274142442500,3.2474423828125,-1.9147879121512172,-2.1121587424665687,2.738908831551671
1788862274152448500,3.257448486328125,-2.0300386776626107,-1.9840197076790034,3.1236697809159755
1788862274162454300,3.267454345703125,-2.0748541170753536,-1.6258797848671673,3.0389784043192862
1788862274172461600,3.277461669921875,-1.4560913734823464,-1.3253726974651217,2.9910972937256095
1788862274182467600,3.287467529296875,-1.3320780403226613,-0.7579168741960078,2.833001658222079
1788862274192474400,3.297474365234375,-2.043214385578036,0.1590440953347832,2.6745857047230004
1788862274202480600,3.307480712890625,-2.9004356105476616,0.6830757874190807,1.9729969400137661
1788862274212486400,3.317486328125,-1.6631436398565769,0.4993287010475993,1.309873807299137
1788862274222493400,3.327493408203125,-0.28825916185602546,0.010087094250321388,0.7275292616516351
1788862274232499500,3.33749951171875,-0.18859306509792803,-0.2733615437851287,0.8728589390844106
1788862274242506500,3.347506591796875,-1.4337790039092302,-0.36189112857151773,1.5220441473394632
1788862274252512500,3.357512451171875,-1.9671499675512312,-0.584312082860805,2.1062246762424706
1788862274262518500,3.3675185546875,-1.2115871091354637,-0.5254892339488492,2.248063004428148
1788862274272525600,3.377525634765625,-0.8366764495909214,0.034834938208898526,2.475903791809082
1788862274282531600,3.387531494140625,-1.0508166283994913,0.6554370351914316,2.714780352467298
1788862274292538400,3.397538330078125,-1.2639251260727644,0.6092608288194984,2.7549077801942823
1788862274302544400,3.40754443359375,-0.8738977075476199,0.01384398083211854,2.677653860121965
1788862274312550700,3.417550537109375,-0.21765490893125533,-0.15104765322078018,2.829849916192889
1788862274322557400,3.427557373046875,-0.14345613864585757,0.07833961468348279,2.5716899783939122
1788862274332563500,3.4375634765625,0.3871480636965483,0.505915897418186,2.3197312333226203
1788862274342569500,3.447569580078125,1.0904844757907093,0.20465196376685052,2.0919377922147513
1788862274352576500,3.457576416015625,0.36560265990793706,-0.029665399217046796,1.8730442813992498
1788862274362582500,3.46758251953125,-0.6042598787270486,-0.34304139360766855,1.7329706247985361
1788862274372589600,3.477589599609375,-0.816683316745609,-0.5861529980197548,1.544528950870037
1788862274382595600,3.487595703125,-0.3648205696195364,-0.542484025228396,1.4625754748046398
1788862274392601600,3.4976015625,0.09453706330657005,-0.4333130545547232,1.5826590672999619
1788862274402608400,3.5076083984375,0.13367540693096816,-0.6392608302857726,1.8833944104999303
1788862274412614700,3.51761474609375,0.1024615726955235,-0.8459221245810389,1.7692074748277664
1788862274422621400,3.527621337890625,0.5511756465323269,-0.7790079583458602,1.48221365673244
1788862274432627500,3.53762744140625,0.7048533194631338,-0.5037188988305628,1.4438883099913595
1788862274442633500,3.547633544921875,0.1279003306608647,-0.4134444248719141,1.491827288252115
1788862274452640500,3.557640625,-0.3990696068324148,-0.4617153750333935,1.2880471754163503
1788862274462646500,3.567646484375,-0.4057682276882231,-0.5532768200626597,1.113093344092369
1788862274472653300,3.5776533203125,-0.3645559273339808,-0.5263399690266698,1.0793185002624988
1788862274482658800,3.587658935546875,-0.4111509436398744,-0.6687587274488062,0.8852560638427733
1788862274492664800,3.597664794921875,0.3193265733581036,-1.18928394578211,0.788272776427865
1788862274502672000,3.607671875,0.9323130716372281,-1.2101538614619523,0.8313269052565098
1788862274512678000,3.617677978515625,0.8002297562032937,-0.3295218772232532,0.6953583458870649
1788862274522685000,3.627684814453125,-0.029006387319043276,-0.22627171143330632,0.7615297309309244
1788862274532690700,3.637690673828125,-0.15732107093445954,-0.40345052533037956,1.2192857738792895
1788862274542697000,3.647697021484375,-0.719582686561346,-0.23852124441452324,1.1672884601384401
1788862274552703700,3.657703857421875,-1.4076146350830792,-0.17071882410272954,0.7469792275309562
1788862274562709800,3.667709716796875,-0.8273708611071109,-0.19200638067275286,0.9344313059002161
1788862274572715800,3.6777158203125,-1.357670162218809,-0.4534852337613702,0.5219979212343693
1788862274582722800,3.687722900390625,-1.5848445946455,-0.469410824906826,0.2950999676615
1788862274592728800,3.697728759765625,-1.12825408834517,0.23472747815474868,0.4328565794914961
1788862274602735900,3.70773583984375,-1.3595125752151012,0.9180226074129343,0.48040158999860283
1788862274612742000,3.717741943359375,-2.303904718637466,1.6506642436422407,0.6487456477940082
1788862274622748000,3.727747802734375,-2.301743156689405,1.8248593655534087,1.076712701678276
1788862274632754700,3.737754638671875,-2.055376532536745,1.346402772142738,0.8596236099362373
1788862274642760700,3.7477607421875,-2.2281308079898356,0.6267690860465168,-0.16146423515379427
1788862274652768000,3.75776806640625,-2.2107786911725995,0.08461144322827457,-0.8627303437799215
1788862274662773800,3.767773681640625,-2.3216122247636317,-0.7357438400283456,-1.7199246807426214
1788862274672779800,3.77777978515625,-2.7549334991574286,-1.0970099320366977,-2.972948473572731
1788862274682786800,3.787786865234375,-2.777380308765173,-0.6110667822629213,-2.948490324142575
1788862274692792800,3.797792724609375,-2.9661972457468506,-0.019584698174893854,-2.0179221234112976
1788862274702800000,3.8077998046875,-3.654040393698215,-0.2268783720895648,-0.7785323036581278
1788862274712805600,3.8178056640625,-3.4742125265970825,-1.1634256472304463,1.153929796871543
1788862274722812000,3.82781201171875,-3.2250574407696724,-1.5934093016341329,1.9449007263422011
1788862274732819000,3.83781884765625,-3.2140053008794784,-1.4931708118155598,0.7015992861032485
1788862274742824700,3.84782470703125,-2.7929943497434255,-1.777848461923003,-1.0527782838612794
1788862274752832000,3.85783203125,-2.007050600785017,-2.196937797346711,-2.018691354218125
1788862274762837800,3.867837646484375,-0.22546938207447528,-2.478408760367334,-1.5322756184965372
1788862274772843800,3.87784375,1.04111151920408,-2.0492118724271653,-0.3670207100123167
1788862274782850800,3.887850830078125,0.26210078437924383,-1.149269111584127,0.5409644875109195
1788862274792856800,3.89785693359375,-1.378467158792913,-0.19214608140438794,1.1477245124906301
1788862274802863900,3.90786376953125,-2.4737170954197643,0.2170578198209405,1.818852672484517
1788862274812870000,3.917869873046875,-3.0410686545968053,0.18212591491043567,2.1714999892294404
1788862274822875600,3.927875732421875,-3.116519909161329,-0.5482049601584673,2.3404829294502734
1788862274832883000,3.937883056640625,-1.8696183986037969,-1.5959280064567922,1.4613859727591276
1788862274842889000,3.947888916015625,-0.24776830764412877,-2.5667019608482717,-0.8224801664561032
1788862274852895700,3.957895751953125,0.9576213350906968,-3.093772655302286,-2.9657927565991877
1788862274862902000,3.967902099609375,1.798210866472125,-3.2716265919819474,-3.655469549718499
1788862274872907800,3.97790771484375,2.5105787993490694,-3.1614974072679876,-3.4706261925429103
1788862274882914800,3.987914794921875,3.1419051103085276,-2.1294252268269656,-3.2159196100682017
1788862274892920800,3.9979208984375,2.709043854641914,-1.3385530815556645,-2.5246213532269
1788862274902928000,4.007927978515625,1.6953157246649264,-0.8249559089198708,-1.9910294403105973
1788862274912934000,4.017933837890625,0.21560206805467605,-0.9454378530830144,-1.460898481503129
1788862274922940000,4.02793994140625,-0.6716448773443698,-1.4456035894766448,-1.0394412479043007
1788862274932947000,4.037947021484375,0.09359072236716746,-1.2847905117079614,-1.3351532099843024
1788862274942953000,4.047952880859375,1.4687673151820897,-0.6399810343191027,-1.8490683625280857
1788862274952959700,4.057959716796875,2.175919559237361,-0.0019245383217930793,-2.0896406211882828
1788862274962966000,4.067966064453125,2.2215216189831493,0.28894086050987244,-1.5413433065712452
1788862274972972000,4.077971923828125,2.1570126141935586,0.24893472107499837,-0.8659966520994901
1788862274982978800,4.087978759765625,2.0578853004872797,0.3161190825536847,-0.9028338061094283
1788862274992984800,4.09798486328125,1.7597066560328005,0.32816111026406286,-1.4979460633933543
1788862275002991900,4.107991943359375,1.8757266523510217,0.003833586813509464,-1.1948416529744863
1788862275012998000,4.117997802734375,1.2317875280559063,-0.20886136162281035,-0.30875849065780636
1788862275023004000,4.12800390625,0.07880407212376594,-0.5998366554573178,0.03556815698742866
1788862275033011000,4.138010986328125,-0.5717962636262178,-0.8606234346285462,-0.05915536880195141
1788862275043017000,4.148016845703125,-0.8681921163171529,-0.5937845158115029,-0.15687018536180256
1788862275053023700,4.158023681640625,-0.21834756737053393,-0.28560090243220326,0.6135816876932978
1788862275063029800,4.16802978515625,0.5368190582692622,0.16868834118843076,1.111336563552916
1788862275073036000,4.1780361328125,1.2694950351595877,0.45861529012620444,1.556140478208661
1788862275083042800,4.188042724609375,0.5297416672289371,0.43221068280339237,2.2112205897212025
1788862275093048800,4.198048828125,-0.05630348650217056,-0.008946692043542861,2.6001415813744067
1788862275103056000,4.208055908203125,-0.5854127010464668,-0.09270108005106449,2.4288985872671005
1788862275113062000,4.218061767578125,-0.4043640599787235,0.06733107647299766,2.5543168187886476
1788862275123068000,4.22806787109375,0.008442834174633025,0.21728052266091108,2.7628929337292907
1788862275133074700,4.23807470703125,0.12625672817230224,0.5597638805270194,2.846980206952989
1788862275143081000,4.2480810546875,-0.39353988362550735,0.8424933191761373,2.8739716742530463
1788862275153087700,4.258087646484375,-0.1836754824399948,0.7830427668198943,2.6845085483223197
1788862275163093800,4.26809375,0.7670002712965012,0.13188625849187374,2.1852345000714064
1788862275173099800,4.278099853515625,1.144018643710017,-0.45388270864635705,1.6859347328573464
1788862275183106800,4.28810693359375,0.4449316326886415,-1.178924537396431,1.7005100784376264
1788862275193112800,4.29811279296875,0.093371526658535,-1.6609271328508852,2.066320974268764
1788862275203119900,4.308119873046875,-0.04223053748607635,-1.5562269874483345,2.140012379553914
1788862275213126000,4.3181259765625,-0.22023849568367004,-0.888697728729248,1.414689834166318
1788862275223132000,4.3281318359375,-0.34594577327966686,0.1582780063331127,-0.11962065115869044
1788862275233138700,4.338138671875,-0.15100772306919097,0.5888876836806536,-0.9989996396616101
1788862275243144700,4.348144775390625,0.3693406773924827,0.17593115192353725,-1.1151944080248475
1788862275253152000,4.358152099609375,0.8561065417259931,0.012761866417527199,-1.8158366856642065
1788862275263157800,4.36815771484375,1.1427239277243613,0.21924890012443066,-2.504287005728483
1788862275273163800,4.378163818359375,1.5572808804154394,0.38125849420130253,-2.0839067537114024
1788862275283170800,4.3881708984375,2.1348130573451516,-0.0632294863730669,-1.2948404888182878
1788862275293176800,4.3981767578125,2.226809788519144,-0.7014104855328798,-0.6765167942296714
1788862275303184000,4.408183837890625,0.7931997114360332,-0.4490682941019535,-0.4836760816246271
1788862275313189600,4.418189697265625,-0.949379284185171,0.2435328620314598,-0.05953918048776686
1788862275323196000,4.42819580078125,-1.2668266927331686,-0.04060030593574047,0.5884192624513059
1788862275333203000,4.438202880859375,-0.542731497183442,-0.6967232044994831,0.47153395454064007
1788862275343208700,4.448208740234375,-0.3503939848601818,-0.591930704638362,-0.05257810930348932
1788862275353216000,4.458216064453125,-0.13828268153071402,0.051832478567957876,-0.03156045571602881
1788862275363221800,4.4682216796875,0.20731588574647902,0.38020109410285946,0.36356698936186727
1788862275373228800,4.478228759765625,1.100258412438631,0.5166659125566482,0.5465643533445894
1788862275383234800,4.48823486328125,1.6167074673742055,0.8192962757229805,0.535353661891818
1788862275393240800,4.49824072265625,1.1114841553300618,1.0474567965775727,0.5595310216192155
1788862275403247900,4.508247802734375,-0.2603366973161697,1.1929910566717385,0.23253186780661342
1788862275413254000,4.51825390625,-1.2695008803784846,0.8265601292461157,-0.7617629551649093
1788862275423261000,4.528260986328125,-0.923349355393648,0.09004208997488021,-1.1264563912734389
1788862275433267000,4.538266845703125,-0.8985837474495172,-0.08166296868622303,-0.8307694175042212
1788862275443272700,4.548272705078125,-0.9384060547500849,-0.2851683562338352,-0.06943776642866432
1788862275453279700,4.55827978515625,-1.0518792891949416,-0.5125514629751443,0.18395408018566667
1788862275463286000,4.5682861328125,-0.6037433075070381,0.061171969321370125,0.9436892558500171
1788862275473292800,4.578292724609375,-0.7928758863091468,1.0492495252132414,1.7436730744682252
1788862275483298600,4.588298583984375,-0.42436347643434996,0.885049727615714,1.8825906929016112
1788862275493304600,4.5983046875,0.33086101687252517,-0.20582593944966793,1.8325369144439696
1788862275503311400,4.608311279296875,-0.022535656934976576,-0.8899737400144339,1.4607783622547983
1788862275513317600,4.618317626953125,-1.1466928313553333,-0.8367039221197367,0.9087953448623418
1788862275523324400,4.628324462890625,-2.041511673313379,-0.8005588420271873,0.4997722800966352
1788862275533330400,4.638330322265625,-1.9820751494824884,-0.9611106385111808,0.7238920741930603
1788862275543337500,4.64833740234375,-1.5710060389071703,-0.9159387868762016,0.8636313842728733
1788862275553343500,4.658343505859375,-1.264289283210039,-0.7151081714957952,0.37883587016426024
1788862275563349500,4.668349609375,-0.8277239123284816,-0.3745055128097534,0.019187150224670768
1788862275573356300,4.678356201171875,-0.07692424972653389,0.06095803430974483,0.3314848478592932
1788862275583362600,4.688362548828125,0.35447745478153225,0.5355068066269159,0.6725418992493302
1788862275593369600,4.69836962890625,0.30268063204884527,0.8065513604402542,0.5383930295877158
1788862275603375400,4.708375244140625,0.48732057560682296,0.8997866934984922,0.3791805919487029
1788862275613381400,4.71838134765625,0.6843816093206405,0.9537029926031827,0.6345663888592272
1788862275623388400,4.728388427734375,0.3458189320296049,0.938551016178727,1.05700868797265
1788862275633394400,4.73839453125,0.06610124241709708,0.8972826017230748,1.1012006617248058
1788862275643401500,4.7484013671875,-0.010138532176613807,0.9308341581910848,0.5569366942770779
1788862275653407500,4.758407470703125,0.02694996624588966,0.8800538190245628,-0.10650237251892686
1788862275663413500,4.76841357421875,0.05562894824147224,0.9158750739902257,-0.426573919025436
1788862275673420500,4.778420654296875,0.006106500181555748,0.9416700249820947,-0.6737753865670413
1788862275683426300,4.78842626953125,-0.5577969643682241,0.8140764952480792,-1.0061357751518487
1788862275693433600,4.79843359375,-1.3451321676850319,0.714487409248948,-0.7626177453633397
1788862275703439400,4.808439453125,-1.825611499094963,0.5519786334782838,-0.03902721140012145
1788862275713446400,4.8184462890625,-1.4370663550168274,0.07360884156823158,0.4665196335099637
1788862275723452700,4.82845263671875,-0.8693740195780992,-0.22066461214125155,0.4113709430661052
1788862275733458400,4.83845849609375,-0.16203648208379745,0.10329787738919258,0.22657566281594335
1788862275743465500,4.848465576171875,0.06323883872330188,0.7491279299974442,0.3338550110567361
1788862275753471500,4.858471435546875,0.0494914683997631,1.0175281067818402,0.5031532277718186
1788862275763478500,4.868478515625,-0.041598669323325156,0.8264245201677084,0.7677902526304126
1788862275773484500,4.878484619140625,-0.25173954936265946,0.5450111325532198,1.1899273582521825
1788862275783490300,4.888490234375,-0.013777765461802483,0.30280805782079695,1.3211195700652896
1788862275793497600,4.89849755859375,0.14170271910727023,0.26270693357884883,1.30701491073668
1788862275803503600,4.908503662109375,-0.547021303331852,0.31031390340626236,1.3081041672781109
1788862275813510400,4.918510498046875,-1.531596988582611,0.3285299435764551,1.3116460776686667
1788862275823516400,4.928516357421875,-1.8802479291677474,0.3521291380897164,1.5983426663830875
1788862275833523500,4.9385234375,-1.309187578600645,0.3807628196388483,1.8527716009601949
1788862275843529500,4.948529541015625,-0.6415063441902399,0.39312545760571954,1.7692011912174521
1788862275853535500,4.958535400390625,-0.2795639603555202,0.568241201493144,1.7276716416075826
1788862275863542500,4.96854248046875,0.0011959317862987517,0.7787503303229808,1.5998219451554119
1788862275873548500,4.978548583984375,0.5391559767842292,1.0965504978314042,1.3530813731238245
1788862275883555300,4.988555419921875,-0.031924247527122494,1.4319345450863241,0.6096183370202779
1788862275893561300,4.998561279296875,0.1535848800808191,1.4938447655543685,0.34328649094253777
1788862275903568400,5.008568359375,0.3460030564248562,1.134102814373374,0.3913968071822077
1788862275913574400,5.018574462890625,0.4607523021548986,0.5109861133545637,0.34864531456194814
1788862275923580400,5.028580322265625,0.6124141052186489,0.1054299209818244,0.32096118882261215
1788862275933587500,5.03858740234375,0.4796861352056265,0.007068915472924709,0.408885263730213
1788862275943593500,5.048593505859375,0.5994751286685467,-0.13551789299249647,0.6277515212126076
1788862275953600500,5.0586005859375,0.5966401975035667,-0.21417495786100624,0.5021509188614786
1788862275963606300,5.068606201171875,-0.07854980510175227,0.2967319527775049,-0.6155078334502876
1788862275973612500,5.078612548828125,-0.22077800938785075,1.5560162673071025,-1.4918280189044772
1788862275983619300,5.088619384765625,0.633497809779644,2.122405995714664,-0.13649535972252488
1788862275993625300,5.098625244140625,0.44039048212766646,1.1745520214006304,1.132049388974905
1788862276003632600,5.108632568359375,0.2584773331850767,-0.5086801744997501,1.019494146157801
1788862276013638400,5.118638427734375,0.7922808430254459,-1.4218465740531683,0.45956996050253507
1788862276023645400,5.1286455078125,-0.3205342686474323,-0.8019722159564494,-0.2851179412208497
1788862276033651700,5.138651611328125,-1.8160265091478824,0.45837475936859845,-0.4685340420722961
1788862276043657500,5.148657470703125,-2.275883323767781,0.7833923109099269,-0.15736030696630476
1788862276053664500,5.15866455078125,-2.1128063927203415,0.017037644040584565,-0.29471915165036916
1788862276063670300,5.168670166015625,-1.9291992993414402,-0.9923767143905162,-0.38997225427180526
1788862276073677600,5.178677490234375,-1.3939467597365378,-1.3638605412915348,-0.07867664635181426
1788862276083683600,5.18868359375,-0.12424714191555976,-0.756203859733045,0.8948017446927726
1788862276093690400,5.1986904296875,0.7210954292118549,-0.031500469157099725,1.503798150422424
1788862276103696600,5.208696533203125,0.3688286362171173,0.08986322627663612,1.3059212702810763
1788862276113702700,5.21870263671875,-0.34743688862025734,0.08847031061351299,1.0115162991464137
1788862276123709400,5.22870947265625,-0.6583540186166763,0.36265520827919245,1.003336207561195
1788862276133715500,5.238715576171875,-0.5136129547268152,0.7271823479101062,0.905135945571959
1788862276143722500,5.248722412109375,0.2671346868932247,0.7781497340813278,0.47201560057774183
1788862276153728500,5.258728515625,0.8446528352975845,0.4132099219962954,0.13546718571856617
1788862276163735300,5.2687353515625,0.6460825660645961,0.03014583967775106,0.30659999744966626
1788862276173741600,5.278741455078125,0.30157647019922734,0.04018208052366972,0.7710254351593554
1788862276183747600,5.28874755859375,0.4521043007969856,0.5286579636454581,1.032079194703698
1788862276193754400,5.29875439453125,0.5887818852186203,0.620356880916655,1.0014470328137277
1788862276203760400,5.308760498046875,0.6436468633502721,0.056602469448745245,0.6087906540244817
1788862276213767400,5.318767333984375,0.7010486664831638,-0.6456108568996191,0.34589784248471256
1788862276223773400,5.3287734375,0.3118073568344116,-1.080847609525919,-0.03984057360962033
1788862276233779500,5.338779541015625,-0.2687736862719059,-0.7317242291234434,-0.543580222967267
1788862276243786500,5.348786376953125,-0.25478783101737495,-0.22259061176776884,-0.6973645711429417
1788862276253792500,5.35879248046875,-0.3326046456694603,0.20103373673707245,-1.1162808880873023
1788862276263799600,5.368799560546875,-0.07144727962017058,0.8670409004554152,-1.2692676561444998
1788862276273805300,5.378805419921875,1.3896727356791496,0.11432473670765757,-0.09897314605787395
1788862276283812600,5.3888125,0.6105541565656661,-0.8843833726614713,-0.2637637491554022
1788862276293818400,5.398818359375,-0.5172884283691644,-1.1068063727773725,-0.8820821099817753
1788862276303824400,5.408824462890625,-0.6292962664365768,-1.234112902263552,-1.2622254825480281
1788862276313831700,5.418831787109375,-0.31791794866919515,-1.0981981189079582,-1.6823269176237283
1788862276323837400,5.42883740234375,0.15785422796308993,-0.287222073893249,-1.4980490853764117
1788862276333844500,5.438844482421875,0.24744214442968368,1.1133186772808432,-1.0164223374970256
1788862276343850500,5.4488505859375,0.5358996053367853,1.3802508273392915,-0.2573908531226218
1788862276353857500,5.458857421875,0.5919008940219879,0.6928003319673239,0.8158873440623283
1788862276363863600,5.468863525390625,1.1176976230174303,0.19627485177218912,1.56560710247308
1788862276373869300,5.478869384765625,1.6697428919911383,0.37326588801220056,1.3431385096497832
1788862276383876600,5.488876708984375,1.792764876025915,0.9418700775988399,0.7238285074375569
1788862276393882600,5.498882568359375,1.9517817180275916,1.3613055961117149,0.7586379550121725
1788862276403889400,5.508889404296875,1.9176093993127346,1.513373641888797,1.1802815049633384
1788862276413895400,5.5188955078125,1.5374708490520714,1.8694281367287038,1.02609383668378
1788862276423902500,5.52890234375,1.4018366362035273,2.1792465117029844,0.38741380196064706
1788862276433908500,5.538908447265625,1.5455308213889598,2.033374544087052,0.4526629575930535
1788862276443914500,5.54891455078125,1.5810872879385947,1.073057394041121,1.573224007217586
1788862276453921500,5.558921630859375,0.6953741279780864,0.4030401178985834,1.5674686585612594
1788862276463927600,5.568927490234375,-0.07059153957366943,0.6357251304402947,0.7305361883826553
1788862276473934300,5.578934326171875,-0.6063274787813425,1.2145970315411687,0.2830250605948269
1788862276483940600,5.588940673828125,-0.672804568773508,1.466924317663908,0.19932590990588067
1788862276493947600,5.59894775390625,-0.30298984412848945,1.3550900825977326,0.3201256878465414
1788862276503953700,5.60895361328125,-0.07456921103298664,0.9404662021502852,0.672767159372568
1788862276513959700,5.618959716796875,-0.3263385710120201,0.3338125601544976,0.937881738615036
1788862276523966500,5.628966552734375,-0.39371407114863394,-0.42852088837474583,0.9758926125794648
1788862276533972700,5.63897265625,-0.5275917957186699,-0.8936012828618287,0.5843513554252684
1788862276543979500,5.6489794921875,-0.5147580331087113,-0.7347112821102142,0.22718451542928814
1788862276553985500,5.658985595703125,-0.3262497236847877,-0.570044743783772,0.22784305240325628
1788862276563992800,5.668992919921875,-0.35850831773281094,-0.4651537519842386,0.5394830898467451
1788862276573998600,5.67899853515625,-0.2852560345172882,-0.2753200391754508,0.9436777115426958
1788862276584004600,5.689004638671875,-0.186733700966835,-0.026659166605770588,0.9724226714465767
1788862276594011600,5.69901171875,-0.17324761192798613,0.3421080948129296,0.6963861545648425
1788862276604017700,5.709017578125,-0.11465455318391322,0.7797896102428435,0.408859252506122
1788862276614024700,5.719024658203125,0.5353039775311946,0.9746206929475069,0.34261812669429925
1788862276624030500,5.729030517578125,1.1354618277668953,1.0360784934729337,0.14688289822414516
1788862276634037800,5.739037841796875,0.9507394666224718,1.5461629818126559,-0.38795927048157897
1788862276644043800,5.749043701171875,0.6920388460755348,2.234595327828824,-0.8313108309045434
1788862276654050600,5.759050537109375,0.6614286037564278,2.2679957853883503,-0.7669142004482448
1788862276664056600,5.769056640625,0.4861959554910659,1.4648460500851272,-0.7738210572272539
1788862276674062800,5.779062744140625,0.3190957602769136,0.4784197685316205,-0.9574012625992298
1788862276684069600,5.789069580078125,0.19259996265172957,0.2462257543772459,-0.49865050952509044
1788862276694075600,5.79907568359375,0.10803893443644046,0.7593094245329499,0.06338981433419975
1788862276704082700,5.809082763671875,0.22638065170049665,1.2994085273861884,0.21243308262974023
1788862276714088700,5.819088623046875,0.6697264765024185,1.3099603165388107,0.20816291276356205
1788862276724095500,5.829095458984375,0.9751005854189395,0.8899690638393163,0.3864282980546355
1788862276734101500,5.8391015625,0.8184627475082874,0.6943465384960175,0.8952528494611381
1788862276744107800,5.849107666015625,0.3364402783095836,0.9793979903519153,1.547170843680948
1788862276754114600,5.859114501953125,0.269314369019866,1.0245569825053213,1.7101719330132006
1788862276764120600,5.86912060546875,0.20346271744966507,0.9255103328198194,1.157794801736623
1788862276774127600,5.879127685546875,-0.3432996426850557,0.9049158730804919,0.6671881901964545
1788862276784133600,5.889133544921875,-0.8261749293208122,0.47351299952864645,0.7112329374976456
1788862276794140700,5.899140625,-0.9072165512382984,-0.4260439768671989,0.567904663015157
1788862276804146400,5.909146484375,-0.5773375311404466,-1.2147580673217773,0.05088489551953971
1788862276814153700,5.91915380859375,-0.7720581392079592,-1.4290204112052918,-0.026675679349154234
1788862276824159700,5.92915966796875,-2.222424705302715,-1.2775912478536366,-0.04111526972055435
1788862276834165500,5.93916552734375,-1.502583075544238,-1.74501177572608,0.6770335846453904
1788862276844172800,5.9491728515625,-0.9657610946655273,-3.0065894618898628,1.3070254321306942
1788862276854178600,5.959178466796875,-2.280519751396775,-3.607199732068181,0.7816412294588982
1788862276864185600,5.969185546875,-3.0155677181154488,-2.9818916584849355,0.26517909584604205
1788862276874191600,5.979191650390625,-2.266128237950802,-1.9239058691084383,0.20407580784671006
1788862276884198700,5.98919873046875,-0.47187341562807555,-1.6525976959228514,0.5319909074604511
1788862276894204700,5.99920458984375,0.18760756119191646,-1.6057359915047884,0.884703836787492
1788862276904210700,6.009210693359375,0.657991030523181,-0.8587889126777648,1.2817827081941067
1788862276914217700,6.0192177734375,1.1709715325653551,0.5437409664869308,1.0669977286759764
1788862276924223700,6.0292236328125,1.5885323432475327,1.5485931315690278,0.9093136696480214
1788862276934230500,6.03923046875,2.0818512824863196,2.016429839026928,1.3255506843805311
1788862276944236800,6.04923681640625,2.507406014531851,2.2180559886991977,2.1798834944322705
1788862276954243600,6.05924365234375,2.0704145271927117,2.1842419819027183,2.7184780379414555
1788862276964249600,6.06924951171875,0.7939011377036571,1.9509183791965246,2.2692153903111816
1788862276974256600,6.079256591796875,-0.5595692347377539,1.6607564524590968,1.4348331891372799
1788862276984262700,6.0892626953125,-1.3964257170706986,1.4699632469683885,0.8849382300652563
1788862276994268700,6.0992685546875,-1.4113216729074716,1.4046744899779557,0.6733502199575304
1788862277004275500,6.109275390625,-0.5201373880594968,1.4861574259221553,0.6442608305301517
1788862277014281700,6.11928173828125,0.9770943895846604,1.7089245633006094,0.42167354323063044
1788862277024288800,6.129288818359375,2.034492149940133,1.8150567873328922,0.1915476405872032
1788862277034294500,6.13929443359375,1.8245085062891244,1.665994937634468,0.0783814810638316
1788862277044301800,6.1493017578125,1.0991606803297995,1.3192068683117628,0.18657441875189543
1788862277054307600,6.1593076171875,-0.2562631642669439,0.687036507743597,0.285053223687876
1788862277064314600,6.169314697265625,-0.851399386948347,0.29794542022049425,-0.24787213334478436
1788862277074320600,6.179320556640625,-0.15647592534720897,-0.02250292370915413,-0.8027680425092577
1788862277084326700,6.18932666015625,0.21494272736310957,-0.2706780585885048,-1.1227572444945573
1788862277094333700,6.199333740234375,-0.03328209187686443,-0.5984037000447512,-1.3702002657070755
1788862277104339700,6.209339599609375,-0.7253887424916029,-0.9943617507278919,-1.5350950598314403
1788862277114346800,6.2193466796875,-1.3280395785868166,-1.5337538743555545,-1.291345047917962
1788862277124352800,6.229352783203125,-1.2306477103710174,-2.050821937972307,-0.5134948082398623
1788862277134359600,6.239359619140625,-1.0566010570198296,-2.328543485331535,-0.06770014724740758
1788862277144365600,6.249365478515625,-1.4417542205721139,-2.671516380280256,-0.11371588409431278
1788862277154372600,6.25937255859375,-1.351504625326395,-2.983004003641009,-0.3125751263365149
1788862277164378600,6.269378662109375,-0.12021277183294296,-3.2652743003457783,0.0376973327695392
1788862277174384600,6.279384521484375,0.3232476192593574,-2.715939459374547,0.15978273007394744
1788862277184391700,6.2893916015625,0.3177934455066919,-1.6704139231204986,0.08614879059707746
1788862277194397700,6.299397705078125,0.6073977383613586,-0.9307067324191332,0.43489327295087277
1788862277204404500,6.309404541015625,1.876451459494233,-0.7922206372708082,1.586456121495366
1788862277214410500,6.319410400390625,2.585908473360538,-0.7078104157030582,2.721970263971388
1788862277224417800,6.329417724609375,1.469623055228591,-0.32413959966301914,2.6645930107578635
1788862277234423600,6.339423583984375,-0.7417828279316425,-0.29734044006466864,1.3648298247151076
1788862277244430600,6.3494306640625,-3.3736271230369805,-0.8792267205506563,0.04042438311325386
1788862277254436600,6.3594365234375,-4.2383477638512845,-1.7811463344246148,0.7198509090434759
1788862277264442600,6.369442626953125,-3.998883758693933,-2.371359129229188,2.250308153006434
1788862277274449700,6.37944970703125,-4.250556672561168,-2.5118302607148886,2.5550273051455616
1788862277284455400,6.389455322265625,-3.853928175270557,-2.684181800585985,2.2857200965188444
1788862277294462700,6.399462646484375,-1.8848463628739118,-2.5883909378260372,1.9197617550410329
1788862277304468700,6.40946875,1.33952192658782,-2.2037778724998236,1.3356051915355025
1788862277314475500,6.4194755859375,3.490148054614663,-1.2332798124402762,0.17691563291624188
1788862277324481800,6.429481689453125,4.603787926673889,-0.07342354812920093,-0.3264774314934388
1788862277334488600,6.439488525390625,5.186772523790598,1.0117454317271708,0.1734279917298816
1788862277344494600,6.44949462890625,4.335556092193722,2.0756816539406775,1.0420197931554167
1788862277354500600,6.45950048828125,2.7736919756412504,2.6094272961139677,2.116490926451981
1788862277364507600,6.469507568359375,1.052551489368081,2.5712825666368007,3.2107144426405427
1788862277374513700,6.479513671875,-0.40683717209398745,2.064302181792259,4.291206078335643
1788862277384520400,6.4895205078125,-1.6770324644774197,1.1110066009461879,5.049817291471362
1788862277394526700,6.499526611328125,-2.3180822970718142,0.1685650070697069,5.428564679634571
1788862277404533500,6.509533447265625,-2.0096979004234075,-0.2845803272128105,4.737864388686418
1788862277414539500,6.51953955078125,-0.661857058301568,0.012006079614162444,3.109406570024788
1788862277424546800,6.529546875,1.322190268036723,0.635610856410861,2.04518422434628
1788862277434552600,6.539552490234375,2.456708677473664,1.1763368589907883,2.3026086874775586
1788862277444558600,6.54955859375,1.538715880677104,1.2140402744412422,2.666877030041814
1788862277454565600,6.559565673828125,0.4147118509918451,0.6801859111964702,2.6333541151463984
1788862277464571600,6.569571533203125,-0.4099018203616142,0.20229601175785064,2.003120567859709
1788862277474578700,6.57957861328125,-0.6475105530411005,-0.08300327737927436,1.2855454217284916
1788862277484584700,6.589584716796875,-0.24082944829165934,-0.198197928789258,1.268328183337301
1788862277494591700,6.599591796875,-0.3423801897525787,-0.3913374051451683,1.5028009560786186
1788862277504597800,6.60959765625,-0.7098837148457765,-0.824278740310669,1.5130409028030931
1788862277514604800,6.619604736328125,-0.9670423666477203,-1.4027239404320717,1.1853441951803863
1788862277524610800,6.62961083984375,-1.3086445577651262,-1.6550667163848876,0.7171242605585605
1788862277534616800,6.639616943359375,-1.3633224888920783,-1.487840264442563,0.6505095887266099
1788862277544623600,6.64962353515625,-0.7333376556694507,-1.3240519702553748,1.1865660651255399
1788862277554630000,6.6596298828125,-0.4572849183052778,-1.340804952135682,1.5829177182361482
1788862277564636700,6.66963671875,-0.394400299847126,-1.458912276121974,1.73012867937088
1788862277574642700,6.679642578125,-0.08978314677774905,-1.6370616886168718,1.9289540924087165
1788862277584649700,6.689649658203125,0.30120880593061444,-1.708621196439862,2.28120071939826
1788862277594655700,6.69965576171875,0.31282325587868687,-1.5512275717258452,2.5022566689446566
1788862277604662800,6.709662841796875,0.013846154522895813,-1.1701000104278325,2.5296032332926988
1788862277614668500,6.71966845703125,-0.09245090468227862,-0.41572950360178945,2.604628079138696
1788862277624674800,6.7296748046875,-0.08161386884748935,0.5829249758839606,2.2086991084195673
1788862277634681600,6.739681640625,-0.20427344931066035,1.021278983747959,1.3909272657848895
1788862277644687600,6.7496875,-0.17773381743133068,1.005055578699708,0.49867524210754777
1788862277654695000,6.75969482421875,0.3179477592855692,0.9027759384423494,-0.17437047847807408
1788862277664700700,6.76970068359375,1.241504619950056,0.9635475102692842,-0.3292490150986239
1788862277674707700,6.779707763671875,2.3017945946156977,1.1684750395745038,0.09237875276152044
1788862277684713700,6.789713623046875,2.8097125525712965,1.3824866235673428,0.881429783552885
1788862277694720800,6.799720703125,2.302761978343129,1.608964890423417,1.4315594281636177
1788862277704726800,6.809726806640625,1.3810171355366705,1.7305898671418427,1.6157017974629997
1788862277714733800,6.81973388671875,0.4238976124882698,1.7238614356696604,1.6983717512346803
1788862277724739800,6.82973974609375,-0.6229062731385231,1.6115893937081098,1.8148352535367012
1788862277734745900,6.839745849609375,-1.267515844041109,1.2876058613896368,1.962088592508435
1788862277744752600,6.849752685546875,-1.346978087812662,0.6607096418321132,1.965998167167604
1788862277754759000,6.859759033203125,-1.3250269527673721,-0.17642741100788115,1.9610551578074693
1788862277764765700,6.869765625,-1.080990817388892,-0.8380880699545145,2.2868320032835006
1788862277774771700,6.879771728515625,-0.7874281422972679,-1.1779010395675897,2.896165970404446
1788862277784778800,6.88977880859375,-0.8152730115562676,-1.2441647790700197,3.4209716425359247
1788862277794784800,6.89978466796875,-0.4961357502251863,-0.8011141378223896,4.0046068125158545
1788862277804791800,6.909791748046875,0.011889175236225128,0.016616203758120535,4.569215502725541
1788862277814797600,6.919797607421875,-0.10958850196599959,0.4557435340821743,4.276647976151109
1788862277824803800,6.929803955078125,-0.050776247513294216,0.32795243594944473,3.4022581742376086
1788862277834810600,6.939810546875,0.1368108554124832,-0.02244096438884735,2.5535949342548845
1788862277844816600,6.949816650390625,0.17916414249539375,-0.5733733036845922,2.1068369629219172
1788862277854824000,6.959823974609375,-0.8466261811971664,-1.1460212157040834,1.8580128626145422
1788862277864829700,6.96982958984375,-1.4744669881284236,-1.3898188661515711,1.9682363014832138
1788862277874836700,6.979836669921875,-0.6787164231657982,-1.3944097010731695,2.4540295213922856
1788862277884842800,6.9898427734375,-0.8946323794752359,-1.6022072328567505,2.5656340393558144
1788862277894849800,6.999849853515625,-2.6856144637376067,-2.331964984212816,1.9236030867695808
1788862277904855800,7.009855712890625,-3.2251445345312355,-3.1747651773810386,1.5600719724386929
1788862277914861600,7.019861572265625,-2.4889421370804308,-3.9104780377492308,2.2992644916161895
1788862277924868900,7.029868896484375,-1.7658721929252146,-4.122284220652282,3.240250625987351
1788862277934875000,7.039875,-1.1581921304911373,-3.545469252081215,2.9409122901037335
1788862277944881700,7.049881591796875,0.1314127957612276,-2.538416654345393,1.2299933381155133
1788862277954887700,7.0598876953125,2.6424960375010964,-0.8551049634680151,-0.041917233753204344
1788862277964894700,7.069894775390625,2.9030963541895147,0.7728831918552518,-0.610393997567892
1788862277974900700,7.079900634765625,2.4804198079288002,1.332501818692684,-0.3221533942818641
1788862277984907500,7.089907470703125,3.554360122284293,0.9836436650976538,0.5291410709872841
1788862277994913800,7.099913818359375,4.756209023672342,0.13762187953442334,1.6559978597551583
1788862278004920800,7.1099208984375,4.556025474023818,-0.7370066995710134,1.8246067059665918
1788862278014926600,7.119926513671875,1.6220464903146028,-0.6679533293500542,-0.11891805584728717
1788862278024932600,7.1299326171875,0.8147720762968063,0.43178895025998354,-2.527890584155917
1788862278034939600,7.139939697265625,2.8517408454835413,0.9428905066877603,-1.9793521542593835
1788862278044945700,7.149945556640625,4.669636071112752,0.7557562620960175,1.25711632284075
1788862278054952700,7.15995263671875,6.072671561712026,-0.863715117033571,4.610882268849015
1788862278064958700,7.169958740234375,6.748472974213957,-1.9135449263527988,5.641034879404306
1788862278074965800,7.1799658203125,5.021400759804249,0.6082730598911643,1.9213313424453138
1788862278084971800,7.1899716796875,2.1733973472833634,4.25605585449934,-3.7430546019300817
1788862278094978800,7.199978759765625,0.4100912054538727,6.291506620338558,-5.232599039942026
1788862278104984800,7.20998486328125,1.2027905661523342,4.958046770268679,-1.939492437557876
1788862278114990600,7.219990478515625,2.765495809704065,1.83423801927343,2.7180568899199367
1788862278124997600,7.22999755859375,4.098293396472931,-0.15590966976657508,5.7578089089602225
1788862278135004000,7.24000390625,5.3006911639153955,-0.9534607082799077,6.763441410765052
1788862278145010700,7.2500107421875,3.639781566721201,-0.16582330714613197,5.166936188942194
1788862278155016700,7.2600166015625,0.4296785339772701,1.6704202067308127,2.006352389387786
1788862278165023700,7.270023681640625,0.04924947633743286,2.7700217626959085,0.40375542656108737
1788862278175029800,7.28002978515625,1.7142717695474623,2.77639714294672,1.0916041274704038
1788862278185036500,7.29003662109375,2.551082659173012,2.4829057795256375,2.496156890764832
1788862278195042600,7.30004248046875,-0.1583750369668007,3.2705361663967367,1.9518768489651381
1788862278205049900,7.3100498046875,-5.772888989192247,5.41750727904737,-0.1763338875055313
1788862278215055600,7.3200556640625,-10.250971976357699,6.960395476973057,-1.7246958406671882
1788862278225061600,7.3300615234375,-7.964149325424432,5.91290886977911,-1.5054014939658342
1788862278235068700,7.340068603515625,-2.710491130840778,1.8318340268716216,0.8448075144026428
1788862278245074700,7.35007470703125,-1.192505318981409,-3.284286167068779,2.3935331132449207
1788862278255081700,7.360081787109375,-2.7133699011474848,-7.626786671572924,2.2716402793705464
1788862278265087500,7.37008740234375,-4.317540543031693,-10.295768564939499,1.0794330665528773
1788862278275094800,7.3800947265625,-4.559487597176433,-11.261741256529092,0.49232437524348494
1788862278285100800,7.390100830078125,-3.472568558782339,-9.497397003823519,1.5525488834574819
1788862278295107800,7.40010791015625,-1.9949422298401593,-5.659127585455775,2.492298754031956
1788862278305113900,7.41011376953125,-0.46333413534164425,-2.181699603943527,2.369296789871901
1788862278315120600,7.42012060546875,0.3257937966108322,0.4632642849758267,1.6305083214506506
1788862278325126700,7.430126708984375,2.052023130455613,2.4210431975916027,1.0908439567528665
1788862278335133000,7.4401328125,2.2283505882203576,3.9408068327784536,0.30547760582361366
1788862278345139700,7.4501396484375,1.906552583247423,4.728042667374015,0.17213574169594795
1788862278355145700,7.460145751953125,2.6390625559210776,4.421138280150294,1.297053780953586
1788862278365152800,7.47015283203125,2.57622645277977,3.300733736261725,2.6118144835114476
1788862278375158800,7.48015869140625,1.6170891601681707,1.8026152389109134,3.5263583088979122
1788862278385165600,7.49016552734375,1.1813140628814696,0.19139818564653396,4.017935372905433
1788862278395171600,7.500171630859375,0.8982347878813743,-0.8194862453371285,3.5960362407580018
1788862278405179000,7.510178955078125,0.6570464431494474,-0.8514134154736995,2.315080484907329
1788862278415184600,7.5201845703125,1.2202543266505002,-0.4923305127233267,0.9708499422371387
1788862278425191700,7.530191650390625,1.6487930429428814,-0.08592647134959697,0.0010844890347681939
1788862278435198000,7.540197998046875,1.5936352193444967,0.45674189746975896,-0.5508788190102204
1788862278445203700,7.55020361328125,1.2089192781656979,0.8066349470704793,-0.9836283944632858
1788862278455210800,7.560210693359375,0.25134675065279005,1.0102256748139857,-1.5467822827547788
1788862278465216500,7.570216552734375,-0.2748953840225935,0.7521300344228744,-1.01349534413442
1788862278475223800,7.580223876953125,-1.0181640665978193,0.05297404981851577,0.39154768689498304
1788862278485229600,7.5902294921875,-1.6195751317650078,-0.8953922579318284,1.121486566971615
1788862278495236400,7.600236328125,-1.636501716646552,-1.9658359623432158,1.1964802870269864
1788862278505242600,7.61024267578125,-1.8728379451721906,-2.554955701214075,1.0913235569633544
1788862278515249400,7.62024951171875,-1.7141688936948776,-2.601823250851035,1.492751855751127
1788862278525255400,7.63025537109375,-1.3800059126675128,-2.6817753239661455,2.0528513979732987
1788862278535262500,7.640262451171875,-1.5947569168508051,-2.87749897159636,2.0930776098996398
1788862278545268500,7.6502685546875,-1.9187340194284914,-2.8485739058852193,1.9861109808698296
1788862278555274500,7.6602744140625,-2.1467665299892422,-2.522489601895213,1.9224422262966632
1788862278565281300,7.67028125,-1.9177964463174342,-2.3192735526829957,1.9366122059464455
1788862278575287600,7.68028759765625,-1.4874772763490676,-2.3346774580419063,2.305347026400268
1788862278585294600,7.690294677734375,-1.3492390184819698,-2.4099884273529053,3.019705256311595
1788862278595300400,7.70030029296875,-1.5354869817584753,-2.420876901113987,2.951338407050073
1788862278605307600,7.7103076171875,-1.7572265296548604,-2.463864978969097,2.061912510176748
1788862278615313400,7.7203134765625,-1.9265595984876154,-2.6608073547393083,1.6241212507620453
1788862278625320400,7.730320556640625,-1.7024509833723305,-2.8900404732614753,1.8771373959317803
1788862278635326500,7.740326416015625,-1.35459090090394,-2.8905326406925913,1.756679855557531
1788862278645333500,7.75033349609375,-0.4440437439382076,-2.6018577376425265,1.4105847369350493
1788862278655339500,7.760339599609375,0.8057751153707504,-2.145146819832921,1.414972304369509
1788862278665345500,7.770345458984375,1.5469138001799583,-1.549870311897993,1.1497926240015774
1788862278675352600,7.7803525390625,1.9193845922917125,-0.6028688627600669,0.21101406441098078
1788862278685358600,7.790358642578125,2.2503607599765063,0.3759644794464111,-0.7783028057511896
1788862278695365400,7.800365478515625,3.1610809354215856,0.7889876466989517,-0.5902725621677934
1788862278705371400,7.810371337890625,3.3817642522633076,0.6346013871073722,0.3370476330855861
1788862278715378400,7.82037841796875,1.8213520880848169,0.5377040244102478,0.5514368547517806
1788862278725384400,7.830384521484375,0.07381167066395282,0.07197977906167506,0.6456415442988276
1788862278735391500,7.8403916015625,-1.0517653074264526,-0.8170727544546127,1.124622746105492
1788862278745397500,7.8503974609375,-2.2853327046364544,-1.4903233134299516,1.5944624639488756
1788862278755404500,7.860404541015625,-3.2460365159124134,-1.5953981373637913,1.877493223632127
1788862278765410300,7.870410400390625,-2.9154496398061513,-1.7171715826421976,2.056587515761703
1788862278775416300,7.880416259765625,-1.7195751366525887,-2.113752733659744,1.9001728190824387
1788862278785423600,7.890423583984375,-0.5665934342861175,-2.3438035983055827,1.1086772812157868
1788862278795429400,7.900429443359375,0.7884037093311548,-2.2918302499622105,0.2569720066560432
1788862278805436400,7.9104365234375,1.8293869259804487,-2.247843808719516,-0.08970693973638116
1788862278815442700,7.920442626953125,2.265882738757133,-1.8816613030970095,0.1722100673074834
1788862278825449500,7.930449462890625,1.5163830528378486,-1.3466823197364806,0.5302466941416263
1788862278835455500,7.94045556640625,0.4661111988395452,-1.063086911907792,0.7415146785147487
1788862278845462500,7.950462646484375,-0.05940028347373008,-1.1395955665707587,0.8774019162762909
1788862278855468500,7.960468505859375,0.24893852046728132,-1.2546727290809154,1.194563932011649
1788862278865475300,7.970475341796875,0.2724731253117323,-1.089170616713166,1.2140239808935671
1788862278875481300,7.9804814453125,0.30331717638671396,-0.8721031522810458,0.7022497128359974
1788862278885487600,7.990487548828125,0.8527706753015518,-0.7914315327197313,0.24152813461292533
1788862278895494400,8.000494384765625,0.8040472686648369,-0.9150485600382089,-0.0005963401916436851
1788862278905500400,8.01050048828125,0.6121522394120693,-1.0043167430311442,-0.06598779037157074
1788862278915507500,8.020507568359376,1.4743921693265438,-1.1311340276956559,0.5439953796394169
1788862278925513500,8.030513427734375,2.269568733793497,-1.293387367400527,1.4402541912727058
1788862278935520500,8.0405205078125,1.8427134405434131,-1.1770920612722635,1.798889788646996
1788862278945526300,8.0505263671875,0.72300681579113,-0.7967857532292604,1.4768939230144023
1788862278955533600,8.060533447265625,0.2656359727680683,-0.22096154926121234,0.8308110646888613
1788862278965539300,8.070539306640624,0.4577905297398567,0.5297574493199586,0.7316623428683727
1788862278975546400,8.08054638671875,0.402813323405385,1.0592869351029395,1.3078804415248333
1788862278985552600,8.090552734375,0.03750409348607063,1.0892319915115833,1.8475157262586057
1788862278995559400,8.100559326171876,-0.41813539569973945,0.5049351427525282,1.9104890459135173
1788862279005565400,8.1105654296875,-0.28298341341018673,-0.3630208267211914,1.4079776231765746
1788862279015571500,8.120571533203124,0.46049394347965716,-0.8809078055053949,0.8239151676952838
1788862279025578500,8.13057861328125,0.9534808742851019,-1.1271724305883049,0.5973510126540437
1788862279035584500,8.14058447265625,1.3327543321490287,-1.3202698213681578,0.5939598723784089
1788862279045591300,8.15059130859375,1.4593717103272676,-1.3840160250917077,0.7388184251680969
1788862279055597600,8.16059765625,0.7788941227078438,-1.2405512647479773,1.1436494450714438
1788862279065604400,8.170604248046875,-0.19805238283872603,-1.10305768776834,1.4564263045251369
1788862279075610400,8.1806103515625,-0.4874228669375181,-1.04398385977,1.3710039833053946
1788862279085617700,8.19061767578125,0.011413374418020247,-0.8631780875474214,1.2789451466806232
1788862279095623400,8.20062353515625,0.867048791500926,-0.8422221010193228,1.3657773346982895
1788862279105630500,8.21063037109375,0.7411603121191263,-0.7186833996340632,1.199097118461877
1788862279115636500,8.220636474609375,0.4824561844408512,-0.21630641693174837,1.0539574106432497
1788862279125642500,8.230642578125,1.447559691980481,0.24482728575617074,1.2257660758092999
1788862279135649500,8.2406494140625,1.5962766737639904,0.40573739415854215,1.3432567292019724
1788862279145655300,8.2506552734375,0.6073123981654643,0.20704817472100256,0.9536655832022428
1788862279155662600,8.26066259765625,0.7619248677283526,0.21912527374476193,0.463797076678276
1788862279165668600,8.270668701171875,2.117158158189058,0.4514490517586469,0.1441436825186014
1788862279175675400,8.28067529296875,2.666409997051954,0.5247945662155747,0.09113909143134952
1788862279185681700,8.290681640625,2.061978122758865,0.10106734185814857,0.4706815754950046
1788862279195688400,8.3006884765625,1.2070289343744516,-0.7592945192247629,0.9992921928673982
1788862279205694500,8.310694580078126,0.014333645778894424,-0.7712354246482253,1.0032907609842716
1788862279215701500,8.320701416015625,-0.31806758627295495,0.28960663094222544,0.6765414172142744
1788862279225707500,8.33070751953125,0.24222879369556902,1.1722976666025817,0.4268427260294556
1788862279235713500,8.340713623046875,0.21896423796415326,1.3890705320023,-0.019216157123446462
1788862279245720300,8.35072021484375,-0.16605331650972366,1.5443945108354091,-0.33001521369814873
1788862279255726600,8.3607265625,0.4799883330225944,1.1968719897583127,0.532775481966883
1788862279265733400,8.3707333984375,1.7137778485506772,-0.3870486219100654,1.4549835583709179
1788862279275739400,8.380739501953125,1.8014567165255546,-2.1487281854510307,1.689471967072785
1788862279285746700,8.39074658203125,0.3975514573544264,-2.9281106761977074,1.639320427329093
1788862279295752400,8.40075244140625,0.3095318131178617,-3.178266463500261,2.1214023716300723
1788862279305759500,8.410759521484374,1.4978484482377767,-2.2969882172472773,2.010735719038546
1788862279315765500,8.420765625,2.276441542172432,-0.9613181437820195,0.8987712328456342
1788862279325772500,8.4307724609375,2.431103111574054,-0.7871672994039952,0.5865561719931661
1788862279335778600,8.440778564453124,1.881703388673067,0.01593026732057333,0.8145313994087279
1788862279345785300,8.450785400390625,2.9432278735697266,1.269558163523674,1.52552336775735
1788862279355791600,8.46079150390625,3.980909710586071,1.2109843940019607,1.7142080566614866
1788862279365797600,8.470797607421876,3.455764138975739,1.243816988545656,0.636892128393054
1788862279375804400,8.480804443359375,2.3390789078712464,2.2362556622564793,0.09969766094014049
1788862279385810400,8.490810546875,1.7050673033505677,2.993899491664767,0.973767144858092
1788862279395817500,8.5008173828125,1.949533646839857,2.7898610201537606,1.0757913490496576
1788862279405823500,8.510823486328125,2.410466566258669,2.031482885121554,0.5882827035248279
1788862279415830300,8.520830322265626,2.294057278361916,0.9388707496523857,1.24641621125862
1788862279425836500,8.53083642578125,1.2948486721247434,0.3902145385950804,1.7314271947488187
1788862279435843600,8.540843505859375,1.0011065488129853,0.5381244417794049,1.6947583830431103
1788862279445849300,8.550849365234376,0.5428992549657822,0.7683892414368688,1.5286464682139456
1788862279455856600,8.560856689453125,0.3362976549685001,1.0819012102320789,1.4179003206454217
1788862279465862400,8.5708623046875,1.0124643936514854,0.922758403763175,1.5191197843253612
1788862279475869400,8.580869384765625,0.9945733476519584,0.1858154170781374,1.15378600448668
1788862279485875500,8.59087548828125,0.27765491186380387,-0.2503869657099247,0.8785282168924808
1788862279495881500,8.600881591796876,-0.036921909683942794,-0.18290595937222243,1.1636267227604984
1788862279505888500,8.610888427734375,0.45418870585560794,-0.1706678245678544,1.6771071371488273
1788862279515894500,8.62089453125,0.8186006946742534,-0.38574411518275736,1.8377049647316335
1788862279525901600,8.630901611328126,0.8945499618887901,-0.7123235092133283,1.7677466084949671
1788862279535907600,8.640907470703125,1.3749077127456664,-1.3893039023667573,1.7837088783890007
1788862279545914400,8.650914306640624,1.2971803299427032,-1.9229761870428919,1.5351882910728454
1788862279555920400,8.66092041015625,0.7393500478267669,-1.6735010754808783,1.233839492149651
1788862279565927400,8.670927490234375,0.985358944582939,-0.9961448347523808,1.4761734997853635
1788862279575933400,8.680933349609376,1.5599556525826452,-0.3438067154243588,1.619147846263647
1788862279585940500,8.6909404296875,1.2768892370641232,0.3271846664473414,1.069261070498079
1788862279595946500,8.700946533203124,0.7505237682700157,1.1635977889269589,0.6174038032647222
1788862279605952500,8.710952392578125,0.725782125723362,1.4824702618420122,0.8598361567083745
1788862279615959300,8.720959228515625,0.7806441812455653,0.8484925595909356,1.2915299029655753
1788862279625965300,8.73096533203125,0.9633739072680473,-0.49572483133673667,1.3542711674302816
1788862279635972600,8.74097265625,1.4851380197465418,-2.0464912152916193,1.0106256339170039
1788862279645978400,8.750978271484374,1.631175553187728,-3.335908510017395,0.5173159739632159
1788862279655985400,8.7609853515625,1.3148270457923412,-3.9057723442763086,0.05145252107335254
1788862279665991400,8.770991455078125,0.5630120686680078,-3.659806117618084,-0.18313439783323554
1788862279675998500,8.78099853515625,-0.24647943687736987,-2.8661346970170736,0.02343145499723032
1788862279686004500,8.79100439453125,-0.5325333437740802,-1.8697499160289763,0.6374593338217586
1788862279696011500,8.801011474609375,-0.8665770823359489,-1.1214333024144172,1.0871820732444524
1788862279706017500,8.811017578125,-1.1829092231184244,-0.7134867077738046,1.141747556972876
1788862279716024300,8.8210244140625,-0.8939975887030363,-0.7670148843437433,1.3512351607352495
1788862279726030600,8.831030517578125,-0.7522510304540395,-1.037221233767271,1.4373979250587523
1788862279736036600,8.84103662109375,-0.6003764614224434,-1.3026385953485966,1.27064230549857
1788862279746043400,8.85104345703125,-0.8504647364467381,-1.094989532124996,1.0965811121653766
1788862279756049400,8.86104931640625,-1.0799725802570581,-0.7410100899934768,1.6158128566220402
1788862279766056400,8.871056396484375,-0.78468264298141,-0.9367886826813221,2.5599679764181373
1788862279776062500,8.8810625,-0.884469881901145,-1.3927619338661432,2.8800086163297296
1788862279786069500,8.891069580078126,-1.2951099534094332,-1.8673118752270936,2.8662261746928093
1788862279796075500,8.901075439453125,-1.4455302319794892,-2.5657635109543797,2.786166257289052
1788862279806082600,8.91108251953125,-1.5968524278253315,-2.922920998600125,2.2357788385249675
1788862279816088300,8.92108837890625,-1.6480711584091186,-2.3965075990110636,1.4183619468078017
1788862279826095600,8.931095703125,-1.3149480418235062,-1.42022043415606,1.255929597274214
1788862279836101600,8.9411015625,-0.7762462385475635,-0.5934872864305972,1.8431968401461838
1788862279846108400,8.9511083984375,-0.8434726856023073,-0.02230418626666069,1.8768145937182008
1788862279856114400,8.961114501953125,-1.0602087261229753,0.47069443497657776,1.173456042857468
1788862279866120700,8.97112060546875,-0.7462310395121574,0.2642337047547102,1.2403379142582416
1788862279876127500,8.98112744140625,-1.6459060893297195,-0.36621699241399763,1.6267217886492609
1788862279886133500,8.991133544921874,-2.3598382027834655,-1.0139227757662534,1.811838117547333
1788862279896140500,9.001140625,-1.6734727261692284,-1.7862942187070845,2.6987369801610708
1788862279906146600,9.011146484375,-1.1344763238608837,-2.451983402517438,3.1683699233859777
1788862279916153300,9.0211533203125,-1.8393670527249573,-2.2171242608070374,1.4156513726748525
1788862279926159400,9.031159423828125,-1.6835013682305813,-1.6087077007919548,-0.6716309218842536
1788862279936166400,9.04116650390625,-0.32748715652525423,-1.289713062801957,-1.2741174342632293
1788862279946172400,9.05117236328125,0.7628612717956305,-0.9316261853516101,-0.8711086613509803
1788862279956179500,9.061179443359375,1.1121394043684005,-0.3650117082774639,-0.545323815231584
1788862279966185500,9.071185546875,0.7438900293439626,0.16417232506871224,-0.1826134426990524
1788862279976191500,9.08119140625,0.2603139009624719,0.32281156592965127,0.6215777279485016
1788862279986198500,9.091198486328125,-0.43187399819493294,0.16786591888964175,1.2174486215800047
1788862279996204300,9.101204345703126,-0.3991156379312277,-0.4869850600421428,2.080046132760495
1788862280006211600,9.111211669921875,-0.15022680182456968,-1.414435421013832,3.4150416679650544
1788862280016217300,9.12121728515625,-0.8683756561905145,-2.1872148602336643,3.919183029991388
1788862280026224400,9.131224365234376,-2.2771230946958063,-2.4131845930457114,2.4644492085978387
1788862280036230700,9.141230712890625,-2.5640619677335024,-2.291088491684198,0.6665385671813041
1788862280046237400,9.151237548828124,-1.4139526059329508,-2.241757182282209,0.7618773753248155
1788862280056243500,9.161243408203125,-0.2091518690019846,-1.52240421282351,1.3853886286191641
1788862280066250500,9.17125048828125,0.3723720079123974,-0.32665479735434055,1.5031874711781739
1788862280076256500,9.181256591796876,0.5026496621638536,0.4444412188231945,1.5459278578825295
1788862280086263300,9.19126318359375,0.8024789964348077,0.5794201826333999,1.5863609905578195
1788862280096269300,9.201269287109374,0.8525181618452071,0.48034956755042074,1.019419911877811
1788862280106275600,9.211275634765625,0.8258084340959787,0.47770811313092704,0.2756087016574107
1788862280116282400,9.221282470703125,0.3528542374938726,0.19769699352979658,-0.1844636188766919
1788862280126288400,9.231288330078126,-0.20842823090255258,-0.4694283605635166,-0.1526389410002157
1788862280136295700,9.241295654296875,-0.27192016760408877,-1.4030670547813175,-0.011978734949510544
1788862280146301400,9.251301513671875,-0.36382337527573105,-2.21047941596508,-0.10607828362165019
1788862280156308500,9.26130859375,-1.0049766682446002,-2.452268649199605,-0.5372188712418079
1788862280166314200,9.271314208984375,-1.3138193300545216,-2.0495476802527905,-0.5545366473980248
1788862280176321500,9.281321533203124,-0.2139168914467096,-1.230695056644082,0.8042983208164572
1788862280186327600,9.29132763671875,0.277669524911046,-0.44423722068369387,1.95246531637758
1788862280196334300,9.301334228515625,-0.11276830104589462,0.0016886837393045423,2.059865660649538
1788862280206340600,9.311340576171874,-0.11910334928631781,-0.04889525607228279,1.87277335550338
1788862280216347400,9.321347412109375,0.42550680125057694,-0.37486616281569,1.778065027283132
1788862280226353400,9.331353515625,0.9645943889737129,-0.41896658582687374,1.8558149141788483
1788862280236359400,9.341359375,1.4866525159627197,-0.515681577694416,2.22223911960274
1788862280246366500,9.351366455078125,1.5654419750392436,-0.9868336933106183,2.324663867419213
1788862280256372500,9.36137255859375,0.9220902952432631,-1.5273779095828532,1.4346538870476186
1788862280266379300,9.371379150390625,0.9892764102876186,-1.6961498374015092,0.23759598279576746
1788862280276385500,9.381385498046875,1.9660493128329515,-1.2169886028528212,-0.05481100118840113
1788862280286392600,9.391392578125,2.4300293448626995,0.005034194774925708,0.40733273705858736
1788862280296398300,9.4013984375,2.276890454983711,1.3043600123137236,0.9278563114240765
1788862280306405600,9.411405517578125,1.7000854232847689,1.963791889294982,0.6368202322006226
1788862280316411400,9.421411376953126,-0.09120295044779778,2.1722063839331267,-0.6897462050937115
1788862280326418400,9.43141845703125,-1.061074403041601,1.8935475557237862,-0.8719641822017729
1788862280336424700,9.4414248046875,-1.0467530322223901,1.1129428297057746,0.2501218119677156
1788862280346430500,9.451430419921875,0.18617255995273588,-0.08945055382251739,1.1284786178160457
1788862280356437500,9.4614375,1.2353402521014212,-1.6346981743559241,1.3962176272779703
1788862280366443500,9.471443603515626,1.145716095277667,-3.1158117608919738,1.3018370697073638
1788862280376450600,9.481450439453125,0.6199696351647377,-3.9200194808155295,0.9129596249349414
1788862280386456600,9.49145654296875,0.08944938477873801,-3.8444907771006225,0.8407958676084876
1788862280396463400,9.50146337890625,-0.9367132793575524,-3.16304112957865,0.8618431856818497
1788862280406469600,9.5114697265625,-1.2389070046722888,-2.372265138158202,0.4354701229907572
1788862280416476400,9.521476318359374,-0.03631283787488937,-1.7795204867884515,-0.2106134659871459
1788862280426482400,9.531482421875,2.0777391709923743,-1.3733537613019347,-0.6283955182045697
1788862280436489500,9.541489501953125,2.8397411956101655,-0.907840236094594,-0.9827508079111575
1788862280446495500,9.55149560546875,1.834627164721489,-0.3339280032277107,-1.1644003374814986
1788862280456502500,9.56150244140625,0.4720014259219169,0.39472354045212266,-1.0447060365647076
1788862280466508300,9.57150830078125,0.5716419498473405,0.6240460908234119,-0.5723528745956719
1788862280476514600,9.5815146484375,2.2717162672162057,-0.2802624640136957,-0.3050201809123158
1788862280486521600,9.591521484375,4.252685501283407,-1.5742369836524128,-0.19269523971974847
1788862280496527600,9.601527587890626,2.956402412441373,-1.705976088758558,-0.4144694205380976
1788862280506535000,9.611534912109375,0.7707236757338046,-1.1578383486174046,-0.41911943830102677
1788862280516540700,9.621540771484375,1.9292893157124518,-1.2844551422737538,0.501903958363086
1788862280526547700,9.631547607421876,2.9540479582697152,-1.4490531454086304,0.21919775445908307
1788862280536554000,9.641553955078125,2.105987360355258,-0.5648386995732784,-1.2456449346251786
1788862280546560800,9.651560791015624,1.2744932818382977,0.608375205091387,-1.698954519558698
1788862280556566800,9.66156689453125,1.3309341309845446,1.099552456126362,-1.9870169897988437
1788862280566573800,9.67157373046875,1.642736227121949,0.877931858434528,-1.9687774226225911
1788862280576579800,9.681579833984374,1.2671645463854073,0.3527102989785373,-0.7163108252838254
1788862280586585900,9.6915859375,1.25119482383728,0.6363166665926575,0.10620733509510755
1788862280596592600,9.701592529296875,2.1775334241747855,0.933241511593759,0.16213161302134393
1788862280606599000,9.711598876953126,2.547120769804716,0.9071740272708236,-0.024861323403567073
1788862280616605700,9.721605712890625,3.0221663857281205,0.9112538439303636,0.7184009294308722
1788862280626611700,9.73161181640625,3.542276301258802,1.319065560144931,0.6256624399788677
1788862280636618800,9.74161865234375,4.215824966397881,1.8013295830145477,-0.5387001958407461
1788862280646624800,9.751624755859375,3.784071379712224,1.7483831518553197,-1.7173939932212232
1788862280656631800,9.7616318359375,3.3402526767015455,0.7899740273877978,-1.4170616778641938
1788862280666637600,9.771637451171875,2.9728485203295945,-0.1963455789208412,0.25267061966769394
1788862280676644900,9.781644775390625,2.0907728400886056,0.5467227587766945,0.21279731283225117
1788862280686651000,9.79165087890625,2.0317583410620688,1.5890252413310109,-0.8414752281747758
1788862280696657700,9.80165771484375,1.205051496821642,2.912458641296625,-1.5303414355635643
1788862280706664000,9.811663818359374,0.4602817620337009,4.535440658895671,-1.228503391818702
1788862280716669700,9.821669677734375,0.3807283328473568,5.321267503476142,0.23872400044500827
1788862280726676700,9.8316767578125,0.4836813423216343,4.934067344266176,1.8260186185911296
1788862280736682800,9.841682861328126,0.13492752588391302,3.727371295107901,2.6700205887645483
1788862280746689800,9.851689697265625,-0.11980360651016235,1.8340061102136969,3.008705723391473
1788862280756695800,9.86169580078125,0.43265316587388514,-0.528451335157454,2.9746555697515604
1788862280766702600,9.87170263671875,0.7709469630956649,-2.6924182985335587,2.197200539936125
1788862280776708900,9.881708984375,-0.36721418675780293,-4.372868754760921,0.728686761123687
1788862280786715600,9.891715576171874,-2.3669682007938624,-5.68504236343503,-0.5083981792205944
1788862280796721700,9.9017216796875,-3.9216350993186233,-6.263759950757026,-1.0337097185149788
1788862280806729000,9.91172900390625,-4.5799873643696305,-5.491112028962373,-0.927141148892045
1788862280816734700,9.921734619140626,-4.1693969772219655,-3.853213597260415,-0.669794573302567
1788862280826740700,9.93174072265625,-1.2960767526149748,-3.1927962163731456,0.5267935945456848
1788862280836747500,9.94174755859375,0.9948521645933389,-2.969195843040943,1.9727292289882896
1788862280846753800,9.95175390625,0.7374304779410362,-2.0624942555874584,1.7822386597059665
1788862280856760800,9.9617607421875,-0.3536749062269926,-0.4500210647821426,0.060426557781547305
1788862280866766600,9.9717666015625,0.4592939200401306,0.6365986984044313,-1.050391973246634
1788862280876774000,9.98177392578125,1.5558376958698032,1.3271025899976492,-0.945818596028909
1788862280886780000,9.99177978515625,2.182899335122108,2.0559072784125805,-0.11799038307573646
1788862280896786700,10.00178662109375,2.8361352800726887,2.4540374124377964,1.2299494989737867
1788862280906793000,10.01179296875,3.165731391575932,2.202775417459011,2.171129256220907
1788862280916799700,10.0217998046875,2.1392723748415707,2.001248636507988,1.624017498126626
1788862280926805800,10.0318056640625,2.037647399100661,1.6499726081162691,0.7988638746775686
1788862280936812800,10.041812744140625,2.2899761465281245,0.9174439307421445,0.4436246052106842
1788862280946818800,10.05181884765625,1.518398484313488,0.5153688584834337,-0.2726673875085078
1788862280956824800,10.061824951171875,0.5082651639580726,0.9934604179739952,-1.3418686358444392
1788862280966831600,10.07183154296875,-0.16681319496631622,1.6929688692778349,-1.9019578028030693
1788862280976838000,10.081837890625,0.11997662498950958,1.559213894304633,-1.113563591952622
1788862280986844700,10.0918447265625,0.36612756056487555,0.7352426125079393,1.349371851081401
1788862280996850700,10.1018505859375,-0.4951508308410644,-0.49516719745397564,4.463823867927491
1788862281006858000,10.11185791015625,-2.067176275923848,-1.8456337119042872,5.803330889207125
1788862281016863700,10.12186376953125,-2.7266894014477727,-3.249841753414273,5.340498858168721
1788862281026870800,10.131870849609374,-2.3846803830951453,-4.331771897479891,3.547452534852922
1788862281036876800,10.141876708984375,-1.878017978158593,-4.560712170535326,1.2009258682589978
1788862281046883800,10.1518837890625,-1.0706371811568736,-4.402227827975154,-0.7035111110739409
1788862281056889900,10.161889892578126,0.2021750157266855,-4.776781856101751,-1.451430542064458
1788862281066895600,10.1718955078125,-0.45534547467529773,-4.446706436648965,-1.8297240489803253
1788862281076903000,10.18190283203125,-3.1615590743273496,-3.0631314333230257,-2.91374488171488
1788862281086909000,10.191908935546875,-3.929422684454918,-2.2630080601036546,-3.1812478173986074
1788862281096915700,10.201915771484375,-2.4180723650872706,-2.970070287787914,-1.7559065330974757
1788862281106921700,10.211921630859376,-0.9538169743716716,-4.281670188227296,0.8371426788631826
1788862281116928800,10.2219287109375,-1.471872295460105,-3.7903181651473044,2.7261118938207627
1788862281126934800,10.231934814453124,-3.077757924568653,-2.243249466666579,1.559954483538866
1788862281136941600,10.241941650390626,-3.290002498888969,-1.7007207985788584,-0.7156588641811161
1788862281146947800,10.25194775390625,-1.905510380718112,-2.372844983872771,-0.08325657628690823
1788862281156955000,10.261954833984374,-1.0779279226869345,-2.746152811330557,1.8680919196888803
1788862281166960600,10.271960693359375,-1.846048137924075,-2.109520795178413,1.7144912575170397
1788862281176966700,10.281966552734374,-1.2926011854588986,-1.411861771133542,1.1117417833529413
1788862281186973700,10.2919736328125,0.4856880059689283,-0.9858967047214507,1.261474079658836
1788862281196979700,10.301979736328125,2.30108147791028,-0.6488040999829768,1.255645811896771
1788862281206986800,10.31198681640625,3.2536195183873176,-0.022823241704702377,0.4207744754990563
1788862281216992800,10.32199267578125,2.9052433030903337,1.0331360102802514,-0.4912870680849999
1788862281226999800,10.331999755859375,2.0535078160554168,2.1150930423527954,-1.122739489642158
1788862281237005800,10.342005859375,2.0273259115725755,3.0305817473739385,-1.4963438888937235
1788862281247012900,10.352012939453125,3.328765068003535,3.6184599617511033,-1.219995383453369
1788862281257019000,10.362018798828124,3.6836540261954065,3.7818887749761343,-0.44241563127972183
1788862281267025700,10.372025634765626,1.597506507819891,3.6694285169661045,0.09563485021432862
1788862281277031700,10.38203173828125,-0.5335685320407152,3.0667157215505836,0.4189074760507792
1788862281287038700,10.392038818359374,-1.7163918304413557,2.1887983300328253,0.8468919925265014
1788862281297044700,10.402044677734375,-2.7214696209728717,1.3264730599224566,1.1798128645382822
1788862281307050800,10.41205078125,-2.4929905356884,0.3086088530540466,1.599583898615837
1788862281317057800,10.422057861328126,-0.8623761235147714,-0.9771972654372453,2.0237905770532785
1788862281327063800,10.432063720703125,-0.6364139894872903,-1.5081272656679152,1.0934127843275665
1788862281337070600,10.442070556640624,-1.8129764739274978,-1.0711293485879898,-0.7980465669453144
1788862281347076600,10.45207666015625,-1.8207108675718306,-0.8621142577081918,-1.6431209886558353
1788862281357084000,10.462083984375,-0.7417261293083429,-1.3925585202485322,-0.5402609058188275
1788862281367089700,10.472089599609374,-1.5481120700538158,-1.4595008896648882,1.156398086681217
1788862281377096700,10.4820966796875,-3.943226753401756,-1.5525848315536974,2.0195251746937632
1788862281387102700,10.492102783203125,-4.8417947187602515,-2.4824989522904155,2.4554428953215477
1788862281397109800,10.50210986328125,-4.934301153022051,-3.3266683879852295,1.6305837247744202
1788862281407115800,10.51211572265625,-3.846681272882223,-3.955787544289231,0.2815298901336267
1788862281417121500,10.52212158203125,-0.9982225178092717,-4.687903549209237,0.4465244913706556
1788862281427128800,10.53212890625,0.42534605773091316,-5.023189981308579,1.2532333439275622
1788862281437134800,10.542134765625,-0.12382803972065448,-4.408918265524506,0.7487209566317499
1788862281447141600,10.5521416015625,0.6589391250282526,-3.760070326399803,0.1368729608632624
1788862281457148000,10.56214794921875,0.8588391815602779,-3.0902228538662193,0.053197264115139836
1788862281467154700,10.57215478515625,-0.3516998067617416,-2.244101699581742,-0.6453505985282361
1788862281477160700,10.58216064453125,-0.06189268481135368,-1.7343588642865417,-0.9703235802754759
1788862281487167700,10.592167724609375,1.1354413695007561,-1.3126812659353018,0.12278855887139216
1788862281497173800,10.602173828125,1.6001158135354518,-0.6813923643767833,0.7181521423015743
1788862281507180800,10.612180908203126,2.1528350362479687,0.1143897647678852,-0.11032409536470658
1788862281517186600,10.6221865234375,3.5157647264301777,0.7137222700953483,-0.8750727426763624
1788862281527193900,10.63219384765625,3.971770710840821,1.1935673952549695,-1.0099307835206388
1788862281537199600,10.64219970703125,3.087303167027235,1.795266045191884,-1.2742968824833631
1788862281547205600,10.65220556640625,2.4149019183576104,2.2474580242723223,-1.3441260593824087
1788862281557213000,10.662212890625,2.503030283665657,1.9740911649912594,-0.5544147745840251
1788862281567218700,10.67221875,3.0706735192656516,1.3499071270018814,0.1663054281072691
1788862281577225700,10.682225830078124,3.6307968807548283,0.6114128192216157,0.12927395710162817
1788862281587231700,10.692231689453125,4.541479062277078,-0.47025458225458855,-0.2690811813184991
1788862281597238800,10.70223876953125,3.373995956349373,-0.8450093936502933,-0.8475127547733485
1788862281607244800,10.712244873046876,1.723709459978342,0.2058048966616392,-1.2251633606757968
1788862281617251600,10.72225146484375,1.337518770071864,1.3683143058300018,-0.7608837611775845
1788862281627257900,10.7322578125,-0.271897371250391,2.1277751215323804,-0.20488573599010704
1788862281637264000,10.742263916015625,-1.7802268814921378,2.6268092235475775,-0.13202829731106758
1788862281647270700,10.752270751953125,-1.0825170040428638,2.6197107897192238,0.03495280156806111
1788862281657276700,10.762276611328126,-0.13451251534223554,1.8280606458127497,0.2822239733450115
1788862281667283700,10.77228369140625,0.33361353045105935,0.6445175087049603,0.44467816938422616
1788862281677289700,10.782289794921875,0.5209668246209621,-0.6354068582713603,1.1974658639982343
1788862281687296500,10.792296630859376,0.4687456389963627,-1.7448562929034233,1.7884570958293973
1788862281697302800,10.802302734375,0.34296237355470655,-2.372004441395402,1.3005404540255665
1788862281707309800,10.812309814453124,0.43706689066290855,-2.880366051465273,0.648745940054953
1788862281717315600,10.822315673828125,0.8249731523156165,-3.0712685625493523,-0.10606171607933938
1788862281727323000,10.832322998046875,-0.8077285875260829,-1.4524245215378702,-1.727272559287399
1788862281737328600,10.84232861328125,-1.6114999618589878,0.518553625999391,-2.4548650954335924
1788862281747334700,10.852334716796875,0.18959025944173336,1.3322275317959487,-1.5228494723729789
1788862281757341700,10.862341796875,1.293719375833869,1.693456214403361,-0.7158852933481336
1788862281767347700,10.87234765625,0.8742389952659606,0.573220743471384,0.1211521715749055
1788862281777354800,10.882354736328125,0.8460346450448035,-1.7700614613085983,0.8901180438559502
1788862281787360800,10.89236083984375,0.36541385933756826,-2.0560889185898006,-0.12148534905202686
1788862281797367800,10.902367919921875,-0.22587036409080027,-0.6536546087540686,-1.088671142758429
1788862281807373800,10.912373779296875,1.6690788751244543,0.014650602773576974,-0.28306078949533403
1788862281817380600,10.922380615234376,2.990708586668968,0.28561756130605936,0.006705635118484497
1788862281827386600,10.93238671875,2.1487036355316635,0.49021015956848857,-0.4826658816687762
1788862281837393700,10.9423935546875,1.2809376356720923,1.1254187187887728,-0.8048406840648502
1788862281847399700,10.952399658203126,2.073236014354229,1.1658476136803626,-0.7798021043982356
1788862281857405700,10.96240576171875,2.619397485986352,1.2089775842241943,-1.3395309866771101
1788862281867412700,10.972412841796874,4.001307186448574,1.1755927626252174,-0.7375515470374375
1788862281877418800,10.982418701171875,5.25823441645801,0.2939139727473259,0.8271937509745358
1788862281887425500,10.992425537109375,4.634600413566828,0.08416749885305762,0.4088839120233431
1788862281897431600,11.002431640625,2.915745992404222,1.1846679033540188,-1.7762582701221108
1788862281907438800,11.01243896484375,2.184028631412983,2.096280205333233,-2.6652210795283318
1788862281917444600,11.022444580078124,1.596075598233938,2.361362343610823,-2.2364058843821284
1788862281927451600,11.03245166015625,1.4932850858449935,2.5938722918465733,-1.7299499618031084
1788862281937458000,11.0424580078125,2.6091350351691243,2.6267668457105753,-0.3067339990928769
1788862281947464700,11.052464599609374,3.1194460257411003,2.421822365270555,0.9081339583441614
1788862281957470700,11.062470703125,2.8624890339910984,2.242923303452134,1.0498616657622157
1788862281967476500,11.0724765625,2.995749503445625,1.6716621696159242,0.9783863290913403
1788862281977483800,11.08248388671875,2.915030537611246,0.9273419321611523,0.49466560460738834
1788862281987489800,11.09248974609375,2.055257290071249,0.40510698730051514,-0.2992540916662663
1788862281997496600,11.10249658203125,1.4433125559300184,0.22467530908733604,-0.7814696722842752
1788862282007502800,11.1125029296875,0.9910743996202945,0.6286378025278448,-0.8003222567923367
1788862282017509600,11.122509521484375,-0.07542319751381873,1.4302905772715806,-0.7386900495480746
1788862282027515600,11.132515625,-0.7452198166429996,2.2144608868166804,-0.36490466770641505
1788862282037522700,11.142522705078125,-1.1292401767730713,2.6216452649131416,0.21483868246674537
1788862282047528700,11.15252880859375,-1.5083528911173343,1.997693574374914,0.9378437446922063
1788862282057535700,11.16253564453125,-0.970388754466176,-0.07328443191945552,1.556566740796715
1788862282067541800,11.172541748046875,-0.8953852436691522,-2.5021248592585326,0.9224895967591553
1788862282077547800,11.1825478515625,-1.1407020665079355,-4.491005012580752,-0.2385608457725495
1788862282087554800,11.192554931640625,-0.4351671945214271,-5.7934518847495315,-0.8723501858446746
1788862282097560600,11.202560546875,-0.6518284162402153,-5.762043770051002,-1.5700620360553263
1788862282107567900,11.21256787109375,-1.7402958531200885,-4.41637208866179,-2.363747777442634
1788862282117573600,11.22257373046875,-0.6360077467739582,-3.405238066831231,-1.4664656141109764
1788862282127580700,11.23258056640625,0.09668459672927855,-2.461927288904786,-0.007863865242898463
1788862282137587000,11.2425869140625,-0.6083095925092696,-1.2681395288974047,0.08628478326797485
1788862282147593700,11.25259375,-0.4873731825768947,-0.09944529361426829,-0.42130986101739104
1788862282157599700,11.262599853515624,0.7285977676659822,0.5989402911394834,-0.21189378812126813
1788862282167606800,11.272606689453125,1.272529288288951,1.1187269660651684,0.0719908119123429
1788862282177612800,11.28261279296875,1.3463023805081844,1.484829976710677,-0.17011512258853762
1788862282187618800,11.292618896484376,1.1776368356734515,1.6380279033005236,-0.6260172447659075
1788862282197625600,11.30262548828125,0.670105831208825,1.5485551376461981,-0.9095349111832678
1788862282207632000,11.3126318359375,0.30545652650296684,1.089441250348091,-0.4635667019885033
1788862282217638700,11.322638671875,-0.1949818893522024,0.37406712139248843,0.5673547740474343
1788862282227644700,11.332644775390625,-0.7901298024713993,-0.435340797522664,1.9326342422261833
1788862282237651700,11.342651611328124,-1.448561562499404,-1.2075626028597355,2.699554726284742
1788862282247657700,11.35265771484375,-2.191868238997459,-1.8296686655312775,2.566177060191333
1788862282257664800,11.362664794921875,-2.4417770658016202,-2.6672990548461675,2.1617546941541135
1788862282267670500,11.37267041015625,-2.4460814849972725,-3.404436687320471,1.3460890300184487
1788862282277676800,11.3826767578125,-2.3705431366711855,-3.4178608170390126,0.06571074526216834
1788862282287683800,11.392683837890624,-2.0544652629107234,-2.730944720804691,-1.1921921613790094
1788862282297689600,11.402689697265625,-2.0149270332485436,-1.7701064694941042,-1.8048599490977824
1788862282307697000,11.41269677734375,-2.743392114445567,-0.684071228197217,-1.9103867545828221
1788862282317702700,11.42270263671875,-1.5569582243323326,-1.17390933958292,0.20101189023144542
1788862282327709700,11.432709716796875,0.15040741908848285,-2.1762872235059736,3.3498388356924056
1788862282337715700,11.4427158203125,-1.0144207884162664,-1.7551941470444201,3.641761634622514
1788862282347722800,11.45272265625,-2.3387837243169547,-0.5457879621446132,1.312699093852937
1788862282357728800,11.462728759765625,-1.03034141112566,-0.2211106023430824,-0.3982470749357715
1788862282367735600,11.472735595703124,-0.18467910652458666,0.01722644461095333,-1.3082402147479355
1788862282377741800,11.482741943359375,1.1466682814359663,0.24867431657314298,-1.327212772373855
1788862282387747800,11.492747802734375,2.860941220027208,-0.5033031576365232,-0.05538136668857187
1788862282397754600,11.502754638671876,0.9966752883672714,-1.0475485665142537,0.33690420602690424
1788862282407760600,11.5127607421875,-2.153339478638768,-0.8254261567801237,-0.34583222990259527
1788862282417767700,11.522767578125,-2.3068284971296786,-1.473772576123476,0.34552572123669084
1788862282427773700,11.532773681640625,-1.935760557553172,-1.9759984599173068,1.2131414989706129
1788862282437780700,11.54278076171875,-1.2534861496448517,-1.9821961455136536,1.574993939499557
1788862282447786800,11.552786865234374,-0.05604629687070846,-2.3030074775367972,1.9118053892090916
1788862282457793800,11.562793701171875,-1.2275561740964651,-1.9667337879657745,0.41405806325823064
1788862282467799600,11.572799560546875,-2.8167700698673723,-1.2037240476101636,-2.158513666406274
1788862282477806800,11.582806884765626,-1.1493354548186063,-1.7834949433773755,-2.264499175444245
1788862282487812900,11.592812744140625,0.31120237667858597,-2.382356908583641,-1.190984539154917
1788862282497819100,11.602819091796874,-0.2855558942466974,-1.6016554441928863,-0.7292403764184564
1788862282507826200,11.612826171875,-0.6801496708393097,-0.8814216002464293,0.20965605566445736
1788862282517832000,11.62283203125,-1.0237304685533046,-0.6889724442422389,1.233969402139634
1788862282527839200,11.632839111328124,-0.9134721045017242,-0.7124205398470163,1.5953426077842712
1788862282537845200,11.64284521484375,-0.02969195843040943,-0.35771629057228566,1.740796496118605
1788862282547852000,11.65285205078125,0.7680477345228195,0.19553776966929434,1.6913154029823838
1788862282557858000,11.662858154296876,1.111000755727291,0.46828971192240715,1.280570848186314
1788862282567865000,11.672864990234375,1.3750263706892727,0.6645563803881407,0.402004783501476
1788862282577871000,11.68287109375,2.2276883249193427,0.6598176614284516,0.06779478499460966
1788862282587877000,11.692877197265625,2.328000464496016,0.6567658726423978,0.0945624534761533
1788862282597884200,11.70288427734375,1.0103115995317697,0.8147200538486242,-0.04697579578440636
1788862282607890200,11.71289013671875,-0.3694248485445976,0.807370275607705,0.10998787654712795
1788862282617897000,11.72289697265625,-0.7742880902171134,0.317315891122818,0.8160983564645051
1788862282627903000,11.732903076171874,-0.48912733276784415,-0.26795535562634465,1.4588739899381995
1788862282637910000,11.742909912109376,-0.27581132982373235,-0.7677513819247483,1.535895854820311
1788862282647916000,11.752916015625,0.2057259862065315,-1.3811544981807469,1.2090713269222526
1788862282657923000,11.762923095703124,0.33741642986536025,-1.954634184849262,0.910438143633306
1788862282667929000,11.77292919921875,-0.3547551026791334,-2.2400386879265306,0.8000548380278051
1788862282677936000,11.78293603515625,-0.6304886910915375,-2.16892692387104,0.5970830459002405
1788862282687942100,11.792942138671876,-1.094085276761651,-1.6913976744383572,0.5609481584081426
1788862282697948000,11.802947998046875,-1.7763555930167436,-0.9505231935232877,0.7525029593884944
1788862282707955200,11.812955078125,-1.7156798827797173,-0.10059329460561275,0.796880591905862
1788862282717961000,11.8229609375,-0.4683662842899561,0.6519377218335867,0.7411567319225519
1788862282727968300,11.83296826171875,0.7479103709012269,0.5828174238562583,0.8077101750865578
1788862282737974300,11.842974365234374,0.8274550322592258,0.026437340548634527,0.5206698509683833
1788862282747981000,11.85298095703125,0.9089327075064182,-0.5402458178475499,0.3547974805161357
1788862282757987000,11.862987060546875,0.6558674624979496,-0.6622533641427755,0.284225960817188
1788862282767994000,11.872994140625,0.6530161647200584,-0.29033056130260226,-0.041143582499586044
1788862282778000100,11.883000244140625,0.7378712074458599,0.41588410964161154,0.15101652743015437
1788862282788006100,11.893006103515624,-0.4675017764151096,1.3125938799127936,0.27755963479578494
1788862282798013200,11.90301318359375,-0.09526303949356078,2.0688409942656754,-0.5197779801625758
1788862282808019200,11.913019287109375,2.238569784417748,1.8423171347022056,-0.2811449824692681
1788862282818026000,11.92302587890625,3.214807264912128,0.7377519649803638,0.9160141171347349
1788862282828032000,11.933031982421875,2.088473330974579,-0.7678679940417409,1.8092371412687003
1788862282838039000,11.9430390625,1.4256073878914117,-2.120082813464105,2.065688667714596
1788862282848045000,11.953045166015626,2.800131069755554,-3.0019027653783557,2.193268315053731
1788862282858052000,11.963052001953125,3.6951895656883713,-2.884794973823428,2.118126418699324
1788862282868058000,11.97305810546875,1.731018321686983,-0.8655725814685225,0.8684691066276281
1788862282878064000,11.983064208984375,1.2780191178768872,1.1003428758516907,-0.33548853054270145
1788862282888071200,11.9930712890625,2.437074002677202,1.9913705088332294,-1.3615106171645224
1788862282898077000,12.003076904296876,1.4173241281926632,2.406456161573529,-2.5750027562037108
1788862282908084200,12.013084228515625,0.5467687898755074,1.4908493831306695,-2.4095900756850837
1788862282918090000,12.023090087890624,0.8167968601226806,0.40974078458100555,-1.30975631839931
1788862282928097000,12.033096923828126,1.8591829293072222,-0.5102969620466232,0.29538528740890324
1788862282938103300,12.043103271484375,1.771207708734274,-2.063028508594632,2.0814087994158266
1788862282948110000,12.053110107421874,0.6851391496896744,-2.638092541845143,2.168697645159811
1788862282958116000,12.0631162109375,-0.05213233829736709,-1.2442363830015062,0.21772366331852971
1788862282968122000,12.0731220703125,-0.4469499867737293,0.4012435898706317,-1.4158897114753721
1788862282978129200,12.083129150390626,-0.906226955679059,1.739604655985534,-1.8668793290287256
1788862282988135200,12.09313525390625,0.022760113340616225,1.6313376118816434,-0.7167804886221886
1788862282998142000,12.103141845703124,0.6380360377311706,0.04991919229254126,1.3709537144228816
1788862283008148200,12.113148193359375,0.4869260233312845,-2.0128554876714944,2.3882377833157777
1788862283018155000,12.123155029296875,-0.13186696926951408,-3.3790172916427252,1.5150626178890465
1788862283028161000,12.1331611328125,-0.6991992392241955,-3.2948306496977806,0.1374709267564118
1788862283038168000,12.14316796875,-0.7139630931138992,-2.2249325964704156,-0.7158356820527464
1788862283048174000,12.153174072265625,0.16264438484907148,0.494255489436537,-1.1005891056977213
1788862283058181000,12.16318115234375,1.6229571754187344,3.0301620606571436,-0.3592720686469227
1788862283068187000,12.173186767578125,3.734547762608528,3.5864310848057266,0.815631469605118
1788862283078193200,12.183193115234374,4.867113868933916,2.6838907086849213,1.2738177206642924
1788862283088200200,12.1932001953125,3.0049639065146443,1.5333774422585964,0.2708738734215498
1788862283098206000,12.2032060546875,1.7669558965086936,0.11572729698196053,-0.09289842925406992
1788862283108213200,12.213213134765626,1.2310767494380472,-1.4245797984093427,0.62556964712888
1788862283118219300,12.22321923828125,0.8546972594499588,-1.8665040659755467,1.2486549300961196
1788862283128226000,12.23322607421875,1.961945384645462,-1.1294707706585525,1.810433365315944
1788862283138232000,12.243232177734376,2.457562663954496,0.12576105360984802,1.1705873555533588
1788862283148238000,12.253238037109375,1.1893781268715857,1.8310709335446356,-1.0865298198807984
1788862283158245000,12.2632451171875,0.040697921091318125,3.3378248650327325,-2.5054990118667484
1788862283168251100,12.273251220703125,0.9506173015475272,3.469145890857279,-1.3899565210565923
1788862283178258200,12.283258056640625,3.748255385443568,2.4523329466074704,0.8648683787219226
1788862283188264200,12.29326416015625,4.708490994685888,1.6840952424705027,2.3156804966270923
1788862283198271000,12.30327099609375,2.906058126604557,1.2046873396843671,2.5199632982879874
1788862283208277000,12.313277099609374,1.6111422344624995,0.4619669386416673,1.5919279770351946
1788862283218284000,12.323283935546876,1.5913409709274768,-0.43934155759662386,0.34168438950814306
1788862283228290000,12.3332900390625,1.9900164638757705,-1.5019634823411703,0.24248291458711027
1788862283238297000,12.343297119140624,2.6250544888347385,-2.25631206959635,1.0297576929535717
1788862283248303000,12.35330322265625,3.330094855302572,-2.3399451693117617,1.4694883229330182
1788862283258309000,12.36330908203125,2.3990368252277374,-1.2962360348299145,0.44366000531762834
1788862283268316000,12.37331591796875,1.3855436730504036,0.09226970289647579,-0.8995956279058008
1788862283278322000,12.383322021484375,1.2902566681593657,0.9161977300733327,-1.486984232135117
1788862283288329200,12.3933291015625,1.6013959164738654,1.4197621689945459,-1.0799835400424898
1788862283298335000,12.4033349609375,1.2830518513470888,2.05501354444325,-0.4925224916314706
1788862283308342000,12.413342041015625,0.9571791442811488,2.6371698740422724,-0.012127002580091356
1788862283318348300,12.423348388671876,0.12778934456706045,3.1724142303407192,0.22811337551092728
1788862283328355000,12.43335498046875,-0.1812017858028412,3.3018063339293002,0.6973262849591672
1788862283338361000,12.443361083984374,0.8299491871625184,2.362107901281118,2.275519312760979
1788862283348367000,12.4533671875,1.267094403758645,0.9912707989752292,3.804780113480985
1788862283358374100,12.4633740234375,0.4767646948009729,-0.3649731298327446,3.8431235804006456
1788862283368380200,12.473380126953124,-0.9336287573456764,-1.334780869540572,2.4567133536487815
1788862283378387200,12.48338720703125,-1.2830658798724413,-2.447939680084586,1.0238523413673042
1788862283388393200,12.493393310546875,-1.0625503208130598,-3.957548708742857,0.11594349701590835
1788862283398400000,12.50339990234375,-1.890502781200409,-4.542398515209555,-0.8772457758665084
1788862283408406000,12.513406005859375,-2.865531470426917,-4.038160707071423,-1.6593927628904581
1788862283418413000,12.5234130859375,-4.001299003142118,-3.3143998580425977,-1.843223582022637
1788862283428419000,12.533419189453125,-5.056752643692493,-3.107632838350534,-0.814206697499007
1788862283438425000,12.543425048828125,-4.826767245498299,-3.826729202699661,2.1623373163476587
1788862283448432000,12.55343212890625,-4.204960458034277,-4.917525959309935,4.643284070760012
1788862283458438100,12.563438232421875,-4.913253104296326,-5.223056135571003,3.565161794544756
1788862283468445200,12.573445068359375,-4.5656040342301125,-4.312306734031439,0.495597405564785
1788862283478451000,12.583450927734376,-1.353569156640768,-3.3392660037517548,-1.0458118058495223
1788862283488458200,12.593458251953125,2.046501152163744,-2.2358301303207875,-0.6620583530273288
1788862283498464300,12.60346435546875,2.537181559592485,-0.35118776558637615,-0.18357750195823608
1788862283508471300,12.61347119140625,1.4795827237069605,1.3968892429292201,-0.31984519040472803
1788862283518477300,12.623477294921875,1.3235434362113474,2.043211462968588,-0.47774398816190655
1788862283528483300,12.6334833984375,1.643903809596598,1.1708522900998592,0.12603417146280407
