time,seconds_elapsed,z,y,x
1789635184192140800,0.062140869140625,-0.3494842052459717,-0.40860024094581604,1.940851092338562
1789635184202180900,0.072180908203125,-0.27963343262672424,-0.7666851878166199,1.8746436834335327
1789635184212221000,0.082220947265625,-0.31203585863113403,-1.13661789894104,1.724753499031067
1789635184222259700,0.092259765625,-0.3309483230113983,-1.3431791067123413,1.5417094230651855
1789635184232299800,0.1022998046875,-0.1692046821117401,-1.565064549446106,1.3542900085449219
1789635184242339800,0.11233984375,0.1348656266927719,-1.659722924232483,1.178378939628601
1789635184252378600,0.122378662109375,0.49246954917907715,-1.56122624874115,1.022905707359314
1789635184262418700,0.132418701171875,0.7470335364341736,-1.3626326322555542,0.8761513233184814
1789635184272458800,0.142458740234375,0.8417179584503174,-1.2636884450912476,0.798469066619873
1789635184282498800,0.152498779296875,0.8611845970153809,-1.497443675994873,0.8323508501052856
1789635184292537600,0.16253759765625,0.9141098260879517,-2.0254058837890625,0.9577533006668091
1789635184302577700,0.17257763671875,0.9995642304420471,-2.745931625366211,1.1230309009552002
1789635184312617700,0.18261767578125,1.1950514316558838,-3.3923683166503906,1.1742949485778809
1789635184322656800,0.19265673828125,1.4865832328796387,-4.015805244445801,1.0341942310333252
1789635184332696800,0.20269677734375,1.8648884296417236,-4.789178848266602,0.7951965928077698
1789635184342736600,0.212736572265625,2.3648688793182373,-5.618561267852783,0.5864498615264893
1789635184352776000,0.22277587890625,3.0276479721069336,-6.212005615234375,0.4724237024784088
1789635184362815700,0.232815673828125,4.098503112792969,-6.210658073425293,0.7298462986946106
1789635184372855800,0.242855712890625,5.0069050788879395,-5.531038284301758,1.373206615447998
1789635184382894800,0.252894775390625,5.004218578338623,-4.510826110839844,1.9606449604034424
1789635184392935000,0.262934814453125,4.376394271850586,-4.073793888092041,2.1465368270874023
1789635184402974700,0.272974609375,3.924834728240967,-4.217041015625,2.136493682861328
1789635184413013800,0.283013671875,3.89536714553833,-4.849242687225342,2.1426682472229004
1789635184423053800,0.2930537109375,4.116892337799072,-5.4000067710876465,2.313778877258301
1789635184433094000,0.303093994140625,4.479793548583984,-5.560865879058838,2.590352773666382
1789635184443133000,0.3131328125,4.861736297607422,-5.533440113067627,2.8206019401550293
1789635184453172700,0.3231728515625,5.1587066650390625,-5.186501979827881,2.810695171356201
1789635184463212800,0.333212890625,5.339720249176025,-4.658492565155029,2.655338764190674
1789635184473251800,0.343251953125,5.461830139160156,-4.277263641357422,2.6746673583984375
1789635184483292000,0.3532919921875,5.58196496963501,-3.785159111022949,2.7844631671905518
1789635184493332000,0.36333203125,5.577031135559082,-3.187530279159546,2.879164934158325
1789635184503370800,0.373370849609375,5.3775529861450195,-2.7582435607910156,2.952913522720337
1789635184513410800,0.383410888671875,5.103680610656738,-2.5823354721069336,2.93194842338562
1789635184523451000,0.393450927734375,4.784552097320557,-2.394526958465576,2.8186585903167725
1789635184533489700,0.40348974609375,4.445087432861328,-1.9943128824234009,2.7597951889038086
1789635184543529700,0.41352978515625,3.99767804145813,-1.4458682537078857,2.706984758377075
1789635184553569800,0.42356982421875,3.4835574626922607,-0.942903459072113,2.597198247909546
1789635184563608800,0.43360888671875,3.015421152114868,-0.7455387711524963,2.524066209793091
1789635184573648600,0.443648681640625,2.7293522357940674,-0.7231271862983704,2.461418867111206
1789635184583688700,0.453688720703125,2.512646198272705,-0.7902227640151978,2.3334367275238037
1789635184593727700,0.463727783203125,2.3451457023620605,-0.9232854843139648,2.1545369625091553
1789635184603767800,0.473767822265625,2.237046718597412,-1.1039187908172607,1.9563254117965698
1789635184613807900,0.483807861328125,2.23803973197937,-1.424289584159851,1.6966913938522339
1789635184623846700,0.4938466796875,1.98214852809906,-1.7770318984985352,0.5598175525665283
1789635184633886700,0.50388671875,1.2955409288406372,-1.7363784313201904,-2.211101770401001
1789635184643926800,0.5139267578125,1.6316497325897217,0.028433047235012054,-3.263272762298584
1789635184653965800,0.5239658203125,2.087606906890869,1.1306769847869873,-2.6078994274139404
1789635184664005600,0.534005615234375,2.57145357131958,0.47729575634002686,-1.883543610572815
1789635184674045700,0.544045654296875,3.148594617843628,-0.7812912464141846,-0.7926523089408875
1789635184684085000,0.5540849609375,3.7751331329345703,-1.3945014476776123,0.3557269275188446
1789635184694124800,0.564124755859375,4.418354034423828,-1.7917108535766602,0.781931459903717
1789635184704164900,0.574164794921875,4.454915523529053,-2.246105194091797,0.6128961443901062
1789635184714204000,0.584203857421875,4.095121383666992,-2.0401482582092285,0.35800501704216003
1789635184724244000,0.594243896484375,3.682810068130493,-1.5032142400741577,0.22870010137557983
1789635184734283800,0.60428369140625,3.3841402530670166,-1.0860412120819092,0.13551609218120575
1789635184744322800,0.61432275390625,3.139934778213501,-0.8924083113670349,-0.08801260590553284
1789635184754363000,0.62436279296875,2.783797025680542,-1.16196608543396,0.08164460211992264
1789635184764403000,0.63440283203125,3.0065460205078125,-1.495920181274414,0.1564379632472992
1789635184774441700,0.644441650390625,3.1924901008605957,-1.8296602964401245,0.015617198310792446
1789635184784481800,0.654481689453125,3.060746908187866,-2.139159917831421,-0.15469878911972046
1789635184794521900,0.66452197265625,2.758951187133789,-1.4308558702468872,-0.21201853454113007
1789635184804561000,0.674560791015625,2.525937557220459,-0.8349580764770508,-0.20993292331695557
1789635184814600700,0.6846005859375,1.9018223285675049,-0.9933876395225525,-0.05277633294463158
1789635184824640800,0.694640869140625,1.0408433675765991,-1.7002801895141602,0.1852974146604538
1789635184834679800,0.7046796875,0.4651052951812744,-1.8521597385406494,0.530927836894989
1789635184844719900,0.714719970703125,0.5425121784210205,-1.7536250352859497,0.6380902528762817
1789635184854759700,0.724759765625,0.7129611372947693,-1.8238648176193237,0.5977169871330261
1789635184864798700,0.734798828125,0.5162013173103333,-1.7098579406738281,0.522955596446991
1789635184874838800,0.7448388671875,0.5381931662559509,-1.5275059938430786,0.3100193440914154
1789635184884878800,0.75487890625,0.9699981808662415,-1.275213599205017,0.2040480226278305
1789635184894918700,0.764918701171875,1.4199384450912476,-1.1097886562347412,0.259771466255188
1789635184904957700,0.774957763671875,1.751869559288025,-1.08219575881958,0.4176827073097229
1789635184914997800,0.784997802734375,1.929299235343933,-1.124144196510315,0.5219278931617737
1789635184925037800,0.795037841796875,1.6073846817016602,-1.2165509462356567,0.6433775424957275
1789635184935076600,0.80507666015625,1.060935378074646,-0.9706760048866272,0.6758305430412292
1789635184945116700,0.81511669921875,0.6497675776481628,-0.6015554070472717,0.4191296696662903
1789635184955156700,0.82515673828125,0.5453956127166748,-0.2918665111064911,0.0939188301563263
1789635184965196000,0.835196044921875,0.5580055117607117,-0.13507124781608582,-0.1000010073184967
1789635184975235800,0.84523583984375,0.73670494556427,0.049594465643167496,-0.12394256144762039
1789635184985276000,0.85527587890625,0.950339674949646,0.4255220293998718,-0.3338133692741394
1789635184995315200,0.865315185546875,0.9480661749839783,0.6444128155708313,-0.6660591959953308
1789635185005355000,0.87535498046875,0.7966569662094116,0.6458745002746582,-0.843177855014801
1789635185015395000,0.88539501953125,0.578298807144165,0.5013034343719482,-0.8272886276245117
1789635185025434000,0.89543408203125,0.42188170552253723,0.4041483700275421,-0.703685462474823
1789635185035474200,0.90547412109375,0.3366784155368805,0.5356470346450806,-0.6708577871322632
1789635185045514000,0.915513916015625,0.2170824408531189,0.6280287504196167,-0.6584537625312805
1789635185055553000,0.925552978515625,-0.0744442269206047,0.6911706924438477,-0.6764617562294006
1789635185065593000,0.935593017578125,-0.16752922534942627,0.8292266726493835,-0.7257189750671387
1789635185075633200,0.945633056640625,-0.05379680544137955,0.7133354544639587,-0.618111789226532
1789635185085672200,0.955672119140625,0.00829683430492878,0.3643430769443512,-0.293348103761673
1789635185095712000,0.9657119140625,0.03523976728320122,0.20698459446430206,-0.16114558279514313
1789635185105752000,0.975751953125,0.0823952853679657,-0.09902869910001755,-0.04117836430668831
1789635185115791000,0.985791015625,0.19888435304164886,-0.4065631031990051,0.021483687683939934
1789635185125831200,0.9958310546875,0.27051058411598206,-0.7614235877990723,0.1341686248779297
1789635185135871000,1.00587109375,0.3370398283004761,-1.151185154914856,0.195712149143219
1789635185145910000,1.015909912109375,0.39245012402534485,-1.1133778095245361,0.09629306197166443
1789635185155950000,1.0259501953125,0.3786701560020447,-0.9011214375495911,0.029119089245796204
1789635185165990100,1.035990234375,0.3582265079021454,-0.6257431507110596,-0.09613186866044998
1789635185176029000,1.04602880859375,0.3218250870704651,-0.3998149633407593,-0.09833697229623795
1789635185186069000,1.056069091796875,0.27087533473968506,-0.21124374866485596,-0.02030367963016033
1789635185196109000,1.066109130859375,0.16041354835033417,-0.07104136049747467,0.046236466616392136
1789635185206148000,1.076148193359375,0.05101120099425316,0.06080154329538345,-0.011098673567175865
1789635185216188000,1.08618798828125,-0.09435824304819107,0.09359277784824371,-0.03308439999818802
1789635185226228000,1.09622802734375,-0.290088415145874,-0.27365854382514954,0.04099544137716293
1789635185236267000,1.10626708984375,-0.47031331062316895,-0.6938278675079346,0.16328194737434387
1789635185246307000,1.11630712890625,-0.6132420301437378,-0.9143528342247009,0.06945373117923737
1789635185256347000,1.126346923828125,-0.5964337587356567,-0.9799259901046753,-0.09295595437288284
1789635185266386000,1.136385986328125,-0.48392754793167114,-0.7973979711532593,-0.2597027122974396
1789635185276426000,1.146426025390625,-0.18578240275382996,-0.945956289768219,-0.42225462198257446
1789635185286466000,1.156466064453125,0.3136046528816223,-1.1245516538619995,-0.3568135201931
1789635185296505000,1.166505126953125,0.7077189683914185,-0.9257874488830566,-0.13002298772335052
1789635185306545000,1.176544921875,0.6123635768890381,-0.6924872398376465,-0.18790055811405182
1789635185316585000,1.1865849609375,0.3110676407814026,-0.4845913350582123,-0.4044475257396698
1789635185326625000,1.196625,0.029560983180999756,-0.15480203926563263,-0.7255169749259949
1789635185336664000,1.2066640625,-0.21840301156044006,-1.943735957145691,-0.5856235027313232
1789635185346704100,1.2167041015625,0.032810866832733154,-2.9821255207061768,-0.5570715069770813
1789635185356744000,1.226743896484375,0.2010163813829422,-2.9671435356140137,-0.16929024457931519
1789635185366783200,1.236783203125,0.3072395622730255,-3.291137933731079,-0.5271314978599548
1789635185376823000,1.246822998046875,0.433738112449646,-2.9536707401275635,-1.2880582809448242
1789635185386863000,1.256863037109375,0.4031038284301758,-1.3383233547210693,-1.0097066164016724
1789635185396902100,1.266902099609375,0.7667919993400574,-0.8240359425544739,-0.7285835146903992
1789635185406942200,1.276942138671875,0.9786244630813599,-0.43386417627334595,-0.7476118206977844
1789635185416982000,1.28698193359375,0.9056466817855835,0.17371392250061035,-0.7941500544548035
1789635185427021000,1.29702099609375,1.0826891660690308,0.15178042650222778,-0.9180638790130615
1789635185437061000,1.30706103515625,0.8075228333473206,1.016085147857666,-0.4702000617980957
1789635185447101200,1.31710107421875,0.8767322897911072,1.112115502357483,-0.32164257764816284
1789635185457140000,1.327139892578125,0.9038342237472534,1.074891209602356,-0.33742979168891907
1789635185467180000,1.337179931640625,0.7903980612754822,0.7566096782684326,-0.3256882131099701
1789635185477220000,1.34722021484375,0.5235498547554016,0.06826351583003998,-0.207380473613739
1789635185487259100,1.357259033203125,0.3316674828529358,-0.13562306761741638,-0.13632772862911224
1789635185497299000,1.367298828125,0.2947573959827423,-0.12301965802907944,-0.07590167224407196
1789635185507339000,1.377339111328125,0.300985723733902,-0.30054691433906555,0.03930754214525223
1789635185517378000,1.3873779296875,0.3465345799922943,-0.4115738272666931,0.06435510516166687
1789635185527418000,1.397418212890625,0.5561975836753845,-0.49929484724998474,0.0499376617372036
1789635185537458000,1.4074580078125,0.709857702255249,-0.3364177942276001,0.03333498165011406
1789635185547497000,1.4174970703125,0.6852644085884094,-0.03761381655931473,0.05775392800569534
1789635185557537000,1.427537109375,0.6051168441772461,0.29218992590904236,0.15134380757808685
1789635185567577000,1.4375771484375,0.49960434436798096,0.5858328938484192,0.36543551087379456
1789635185577616000,1.447615966796875,0.3563433289527893,0.5983121991157532,0.508221447467804
1789635185587656000,1.457656005859375,0.2523789703845978,0.10890461504459381,0.39609238505363464
1789635185597696000,1.467696044921875,0.19596363604068756,-0.30226588249206543,0.20743751525878906
1789635185607735000,1.477735107421875,0.04094616323709488,-0.3721907436847687,0.17861856520175934
1789635185617774800,1.48777490234375,-0.1189553514122963,-0.4721199870109558,0.15660274028778076
1789635185627815000,1.49781494140625,-0.10053087025880814,-0.3916350305080414,0.0033895026426762342
1789635185637854200,1.507854248046875,-0.19800123572349548,-0.1600649356842041,-0.1983601301908493
1789635185647894300,1.517894287109375,0.013584816828370094,-0.7280210256576538,-0.2155875861644745
1789635185657933800,1.527933837890625,0.5249876379966736,-1.2919601202011108,-0.11524394154548645
1789635185667973000,1.53797314453125,0.7635682225227356,-1.4840563535690308,0.05127499997615814
1789635185678013200,1.54801318359375,0.8041524291038513,-1.238983154296875,0.16407957673072815
1789635185688053200,1.55805322265625,0.8415671586990356,-1.0227704048156738,0.14700312912464142
1789635185698093000,1.568093017578125,0.826140820980072,-0.9435080289840698,0.03938824683427811
1789635185708132000,1.578132080078125,0.9004843235015869,-1.0787532329559326,-0.09037695080041885
1789635185718172200,1.588172119140625,0.9934041500091553,-1.0920506715774536,-0.19006013870239258
1789635185728212200,1.598212158203125,1.0997432470321655,-1.0883300304412842,-0.22209405899047852
1789635185738251000,1.6082509765625,1.090910792350769,-1.0466185808181763,-0.25351136922836304
1789635185748291000,1.618291015625,1.128204107284546,-1.1522746086120605,-0.20219987630844116
1789635185758331100,1.6283310546875,1.0993508100509644,-1.2431600093841553,-0.031506434082984924
1789635185768370200,1.6383701171875,0.8138407468795776,-1.205497145652771,0.27686771750450134
1789635185778410000,1.648409912109375,0.2616276443004608,-0.8389793634414673,0.4584020972251892
1789635185788450000,1.658449951171875,-0.2349151223897934,-0.6764888763427734,0.3478008210659027
1789635185798489000,1.668489013671875,-0.664962887763977,-0.7997431755065918,0.24262674152851105
1789635185808529200,1.678529052734375,-0.4348713457584381,-1.223226547241211,-0.08167330920696259
1789635185818569000,1.68856884765625,-0.11943349242210388,-1.384603500366211,-0.1849491000175476
1789635185828608000,1.69860791015625,-0.08873153477907181,-1.6355715990066528,-0.053363703191280365
1789635185838648000,1.70864794921875,0.05204715579748154,-1.7321839332580566,0.12645931541919708
1789635185848688000,1.718688232421875,0.17952769994735718,-1.2463419437408447,0.18535570800304413
1789635185858727000,1.728726806640625,-0.021413132548332214,-0.6437093019485474,0.11772606521844864
1789635185868767000,1.73876708984375,-0.08358673751354218,-0.36821359395980835,0.02899978496134281
1789635185878807000,1.74880712890625,-0.02032974176108837,-0.2639087736606598,-0.09654855728149414
1789635185888846000,1.75884619140625,0.07383602857589722,-0.35431233048439026,-0.1305459588766098
1789635185898886000,1.768885986328125,0.1272907257080078,-0.4074898064136505,-0.05736549198627472
1789635185908926000,1.778926025390625,0.19910928606987,-0.2881551682949066,-0.07851140201091766
1789635185918965000,1.788965087890625,0.3629722595214844,-0.16936273872852325,-0.2810131013393402
1789635185929005000,1.799005126953125,0.566031813621521,-0.13620148599147797,-0.4419842064380646
1789635185939044900,1.809044921875,0.7450752854347229,-0.262460857629776,-0.4359753131866455
1789635185949084200,1.819084228515625,0.8346303105354309,-0.30100104212760925,-0.3852977752685547
1789635185959124200,1.829124267578125,0.818790078163147,-0.3325403332710266,-0.3263513743877411
1789635185969164000,1.8391640625,0.7576442360877991,-0.3282913565635681,-0.2766686975955963
1789635185979204000,1.8492041015625,0.6853505969047546,-0.24878482520580292,-0.2803233563899994
1789635185989243400,1.859243408203125,0.6519511938095093,-0.2149977833032608,-0.31536805629730225
1789635185999283200,1.869283203125,0.6276338696479797,-0.27485740184783936,-0.29767081141471863
1789635186009323000,1.879322998046875,0.5667515993118286,-0.3042878806591034,-0.26259782910346985
1789635186019362300,1.8893623046875,0.5196903347969055,-0.2365812510251999,-0.302892804145813
1789635186029402400,1.89940234375,0.5205597281455994,-0.2585476338863373,-0.3340594470500946
1789635186039442200,1.909442138671875,0.5003191232681274,-0.2548879086971283,-0.3084776699542999
1789635186049481200,1.919481201171875,0.46334922313690186,-0.17054329812526703,-0.2788165211677551
1789635186059521300,1.929521240234375,0.4157015383243561,-0.1534668505191803,-0.2643912434577942
1789635186069561300,1.939561279296875,0.349552184343338,-0.18046154081821442,-0.2940480411052704
1789635186079600000,1.94960009765625,0.3208038806915283,-0.25368407368659973,-0.32740625739097595
1789635186089640200,1.95964013671875,0.35032281279563904,-0.2885495722293854,-0.3012342154979706
1789635186099680300,1.96968017578125,0.41559579968452454,-0.24828310310840607,-0.27544525265693665
1789635186109719300,1.97971923828125,0.4792633354663849,-0.2078820765018463,-0.250866562128067
1789635186119759400,1.98975927734375,0.5885869264602661,-0.3623638153076172,-0.23679840564727783
1789635186129799200,1.999799072265625,0.48681536316871643,-0.38464096188545227,-0.15934871137142181
1789635186139838200,2.009838134765625,0.31227391958236694,-0.1336318999528885,-0.12951599061489105
1789635186149878300,2.019878173828125,0.156142920255661,0.04671990126371384,-0.20892593264579773
1789635186159918300,2.02991845703125,0.13778148591518402,0.040462806820869446,-0.32740652561187744
1789635186169957000,2.03995703125,0.19026631116867065,-0.0069311875849962234,-0.3785577714443207
1789635186179997200,2.0499970703125,0.21586275100708008,-0.026774931699037552,-0.4148651659488678
1789635186190037200,2.060037353515625,0.2407495081424713,-0.026438014581799507,-0.47814470529556274
1789635186200076000,2.070075927734375,0.2560318112373352,-0.019810471683740616,-0.49368664622306824
1789635186210116000,2.0801162109375,0.25579559803009033,0.008082816377282143,-0.4838307499885559
1789635186220156200,2.09015625,0.23709434270858765,-0.012587575241923332,-0.48004746437072754
1789635186230196200,2.1001962890625,0.29517167806625366,-0.057719018310308456,-0.5212408900260925
1789635186240235300,2.1102353515625,0.3195582330226898,-0.1708863228559494,-0.5737669467926025
1789635186250275000,2.120275146484375,0.3646757900714874,-0.2530181109905243,-0.5863545536994934
1789635186260315100,2.130315185546875,0.484588086605072,-0.43526941537857056,-0.6092478632926941
1789635186270354200,2.140354248046875,0.5433512926101685,-0.4818072021007538,-0.6187195181846619
1789635186280394200,2.150394287109375,0.5584567189216614,-0.536514937877655,-0.604889988899231
1789635186290434000,2.16043408203125,0.6510317325592041,-0.5697044730186462,-0.5938433408737183
1789635186300473000,2.17047314453125,0.6714525818824768,-0.6424604058265686,-0.5769842267036438
1789635186310513200,2.18051318359375,0.299751341342926,-0.5895319581031799,-0.5568400621414185
1789635186320553200,2.19055322265625,0.3033072054386139,-0.3063138425350189,-0.4736647605895996
1789635186330592300,2.20059228515625,0.3501390218734741,-0.18067717552185059,-0.32772549986839294
1789635186340632300,2.21063232421875,0.1232195720076561,0.047440677881240845,-0.3804265260696411
1789635186350672100,2.220672119140625,-0.018062878400087357,0.1873035728931427,-0.4945037066936493
1789635186360711200,2.230711181640625,-0.1551821231842041,0.27255532145500183,-0.46166348457336426
1789635186370751200,2.240751220703125,-0.32678765058517456,0.4287627935409546,-0.35051512718200684
1789635186380791300,2.250791259765625,-0.5700841546058655,0.6070849299430847,-0.20002788305282593
1789635186390830300,2.260830322265625,-0.5264219641685486,0.5945857167243958,-0.2030923068523407
1789635186400870400,2.270870361328125,-0.3246028423309326,0.13331767916679382,-0.3762536942958832
1789635186410910200,2.28091015625,-0.1654374897480011,-0.2232212871313095,-0.3553800880908966
1789635186420949200,2.29094921875,0.003787490539252758,-0.2998015284538269,-0.188374862074852
1789635186430989300,2.3009892578125,0.018828600645065308,-0.33668890595436096,-0.11262620240449905
1789635186441029400,2.311029296875,0.02430672198534012,-0.25239187479019165,-0.15635184943675995
1789635186451068200,2.321068115234375,-0.04732443019747734,-0.3407076895236969,-0.17327234148979187
1789635186461108200,2.331108154296875,-0.12795643508434296,-0.7819149494171143,-0.08553317189216614
1789635186471148300,2.341148193359375,-0.09031377732753754,-1.1820385456085205,0.03696407005190849
1789635186481188400,2.351188232421875,0.17485930025577545,-0.7247844338417053,0.047320570796728134
1789635186491227100,2.36122705078125,0.35312554240226746,0.06976905465126038,0.003096028696745634
1789635186501267200,2.37126708984375,0.41648560762405396,0.19271227717399597,-0.0302419550716877
1789635186511307300,2.381307373046875,0.3903355002403259,0.06668073683977127,-0.07654188573360443
1789635186521346300,2.39134619140625,0.24431757628917694,0.03809595853090286,-0.04382947459816933
1789635186531386000,2.40138623046875,0.12569066882133484,-0.03698180615901947,0.08197909593582153
1789635186541426200,2.41142626953125,0.13542772829532623,-0.22419244050979614,0.2490714192390442
1789635186551465200,2.42146533203125,0.004262696951627731,-0.25881505012512207,0.3838363587856293
1789635186561505300,2.43150537109375,-0.005777686834335327,-0.2658252716064453,0.469184547662735
1789635186571545000,2.441545166015625,0.07557106018066406,-0.21329611539840698,0.5387528538703918
1789635186581584100,2.451584228515625,0.030999068170785904,-0.13955292105674744,0.6744135022163391
1789635186591624200,2.461624267578125,-0.05659724771976471,-0.10523775964975357,0.7674255967140198
1789635186601664300,2.471664306640625,-0.09252914786338806,-0.10491791367530823,0.8859375715255737
1789635186611703000,2.481703125,-0.17100228369235992,-0.0669141635298729,0.962672233581543
1789635186621743000,2.4917431640625,-0.17505455017089844,0.03386890888214111,1.0181926488876343
1789635186631783200,2.501783203125,-0.15888045728206635,0.1629399061203003,1.0909234285354614
1789635186641822200,2.511822265625,-0.12339863181114197,0.2003445327281952,1.191089153289795
1789635186651862300,2.5218623046875,-0.07847977429628372,0.18530119955539703,1.2956492900848389
1789635186661902000,2.531902099609375,-0.03491045907139778,0.12466688454151154,1.3780781030654907
1789635186671941400,2.54194140625,-0.011633080430328846,0.08963125944137573,1.4558067321777344
1789635186681981400,2.5519814453125,-0.0016406336799263954,0.1465912163257599,1.546388864517212
1789635186692021200,2.562021240234375,0.02251496911048889,0.2716829180717468,1.6398297548294067
1789635186702061000,2.57206103515625,0.05879601091146469,0.386136531829834,1.7453745603561401
1789635186712100400,2.582100341796875,0.10541176795959473,0.45243433117866516,1.831783652305603
1789635186722140400,2.592140380859375,0.14527957141399384,0.47000667452812195,1.881376028060913
1789635186732180200,2.60218017578125,0.17634905874729156,0.46251630783081055,1.8773821592330933
1789635186742219300,2.61221923828125,0.20579296350479126,0.45925554633140564,1.82500159740448
1789635186752259300,2.62225927734375,0.21095983684062958,0.4642874598503113,1.751184105873108
1789635186762299400,2.63229931640625,0.1879863440990448,0.45711448788642883,1.6437630653381348
1789635186772338200,2.642338134765625,0.14447610080242157,0.39190778136253357,1.5197559595108032
1789635186782378200,2.652378173828125,0.09469442069530487,0.3373872637748718,1.4102153778076172
1789635186792418300,2.662418212890625,0.0297683235257864,0.33834874629974365,1.3142894506454468
1789635186802457300,2.672457275390625,-0.025616904720664024,0.38240623474121094,1.2160146236419678
1789635186812497200,2.6824970703125,-0.03950882330536842,0.4506274461746216,1.1164939403533936
1789635186822537200,2.692537109375,-0.030196279287338257,0.5579025149345398,1.0253853797912598
1789635186832576300,2.702576171875,-0.001933877356350422,0.6517348289489746,0.9392169117927551
1789635186842616300,2.7126162109375,0.05122494697570801,0.6424659490585327,0.8474994897842407
1789635186852656000,2.72265625,0.11975767463445663,0.586336076259613,0.749148428440094
1789635186862695200,2.732695068359375,0.16000235080718994,0.5219500660896301,0.6474165916442871
1789635186872735200,2.7427353515625,0.158819779753685,0.39938974380493164,0.5280246734619141
1789635186882775300,2.752775390625,0.14721451699733734,0.17323996126651764,0.34622588753700256
1789635186892815000,2.762815185546875,0.18202853202819824,-0.08826443552970886,0.12748704850673676
1789635186902854100,2.772854248046875,0.24814869463443756,-0.3239949345588684,-0.06123173609375954
1789635186912894200,2.782894287109375,0.2928001582622528,-0.4897390902042389,-0.18163660168647766
1789635186922934300,2.792934326171875,0.24440385401248932,-0.653455913066864,-0.24506697058677673
1789635186932973000,2.80297314453125,0.11871230602264404,-0.7936006784439087,-0.2914866805076599
1789635186943013000,2.81301318359375,-0.005982483737170696,-0.7393427491188049,-0.3467142581939697
1789635186953053200,2.82305322265625,-0.10627789795398712,-0.52699214220047,-0.46974167227745056
1789635186963092000,2.833092041015625,-0.1808064579963684,-0.3097602427005768,-0.6305707693099976
1789635186973132000,2.843132080078125,-0.2121993750333786,-0.08342822641134262,-0.719467282295227
1789635186983172000,2.853172119140625,-0.1897531896829605,0.0589694045484066,-0.7321393489837646
1789635186993211100,2.863211181640625,-0.16958919167518616,0.011803030036389828,-0.7181673049926758
1789635187003251200,2.873251220703125,-0.1765213906764984,-0.04887949302792549,-0.680874228477478
1789635187013291000,2.883291015625,-0.1845552772283554,0.012520389631390572,-0.5966131687164307
1789635187023330000,2.893330078125,-0.17907822132110596,0.14533542096614838,-0.45682787895202637
1789635187033370000,2.9033701171875,-0.1715063899755478,0.24892236292362213,-0.2888164222240448
1789635187043410200,2.91341015625,-0.16087105870246887,0.234941303730011,-0.12575559318065643
1789635187053450000,2.923449951171875,-0.1351812183856964,0.11607972532510757,0.01554835308343172
1789635187063489300,2.9334892578125,-0.09455922245979309,0.023599330335855484,0.1273057758808136
1789635187073529000,2.943529052734375,-0.0563802607357502,-0.007953036576509476,0.17387409508228302
1789635187083569200,2.953569091796875,-0.03219955787062645,-0.04575847089290619,0.11200220882892609
1789635187093608200,2.963608154296875,-0.04680456966161728,-0.0935150757431984,-0.015050551854074001
1789635187103648300,2.973648193359375,-0.0699692815542221,-0.18402047455310822,-0.06879553943872452
1789635187113688000,2.98368798828125,-0.029830094426870346,-0.23183554410934448,-0.0370444655418396
1789635187123727000,2.99372705078125,0.046529658138751984,-0.1683891862630844,-0.003408209653571248
1789635187133767200,3.00376708984375,0.1268775314092636,-0.042847827076911926,0.007869787514209747
1789635187143807200,3.01380712890625,0.22098219394683838,0.03976636379957199,0.006696931552141905
1789635187153846000,3.023845947265625,0.3347836434841156,-0.03254048526287079,0.020052216947078705
1789635187163886000,3.033885986328125,0.4395393431186676,-0.2139880508184433,0.03923816233873367
1789635187173926100,3.043926025390625,0.5096287131309509,-0.40819427371025085,0.008973455056548119
1789635187183965200,3.053965087890625,0.5699266791343689,-0.5624940395355225,-0.05292240530252457
1789635187194005000,3.0640048828125,0.6072509288787842,-0.5546635985374451,-0.07135281711816788
1789635187204045000,3.074045166015625,0.6010316014289856,-0.4459804892539978,-0.022635875269770622
1789635187214084000,3.084083984375,0.5547825694084167,-0.3630976378917694,0.026739686727523804
1789635187224124200,3.094124267578125,0.47341257333755493,-0.3572320342063904,0.036191511899232864
1789635187234164000,3.1041640625,0.35464078187942505,-0.3535490930080414,-0.02179138734936714
1789635187244204000,3.1142041015625,0.20375566184520721,-0.34257182478904724,-0.1543624848127365
1789635187254243000,3.1242431640625,0.05748971179127693,-0.3084767162799835,-0.2948146462440491
1789635187264283100,3.134283203125,-0.023389160633087158,-0.21184100210666656,-0.42976152896881104
1789635187274323000,3.144322998046875,-0.036990754306316376,-0.08753876388072968,-0.5696091651916504
1789635187284362000,3.154362060546875,-0.028767179697752,0.07297581434249878,-0.6857291460037231
1789635187294402000,3.164402099609375,-0.007920583710074425,0.3422126770019531,-0.820335328578949
1789635187304442000,3.174442138671875,-0.00897839106619358,0.49803370237350464,-0.9499633312225342
1789635187314481000,3.18448095703125,-0.0660552829504013,0.3735348880290985,-1.018678069114685
1789635187324521000,3.19452099609375,-0.15563654899597168,0.09144062548875809,-1.0290497541427612
1789635187334561000,3.20456103515625,-0.18970240652561188,-0.10796410590410233,-1.0410840511322021
1789635187344600300,3.214600341796875,-0.10596491396427155,-0.23766350746154785,-1.0498336553573608
1789635187354640100,3.22464013671875,-0.005938896909356117,-0.36358675360679626,-1.0348201990127563
1789635187364680000,3.234679931640625,-0.0014008695725351572,-0.4841461777687073,-0.96903395652771
1789635187374720000,3.244719970703125,-0.0931214690208435,-0.5850381851196289,-0.8642476797103882
1789635187384759300,3.25475927734375,-0.20109879970550537,-0.5962666273117065,-0.8350389003753662
1789635187394799000,3.264799072265625,-0.2933066189289093,-0.49696195125579834,-0.8600401878356934
1789635187404839000,3.2748388671875,-0.3391404449939728,-0.37601450085639954,-0.852138340473175
1789635187414878200,3.284878173828125,-0.32721373438835144,-0.26277101039886475,-0.8401354551315308
1789635187424918300,3.294918212890625,-0.2996273636817932,-0.2614900469779968,-0.8350759744644165
1789635187434958000,3.3049580078125,-0.2601882815361023,-0.3884662985801697,-0.8656133413314819
1789635187444997000,3.3149970703125,-0.18206924200057983,-0.5641241073608398,-0.9103730916976929
1789635187455037200,3.325037109375,-0.08025387674570084,-0.6534609198570251,-0.9627736806869507
1789635187465077200,3.3350771484375,-0.020964983850717545,-0.6437669992446899,-0.9361844062805176
1789635187475116000,3.345115966796875,-0.009363396093249321,-0.48820751905441284,-0.806660532951355
1789635187485156000,3.355156005859375,-0.01844237744808197,-0.2111428827047348,-0.6258944869041443
1789635187495196200,3.365196044921875,-0.022235125303268433,0.029781509190797806,-0.4494657516479492
1789635187505235200,3.375235107421875,0.0241805762052536,0.15763534605503082,-0.3048550486564636
1789635187515275000,3.38527490234375,0.10472020506858826,0.1940445452928543,-0.18437139689922333
1789635187525315000,3.395315185546875,0.15194684267044067,0.21846972405910492,-0.0752081573009491
1789635187535355100,3.405355224609375,0.20549385249614716,0.23984166979789734,0.035981036722660065
1789635187545394200,3.415394287109375,0.2622477114200592,0.2800165116786957,0.15301604568958282
1789635187555434000,3.42543408203125,0.3105289340019226,0.30067530274391174,0.29718154668807983
1789635187565474000,3.43547412109375,0.33877894282341003,0.25887060165405273,0.4518510103225708
1789635187575513000,3.44551318359375,0.35707154870033264,0.20135357975959778,0.6391730904579163
1789635187585553200,3.45555322265625,0.38036859035491943,0.2740246057510376,0.8839780688285828
1789635187595593000,3.465593017578125,0.39077848196029663,0.4706651270389557,1.140052318572998
1789635187605632000,3.475632080078125,0.354364812374115,0.5981405377388,1.3604629039764404
1789635187615672000,3.485672119140625,0.3005617558956146,0.5723744034767151,1.521414875984192
1789635187625712000,3.495712158203125,0.2661220133304596,0.379110723733902,1.6201180219650269
1789635187635751000,3.5057509765625,0.22819580137729645,0.09275397658348083,1.6793969869613647
1789635187645791000,3.515791015625,0.1791004240512848,-0.09883489459753036,1.747161865234375
1789635187655831000,3.5258310546875,0.1244455873966217,-0.14210756123065948,1.833007574081421
1789635187665870000,3.5358701171875,0.03765556216239929,-0.06904320418834686,1.874089241027832
1789635187675910000,3.545909912109375,-0.08278187364339828,0.059675365686416626,1.7906183004379272
1789635187685950000,3.555949951171875,-0.21203893423080444,0.15253791213035583,1.5809354782104492
1789635187695990000,3.565989990234375,-0.33307668566703796,0.22338050603866577,1.3049898147583008
1789635187706029000,3.576029052734375,-0.3893127739429474,0.33408892154693604,1.039559245109558
1789635187716068900,3.58606884765625,-0.3924063444137573,0.38469937443733215,0.8005269765853882
1789635187726109000,3.59610888671875,-0.44605547189712524,0.4306543469429016,0.5912196040153503
1789635187736148200,3.606148193359375,-0.5655987858772278,0.6685149073600769,0.49063339829444885
1789635187746188300,3.616188232421875,-0.6434954404830933,0.836167573928833,0.535254955291748
1789635187756228000,3.62622802734375,-0.5760774612426758,0.7821733355522156,0.7014457583427429
1789635187766267100,3.63626708984375,-0.5047460198402405,0.6844393014907837,0.9096221327781677
1789635187776307200,3.64630712890625,-0.5307004451751709,0.5091831684112549,1.1277724504470825
1789635187786347300,3.65634716796875,-0.5369354486465454,0.07467591017484665,1.1811304092407227
1789635187796386000,3.666385986328125,-0.43263575434684753,-0.5832500457763672,0.9309184551239014
1789635187806426000,3.676426025390625,-0.2933673560619354,-1.031795620918274,0.4990442991256714
1789635187816466200,3.686466064453125,-0.28354474902153015,-0.830498218536377,0.10811301320791245
1789635187826506200,3.69650634765625,-0.3950803279876709,-0.03283112123608589,-0.024097759276628494
1789635187836545000,3.706544921875,-0.49412909150123596,0.5681832432746887,0.008240927010774612
1789635187846585000,3.716585205078125,-0.5235404968261719,0.6191353797912598,0.0387229360640049
1789635187856625200,3.726625244140625,-0.49998071789741516,0.36511674523353577,0.02072085626423359
1789635187866664200,3.736664306640625,-0.4270007610321045,0.008516836911439896,0.012536164373159409
1789635187876704000,3.7467041015625,-0.340092271566391,-0.38922029733657837,0.09611955285072327
1789635187886744000,3.756744140625,-0.24184294044971466,-0.7022475004196167,0.2563103139400482
1789635187896783000,3.766783203125,-0.08140010386705399,-0.8418025374412537,0.34905484318733215
1789635187906823200,3.7768232421875,0.08308257907629013,-0.7919987440109253,0.3519670069217682
1789635187916863200,3.78686328125,0.13396170735359192,-0.670390248298645,0.37600889801979065
1789635187926902000,3.796902099609375,0.16315315663814545,-0.38085222244262695,0.4755578637123108
1789635187936942000,3.806942138671875,0.17921598255634308,0.02599427103996277,0.6045653223991394
1789635187946982100,3.816982177734375,0.11250593513250351,0.23608651757240295,0.6639423370361328
1789635187957021000,3.82702099609375,0.026032017543911934,0.27645161747932434,0.6464630365371704
1789635187967061200,3.837061279296875,-0.02279411256313324,0.3228958249092102,0.6147160530090332
1789635187977101000,3.84710107421875,-0.0422210730612278,0.4079076647758484,0.5891401171684265
1789635187987141000,3.85714111328125,-0.016072560101747513,0.48543280363082886,0.5944051742553711
1789635187997180200,3.86718017578125,0.049720074981451035,0.5201147794723511,0.5949544906616211
1789635188007220200,3.87722021484375,0.1352570801973343,0.48367342352867126,0.549088716506958
1789635188017260000,3.887260009765625,0.1988685131072998,0.3882656693458557,0.4786555767059326
1789635188027299000,3.897299072265625,0.24036163091659546,0.28554514050483704,0.423674613237381
1789635188037339100,3.907339111328125,0.28846463561058044,0.24190321564674377,0.379411906003952
1789635188047379200,3.917379150390625,0.33846229314804077,0.22920367121696472,0.3091702163219452
1789635188057418000,3.92741796875,0.35133859515190125,0.21477831900119781,0.23623867332935333
1789635188067458000,3.9374580078125,0.32257696986198425,0.16244454681873322,0.18312591314315796
1789635188077498000,3.947498046875,0.23550960421562195,0.058710891753435135,0.18228663504123688
1789635188087537400,3.957537353515625,0.11816193163394928,-0.008437249809503555,0.24435320496559143
1789635188097577200,3.9675771484375,0.03446801379323006,-0.02449507638812065,0.40100330114364624
1789635188107617000,3.977616943359375,0.019877886399626732,-0.1985883116722107,0.5244261622428894
1789635188117657000,3.987656982421875,0.07359066605567932,-0.3768143355846405,0.5231599807739258
1789635188127696400,3.9976962890625,0.11460227519273758,-0.21240809559822083,0.4641723334789276
1789635188137736200,4.007736083984375,0.07917985320091248,0.12150953710079193,0.4848923087120056
1789635188147776000,4.01777587890625,0.0034802998416125774,0.20077267289161682,0.5816410183906555
1789635188157815300,4.027815185546875,-0.10260078310966492,0.11820435523986816,0.6769436001777649
1789635188167855400,4.03785546875,-0.1797698736190796,0.1179974228143692,0.746709406375885
1789635188177895200,4.047895263671875,-0.17868059873580933,0.10679181665182114,0.7546388506889343
1789635188187934200,4.057934326171875,-0.09106578677892685,-0.04071108251810074,0.7618693113327026
1789635188197974300,4.067974365234375,-0.03209692984819412,-0.19684608280658722,0.7844462990760803
1789635188208014300,4.078014404296875,0.00234094075858593,-0.29906007647514343,0.7706175446510315
1789635188218053000,4.08805322265625,0.014793436974287033,-0.30989912152290344,0.7296195030212402
1789635188228093200,4.09809326171875,0.04878069832921028,-0.27936384081840515,0.7205828428268433
1789635188238133200,4.10813330078125,0.10051241517066956,-0.3479580283164978,0.7382122874259949
1789635188248172300,4.11817236328125,0.14406868815422058,-0.4616747200489044,0.8109403252601624
1789635188258212000,4.128212158203125,0.164143905043602,-0.5409114956855774,0.8376595377922058
1789635188268252200,4.138252197265625,0.1519964337348938,-0.4435249865055084,0.7794172763824463
1789635188278292200,4.148292236328125,0.05758386850357056,-0.028755884617567062,0.7433640956878662
1789635188288331300,4.158331298828125,-0.0998302549123764,0.29828429222106934,0.7941146492958069
1789635188298371000,4.16837109375,-0.21822865307331085,0.2242196798324585,0.8607711791992188
1789635188308411100,4.1784111328125,-0.30571404099464417,0.009789670817553997,0.8620476126670837
1789635188318450200,4.1884501953125,-0.3685057461261749,-0.09951812028884888,0.8216720223426819
1789635188328490200,4.198490234375,-0.3840564787387848,-0.01082579791545868,0.7691845893859863
1789635188338530000,4.208530029296875,-0.3943037688732147,0.22596301138401031,0.6628026366233826
1789635188348569000,4.218569091796875,-0.43121328949928284,0.4157657027244568,0.5058484673500061
1789635188358609200,4.228609130859375,-0.44306695461273193,0.503943920135498,0.2982332408428192
1789635188368649200,4.238649169921875,-0.44106611609458923,0.5514976978302002,0.040734343230724335
1789635188378688000,4.24868798828125,-0.3933227062225342,0.6768571734428406,-0.25252899527549744
1789635188388728000,4.25872802734375,-0.3146931529045105,0.873245358467102,-0.5350847840309143
1789635188398768000,4.26876806640625,-0.2946207821369171,1.0050692558288574,-0.7671610713005066
1789635188408808200,4.27880810546875,-0.3579161465167999,0.9601888060569763,-0.9260143637657166
1789635188418847000,4.288846923828125,-0.3915698230266571,0.7995386123657227,-1.0310429334640503
1789635188428887000,4.298886962890625,-0.3786412477493286,0.6849984526634216,-1.1105742454528809
1789635188438927000,4.308927001953125,-0.35460418462753296,0.6811725497245789,-1.1664888858795166
1789635188448966100,4.318966064453125,-0.32018575072288513,0.6878594756126404,-1.2001231908798218
1789635188459006000,4.329005859375,-0.3090730905532837,0.6880607008934021,-1.221582293510437
1789635188469046000,4.3390458984375,-0.34156206250190735,0.7875476479530334,-1.1974021196365356
1789635188479085300,4.349085205078125,-0.3504318296909332,0.9321619868278503,-1.1275651454925537
1789635188489125400,4.35912548828125,-0.3016786575317383,1.025960087776184,-1.0779684782028198
1789635188499165200,4.369165283203125,-0.21778185665607452,1.0035613775253296,-1.0605335235595703
1789635188509204200,4.379204345703125,-0.10452773422002792,0.9572698473930359,-1.0624312162399292
1789635188519244300,4.389244384765625,0.0021084179170429707,0.8730173707008362,-1.056187629699707
1789635188529284400,4.399284423828125,0.07827269285917282,0.7690368890762329,-1.0601139068603516
1789635188539324200,4.40932421875,0.11939866840839386,0.6833041906356812,-1.0646719932556152
1789635188549363200,4.41936328125,0.10316190123558044,0.5438395142555237,-1.0518031120300293
1789635188559403300,4.4294033203125,0.09833773225545883,0.3628371059894562,-0.9984875917434692
1789635188569443300,4.439443359375,0.1426583230495453,0.12609407305717468,-0.9153160452842712
1789635188579482000,4.449482177734375,0.1992369145154953,-0.13415873050689697,-0.8220342397689819
1789635188589522200,4.459522216796875,0.15746070444583893,-0.24694573879241943,-0.7466542720794678
1789635188599562200,4.469562255859375,-0.04978516325354576,-0.1654868721961975,-0.7333146333694458
1789635188609601300,4.479601318359375,-0.341224730014801,0.014314849860966206,-0.7457723617553711
1789635188619641000,4.48964111328125,-0.5499027371406555,0.10707733035087585,-0.7727580666542053
1789635188629681200,4.49968115234375,-0.6029710173606873,0.0385533943772316,-0.8082531690597534
1789635188639720200,4.50972021484375,-0.536335825920105,-0.13492856919765472,-0.7867709398269653
1789635188649760300,4.51976025390625,-0.4008767902851105,-0.33556127548217773,-0.6292279362678528
1789635188659800300,4.52980029296875,-0.28983327746391296,-0.5661123394966125,-0.3967163562774658
1789635188669840100,4.539840087890625,-0.21275952458381653,-0.8269016146659851,-0.18004794418811798
1789635188679879200,4.549879150390625,-0.1617739051580429,-1.0242749452590942,-0.09961959719657898
1789635188689919200,4.559919189453125,-0.21273189783096313,-1.0834487676620483,-0.1632707417011261
1789635188699959300,4.569959228515625,-0.3115783929824829,-0.9313104748725891,-0.3137321472167969
1789635188709998000,4.579998046875,-0.4273090064525604,-0.74422287940979,-0.45769810676574707
1789635188720038100,4.5900380859375,-0.5876428484916687,-0.6240428686141968,-0.542827308177948
1789635188730078200,4.600078125,-0.7910479307174683,-0.4292627274990082,-0.631001353263855
1789635188740117000,4.610116943359375,-0.9588413238525391,-0.227793350815773,-0.7705313563346863
1789635188750157000,4.620156982421875,-1.0708602666854858,-0.20220009982585907,-0.9199126362800598
1789635188760197000,4.630197021484375,-1.1511269807815552,-0.3141900300979614,-1.0489113330841064
1789635188770236200,4.640236083984375,-1.2447969913482666,-0.37943214178085327,-1.1515884399414062
1789635188780276000,4.65027587890625,-1.3437262773513794,-0.3116188943386078,-1.2692527770996094
1789635188790316000,4.66031591796875,-1.402189016342163,-0.10074475407600403,-1.3815046548843384
1789635188800355000,4.67035498046875,-1.3869043588638306,0.13340987265110016,-1.444325566291809
1789635188810395100,4.68039501953125,-1.3033751249313354,0.23792430758476257,-1.4881415367126465
1789635188820435200,4.690435302734375,-1.1648021936416626,0.16672520339488983,-1.548137903213501
1789635188830475000,4.70047509765625,-0.996350884437561,0.02259039506316185,-1.649460792541504
1789635188840514300,4.710514404296875,-0.818051278591156,-0.1525563895702362,-1.7799218893051147
1789635188850554000,4.72055419921875,-0.6475583910942078,-0.2160637378692627,-1.8843692541122437
1789635188860594200,4.73059423828125,-0.5518376231193542,-0.0977003276348114,-1.9540044069290161
1789635188870633200,4.74063330078125,-0.5640484690666199,0.1281288117170334,-1.9804048538208008
1789635188880673300,4.75067333984375,-0.6725253462791443,0.4659806191921234,-2.018588066101074
1789635188890713000,4.760713134765625,-0.6682469844818115,0.6988112330436707,-2.062803268432617
1789635188900752100,4.770752197265625,-0.6222054958343506,0.8263965845108032,-2.0933923721313477
1789635188910792200,4.780792236328125,-0.6094835996627808,0.8842124938964844,-2.0372695922851562
1789635188920832300,4.790832275390625,-0.6007222533226013,0.7676936388015747,-1.9443631172180176
1789635188930872300,4.800872314453125,-0.5909159779548645,0.508114218711853,-1.8355625867843628
1789635188940911000,4.8109111328125,-0.578875720500946,0.08204805850982666,-1.7546712160110474
1789635188950951200,4.820951171875,-0.5497143864631653,-0.11800487339496613,-1.6646052598953247
1789635188960991200,4.8309912109375,-0.5482622981071472,-0.09603301435709,-1.60392165184021
1789635188971031300,4.84103125,-0.5455989241600037,-0.03596195578575134,-1.5940924882888794
1789635188981071000,4.851071044921875,-0.5139934420585632,-0.006500610150396824,-1.604170322418213
1789635188991111200,4.861111083984375,-0.4337065815925598,0.04644782468676567,-1.565032958984375
1789635189001150200,4.871150146484375,-0.3126782178878784,0.19744113087654114,-1.4610681533813477
1789635189011190300,4.881190185546875,-0.19568660855293274,0.3969545066356659,-1.3196181058883667
1789635189021230000,4.89122998046875,-0.08072726428508759,0.5258256793022156,-1.1881115436553955
1789635189031269000,4.90126904296875,0.06068259850144386,0.5006681084632874,-1.0926011800765991
1789635189041309200,4.91130908203125,0.2446216642856598,0.3214094042778015,-1.0245832204818726
1789635189051349200,4.921349365234375,0.4320535957813263,0.1999109536409378,-0.9445677995681763
1789635189061388000,4.931387939453125,0.565522313117981,0.18948501348495483,-0.8521365523338318
1789635189071428000,4.941427978515625,0.5990035533905029,0.12446899712085724,-0.7890798449516296
1789635189081468200,4.95146826171875,0.5441288352012634,0.0976760983467102,-0.7312771677970886
1789635189091508200,4.96150830078125,0.5073519349098206,0.10572469979524612,-0.5937949419021606
1789635189101547000,4.971547119140625,0.4589686393737793,0.11290032416582108,-0.48128625750541687
1789635189111587000,4.981587158203125,0.4497069716453552,0.22884103655815125,-0.39612793922424316
1789635189121627100,4.991627197265625,0.5023794770240784,0.3660114109516144,-0.27898216247558594
1789635189131666200,5.001666259765625,0.5542498826980591,0.4509228467941284,-0.2191225290298462
1789635189141706000,5.0117060546875,0.5869981050491333,0.47944629192352295,-0.258331298828125
1789635189151746000,5.02174609375,0.6260687708854675,0.4015626907348633,-0.2714705169200897
1789635189161785000,5.03178515625,0.6708293557167053,0.2608526945114136,-0.18437077105045319
1789635189171825200,5.0418251953125,0.6815978288650513,0.13523031771183014,-0.0841435119509697
1789635189181865000,5.051864990234375,0.677269697189331,0.10617059469223022,0.0019755796529352665
1789635189191905000,5.061905029296875,0.6675102710723877,0.1312679648399353,0.06196807324886322
1789635189201944000,5.071944091796875,0.6470905542373657,0.11323187500238419,0.052781153470277786
1789635189211984100,5.081984130859375,0.6306761503219604,-0.1900307834148407,-0.0776895061135292
1789635189222024200,5.092024169921875,0.5758655667304993,-0.4403904676437378,-0.138560488820076
1789635189232063000,5.10206298828125,0.5540236234664917,-0.2767522931098938,-0.08678517490625381
1789635189242103000,5.11210302734375,0.5373600721359253,-0.11370841413736343,-0.09642332047224045
1789635189252143000,5.12214306640625,0.5137511491775513,-0.11671938747167587,-0.20970726013183594
1789635189262182000,5.132181884765625,0.4595698416233063,-0.13877896964550018,-0.3327035903930664
1789635189272222000,5.142221923828125,0.3626877963542938,-0.2269676774740219,-0.42329394817352295
1789635189282262000,5.152261962890625,0.27406349778175354,-0.3910593092441559,-0.4762630760669708
1789635189292301000,5.162301025390625,0.2155975103378296,-0.5205952525138855,-0.4807358384132385
1789635189302340900,5.1723408203125,0.16478683054447174,-0.5568430423736572,-0.4981011152267456
1789635189312381000,5.182380859375,0.11956049501895905,-0.6267513036727905,-0.5657035708427429
1789635189322420200,5.192420166015625,0.08019144833087921,-0.6321725249290466,-0.6168387532234192
1789635189332460300,5.202460205078125,0.0332321897149086,-0.6173887848854065,-0.6361216306686401
1789635189342500000,5.2125,0.011655919253826141,-0.4925249516963959,-0.5627138018608093
1789635189352540000,5.222539794921875,0.04498138651251793,-0.2654377520084381,-0.41019511222839355
1789635189362579200,5.2325791015625,0.11075934022665024,-0.201692596077919,-0.3237004578113556
1789635189372619300,5.242619384765625,0.14309462904930115,-0.3167901635169983,-0.3365222215652466
1789635189382659000,5.2526591796875,0.08867762237787247,-0.45650896430015564,-0.31255120038986206
1789635189392698000,5.262697998046875,0.011292820796370506,-0.5538011789321899,-0.13071830570697784
1789635189402738200,5.27273828125,-0.05459797754883766,-0.5351144075393677,0.12073276191949844
1789635189412778200,5.2827783203125,-0.10044722259044647,-0.3900666832923889,0.3768385648727417
1789635189422817000,5.292817138671875,-0.14375421404838562,-0.2942160665988922,0.507347583770752
1789635189432857000,5.302857177734375,-0.19479669630527496,-0.2730019986629486,0.43279168009757996
1789635189442897200,5.312897216796875,-0.20793139934539795,-0.40281379222869873,0.24520792067050934
1789635189452936200,5.322936279296875,-0.14888352155685425,-0.39224717020988464,0.12040793895721436
1789635189462976000,5.33297607421875,-0.1213204488158226,-0.41838759183883667,-0.04920896515250206
1789635189473016000,5.34301611328125,-0.14473389089107513,-0.4675689935684204,-0.27443355321884155
1789635189483056000,5.35305615234375,-0.15921391546726227,-0.33896663784980774,-0.5498455166816711
1789635189493095200,5.36309521484375,-0.1431547850370407,-0.2565324902534485,-0.8603160381317139
1789635189503135200,5.37313525390625,-0.14632847905158997,-0.42482128739356995,-1.0920004844665527
1789635189513175000,5.383175048828125,-0.25862517952919006,-0.7423582673072815,-1.19402015209198
1789635189523214000,5.393214111328125,-0.43311822414398193,-0.9273152351379395,-1.1464141607284546
1789635189533254100,5.403254150390625,-0.5533985495567322,-0.9286239147186279,-0.9306147694587708
1789635189543294200,5.413294189453125,-0.6140165328979492,-0.752301037311554,-0.6319287419319153
1789635189553333000,5.4233330078125,-0.649752676486969,-0.5320996642112732,-0.40030911564826965
1789635189563373000,5.433373046875,-0.6689229607582092,-0.4144759774208069,-0.28258708119392395
1789635189573413000,5.4434130859375,-0.6775524020195007,-0.44347673654556274,-0.26577427983283997
1789635189583452000,5.453451904296875,-0.6573120355606079,-0.5329415798187256,-0.35378697514533997
1789635189593492000,5.463491943359375,-0.6134310960769653,-0.670758843421936,-0.506689727306366
1789635189603532000,5.473531982421875,-0.5576199293136597,-0.6993972659111023,-0.6181463003158569
1789635189613572000,5.483572021484375,-0.51605224609375,-0.5858196020126343,-0.6461954712867737
1789635189623611000,5.49361083984375,-0.5079141855239868,-0.4713209569454193,-0.640043318271637
1789635189633651000,5.50365087890625,-0.5080633163452148,-0.32720187306404114,-0.6229609847068787
1789635189643691000,5.51369091796875,-0.4969762861728668,-0.12370716035366058,-0.6143609285354614
1789635189653730000,5.52372998046875,-0.4938739538192749,-0.05256614089012146,-0.5832182168960571
1789635189663770000,5.53377001953125,-0.45853257179260254,-0.046255066990852356,-0.5670238733291626
1789635189673810000,5.543809814453125,-0.3717755675315857,-0.06903707981109619,-0.5815820693969727
1789635189683849200,5.55384912109375,-0.27959346771240234,-0.20997928082942963,-0.696262538433075
1789635189693889000,5.563888916015625,-0.25310513377189636,-0.354368656873703,-0.9318795800209045
1789635189703929000,5.57392919921875,-0.24876157939434052,-0.4085083603858948,-1.174904465675354
1789635189713968000,5.583968017578125,-0.17995668947696686,-0.3244225084781647,-1.2994410991668701
1789635189724008200,5.59400830078125,-0.13567739725112915,-0.30260756611824036,-1.317114233970642
1789635189734048300,5.60404833984375,-0.14739742875099182,-0.2905847132205963,-1.282307744026184
1789635189744088000,5.614088134765625,-0.18925747275352478,-0.1817445456981659,-1.203933596611023
1789635189754127000,5.624127197265625,-0.2096349149942398,-0.04782110080122948,-1.1362634897232056
1789635189764167200,5.634167236328125,-0.16909849643707275,0.1161951795220375,-1.1922816038131714
1789635189774207200,5.644207275390625,-0.03842036426067352,0.4960530400276184,-1.3819355964660645
1789635189784246300,5.654246337890625,0.15075558423995972,0.7524327039718628,-1.6082268953323364
1789635189794286000,5.6642861328125,0.3091132640838623,0.7494001984596252,-1.7789249420166016
1789635189804326100,5.674326171875,0.37123605608940125,0.6187156438827515,-1.7818728685379028
1789635189814365200,5.684365234375,0.3156191408634186,0.5702857971191406,-1.578800916671753
1789635189824405200,5.6944052734375,0.19197729229927063,0.4930197596549988,-1.305628776550293
1789635189834445000,5.704445068359375,0.07431057840585709,0.5871002078056335,-1.1392123699188232
1789635189844484000,5.714484130859375,0.08089341223239899,0.7627306580543518,-1.0648525953292847
1789635189854524200,5.724524169921875,0.18164798617362976,0.6047891974449158,-1.0872840881347656
1789635189864564200,5.734564208984375,0.2889177203178406,0.42782479524612427,-1.0579427480697632
1789635189874604000,5.74460400390625,0.32151082158088684,0.27453431487083435,-0.9503210186958313
1789635189884643000,5.75464306640625,0.28083837032318115,0.09545066952705383,-0.7327289581298828
1789635189894683100,5.76468310546875,0.2576957643032074,0.08497565239667892,-0.48438677191734314
1789635189904723200,5.77472314453125,0.2052265852689743,0.07618703693151474,-0.39399152994155884
1789635189914762000,5.784761962890625,0.10650454461574554,0.0021652793511748314,-0.4589729309082031
1789635189924802000,5.794802001953125,-0.02459844946861267,0.00887733232229948,-0.5484172701835632
1789635189934842000,5.804842041015625,-0.13128788769245148,0.15482042729854584,-0.6145038604736328
1789635189944881200,5.814881103515625,-0.17469905316829681,0.07010748982429504,-0.61054527759552
1789635189954921000,5.8249208984375,-0.19840197265148163,0.005143939517438412,-0.5338461995124817
1789635189964959700,5.834959716796875,-0.29010897874832153,-0.03171633929014206,-0.4832344353199005
1789635189974999800,5.844999755859375,-0.38967153429985046,-0.08961798995733261,-0.4605770707130432
1789635189985038800,5.855038818359375,-0.4904317557811737,0.059583574533462524,-0.4148648679256439
1789635189995079000,5.865078857421875,-0.5324790477752686,0.2795529365539551,-0.3904719352722168
1789635190005118700,5.87511865234375,-0.4839482009410858,0.42930933833122253,-0.3712937831878662
1789635190015158000,5.885157958984375,-0.39480021595954895,0.5041319131851196,-0.38513317704200745
1789635190025197800,5.89519775390625,-0.3098124861717224,0.4977012574672699,-0.38794752955436707
1789635190035238000,5.90523779296875,-0.3001191318035126,0.4799331724643707,-0.35478290915489197
1789635190045277000,5.91527685546875,-0.3421899080276489,0.4738587737083435,-0.3438785672187805
1789635190055317000,5.92531689453125,-0.37498408555984497,0.3876546621322632,-0.30368080735206604
1789635190065356800,5.935356689453125,-0.35353103280067444,0.40792831778526306,-0.1825825423002243
1789635190075395800,5.945395751953125,-0.2999306619167328,0.46119022369384766,-0.11272995918989182
1789635190085436000,5.955435791015625,-0.21368582546710968,0.379700243473053,-0.2152264267206192
1789635190095476000,5.96547607421875,-0.1288716048002243,0.28610876202583313,-0.32851889729499817
1789635190105516000,5.97551611328125,-0.02165990136563778,0.30889374017715454,-0.35333794355392456
1789635190115554800,5.985554931640625,0.05516377463936806,0.38069814443588257,-0.39199507236480713
1789635190125595000,5.995594970703125,0.05833659693598747,0.3235641121864319,-0.38863086700439453
1789635190135635000,6.005635009765625,0.017244286835193634,0.17066562175750732,-0.2590896487236023
1789635190145673700,6.015673828125,-0.015450307168066502,0.14797469973564148,-0.05421215668320656
1789635190155713800,6.0257138671875,-0.0011853508185595274,0.24302904307842255,0.1292239874601364
1789635190165753900,6.03575390625,0.09513959288597107,0.3580935597419739,0.21597406268119812
1789635190175793000,6.04579296875,0.21604682505130768,0.3748621642589569,0.21684038639068604
1789635190185832700,6.055832763671875,0.28282082080841064,0.22921858727931976,0.26260489225387573
1789635190195872800,6.065872802734375,0.2730989456176758,0.10241376608610153,0.37868833541870117
1789635190205911800,6.075911865234375,0.21064284443855286,0.04785599187016487,0.502659797668457
1789635190215952000,6.085951904296875,0.16070617735385895,0.062432534992694855,0.5557531118392944
1789635190225991700,6.09599169921875,0.1591326743364334,0.05626101791858673,0.49072760343551636
1789635190236031700,6.10603173828125,0.1949750930070877,0.0437428280711174,0.4487074315547943
1789635190246070800,6.11607080078125,0.18962796032428741,0.00010916497558355331,0.4395318627357483
1789635190256110800,6.12611083984375,0.13007408380508423,-0.07792598009109497,0.4529227614402771
1789635190266151000,6.13615087890625,0.07971487194299698,-0.03406072035431862,0.525974452495575
1789635190276189700,6.146189697265625,0.06645765155553818,0.07166890054941177,0.6032729744911194
1789635190286229800,6.156229736328125,0.08855064958333969,0.153604194521904,0.6714820265769958
1789635190296269800,6.166269775390625,0.11424802243709564,0.12647031247615814,0.7511744499206543
1789635190306308900,6.176308837890625,0.12851324677467346,0.06243278831243515,0.8948102593421936
1789635190316348700,6.1863486328125,0.15515604615211487,0.10935529321432114,1.0384875535964966
1789635190326388700,6.196388671875,0.20034806430339813,0.23568563163280487,1.1048626899719238
1789635190336428000,6.206427978515625,0.24365265667438507,0.2949599027633667,1.087751865386963
1789635190346467800,6.2164677734375,0.23997734487056732,0.2701462209224701,1.0659306049346924
1789635190356508000,6.2265078125,0.19521678984165192,0.2539565861225128,1.07522451877594
1789635190366547700,6.236547607421875,0.131582573056221,0.17834198474884033,1.0430747270584106
1789635190376587000,6.2465869140625,0.07653076946735382,0.08000797033309937,0.999904990196228
1789635190386626800,6.256626708984375,0.041189439594745636,-0.020626487210392952,0.9755731821060181
1789635190396667000,6.2666669921875,0.05852395296096802,-0.09707120060920715,0.9496545195579529
1789635190406706000,6.276705810546875,0.09355401992797852,-0.09579581767320633,0.927001416683197
1789635190416746000,6.28674609375,0.12608559429645538,-0.05102168396115303,0.9489737749099731
1789635190426786000,6.2967861328125,0.15905486047267914,-0.02952234074473381,0.9647539854049683
1789635190436824800,6.306824951171875,0.19045139849185944,0.01068153791129589,0.986733615398407
1789635190446865000,6.316864990234375,0.19024094939231873,0.12834779918193817,1.0507752895355225
1789635190456905000,6.326905029296875,0.2172616422176361,0.1713743656873703,1.0629286766052246
1789635190466945000,6.336945068359375,0.2874969244003296,0.06368717551231384,1.0482035875320435
1789635190476983800,6.34698388671875,0.31381481885910034,0.03622998297214508,1.1008156538009644
1789635190487023900,6.35702392578125,0.31036683917045593,0.16145454347133636,1.1366461515426636
1789635190497064000,6.36706396484375,0.30939799547195435,0.3263888955116272,1.1031075716018677
1789635190507102700,6.377102783203125,0.32617926597595215,0.4018252491950989,1.0306997299194336
1789635190517142800,6.387142822265625,0.40800702571868896,0.2748377323150635,0.9250882863998413
1789635190527182800,6.397182861328125,0.5151136517524719,-0.010994195938110352,0.875785231590271
1789635190537222000,6.407221923828125,0.4705736041069031,-0.09733627736568451,1.004952073097229
1789635190547262000,6.417261962890625,0.3886415362358093,0.04835718497633934,1.1962937116622925
1789635190557301800,6.4273017578125,0.3497077226638794,0.15014933049678802,1.2765443325042725
1789635190567340800,6.4373408203125,0.31412792205810547,0.09374155849218369,1.2050336599349976
1789635190577380900,6.447380859375,0.34849628806114197,-0.030283447355031967,1.0756107568740845
1789635190587421000,6.4574208984375,0.4060194790363312,-0.23361670970916748,0.9522993564605713
1789635190597459700,6.467459716796875,0.3535669445991516,-0.318865567445755,0.9701334834098816
1789635190607499800,6.477499755859375,0.23314979672431946,-0.19722531735897064,1.1082843542099
1789635190617539800,6.487539794921875,0.15352262556552887,-0.23455511033535004,1.1745693683624268
1789635190627580000,6.497579833984375,0.11407266557216644,-0.3049132227897644,1.1764432191848755
1789635190637618700,6.50761865234375,0.09624546021223068,-0.2298392504453659,1.1706292629241943
1789635190647658800,6.51765869140625,0.11683196574449539,-0.21698178350925446,1.090851068496704
1789635190657698800,6.52769873046875,0.10555534064769745,-0.29850754141807556,1.0402257442474365
1789635190667737600,6.537737548828125,0.0017005199333652854,-0.18205657601356506,1.126179575920105
1789635190677777700,6.547777587890625,-0.17671290040016174,-0.09111335128545761,1.1646891832351685
1789635190687817700,6.557817626953125,-0.3080693185329437,-0.20018339157104492,1.1040527820587158
1789635190697857000,6.56785693359375,-0.32812610268592834,-0.5450440645217896,1.0408644676208496
1789635190707896800,6.577896728515625,-0.2842947542667389,-0.4942162334918976,1.1343469619750977
1789635190717936600,6.5879365234375,-0.1638873815536499,-0.16197197139263153,1.2885061502456665
1789635190727976700,6.597976806640625,0.0727989599108696,-0.2145516574382782,1.215549349784851
1789635190738016000,6.60801611328125,0.29816389083862305,-0.6166266798973083,1.050795316696167
1789635190748055800,6.618055908203125,0.3732161819934845,-0.6315847635269165,1.0990865230560303
1789635190758095600,6.628095703125,0.3334383964538574,-0.3963810205459595,1.248694658279419
1789635190768135000,6.638135009765625,0.2305644005537033,-0.38962477445602417,1.2766928672790527
1789635190778175000,6.648175048828125,0.0887761041522026,-0.7033863663673401,1.1952555179595947
1789635190788215000,6.658215087890625,-0.08994890004396439,-0.944340705871582,1.1006028652191162
1789635190798253800,6.66825390625,-0.15038880705833435,-0.9624390006065369,0.9893582463264465
1789635190808294000,6.6782939453125,-0.08901975303888321,-0.5626493096351624,0.9298445582389832
1789635190818334000,6.688333984375,-0.016674187034368515,-0.1842830628156662,0.8477745056152344
1789635190828373000,6.698373046875,0.0466160923242569,-0.12015564739704132,0.7070728540420532
1789635190838412800,6.708412841796875,0.17486673593521118,-0.22987069189548492,0.6671603322029114
1789635190848452900,6.718452880859375,0.3115798234939575,-0.16949613392353058,0.7759535312652588
1789635190858492000,6.728491943359375,0.3936411440372467,-0.09757054597139359,0.916099488735199
1789635190868532000,6.738531982421875,0.3952152132987976,-0.08771853148937225,1.040675163269043
1789635190878571800,6.74857177734375,0.30196917057037354,-0.13030487298965454,1.102536916732788
1789635190888611800,6.75861181640625,0.1983698010444641,-0.1944982409477234,1.077593207359314
1789635190898651000,6.76865087890625,0.09219037741422653,-0.4098268151283264,0.9674445986747742
1789635190908691000,6.77869091796875,-0.022848302498459816,-0.5137007236480713,0.8450167179107666
1789635190918730800,6.788730712890625,-0.13164642453193665,-0.18866510689258575,0.773553192615509
1789635190928769800,6.798769775390625,-0.2221476137638092,0.17206616699695587,0.7312555313110352
1789635190938809900,6.808809814453125,-0.1841653436422348,0.18388128280639648,0.6463518142700195
1789635190948850000,6.818849853515625,-0.06472311913967133,-0.07619866728782654,0.5211276412010193
1789635190958888700,6.828888671875,-0.024080881848931313,-0.20134992897510529,0.39358383417129517
1789635190968929000,6.838928955078125,-0.043303173035383224,-0.09669160842895508,0.3121396601200104
1789635190978969000,6.848968994140625,-0.11271873116493225,0.11411809921264648,0.2951532006263733
1789635190989008100,6.859008056640625,-0.1510363072156906,0.057812321931123734,0.3274387717247009
1789635190999048000,6.8690478515625,-0.12851475179195404,-0.13119009137153625,0.3329576551914215
1789635191009088000,6.879087890625,-0.11329768598079681,-0.13399732112884521,0.33924856781959534
1789635191019128000,6.889128173828125,-0.1322399526834488,-0.06889820843935013,0.39660054445266724
1789635191029167000,6.8991669921875,-0.11371516436338425,-0.11479426175355911,0.45092859864234924
1789635191039207000,6.90920703125,-0.08875308930873871,-0.10672461986541748,0.4897220730781555
1789635191049247000,6.9192470703125,-0.06503266096115112,0.004303354769945145,0.5293485522270203
1789635191059286000,6.9292861328125,-0.004779709503054619,0.04174313694238663,0.5411801934242249
1789635191069326000,6.939326171875,0.04097570478916168,0.022468242794275284,0.5240920782089233
1789635191079366100,6.9493662109375,0.0664387196302414,-0.07724343240261078,0.49173757433891296
1789635191089405200,6.9594052734375,0.09265879541635513,-0.25173863768577576,0.42092373967170715
1789635191099445000,6.969445068359375,0.06739311665296555,-0.2983788251876831,0.31627774238586426
1789635191109485000,6.979485107421875,-0.012927129864692688,-0.19058480858802795,0.20732882618904114
1789635191119524000,6.989524169921875,-0.10997883975505829,-0.021269015967845917,0.14893102645874023
1789635191129564200,6.999564208984375,-0.09855804592370987,0.09933853149414062,0.13671579957008362
1789635191139604000,7.00960400390625,-0.04242739826440811,0.03416885808110237,0.11621985584497452
1789635191149644000,7.01964404296875,-0.026225131005048752,-0.1123008206486702,0.05441923812031746
1789635191159683000,7.02968310546875,-0.05570818856358528,-0.1210373193025589,-0.040503278374671936
1789635191169723100,7.03972314453125,-0.10335388034582138,-0.08199061453342438,-0.12671269476413727
1789635191179763200,7.04976318359375,-0.1762339472770691,0.09710031002759933,-0.2261471450328827
1789635191189802200,7.05980224609375,-0.24620090425014496,0.25042250752449036,-0.3095073103904724
1789635191199842000,7.069842041015625,-0.2210950255393982,0.06271493434906006,-0.3639090359210968
1789635191209882000,7.079882080078125,-0.2627573609352112,-0.24855738878250122,-0.4137486517429352
1789635191219921200,7.089921142578125,-0.33496153354644775,-0.3298133313655853,-0.4825551509857178
1789635191229961200,7.099961181640625,-0.3457085192203522,-0.3819842040538788,-0.5317904949188232
1789635191240001300,7.110001220703125,-0.35147640109062195,-0.21849514544010162,-0.5226781964302063
1789635191250040000,7.1200400390625,-0.3672664761543274,0.10420306771993637,-0.4145084619522095
1789635191260080000,7.130080078125,-0.36826542019844055,0.2292555272579193,-0.2547140121459961
1789635191270120200,7.1401201171875,-0.3812732696533203,0.2341773957014084,-0.12113906443119049
1789635191280160300,7.15016015625,-0.41189083456993103,0.3609587848186493,-0.07537396997213364
1789635191290199000,7.160198974609375,-0.4373044967651367,0.6427158117294312,-0.009448311291635036
1789635191300239000,7.170239013671875,-0.530972421169281,0.675605058670044,0.0722058042883873
1789635191310279200,7.180279052734375,-0.5092692971229553,-0.08791638910770416,-0.11376097798347473
1789635191320318000,7.19031787109375,-0.441188782453537,-0.41202840209007263,-0.2401047945022583
1789635191330358000,7.20035791015625,-0.4016711413860321,-0.3937590718269348,-0.2942291796207428
1789635191340398000,7.210398193359375,-0.4343358874320984,-0.19542041420936584,-0.3564898669719696
1789635191350437000,7.22043701171875,-0.49691319465637207,0.18652935326099396,-0.4021226465702057
1789635191360477000,7.230476806640625,-0.5455111265182495,0.5752187967300415,-0.4231794476509094
1789635191370517000,7.24051708984375,-0.5568408370018005,0.9184713959693909,-0.3719581663608551
1789635191380556000,7.25055615234375,-0.5675158500671387,1.2062581777572632,-0.25693437457084656
1789635191390596000,7.26059619140625,-0.6100249290466309,1.322894811630249,-0.13606147468090057
1789635191400636200,7.27063623046875,-0.6754327416419983,1.6347706317901611,0.01745297759771347
1789635191410676000,7.280676025390625,-0.8890441656112671,2.04575777053833,0.1533001810312271
1789635191420715000,7.290715087890625,-0.8549277186393738,1.926842451095581,0.11863967031240463
1789635191430755000,7.300755126953125,-0.7223942875862122,1.510636568069458,-0.09427604079246521
1789635191440795100,7.310795166015625,-0.7391927242279053,1.0513824224472046,-0.37143227458000183
1789635191450834000,7.320833984375,-0.7359669208526611,0.671703040599823,-0.574542224407196
1789635191460874000,7.3308740234375,-0.6742167472839355,0.31649142503738403,-0.7368028163909912
1789635191470914000,7.3409140625,-0.6914931535720825,0.214534193277359,-0.845916211605072
1789635191480953000,7.350953125,-0.7763352990150452,0.06076806038618088,-0.910251259803772
1789635191490993000,7.360992919921875,-0.8982785940170288,-0.27537792921066284,-0.9119374752044678
1789635191501033000,7.371032958984375,-1.0575766563415527,-0.6766342520713806,-0.8574343323707581
1789635191511072300,7.381072265625,-1.1434680223464966,-1.0525257587432861,-0.7851218581199646
1789635191521112300,7.3911123046875,-1.219778060913086,-1.4415563344955444,-0.7447030544281006
1789635191531152100,7.401152099609375,-1.3578083515167236,-1.8219348192214966,-0.7324993014335632
1789635191541192000,7.41119189453125,-1.5824922323226929,-1.9757680892944336,-0.71121746301651
1789635191551231200,7.421231201171875,-1.8182998895645142,-1.8848174810409546,-0.6916925311088562
1789635191561271300,7.431271240234375,-1.9106937646865845,-1.5971182584762573,-0.6382365226745605
1789635191571311000,7.44131103515625,-1.757171392440796,-1.2696765661239624,-0.5252137780189514
1789635191581350100,7.45135009765625,-1.4763485193252563,-1.0298656225204468,-0.4626358449459076
1789635191591390200,7.46139013671875,-1.1442409753799438,-0.8043637871742249,-0.4670277535915375
1789635191601430300,7.47143017578125,-0.8708717823028564,-0.5401076674461365,-0.5133334994316101
1789635191611469000,7.481468994140625,-0.5065210461616516,-0.22364553809165955,-0.5424610376358032
1789635191621509000,7.491509033203125,-0.0629209652543068,0.07965070009231567,-0.5479551553726196
1789635191631549200,7.501549072265625,0.14507852494716644,0.24216917157173157,-0.5460656881332397
1789635191641588000,7.511587890625,0.12941354513168335,0.2625596821308136,-0.6369577646255493
1789635191651628000,7.5216279296875,0.13134154677391052,0.24069011211395264,-0.796714186668396
1789635191661668000,7.531668212890625,0.24938350915908813,0.08917407691478729,-0.9283944368362427
1789635191671708200,7.541708251953125,0.38296037912368774,-0.14337673783302307,-0.9746243357658386
1789635191681747200,7.551747314453125,0.3486953675746918,-0.1398640275001526,-0.9944989681243896
1789635191691787000,7.561787109375,0.23853451013565063,-0.007199191488325596,-0.9631173610687256
1789635191701827000,7.5718271484375,0.19172519445419312,-0.018248114734888077,-0.9839733242988586
1789635191711866000,7.5818662109375,0.29309841990470886,-0.286164253950119,-1.0561652183532715
1789635191721906200,7.59190625,0.4570614993572235,-0.7224153280258179,-1.1811479330062866
1789635191731946000,7.601946044921875,0.48904284834861755,-1.0802288055419922,-1.2532058954238892
1789635191741985000,7.611985107421875,0.48133352398872375,-1.2610126733779907,-1.219462513923645
1789635191752025000,7.622025146484375,0.5569928884506226,-1.318909764289856,-1.1662077903747559
1789635191762065200,7.632065185546875,0.6745597124099731,-1.2871997356414795,-1.2039836645126343
1789635191772104000,7.64210400390625,0.8135055303573608,-1.1932791471481323,-1.3046351671218872
1789635191782144000,7.65214404296875,0.9302198886871338,-0.9419273734092712,-1.3830652236938477
1789635191792184000,7.66218408203125,0.9258199334144592,-0.6574061512947083,-1.387358546257019
1789635191802223000,7.67222314453125,0.8793224692344666,-0.6531959772109985,-1.4010570049285889
1789635191812263000,7.682262939453125,0.780308723449707,-0.9320576786994934,-1.512534737586975
1789635191822303000,7.692302978515625,0.6935983300209045,-1.1855742931365967,-1.6549044847488403
1789635191832343000,7.702343017578125,0.6874350905418396,-1.2815150022506714,-1.7201417684555054
1789635191842382000,7.712382080078125,0.7405009865760803,-1.2358300685882568,-1.6511526107788086
1789635191852422000,7.722421875,0.717125415802002,-0.9676147699356079,-1.4754687547683716
1789635191862462000,7.7324619140625,0.5328791737556458,-0.9964714646339417,-1.4288756847381592
1789635191872501200,7.742501220703125,0.328853577375412,-1.0792226791381836,-1.4172334671020508
1789635191882541000,7.752541015625,0.1386101245880127,-0.8867547512054443,-1.3873673677444458
1789635191892580900,7.762580810546875,-0.007553854491561651,-0.6250152587890625,-1.2926323413848877
1789635191902620200,7.7726201171875,-0.06639160215854645,-0.7063871026039124,-1.253958821296692
1789635191912660200,7.78266015625,-0.02595992013812065,-0.8404669761657715,-1.2243767976760864
1789635191922700300,7.7927001953125,0.008905119262635708,-0.9123305082321167,-1.1559306383132935
1789635191932740000,7.802739990234375,0.005562914069741964,-0.8107840418815613,-1.036360263824463
1789635191942779100,7.812779052734375,-0.02267005480825901,-0.4005080461502075,-0.962359607219696
1789635191952819200,7.822819091796875,0.0020315218716859818,-0.22114992141723633,-0.9772569537162781
1789635191962859300,7.832859375,0.04197334498167038,-0.3444068729877472,-1.061252236366272
1789635191972898300,7.842898193359375,0.04527060315012932,-0.49221283197402954,-1.1432368755340576
1789635191982938400,7.8529384765625,0.04408789426088333,-0.681290864944458,-1.1725231409072876
1789635191992978400,7.862978515625,0.0195897426456213,-0.7518784999847412,-1.078151822090149
1789635192003017200,7.873017333984375,-0.056399546563625336,-0.47712114453315735,-0.9032185673713684
1789635192013057300,7.883057373046875,-0.13000249862670898,-0.1661476492881775,-0.7482982873916626
1789635192023097300,7.893097412109375,-0.13910171389579773,-0.09128459542989731,-0.7545969486236572
1789635192033136400,7.903136474609375,-0.11613687127828598,-0.27576467394828796,-0.8836015462875366
1789635192043176400,7.913176513671875,-0.041850920766592026,-0.5802883505821228,-0.9931988716125488
1789635192053216300,7.92321630859375,-0.0248078852891922,-0.6292899250984192,-0.9576043486595154
1789635192063255300,7.93325537109375,-0.0247490294277668,-0.4481222629547119,-0.8901187777519226
1789635192073295400,7.94329541015625,-0.040865346789360046,-0.3372962176799774,-0.861011803150177
1789635192083335400,7.95333544921875,-0.08697318285703659,-0.2612949311733246,-0.8552790880203247
1789635192093375200,7.963375244140625,-0.12110654264688492,-0.2732239365577698,-0.861570417881012
1789635192103414300,7.973414306640625,-0.08747002482414246,-0.22674432396888733,-0.838487982749939
1789635192113454300,7.983454345703125,0.014124009758234024,-0.019195668399333954,-0.8109248876571655
1789635192123494400,7.993494384765625,0.14552517235279083,-0.009798705577850342,-0.8150548934936523
1789635192133533200,8.003533203125,0.2274944931268692,0.0588415265083313,-0.806472659111023
1789635192143573200,8.0135732421875,0.22666679322719574,0.15957719087600708,-0.7826011776924133
1789635192153613300,8.02361328125,0.19284966588020325,0.21155686676502228,-0.787205159664154
1789635192163652000,8.033652099609375,0.18776835501194,0.21527516841888428,-0.7931591868400574
1789635192173692200,8.043692138671876,0.1778450310230255,0.3493443727493286,-0.7506211996078491
1789635192183732200,8.053732177734375,0.21235665678977966,0.3908337652683258,-0.7098436951637268
1789635192193772300,8.063772216796876,0.21759279072284698,0.2940461337566376,-0.6673669219017029
1789635192203811300,8.073811279296875,0.15871696174144745,0.18936687707901,-0.5946269035339355
1789635192213851100,8.08385107421875,0.09479282051324844,0.29949089884757996,-0.5279622673988342
1789635192223891200,8.09389111328125,0.11238513141870499,0.4465077519416809,-0.5445502996444702
1789635192233930200,8.10393017578125,0.19181939959526062,0.4813045263290405,-0.611124575138092
1789635192243970300,8.11397021484375,0.17714911699295044,0.2314653992652893,-0.5036210417747498
1789635192254010000,8.124010009765625,0.01677059754729271,0.005362452007830143,-0.22865961492061615
1789635192264049400,8.13404931640625,-0.15666216611862183,-0.032010484486818314,0.013170856982469559
1789635192274089200,8.144089111328125,-0.22003291547298431,0.15476806461811066,0.09714505076408386
1789635192284129300,8.15412939453125,-0.17571471631526947,0.23762938380241394,0.04447438195347786
1789635192294168300,8.164168212890624,-0.1234084889292717,0.23013053834438324,-0.0054249027743935585
1789635192304208400,8.17420849609375,-0.16436898708343506,0.15070122480392456,0.0903162732720375
1789635192314248400,8.18424853515625,-0.29769447445869446,0.10120735317468643,0.3551720678806305
1789635192324287500,8.19428759765625,-0.3962692320346832,0.2081575095653534,0.6383723616600037
1789635192334327300,8.204327392578126,-0.4152120053768158,0.31617772579193115,0.7985793352127075
1789635192344367400,8.214367431640625,-0.3841611444950104,0.280219703912735,0.8465498089790344
1789635192354407400,8.224407470703126,-0.3130105435848236,0.43731239438056946,0.8896045684814453
1789635192364446500,8.234446533203124,-0.2563629746437073,0.47516655921936035,0.9226973056793213
1789635192374486300,8.244486328125,-0.2686707079410553,0.27510184049606323,1.0058802366256714
1789635192384526300,8.2545263671875,-0.31513622403144836,0.24641159176826477,1.1657525300979614
1789635192394565400,8.2645654296875,-0.3373548984527588,0.41597455739974976,1.342726707458496
1789635192404605400,8.27460546875,-0.2935243248939514,0.6399810314178467,1.3723708391189575
1789635192414645200,8.284645263671875,-0.1982545405626297,0.577796220779419,1.2150137424468994
1789635192424684300,8.294684326171875,-0.15432676672935486,0.3269916772842407,1.1589744091033936
1789635192434724400,8.304724365234375,-0.22397668659687042,0.3955603539943695,1.3154665231704712
1789635192444764400,8.314764404296875,-0.30992060899734497,0.5131176114082336,1.4326192140579224
1789635192454804200,8.32480419921875,-0.3219437301158905,0.525119960308075,1.4129496812820435
1789635192464843300,8.33484326171875,-0.2479986548423767,0.45024198293685913,1.398188591003418
1789635192474883300,8.34488330078125,-0.14935991168022156,0.2468004673719406,1.4668781757354736
1789635192484923400,8.35492333984375,-0.09199569374322891,0.3639012277126312,1.550903081893921
1789635192494962200,8.364962158203125,-0.06161501631140709,0.531432569026947,1.5665764808654785
1789635192505002200,8.375002197265625,-0.058226145803928375,0.5167239308357239,1.5354334115982056
1789635192515042300,8.385042236328125,-0.06556015461683273,0.4006390869617462,1.5864845514297485
1789635192525081300,8.395081298828124,-0.07160020619630814,0.3544928729534149,1.6987842321395874
1789635192535121200,8.40512109375,-0.03538872301578522,0.3743527829647064,1.7807559967041016
1789635192545161200,8.4151611328125,0.054091356694698334,0.3474583029747009,1.8012429475784302
1789635192555200300,8.4252001953125,0.18711496889591217,0.3837418556213379,1.8135204315185547
1789635192565240300,8.435240234375,0.32235029339790344,0.49456876516342163,1.803700566291809
1789635192575280000,8.445280029296875,0.463032990694046,0.4915415942668915,1.714065670967102
1789635192585319200,8.455319091796875,0.5479481816291809,0.29546234011650085,1.6102192401885986
1789635192595359200,8.465359130859374,0.5365663170814514,0.13484370708465576,1.5960742235183716
1789635192605399300,8.4753994140625,0.5188190340995789,0.10887390375137329,1.5849432945251465
1789635192615439400,8.485439453125,0.5191686749458313,0.1020817682147026,1.5306655168533325
1789635192625478100,8.49547802734375,0.49847984313964844,-0.06496820598840714,1.4736595153808594
1789635192635518200,8.505518310546876,0.4792066216468811,-0.28307920694351196,1.4224879741668701
1789635192645558300,8.515558349609375,0.4407529830932617,-0.4933336675167084,1.3874388933181763
1789635192655597300,8.525597412109375,0.33393359184265137,-0.5147093534469604,1.4126561880111694
1789635192665637400,8.535637451171874,0.18763071298599243,-0.36531350016593933,1.4880577325820923
1789635192675677200,8.54567724609375,0.029617790132761,-0.19067537784576416,1.5821932554244995
1789635192685716500,8.555716552734374,-0.08447842299938202,-0.06815691292285919,1.603685975074768
1789635192695756300,8.56575634765625,-0.14341217279434204,-0.1457422375679016,1.5193936824798584
1789635192705796400,8.57579638671875,-0.18976528942584991,-0.32784304022789,1.369533658027649
1789635192715835400,8.58583544921875,-0.22183305025100708,-0.18181359767913818,1.3477919101715088
1789635192725875500,8.59587548828125,-0.23039403557777405,0.15188980102539062,1.4443844556808472
1789635192735915300,8.605915283203124,-0.20859576761722565,0.3513842821121216,1.552578330039978
1789635192745955300,8.615955322265625,-0.19560274481773376,0.29896900057792664,1.603906273841858
1789635192755994400,8.625994384765624,-0.20939821004867554,0.2069181650876999,1.5713863372802734
1789635192766034400,8.636034423828125,-0.21901275217533112,0.12554076313972473,1.477480411529541
1789635192776074500,8.646074462890626,-0.19771115481853485,0.07098057121038437,1.3675225973129272
1789635192786113300,8.65611328125,-0.15601617097854614,0.07668719440698624,1.2757447957992554
1789635192796153300,8.6661533203125,-0.05475287139415741,0.1337123066186905,1.217558741569519
1789635192806193400,8.676193359375,0.04927419498562813,0.21505802869796753,1.1942230463027954
1789635192816232200,8.686232177734375,0.1660020649433136,0.4216057062149048,1.1569596529006958
1789635192826272300,8.696272216796874,0.2978200316429138,0.5813689827919006,1.0626486539840698
1789635192836312300,8.706312255859375,0.360088586807251,0.40697768330574036,0.9343081712722778
1789635192846351400,8.716351318359376,0.33458027243614197,0.23246340453624725,0.8380292654037476
1789635192856391200,8.72639111328125,0.24507573246955872,0.22264182567596436,0.814924418926239
1789635192866431200,8.73643115234375,0.16903501749038696,0.14201383292675018,0.8340557217597961
1789635192876471300,8.74647119140625,0.1229490265250206,0.1787531077861786,0.8657518029212952
1789635192886510300,8.75651025390625,0.09792862832546234,0.3732203245162964,0.8872304558753967
1789635192896550400,8.76655029296875,0.06289219856262207,0.4087303876876831,0.852084219455719
1789635192906590200,8.776590087890625,0.04297788068652153,0.26756981015205383,0.7432517409324646
1789635192916629200,8.786629150390626,-0.0008960727136582136,0.23321370780467987,0.6401037573814392
1789635192926669300,8.79666943359375,-0.05095977336168289,0.27883872389793396,0.6253759860992432
1789635192936709400,8.80670947265625,-0.07241122424602509,0.27748173475265503,0.70709228515625
1789635192946748200,8.816748046875,-0.060308754444122314,0.23813405632972717,0.7930951118469238
1789635192956788200,8.826788330078125,-0.05920165404677391,0.21275387704372406,0.8158690929412842
1789635192966828500,8.83682861328125,-0.04950002580881119,0.11717674881219864,0.7807159423828125
1789635192976867600,8.84686767578125,-0.07735426723957062,0.04793989658355713,0.6958359479904175
1789635192986907600,8.85690771484375,-0.14823321998119354,0.00597860012203455,0.5607028603553772
1789635192996947700,8.86694775390625,-0.2364169806241989,0.030552472919225693,0.3996317386627197
1789635193006986500,8.876986572265626,-0.27145540714263916,0.09462146461009979,0.27944010496139526
1789635193017026600,8.887026611328125,-0.22332815825939178,0.28416499495506287,0.1954508125782013
1789635193027066600,8.897066650390625,-0.10865005105733871,0.3861086666584015,0.09773039072751999
1789635193037106700,8.907106689453125,-0.047583308070898056,0.5250527858734131,-0.07180410623550415
1789635193047145700,8.917145751953125,-0.016418997198343277,0.7104069590568542,-0.2803559899330139
1789635193057185500,8.927185546875,0.038522329181432724,0.7099223732948303,-0.49272066354751587
1789635193067225600,8.9372255859375,0.11501071602106094,0.43013763427734375,-0.6752278804779053
1789635193077265000,8.947264892578126,0.1710391491651535,0.17189884185791016,-0.7870997786521912
1789635193087304700,8.9573046875,0.17892609536647797,0.1215062290430069,-0.8197855949401855
1789635193097344500,8.967344482421876,0.11261683702468872,0.3350498676300049,-0.8119053244590759
1789635193107383800,8.9773837890625,0.06897694617509842,0.5470218062400818,-0.7496760487556458
1789635193117423900,8.987423828125,0.11041420698165894,0.6453937888145447,-0.6447553038597107
1789635193127463700,8.997463623046874,0.18028543889522552,0.6205142736434937,-0.566804051399231
1789635193137502700,9.007502685546875,0.21669736504554749,0.6121772527694702,-0.5184677243232727
1789635193147542800,9.017542724609376,0.25480106472969055,0.5628368258476257,-0.4898991584777832
1789635193157582800,9.027582763671875,0.31230491399765015,0.3295287489891052,-0.4353885352611542
1789635193167622700,9.03762255859375,0.3306671380996704,0.025009887292981148,-0.4016849100589752
1789635193177661700,9.04766162109375,0.2926466166973114,-0.23661397397518158,-0.3786054253578186
1789635193187701800,9.05770166015625,0.22576239705085754,-0.37205836176872253,-0.3759726285934448
1789635193197741800,9.067741943359374,0.1733991503715515,-0.2478007823228836,-0.42247557640075684
1789635193207780600,9.077780517578125,0.17943812906742096,0.07610084861516953,-0.5020223259925842
1789635193217820700,9.087820556640626,0.2075018435716629,0.3981371521949768,-0.5978562831878662
1789635193227860700,9.09786083984375,0.25628748536109924,0.5331090688705444,-0.7126840353012085
1789635193237899800,9.107899658203126,0.28220272064208984,0.5258873701095581,-0.7952572107315063
1789635193247939600,9.117939697265625,0.28777724504470825,0.388485848903656,-0.8367383480072021
1789635193257979600,9.127979736328125,0.2607167661190033,0.12274904549121857,-0.8688524961471558
1789635193268018700,9.138018798828124,0.25650978088378906,-0.12803256511688232,-0.8968815207481384
1789635193278058800,9.148058837890625,0.2616936266422272,-0.3651082217693329,-0.8681097626686096
1789635193288098600,9.1580986328125,0.24174760282039642,-0.43967220187187195,-0.7902472019195557
1789635193298138600,9.168138671875,0.1595633327960968,-0.2755090594291687,-0.7136462330818176
1789635193308177700,9.178177734375,0.03044290281832218,0.07988976687192917,-0.6673822999000549
1789635193318217700,9.1882177734375,-0.10749289393424988,0.4524444043636322,-0.6273280382156372
1789635193328257500,9.198257568359375,-0.16829179227352142,0.5383798480033875,-0.5704541206359863
1789635193338296600,9.208296630859374,-0.17588944733142853,0.21742317080497742,-0.5363367795944214
1789635193348336600,9.218336669921875,-0.18917809426784515,-0.30459314584732056,-0.5721794962882996
1789635193358376700,9.228376708984374,-0.16907724738121033,-0.6648467779159546,-0.6409714221954346
1789635193368415500,9.23841552734375,-0.10379385203123093,-0.7971763014793396,-0.7100263833999634
1789635193378455600,9.24845556640625,0.004570262506604195,-0.761808454990387,-0.7632288932800293
1789635193388495600,9.25849560546875,0.11174571514129639,-0.5334956645965576,-0.8490678668022156
1789635193398534700,9.26853466796875,0.16321095824241638,-0.0984368845820427,-0.9989153146743774
1789635193408574500,9.278574462890624,0.1829761415719986,0.13331645727157593,-1.100508213043213
1789635193418614500,9.288614501953125,0.17251825332641602,0.18524004518985748,-1.1410410404205322
1789635193428653800,9.29865380859375,0.11732851713895798,0.26113611459732056,-1.1452597379684448
1789635193438694000,9.30869384765625,0.04968449845910072,0.23881953954696655,-1.1093469858169556
1789635193448733700,9.318733642578126,0.03436626121401787,-0.13518068194389343,-1.0898982286453247
1789635193458773500,9.3287734375,0.006750209257006645,-0.5597344040870667,-1.153503656387329
1789635193468812800,9.338812744140625,-0.0284863393753767,-0.7627274990081787,-1.2384192943572998
1789635193478852900,9.348852783203125,-0.09483321756124496,-0.5435457229614258,-1.2276334762573242
1789635193488892700,9.358892578125,-0.1636679470539093,-0.19967301189899445,-1.1384010314941406
1789635193498931700,9.368931640625,-0.226138636469841,-0.3643074035644531,-1.030962347984314
1789635193508971800,9.3789716796875,-0.22013746201992035,-0.7221113443374634,-0.9817255735397339
1789635193519011800,9.38901171875,-0.22172534465789795,-0.7401273250579834,-0.9437351822853088
1789635193529050600,9.399050537109375,-0.2590700685977936,-0.461881548166275,-0.9373286962509155
1789635193539090700,9.409090576171875,-0.26094627380371094,-0.3165125548839569,-1.0016034841537476
1789635193549130800,9.419130859375,-0.20294341444969177,-0.627607524394989,-1.1102793216705322
1789635193559169800,9.429169677734375,-0.08697741478681564,-1.1000863313674927,-1.1850985288619995
1789635193569209600,9.439209716796874,0.022059854120016098,-1.4467369318008423,-1.1561475992202759
1789635193579249700,9.449249755859375,0.07874816656112671,-1.375839352607727,-1.0571261644363403
1789635193589289700,9.459289794921874,0.11039530485868454,-1.0448251962661743,-1.0221599340438843
1789635193599328800,9.469328857421875,0.13914911448955536,-0.7244948744773865,-1.0551377534866333
1789635193609368600,9.47936865234375,0.20478564500808716,-0.6583155989646912,-1.1190367937088013
1789635193619408600,9.48940869140625,0.2594873309135437,-0.47835665941238403,-1.1154990196228027
1789635193629447700,9.49944775390625,0.31432396173477173,-0.3092810809612274,-1.0883980989456177
1789635193639487700,9.50948779296875,0.4044261872768402,-0.5182089805603027,-1.1266475915908813
1789635193649527800,9.51952783203125,0.5085020065307617,-0.8558503985404968,-1.2137938737869263
1789635193659566600,9.529566650390626,0.5533049702644348,-1.1439012289047241,-1.3182671070098877
1789635193669606700,9.539606689453125,0.5076690912246704,-1.246260404586792,-1.3903388977050781
1789635193679646700,9.549646728515626,0.4396345317363739,-1.183253526687622,-1.393789291381836
1789635193689685500,9.559685546875,0.37490373849868774,-1.0057612657546997,-1.3445333242416382
1789635193699725600,9.5697255859375,0.33753424882888794,-0.8441371321678162,-1.3437178134918213
1789635193709765600,9.579765625,0.3544759452342987,-0.7995776534080505,-1.3504772186279297
1789635193719805700,9.5898056640625,0.42385706305503845,-0.8088653683662415,-1.303694486618042
1789635193729844500,9.599844482421876,0.49003157019615173,-0.6404630541801453,-1.2134695053100586
1789635193739884500,9.609884521484375,0.5115799903869629,-0.447488933801651,-1.1131515502929688
1789635193749924600,9.619924560546876,0.5283656716346741,-0.4480154514312744,-1.100711464881897
1789635193759963600,9.629963623046875,0.5282374024391174,-0.4961639642715454,-1.1518597602844238
1789635193770003500,9.64000341796875,0.4545259177684784,-0.5110654234886169,-1.3010916709899902
1789635193780043500,9.65004345703125,0.3786143660545349,-0.3540966808795929,-1.4690912961959839
1789635193790082800,9.660082763671875,0.34606388211250305,-0.21677611768245697,-1.512733817100525
1789635193800122600,9.67012255859375,0.32922041416168213,-0.3389165997505188,-1.5064321756362915
1789635193810162700,9.68016259765625,0.2639569640159607,-0.5162796378135681,-1.440886378288269
1789635193820201700,9.69020166015625,0.10726308077573776,-0.4402706027030945,-1.2715481519699097
1789635193830241800,9.70024169921875,-0.0044264281168580055,-0.03018801100552082,-1.1438175439834595
1789635193840281600,9.710281494140625,-0.05407676473259926,0.13080182671546936,-1.152961015701294
1789635193850320600,9.720320556640624,-0.08963636308908463,0.08307665586471558,-1.1839700937271118
1789635193860360700,9.730360595703125,-0.1396692395210266,-0.00511686597019434,-1.127038836479187
1789635193870400800,9.74040087890625,-0.16669926047325134,0.04652182757854462,-1.0192575454711914
1789635193880440800,9.75044091796875,-0.18537195026874542,0.2004699856042862,-0.9459912776947021
1789635193890479600,9.760479736328126,-0.19629144668579102,0.27452585101127625,-0.8988240361213684
1789635193900519700,9.770519775390625,-0.2266768366098404,0.3154267966747284,-0.8140077590942383
1789635193910559700,9.780559814453126,-0.24802500009536743,0.2129819095134735,-0.7211779356002808
1789635193920598800,9.790598876953124,-0.3055162727832794,0.09624543786048889,-0.5681556463241577
1789635193930638800,9.800638916015625,-0.31183701753616333,0.23067249357700348,-0.3898639380931854
1789635193940678700,9.8106787109375,-0.2637346684932709,0.3534487783908844,-0.2652042806148529
1789635193950717700,9.8207177734375,-0.1815183460712433,0.4826565682888031,-0.2398616522550583
1789635193960757800,9.8307578125,-0.11621002852916718,0.5231065154075623,-0.21761463582515717
1789635193970797000,9.840797119140625,-0.08968174457550049,0.47011464834213257,-0.18064624071121216
1789635193980836000,9.850836181640625,-0.16583634912967682,0.14398421347141266,-0.1343514621257782
1789635193990876200,9.860876220703124,-0.26323002576828003,0.07107165455818176,-0.051231544464826584
1789635194000916200,9.870916259765625,-0.27847644686698914,0.2513450086116791,-0.00908301118761301
1789635194010956300,9.880956298828124,-0.17987501621246338,0.6093846559524536,-0.04444446414709091
1789635194020995000,9.8909951171875,-0.09901650995016098,0.5201922059059143,-0.08534105867147446
1789635194031035100,9.90103515625,-0.06878164410591125,0.33802640438079834,-0.027245262637734413
1789635194041075200,9.9110751953125,-0.1335836499929428,0.23305974900722504,0.10348880290985107
1789635194051114000,9.921114013671875,-0.24697627127170563,0.30464738607406616,0.26279643177986145
1789635194061154000,9.931154052734374,-0.35149267315864563,0.3729536831378937,0.5005335211753845
1789635194071194000,9.941194091796875,-0.35012301802635193,0.5093596577644348,0.7243589162826538
1789635194081233200,9.951233154296874,-0.2613932490348816,0.5638392567634583,0.902190089225769
1789635194091273000,9.96127294921875,-0.23596405982971191,0.574461817741394,1.1171878576278687
1789635194101313000,9.97131298828125,-0.28919312357902527,0.67824786901474,1.3354161977767944
1789635194111352300,9.981352294921875,-0.30272144079208374,0.8037253618240356,1.4241639375686646
1789635194121392000,9.99139208984375,-0.2608911991119385,0.945959210395813,1.3953125476837158
1789635194131432000,10.001431884765625,-0.18314313888549805,0.9003371000289917,1.3855388164520264
1789635194141472000,10.011471923828125,-0.15495845675468445,0.6938509345054626,1.4316940307617188
1789635194151511300,10.02151123046875,-0.20038560032844543,0.4809812605381012,1.5116757154464722
1789635194161551400,10.03155126953125,-0.2646409571170807,0.39867186546325684,1.637306809425354
1789635194171591200,10.041591064453126,-0.31880325078964233,0.5855286121368408,1.7932132482528687
1789635194181630200,10.051630126953125,-0.2921306788921356,0.7139826416969299,1.8203636407852173
1789635194191670300,10.061670166015626,-0.1949748545885086,0.48081091046333313,1.676033616065979
1789635194201710300,10.07171044921875,-0.09101974964141846,0.2040693759918213,1.588944911956787
1789635194211749000,10.0817490234375,-0.026397613808512688,0.252352237701416,1.6579279899597168
1789635194221789200,10.0917890625,-0.033900920301675797,0.5992161631584167,1.752289891242981
1789635194231829200,10.101829345703125,-0.061220962554216385,0.9065348505973816,1.7800078392028809
1789635194241868300,10.111868408203126,0.020722849294543266,0.6682809591293335,1.719468355178833
1789635194251908000,10.121908203125,0.07904181629419327,0.17703242599964142,1.757507562637329
1789635194261948200,10.1319482421875,0.014246486127376556,0.38292196393013,1.9730846881866455
1789635194271987200,10.1419873046875,-0.06575646996498108,0.7109746336936951,2.0346107482910156
1789635194282027300,10.15202734375,-0.08106062561273575,0.4727461636066437,1.7734267711639404
1789635194292067300,10.1620673828125,-0.14725668728351593,0.14374296367168427,1.563424825668335
1789635194302107100,10.172107177734375,-0.26392558217048645,0.2283758670091629,1.760857343673706
1789635194312146200,10.182146240234376,-0.35236677527427673,0.24731308221817017,2.1168274879455566
1789635194322186200,10.192186279296875,-0.39921826124191284,0.17444314062595367,2.2809386253356934
1789635194332226300,10.202226318359376,-0.3842310607433319,0.18995897471904755,2.199758291244507
1789635194342265000,10.21226513671875,-0.30511465668678284,0.25701844692230225,2.0444161891937256
1789635194352305200,10.22230517578125,-0.1757875680923462,0.28229478001594543,1.9388062953948975
1789635194362345200,10.23234521484375,-0.07295909523963928,0.4353022277355194,1.9062002897262573
1789635194372384000,10.242384033203125,-0.043750081211328506,0.6385448575019836,1.8990198373794556
1789635194382424000,10.252424072265624,-0.044036202132701874,0.3992050588130951,1.7635908126831055
1789635194392464100,10.262464111328125,-0.04369531571865082,-0.11514642834663391,1.591118335723877
1789635194402503200,10.272503173828126,-0.09364605695009232,-0.20288974046707153,1.6172757148742676
1789635194412543000,10.28254296875,-0.11871572583913803,0.04652487486600876,1.7174720764160156
1789635194422583000,10.2925830078125,0.00932953879237175,0.11982409656047821,1.6483899354934692
1789635194432623000,10.302623046875,0.15898534655570984,-0.018841631710529327,1.5127700567245483
1789635194442662100,10.312662109375,0.18071185052394867,0.09688612073659897,1.4279570579528809
1789635194452702200,10.3227021484375,0.19041001796722412,0.5620817542076111,1.404218077659607
1789635194462742000,10.332741943359375,0.30320656299591064,0.6965903043746948,1.2930375337600708
1789635194472781000,10.342781005859376,0.46168434619903564,0.1450248807668686,1.0649499893188477
1789635194482821000,10.352821044921875,0.5040977597236633,-0.23085187375545502,0.9607979655265808
1789635194492861200,10.362861083984376,0.4127068817615509,0.10171648114919662,1.0934535264968872
1789635194502900200,10.372900146484374,0.3086560070514679,0.753383994102478,1.31327223777771
1789635194512940300,10.382940185546875,0.28053808212280273,0.9838811159133911,1.3896631002426147
1789635194522980000,10.39297998046875,0.34418973326683044,0.48810556530952454,1.2586894035339355
1789635194533019100,10.40301904296875,0.3505927622318268,-0.09616295993328094,1.073149561882019
1789635194543059200,10.41305908203125,0.2241111844778061,0.19005733728408813,1.035183310508728
1789635194553099300,10.423099365234375,0.06334494799375534,0.8565496206283569,1.04763925075531
1789635194563139300,10.433139404296876,0.09689491987228394,0.8221026659011841,0.9901319742202759
1789635194573178400,10.443178466796875,0.25755634903907776,0.23187153041362762,0.8304972052574158
1789635194583218200,10.45321826171875,0.2492438703775406,-0.16002433001995087,0.5640485286712646
1789635194593258200,10.46325830078125,0.24669788777828217,-0.2095588594675064,0.34663814306259155
1789635194603297300,10.47329736328125,0.25749102234840393,0.062184762209653854,0.24451953172683716
1789635194613337300,10.48333740234375,0.1991744488477707,0.4389458894729614,0.15975670516490936
1789635194623377200,10.493377197265625,0.17904873192310333,0.6122967600822449,0.06751392036676407
1789635194633416200,10.503416259765626,0.24345915019512177,0.6019564867019653,0.01684301532804966
1789635194643456300,10.513456298828125,0.29787477850914,0.5751423835754395,0.007830528542399406
1789635194653496300,10.523496337890625,0.2540527284145355,0.5718773603439331,0.014974724501371384
1789635194663535000,10.53353515625,0.17912906408309937,0.4064362347126007,0.023886028677225113
1789635194673575200,10.5435751953125,0.1333589106798172,0.01881527714431286,0.04662889242172241
1789635194683615200,10.553615234375,0.032363586127758026,-0.3251965641975403,0.03569189831614494
1789635194693654000,10.563654052734375,-0.10441557317972183,-0.35298293828964233,-0.025616202503442764
1789635194703694000,10.573694091796876,-0.11787436902523041,-0.33482295274734497,-0.12313324213027954
1789635194713734100,10.583734130859375,-0.10613995045423508,-0.3660264015197754,-0.23817673325538635
1789635194723774200,10.593774169921875,-0.12877632677555084,-0.14643865823745728,-0.3506348431110382
1789635194733813200,10.603813232421874,-0.09752652049064636,0.05310773476958275,-0.3919827938079834
1789635194743853000,10.61385302734375,-0.06437476724386215,0.1288750171661377,-0.3608328104019165
1789635194753893000,10.62389306640625,-0.03782810643315315,0.27236905694007874,-0.33491384983062744
1789635194763932200,10.63393212890625,-0.016896305605769157,0.3562151789665222,-0.3395284116268158
1789635194773972200,10.64397216796875,-0.030727697536349297,0.4112997353076935,-0.3707800507545471
1789635194784012000,10.654011962890625,-0.0981845036149025,0.38091811537742615,-0.48201870918273926
1789635194794051000,10.664051025390625,-0.12745903432369232,0.24982745945453644,-0.6362961530685425
1789635194804091100,10.674091064453124,-0.10586247593164444,0.12073516100645065,-0.7521671652793884
1789635194814131200,10.684131103515625,-0.04846362769603729,0.051300156861543655,-0.809281051158905
1789635194824170200,10.694170166015626,0.017545778304338455,0.09979525208473206,-0.8116648197174072
1789635194834210000,10.7042099609375,0.0887315422296524,0.15215088427066803,-0.7543274760246277
1789635194844250000,10.71425,0.12742969393730164,0.1697176992893219,-0.6694168448448181
1789635194854290200,10.724290283203125,0.11201530694961548,0.15978997945785522,-0.5606770515441895
1789635194864329200,10.7343291015625,0.06555263698101044,0.041347309947013855,-0.4387670159339905
1789635194874369000,10.744369140625,0.012425769120454788,-0.17314662039279938,-0.3849136531352997
1789635194884409000,10.7544091796875,-0.02962895669043064,-0.3266313672065735,-0.43735894560813904
1789635194894448400,10.764448486328124,-0.047713954001665115,-0.3785744607448578,-0.5459171533584595
1789635194904488200,10.77448828125,-0.06600818783044815,-0.3489246368408203,-0.6765735149383545
1789635194914528300,10.7845283203125,-0.07136993110179901,-0.20258182287216187,-0.8099308013916016
1789635194924567300,10.7945673828125,-0.07459773868322372,0.010770933702588081,-0.8963924646377563
1789635194934607400,10.804607421875,-0.07318839430809021,0.12919451296329498,-0.8991573452949524
1789635194944647200,10.814647216796875,-0.02686365880072117,0.047504737973213196,-0.8604557514190674
1789635194954686200,10.824686279296875,0.035967499017715454,-0.09617945551872253,-0.8281196355819702
1789635194964726300,10.834726318359374,0.07293751090765,-0.2043241411447525,-0.8349089622497559
1789635194974766800,10.844766845703125,0.09211307018995285,-0.30252236127853394,-0.8848815560340881
1789635194984806700,10.854806640625,0.107539102435112,-0.32832640409469604,-0.9883601665496826
1789635194994845700,10.864845703125,0.08752917498350143,-0.21781589090824127,-1.0919976234436035
1789635195004885800,10.8748857421875,0.09500572830438614,-0.1761597990989685,-1.1836204528808594
1789635195014925800,10.88492578125,0.1316620111465454,-0.21792162954807281,-1.221665859222412
1789635195024964900,10.89496484375,0.17022258043289185,-0.043707557022571564,-1.2148178815841675
1789635195035004700,10.905004638671874,0.19283440709114075,0.19162559509277344,-1.187031865119934
1789635195045044700,10.915044677734375,0.221258744597435,0.23075416684150696,-1.1768741607666016
1789635195055083800,10.925083740234374,0.24749433994293213,0.10087154060602188,-1.1559656858444214
1789635195065123800,10.935123779296875,0.26196518540382385,-0.015449734404683113,-1.1495521068572998
1789635195075163600,10.94516357421875,0.2446274757385254,-0.13892346620559692,-1.1405476331710815
1789635195085202700,10.95520263671875,0.2179650515317917,-0.2717561721801758,-1.1334749460220337
1789635195095242800,10.96524267578125,0.20083852112293243,-0.532723605632782,-1.1680206060409546
1789635195105282800,10.97528271484375,0.1905786246061325,-0.7577270269393921,-1.2222994565963745
1789635195115321600,10.985321533203125,0.1563391536474228,-0.7171740531921387,-1.1927839517593384
1789635195125361700,10.995361572265624,0.12367723137140274,-0.6665090322494507,-1.084660291671753
1789635195135401700,11.005401611328125,0.1068284809589386,-0.9901757836341858,-1.0569027662277222
1789635195145441800,11.01544189453125,0.07278196513652802,-1.3565046787261963,-1.1145837306976318
1789635195155480600,11.02548046875,-0.0016802819445729256,-1.4474552869796753,-1.164021611213684
1789635195165520600,11.035520751953126,-0.06777365505695343,-1.2713242769241333,-1.132535696029663
1789635195175560700,11.045560791015625,-0.0979430079460144,-0.9284641742706299,-1.0465667247772217
1789635195185599700,11.055599853515625,-0.07608316093683243,-0.8157650232315063,-1.0347546339035034
1789635195195639600,11.0656396484375,-0.016990285366773605,-1.0096330642700195,-1.1832330226898193
1789635195205679600,11.0756796875,0.026100924238562584,-1.2092334032058716,-1.3686400651931763
1789635195215718700,11.08571875,0.04407646134495735,-1.2392644882202148,-1.4541279077529907
1789635195225758700,11.0957587890625,0.08209098875522614,-1.2014639377593994,-1.4276187419891357
1789635195235798500,11.105798583984376,0.1469607949256897,-0.9354463219642639,-1.3207894563674927
1789635195245837600,11.115837646484374,0.20145317912101746,-0.450991690158844,-1.2291254997253418
1789635195255877600,11.125877685546875,0.23436479270458221,-0.2075018286705017,-1.2622467279434204
1789635195265917700,11.135917724609374,0.23936474323272705,-0.33480724692344666,-1.3951531648635864
1789635195275957800,11.145957763671875,0.23874422907829285,-0.4344416856765747,-1.575392246246338
1789635195285996800,11.155996826171876,0.322458952665329,-0.8040437698364258,-1.744407296180725
1789635195296036600,11.16603662109375,0.3455616235733032,-1.0637925863265991,-1.8315149545669556
1789635195306076700,11.17607666015625,0.2892279326915741,-0.7920738458633423,-1.8055601119995117
1789635195316115700,11.18611572265625,0.23253533244132996,-0.5120221972465515,-1.7652391195297241
1789635195326155800,11.19615576171875,0.19810457527637482,-0.32270050048828125,-1.7627240419387817
1789635195336195600,11.206195556640624,0.18352456390857697,-0.13102827966213226,-1.8028377294540405
1789635195346235000,11.21623486328125,0.20266014337539673,-0.1912946105003357,-1.9112145900726318
1789635195356274700,11.226274658203126,0.2325083166360855,-0.4207507073879242,-1.958419680595398
1789635195366314800,11.236314697265625,0.22988304495811462,-0.486156702041626,-1.8920146226882935
1789635195376353800,11.246353759765626,0.2072533667087555,-0.4599197804927826,-1.7685251235961914
1789635195386393900,11.256393798828125,0.1553330272436142,-0.4136430323123932,-1.6390961408615112
1789635195396434000,11.266433837890625,0.03852970898151398,-0.235383540391922,-1.4516453742980957
1789635195406473700,11.2764736328125,-0.03229355812072754,-0.1030743271112442,-1.3081892728805542
1789635195416512800,11.2865126953125,-0.04655079171061516,0.011631750501692295,-1.2422832250595093
1789635195426552800,11.296552734375,-0.05146213248372078,0.025931866839528084,-1.133763074874878
1789635195436593000,11.306593017578125,-0.07890414446592331,-0.07315050810575485,-1.0171440839767456
1789635195446631700,11.316631591796876,-0.09677764028310776,0.02063075080513954,-0.9081338047981262
1789635195456671700,11.326671630859375,-0.07040728628635406,0.4210575222969055,-0.8296432495117188
1789635195466711800,11.3367119140625,-0.010562468320131302,0.5702371001243591,-0.8007371425628662
1789635195476750600,11.34675048828125,0.05568552762269974,0.6023465394973755,-0.7779753804206848
1789635195486790700,11.356790771484375,0.0982157364487648,0.6042238473892212,-0.7024739384651184
1789635195496830700,11.366830810546874,0.13630640506744385,0.6264684200286865,-0.5179898142814636
1789635195506869800,11.376869873046875,0.12162009626626968,0.4793066382408142,-0.34804582595825195
1789635195516909600,11.38690966796875,0.06179751083254814,0.29339906573295593,-0.21086186170578003
1789635195526949600,11.39694970703125,-0.021616827696561813,0.22715260088443756,-0.01602855511009693
1789635195536989700,11.40698974609375,-0.11485382914543152,0.3293468952178955,0.08717479556798935
1789635195547028700,11.41702880859375,-0.11348042637109756,0.5350890159606934,0.007680427748709917
1789635195557068800,11.42706884765625,-0.09610596299171448,0.43635979294776917,-0.031269367784261703
1789635195567108600,11.437108642578124,-0.12101012468338013,0.3446265757083893,0.10210376977920532
1789635195577147600,11.447147705078125,-0.22435487806797028,0.23637574911117554,0.36777618527412415
1789635195587187700,11.457187744140626,-0.35942310094833374,0.44660934805870056,0.7397861480712891
1789635195597227800,11.467227783203125,-0.40931767225265503,0.6743423342704773,1.0690077543258667
1789635195607266600,11.4772666015625,-0.33515506982803345,0.6846401691436768,1.198522686958313
1789635195617306600,11.487306640625,-0.2706114947795868,0.4939882159233093,1.2938295602798462
1789635195627346700,11.4973466796875,-0.3169793486595154,0.5237360000610352,1.5793124437332153
1789635195637385700,11.5073857421875,-0.35210031270980835,0.8447062969207764,1.912751317024231
1789635195647425500,11.517425537109375,-0.2815791070461273,1.1019761562347412,1.9971249103546143
1789635195657465600,11.527465576171876,-0.14864501357078552,1.032959222793579,1.9044806957244873
1789635195667505000,11.5375048828125,-0.06195306405425072,0.8123023509979248,1.8697015047073364
1789635195677545000,11.547544921875,-0.03667194023728371,0.7380089163780212,1.9521982669830322
1789635195687584500,11.55758447265625,-0.07475569099187851,0.8723450303077698,2.0020639896392822
1789635195697624600,11.56762451171875,-0.15720608830451965,0.8641619682312012,1.9162051677703857
1789635195707664000,11.577663818359374,-0.2426646500825882,0.4720681607723236,1.8072019815444946
1789635195717704000,11.587703857421875,-0.33249732851982117,0.2373720407485962,1.8534504175186157
1789635195727743700,11.59774365234375,-0.4249807894229889,0.3743749260902405,1.9978786706924438
1789635195737782800,11.60778271484375,-0.4763537049293518,0.5780697464942932,2.0199785232543945
1789635195747822800,11.61782275390625,-0.44791698455810547,0.6421644687652588,1.9162670373916626
1789635195757863000,11.62786279296875,-0.35586613416671753,0.588587760925293,1.853906512260437
1789635195767901700,11.637901611328125,-0.24886807799339294,0.6195248961448669,1.9322844743728638
1789635195777941800,11.647941650390624,-0.14572545886039734,0.8331402540206909,2.053903341293335
1789635195787981800,11.65798193359375,-0.034596528857946396,0.8927430510520935,2.0702877044677734
1789635195798020600,11.6680205078125,0.11711230874061584,0.6072087287902832,1.9444667100906372
1789635195808060700,11.678060791015625,0.1895523965358734,0.37567073106765747,1.8244043588638306
1789635195818100700,11.688100830078126,0.20009638369083405,0.44450411200523376,1.8188492059707642
1789635195828140800,11.698140869140625,0.20122374594211578,0.6690444350242615,1.8400644063949585
1789635195838179800,11.708179931640625,0.248990997672081,0.4755905270576477,1.726906418800354
1789635195848219600,11.7182197265625,0.2627681493759155,0.019593629986047745,1.5447906255722046
1789635195858259700,11.728259765625,0.19751882553100586,-0.09424053132534027,1.5315760374069214
1789635195868298800,11.738298828125,0.12704521417617798,0.19802074134349823,1.7720725536346436
1789635195878338800,11.7483388671875,0.1475220024585724,0.48925232887268066,2.0152456760406494
1789635195888378600,11.758378662109376,0.27976176142692566,0.4820941090583801,1.9791016578674316
1789635195898417700,11.768417724609375,0.4272553324699402,0.1958378553390503,1.7440383434295654
1789635195908457700,11.778457763671875,0.47884804010391235,0.22220906615257263,1.6327584981918335
1789635195918497800,11.788497802734375,0.4623148739337921,0.3477318584918976,1.6602030992507935
1789635195928536600,11.79853662109375,0.472170889377594,-0.05756959691643715,1.5157592296600342
1789635195938576600,11.80857666015625,0.3735646903514862,-0.654378354549408,1.3429092168807983
1789635195948616700,11.81861669921875,0.07283806800842285,-0.34792691469192505,1.4302623271942139
1789635195958656800,11.82865673828125,-0.0915900245308876,0.5488355755805969,1.7750699520111084
1789635195968695600,11.838695556640625,-0.06906945258378983,0.7531493902206421,2.0032577514648438
1789635195978735400,11.8487353515625,0.09272344410419464,0.18778236210346222,1.8917200565338135
1789635195988775200,11.858775146484374,0.1332656741142273,-0.16308873891830444,1.6378437280654907
1789635195998814500,11.868814453125,0.11087381839752197,0.068260058760643,1.4886161088943481
1789635196008854300,11.878854248046874,0.09337686747312546,0.621985912322998,1.4701277017593384
1789635196018894300,11.888894287109375,0.11528802663087845,0.5981732606887817,1.4608745574951172
1789635196028933400,11.898933349609376,0.1634874790906906,-0.15328118205070496,1.3650645017623901
1789635196038973400,11.908973388671875,0.07168857753276825,-0.4744264483451843,1.3092131614685059
1789635196049013500,11.919013427734376,-0.01594109833240509,-0.10770980268716812,1.3962169885635376
1789635196059052300,11.92905224609375,-0.0456092432141304,0.3825203776359558,1.3948670625686646
1789635196069092400,11.93909228515625,-0.1375533938407898,0.7467666864395142,1.1891193389892578
1789635196079132400,11.94913232421875,-0.21085557341575623,0.7931640148162842,0.8992326855659485
1789635196089171500,11.95917138671875,-0.17594917118549347,0.4941544830799103,0.6990171670913696
1789635196099211500,11.96921142578125,-0.08168631792068481,0.2283603399991989,0.5611780881881714
1789635196109251300,11.979251220703125,0.1136612519621849,-0.21033339202404022,0.3986932933330536
1789635196119291400,11.98929150390625,0.17285028100013733,-0.5031154751777649,0.20078714191913605
1789635196129330400,11.999330322265624,0.012954367324709892,-0.10221242159605026,0.006337293889373541
1789635196139370500,12.00937060546875,-0.06272361427545547,0.2947482466697693,-0.12548065185546875
1789635196149410300,12.019410400390624,-0.04245392978191376,0.3917359709739685,-0.2156045138835907
1789635196159449300,12.029449462890625,0.024642014876008034,0.4467158615589142,-0.3061538338661194
1789635196169489400,12.039489501953126,0.1763337105512619,0.44227778911590576,-0.4270407557487488
1789635196179529500,12.049529541015625,0.29701218008995056,0.4781329929828644,-0.5660417675971985
1789635196189568300,12.059568359375,0.3166702091693878,0.5956385135650635,-0.7536442875862122
1789635196199608300,12.0696083984375,0.2499883770942688,0.41289079189300537,-0.9395081996917725
1789635196209648400,12.0796484375,0.15549077093601227,0.006770795211195946,-1.0376402139663696
1789635196219687200,12.089687255859374,0.08065222203731537,-0.22605553269386292,-1.0106903314590454
1789635196229727200,12.099727294921875,0.07089214771986008,-0.059414371848106384,-0.8951802849769592
1789635196239767300,12.109767333984376,0.11387263983488083,0.24855998158454895,-0.7127547860145569
1789635196249806300,12.119806396484375,0.11908132582902908,0.4937216341495514,-0.5281489491462708
1789635196259846400,12.129846435546876,0.05838868394494057,0.6384311318397522,-0.3853054940700531
1789635196269886200,12.13988623046875,0.031152447685599327,0.6003521680831909,-0.2639670670032501
1789635196279926300,12.14992626953125,0.07173928618431091,0.26042473316192627,-0.1953563094139099
1789635196289965300,12.15996533203125,0.05882639065384865,-0.21804627776145935,-0.2538915276527405
1789635196300005400,12.17000537109375,0.0021010595373809338,-0.5723947286605835,-0.407988965511322
1789635196310045200,12.180045166015624,-0.039265260100364685,-0.7433649301528931,-0.5674446821212769
1789635196320084200,12.190084228515625,-0.07675617188215256,-0.6221598982810974,-0.7067697644233704
1789635196330124300,12.200124267578126,-0.11075062304735184,-0.3431873917579651,-0.824327290058136
1789635196340164400,12.210164306640625,-0.13147641718387604,-0.13156302273273468,-0.8970624804496765
1789635196350203400,12.220203369140625,-0.13978976011276245,0.055336274206638336,-0.9048072695732117
1789635196360243200,12.2302431640625,-0.1389807015657425,0.13721516728401184,-0.8804997801780701
1789635196370283300,12.240283203125,-0.11354764550924301,0.03691830486059189,-0.8580555319786072
1789635196380322600,12.250322509765626,-0.07965119928121567,-0.12222182005643845,-0.8720602989196777
1789635196390362400,12.2603623046875,-0.0957857072353363,-0.1480029672384262,-0.8885263204574585
1789635196400402400,12.27040234375,-0.12968376278877258,-0.11912816762924194,-0.8383947014808655
1789635196410442200,12.280442138671875,-0.12259788066148758,-0.03795023262500763,-0.7697141766548157
1789635196420481500,12.2904814453125,-0.07961472123861313,0.04388684406876564,-0.7512816190719604
1789635196430521300,12.300521240234374,-0.021244822070002556,-0.04239541292190552,-0.7728245258331299
1789635196440561400,12.3105615234375,0.06192915886640549,-0.22066554427146912,-0.8486103415489197
1789635196450600400,12.320600341796874,0.1118338331580162,-0.3758734464645386,-0.9847643375396729
1789635196460640500,12.330640625,0.16812081634998322,-0.4450746178627014,-1.140154480934143
1789635196470680300,12.340680419921876,0.2007351517677307,-0.3557737469673157,-1.2290902137756348
1789635196480719400,12.35071923828125,0.17687535285949707,-0.12327153235673904,-1.2391295433044434
1789635196490759400,12.360759521484376,0.12332933396100998,0.04797453060746193,-1.1931378841400146
1789635196500799500,12.370799560546875,0.07361637055873871,0.14885427057743073,-1.1841574907302856
1789635196510838300,12.38083837890625,0.024724081158638,0.15166202187538147,-1.1924784183502197
1789635196520878300,12.39087841796875,0.028643988072872162,0.013403737917542458,-1.1965298652648926
1789635196530918400,12.40091845703125,0.05428922921419144,-0.11094920337200165,-1.1946076154708862
1789635196540958500,12.41095849609375,0.04228530079126358,-0.24794167280197144,-1.191250205039978
1789635196550997200,12.420997314453125,0.017417993396520615,-0.4336586892604828,-1.2199313640594482
1789635196561037300,12.431037353515626,0.004580225329846144,-0.629728376865387,-1.287426471710205
1789635196571077400,12.441077392578125,0.033306047320365906,-0.7702816128730774,-1.435655117034912
1789635196581116400,12.451116455078125,0.06362374126911163,-0.7107477188110352,-1.4762065410614014
1789635196591156200,12.46115625,0.07705043256282806,-0.4877496361732483,-1.3993967771530151
1789635196601196300,12.4711962890625,0.09040325880050659,-0.5476065874099731,-1.3404996395111084
1789635196611235300,12.4812353515625,0.12591370940208435,-0.7835243940353394,-1.355821132659912
1789635196621275400,12.491275390625,0.09197171777486801,-0.8849802017211914,-1.3862860202789307
1789635196631315200,12.501315185546876,0.0715639665722847,-0.8247181177139282,-1.4036436080932617
