time,seconds_elapsed,z,y,x
1788862018307816000,0.05181591796875,8.692298764801025,4.1006688934326165,1.9780594841003416
1788862018317857000,0.06185693359375,8.518868782043457,4.68620083694458,2.0618565422058106
1788862018327899000,0.07189892578125,7.709179708099365,4.39859736251831,1.8324620956420898
1788862018337940000,0.08193994140625,6.841730519104003,4.129249675750732,1.7494132255554198
1788862018347981000,0.09198095703125,7.522581616210937,4.228459407043457,1.4565724349975586
1788862018358023200,0.102023193359375,7.135169860076904,4.120720332336425,1.3850456604003905
1788862018368064300,0.112064208984375,6.731297967529296,4.025999729156494,1.505354293823242
1788862018378106000,0.122106201171875,7.20789373550415,3.8290766426086424,1.4149731811523436
1788862018388147200,0.132147216796875,7.789235826110839,3.0705636291503904,1.5113397979736327
1788862018398189000,0.14218896484375,7.946056034851074,2.205209366607666,1.6856676063537597
1788862018408230100,0.152230224609375,7.792378215789794,1.798494359588623,1.5343839889526367
1788862018418272000,0.16227197265625,7.440430571746826,1.6121955429077148,1.3633482078552246
1788862018428313000,0.17231298828125,6.679972269439697,1.4299369415283203,1.5408184059143066
1788862018438355000,0.18235498046875,6.67802698059082,1.4745289474487304,2.3235727111816407
1788862018448396000,0.19239599609375,7.182156067657471,2.051082634735107,2.8624177223205565
1788862018458436900,0.202436767578125,6.942885539245605,2.576011348724365,3.2983120620727537
1788862018468479200,0.212479248046875,6.004358488464355,2.8823195236206054,3.9131729759216305
1788862018478520000,0.22252001953125,5.017648129272461,3.1118636077880857,4.613925874328613
1788862018488562200,0.232562255859375,4.370764768218994,3.512742748260498,5.126733942413329
1788862018498603000,0.24260302734375,4.305073860168457,3.892971899414062,5.4412721855163575
1788862018508645000,0.25264501953125,4.638167166137695,3.699640115356445,5.6946086486816405
1788862018518686000,0.26268603515625,5.626822814178467,3.520374266052246,2.465429159545898
1788862018528728000,0.27272802734375,7.9946882560729975,3.1220389648437497,0.5219359619140624
1788862018538769000,0.282768798828125,9.422081358337401,0.9323919090270996,1.8819921424865722
1788862018548810000,0.29281005859375,8.09524472579956,-1.3682862487792968,4.460248055267334
1788862018558851800,0.302851806640625,5.979069733428955,-1.6632219657897949,5.459976885986328
1788862018568893000,0.312892822265625,5.253177717590332,-0.7748235122680663,5.389497574615478
1788862018578935000,0.32293505859375,5.346401944732666,0.009127893829345703,6.062717153930664
1788862018588976000,0.33297607421875,5.229834251403808,0.6762123313903808,6.9972039894104
1788862018599018000,0.34301806640625,4.795735562896728,1.0871171913146973,7.525724005889892
1788862018609059000,0.35305908203125,4.268412647247314,0.824802471923828,7.6196964210510245
1788862018619101000,0.363100830078125,4.44962378540039,0.1545756446838379,7.310545131683349
1788862018629142000,0.37314208984375,4.74994645614624,-0.7499836700439453,6.324582960510254
1788862018639184000,0.383183837890625,5.234323379516601,-1.4012065216064453,5.961412496185303
1788862018649225000,0.393224853515625,6.114940677642822,-1.298555125427246,6.8201827041625975
1788862018659266000,0.40326611328125,6.305130072021484,-0.40177696609497066,8.500313719177246
1788862018669308000,0.413307861328125,5.735310076904296,0.8028057441711425,9.587131635284424
1788862018679349000,0.423348876953125,4.550030617523193,1.3916297149658203,9.810241302490233
1788862018689391000,0.43339111328125,3.1765070526123047,1.501014803314209,9.36626653213501
1788862018699432200,0.44343212890625,2.635417477416992,1.290923607635498,9.018957653808593
1788862018709474000,0.45347412109375,3.090764705657959,1.0645219131469725,9.339182125854492
1788862018719515100,0.46351513671875,3.550301786804199,1.4419079498291014,10.398317085266113
1788862018729557000,0.473556884765625,3.54970323638916,2.34287596206665,11.458200232696532
1788862018739598000,0.48359814453125,2.602347566986084,2.179770973968506,11.426327423095703
1788862018749640000,0.493639892578125,0.5129577056884765,1.7628806098937988,10.575787283325194
1788862018759681000,0.503680908203125,-2.116923180389404,3.3233015419006344,9.905261180877686
1788862018769722000,0.51372216796875,-4.471470875549316,2.1378724449157716,9.414449840545654
1788862018779764000,0.523763916015625,-6.395810459899902,2.10674782333374,8.945186315155029
1788862018789805000,0.53380517578125,-7.173327449035644,3.47922392501831,9.828197814941406
1788862018799847200,0.54384716796875,-8.087313932800292,5.00552748336792,11.673977657318115
1788862018809888000,0.553887939453125,-12.987496543121337,7.6114663528442374,16.200515171051023
1788862018819930000,0.56393017578125,-30.280066946411132,13.857788846588134,25.516054555511474
1788862018829971200,0.57397119140625,-35.14583290786743,13.122619299316405,27.377396708679196
1788862018840013000,0.584012939453125,-19.917213973236084,3.3539772506713863,17.778892615509033
1788862018850054100,0.59405419921875,1.7565958305358886,3.4480993034362792,7.999327021789551
1788862018860095000,0.604094970703125,-1.9559131187438963,7.914033587646484,5.535992788696289
1788862018870137000,0.61413720703125,-9.305214389801025,2.8259061470031734,6.138733056640625
1788862018880178000,0.624177978515625,-5.390545037841797,1.8972551780700682,5.23522120513916
1788862018890220300,0.63422021484375,-6.580163987731933,1.8209400001525877,2.242918042755127
1788862018900261000,0.64426123046875,-7.66129567489624,0.668431175994873,-0.4547486778259277
1788862018910303200,0.65430322265625,-5.938218667602539,-1.7860744384765623,2.5508722312927246
1788862018920344000,0.664343994140625,-1.8764555511474608,-1.722478456878662,6.7000237083435055
1788862018930386200,0.67438623046875,0.8628104232788085,-2.0087351928710935,9.961674557495117
1788862018940427000,0.684427001953125,2.3690625427246093,-5.88614478149414,7.99962629699707
1788862018950469000,0.69446923828125,-3.199251968383789,-7.129184355926514,0.11956044540405272
1788862018960510000,0.704510009765625,-6.085312432098388,-1.862239978790283,-0.21398177337646482
1788862018970551000,0.714551025390625,-1.812560294342041,1.9437924728393554,20.638317585754393
1788862018980593000,0.724593017578125,-0.13631985702514648,-4.914098907470703,19.61449710083008
1788862018990634000,0.734634033203125,-5.022586170196533,-4.254047437286377,10.653748474884033
1788862019000676000,0.744676025390625,-10.921899060821533,-6.211157656860351,15.815946529388427
1788862019010717200,0.75471728515625,-12.425008790588379,-3.6782419380187985,14.212429967498778
1788862019020759000,0.764759033203125,-12.701987995147704,-7.822006461334228,6.181230136108398
1788862019030799400,0.77479931640625,-10.18328784866333,-12.816760037231445,0.2790741310119629
1788862019040841200,0.78484130859375,-5.303904865264892,-19.390489608001708,-1.5409680435180664
1788862019050882300,0.79488232421875,-4.192247106933594,-18.07906564865112,4.898835871887207
1788862019060923400,0.80492333984375,-4.018368211364746,-14.547019649505614,9.823708686828613
1788862019070965200,0.81496533203125,-3.1007904251098632,-16.020052220916746,10.287884533691406
1788862019081006300,0.82500634765625,-3.4931402221679684,-14.953884294128416,9.554061724853515
1788862019091048400,0.83504833984375,-4.376600634765625,-13.07443599090576,8.645312557220459
1788862019101089500,0.845089599609375,-5.215319403839111,-11.105803675842285,7.794473142242431
1788862019111131400,0.85513134765625,-4.100219980621338,-8.483255032348632,2.5911247467041014
1788862019121172500,0.86517236328125,-5.3113867454528805,-5.951985327148437,-3.6508582565307615
1788862019131214300,0.87521435546875,-7.2057988090515135,-4.41775097579956,-6.554276682281494
1788862019141255400,0.88525537109375,1.8001403732299803,-1.5153800132751465,-1.6825252166748046
1788862019151297300,0.89529736328125,-3.905840733337402,-4.943577515411377,7.422324421691894
1788862019161338400,0.90533837890625,-10.759991173553466,-5.467608403778076,5.716755014038085
1788862019171379200,0.915379150390625,-8.220790675354003,-2.0459949562072755,2.622099730682373
1788862019181421300,0.92542138671875,-6.311115576171875,-0.9238625656127929,2.9267618919372556
1788862019191462400,0.93546240234375,-5.52252540435791,-1.3652934967041015,4.019415674591064
1788862019201504500,0.94550439453125,-4.784512742614746,-2.521094348144531,4.536862508392334
1788862019211545300,0.95554541015625,-4.597914650726318,-4.630834923553467,4.31554849243164
1788862019221587500,0.96558740234375,-4.4482770469665525,-5.813869818878174,4.657620054626465
1788862019231628500,0.975628662109375,-4.241028965759277,-5.393537789916992,6.1361892173767085
1788862019241670400,0.98567041015625,-2.316839019012451,-4.04126276473999,8.520065882873535
1788862019251711500,0.99571142578125,-5.156960738372803,-4.267365184020996,9.200916979980468
1788862019261753300,1.00575341796875,-7.455693607330322,-5.699247414398193,8.536376381683349
1788862019271794400,1.01579443359375,-6.030395431518555,-6.772149033355713,7.82679486465454
1788862019281835300,1.025835205078125,-5.328295794677734,-6.820631616973877,7.489810980987548
1788862019291877400,1.03587744140625,-6.734589994812011,-6.344335124206543,6.522254235076904
1788862019301918200,1.045918212890625,-6.250961259460449,-6.214898596954345,5.6947582862854
1788862019311960600,1.055960693359375,-4.427477420043945,-5.276670821380615,6.290315949249267
1788862019322001400,1.06600146484375,-3.4790742874145506,-5.6304141166687005,6.38443800201416
1788862019332043500,1.07604345703125,-3.256712808227539,-4.899434422302246,6.257246038818359
1788862019342084400,1.08608447265625,-4.422240103912353,-3.838952724456787,5.721842692565918
1788862019352126500,1.09612646484375,-6.673238577270507,-4.365976364898682,5.065382524871826
1788862019362167300,1.106167236328125,-7.948749511718749,-5.658396348571777,4.459948780059814
1788862019372208400,1.11620849609375,-5.600486595916748,-4.946719905090331,3.8896798721313472
1788862019382250200,1.126250244140625,-4.215590573120117,-3.840748375701904,2.9569886878967284
1788862019392291300,1.136291259765625,-4.938639474487305,-4.630086735534667,1.2190975578308105
1788862019402333400,1.14633349609375,-6.272209799194336,-8.25505768661499,-0.5503671066284179
1788862019412374500,1.15637451171875,-5.2453965621948235,-9.121010499572753,1.4407108489990235
1788862019422416400,1.16641650390625,-4.650886362457275,-8.040178087615967,3.8332664955139157
1788862019432457500,1.17645751953125,-4.974702136993408,-7.662941688537598,4.127154749298096
1788862019442499300,1.186499267578125,-5.219509256744384,-7.713519198608398,3.787627026367187
1788862019452540400,1.19654052734375,-5.552004012298584,-9.176974963378905,3.743633570861816
1788862019462581500,1.20658154296875,-5.099799173736572,-9.696367086029053,4.649240348815917
1788862019472623400,1.216623291015625,-5.783643022918701,-10.431835908508301,4.943577515411377
1788862019482664400,1.22666455078125,-5.420771833801269,-9.805901811981201,5.590760151672363
1788862019492706300,1.236706298828125,-2.564638890838623,-4.847809449005126,6.5628060256958
1788862019502747400,1.246747314453125,-6.116885966491699,-7.960271607208251,1.0538976432800293
1788862019512789500,1.25678955078125,-5.957222643280029,4.157381545257568,6.507440112304687
1788862019522830600,1.26683056640625,-7.3271549057006835,0.6049848320007324,6.608146219635009
1788862019532872400,1.27687255859375,-6.018574060821533,-7.691971383666992,2.6351182022094726
1788862019542913500,1.28691357421875,-4.966172793579101,-14.359673369598388,2.179621336364746
1788862019552954400,1.296954345703125,-4.773439559936524,-14.307000933074951,4.673780915832519
1788862019562996500,1.30699658203125,-5.735010801696777,-11.487529203033446,5.437531245422363
1788862019573037300,1.317037353515625,-7.196521277618408,-8.877849393463134,3.7707179771423336
1788862019583079400,1.327079345703125,-7.866598467254638,-7.785345248413085,3.368192823028564
1788862019593120300,1.337120361328125,-6.972214509582519,-7.154772386169433,3.6920085975646972
1788862019603162400,1.347162353515625,-5.919663604736328,-4.977994164276123,4.106055847167968
1788862019613203200,1.357203125,-5.986551613616943,-3.629310441589355,3.1419407661437986
1788862019623245600,1.36724560546875,-5.3299418083190915,-4.161122485351562,2.995445552062988
1788862019633286400,1.377286376953125,-5.188683910369873,-6.481103894042969,3.9647979492187497
1788862019643328500,1.38732861328125,-5.005677120971679,-7.424269710540771,5.3950341659545895
1788862019653369300,1.397369384765625,-4.522048385620117,-7.693767034912109,6.073491061401366
1788862019663410400,1.407410400390625,-5.236418305969238,-8.460360478973389,6.240336989593506
1788862019673452300,1.417452392578125,-6.114042852020264,-6.456862602233886,6.41646044921875
1788862019683493400,1.427493408203125,-7.61640439376831,-7.592462377166748,4.9543514228820795
1788862019693535200,1.43753515625,-7.9752353675842285,5.444713850402832,6.571784281921387
1788862019703576300,1.447576416015625,-0.24974516067504882,24.682872377777098,4.683956272888183
1788862019713618200,1.4576181640625,-12.356923680877685,-4.18790761642456,-10.187328063964843
1788862019723659300,1.4676591796875,-5.519532652282715,-0.9823708686828613,-0.8683470146179199
1788862019733700400,1.477700439453125,-7.738059765625,-5.773318028259277,2.0632032806396485
1788862019743742500,1.487742431640625,-11.624896523284912,-11.324424214935302,1.1085153686523437
1788862019753783600,1.497783447265625,-5.647173528289795,-10.094552749633788,0.9564835632324218
1788862019763825400,1.507825439453125,0.7924807495117187,-7.5156982864379875,5.908740059661865
1788862019773866500,1.517866455078125,-3.7276223472595214,-5.780350995635986,9.739612353515625
1788862019783908400,1.527908447265625,-10.167575900268554,-0.9540893615722655,9.25718071899414
1788862019793949400,1.537949462890625,-6.653037500762939,-4.905868839263916,8.796596174621582
1788862019803991300,1.5479912109375,-3.5749919914245605,-2.670582314300537,13.734637098693847
1788862019814032400,1.558032470703125,-13.211803311157226,-11.021557704925536,13.254001115417479
1788862019824073200,1.5680732421875,-12.893224852752684,-6.0975827156066895,17.201890015411376
1788862019834115300,1.578115234375,-7.84026224899292,-9.866505041503906,16.195277854919432
1788862019844156400,1.588156494140625,1.1162965240478515,-13.635577005004881,14.01999600906372
1788862019854198500,1.598198486328125,-1.6579846496582031,-12.907290787506103,10.253467884826659
1788862019864239400,1.6082392578125,-6.000018997955322,-12.944550550842285,6.849212399291992
1788862019874281500,1.618281494140625,-6.573879208374023,-13.695581684112549,1.8166005096435547
1788862019884322300,1.628322265625,-5.446509501647949,-11.726799731445311,-1.6371850227355955
1788862019894364400,1.638364501953125,-5.834669445800781,-10.626215155792236,-4.261379679870605
1788862019904405200,1.6484052734375,-7.203703882598877,-10.118045853424071,-5.442020373535156
1788862019914447400,1.658447265625,-8.769212493133544,-10.482413418579101,-4.206163404083251
1788862019924488200,1.66848828125,-9.285761501312255,-11.509077017974853,-3.6337995697021483
1788862019934529300,1.678529296875,-9.491812481689452,-10.934767894744873,-4.189104717254638
1788862019944571400,1.6885712890625,-8.795249436187744,-10.165480973815917,-2.501940734863281
1788862019954612500,1.698612548828125,-9.703100778198241,-9.626486325073241,0.5750573112487792
1788862019964654300,1.708654296875,-10.540622446441649,-8.751704893493653,2.2207716773986816
1788862019974695400,1.7186953125,-10.86009873046875,-8.135048328399657,3.239504483795166
1788862019984737300,1.7287373046875,-9.443778810882568,-7.367108145904541,2.0712837112426756
1788862019994778400,1.7387783203125,-8.058733150482178,-6.5099839515686035,-0.7829039428710937
1788862020004820200,1.7488203125,-6.577620148468017,-6.187365277862549,-2.642450444793701
1788862020014861300,1.758861328125,-6.618620851898193,-3.960159183502197,-2.1689970664978024
1788862020024902400,1.76890234375,-6.288071385192871,-1.7172411407470702,-2.487425887298584
1788862020034945500,1.778945556640625,-7.10554161453247,2.9593828895568848,-1.3819032707214354
1788862020044986400,1.788986328125,-9.662399349975585,5.27981321105957,-0.5352537086486816
1788862020055028500,1.799028564453125,-10.88538748550415,3.6592379623413085,0.30960020217895506
1788862020065069300,1.8090693359375,-9.413552014923095,-1.725022296142578,0.7401075881958007
1788862020075111700,1.819111572265625,-8.713696942138672,-4.799177227783203,-0.003890577697753906
1788862020085152500,1.829152587890625,-10.359710583496094,-5.52282467956543,-0.19033903198242186
1788862020095194600,1.839194580078125,-12.088623457336425,-4.683208084869385,0.8313865264892578
1788862020105235500,1.8492353515625,-11.085153686523437,-4.537610696411132,2.4637831459045407
1788862020115276500,1.859276611328125,-4.767603693389892,-7.04838004989624,3.221547971343994
1788862020125318400,1.869318359375,-3.0802900733947753,-8.109161022949218,4.3902176567077635
1788862020135359500,1.879359375,-8.747814315795898,-6.684012484741211,6.80551821899414
1788862020145401600,1.889401611328125,-9.513210659027099,-4.968417357635498,7.887697369384765
1788862020155442400,1.8994423828125,-9.446322650146485,-4.063109854888916,7.3663599578857415
1788862020165484500,1.909484619140625,-9.056217417144774,-4.586542192840576,4.134636629486084
1788862020175525400,1.919525390625,-7.912836486816405,-5.421220746612549,1.5307926864624022
1788862020185567700,1.929567626953125,-7.234828504180908,-4.048445369720459,-0.35030163040161133
1788862020195608600,1.939608642578125,-6.648997285461426,-0.8207622566223144,-1.032349828338623
1788862020205649700,1.949649658203125,-7.256525956726073,-0.2715922508239746,-0.44906244888305663
1788862020215691500,1.95969140625,-8.66431653289795,-1.4414590370178222,0.6452373474121094
1788862020225732600,1.969732666015625,-9.504232402801513,-1.8849848945617675,2.2117934211730956
1788862020235774500,1.9797744140625,-10.338162768554687,-1.8365023109436034,3.005770546722412
1788862020245815600,1.989815673828125,-9.274987593841551,-1.950975077819824,3.487005080413818
1788862020255857400,1.999857421875,-9.09766703338623,-3.912275150299072,2.450914311981201
1788862020265898500,2.0098984375,-10.230274056243896,-3.6994904777526854,2.3956980361938474
1788862020275940400,2.0199404296875,-11.164910529327392,-2.9583354263305663,2.1339818672180173
1788862020285981400,2.0299814453125,-7.124246315002441,-5.957821193695068,-1.4525322196960448
1788862020296022500,2.0400224609375,-3.8826469047546386,-8.65069951095581,-3.944297597503662
1788862020306064600,2.050064697265625,-5.97592734375,-8.161234909057617,-4.806509470367431
1788862020316105700,2.060105712890625,-9.274389043426513,-7.8815622276306145,-4.139425032806396
1788862020326147600,2.070147705078125,-8.681674494934082,-9.601047932434081,-3.356072177124023
1788862020336188700,2.080188720703125,-10.287435620880126,-7.848641954803466,-1.9372084182739258
1788862020346230500,2.09023046875,-9.332598071289063,-4.968566995239257,-3.414131567382812
1788862020356271600,2.100271728515625,-9.586383447265625,-4.040065663909912,-3.622576749420166
1788862020366313500,2.1103134765625,-8.160486721038819,-6.082319680023193,-3.8986581283569333
1788862020376354600,2.1203544921875,-7.32910019454956,-7.9670052993774405,-2.9319992080688473
1788862020386395400,2.1303955078125,-7.294833183288574,-7.631218516540527,-0.18734627990722655
1788862020396437500,2.1404375,-8.322095333099364,-7.439083833312988,0.9789292037963867
1788862020406478300,2.150478271484375,-8.515127841949463,-8.540266959381103,0.5322609565734863
1788862020416520700,2.160520751953125,-8.227823642730712,-8.073547273254395,-1.4679448928833008
1788862020426561500,2.1705615234375,-8.412775720977782,-7.529764221191406,-2.5191490592956542
1788862020436603600,2.180603759765625,-8.505999948120117,-7.133224571228027,-2.3931541969299315
1788862020446644500,2.19064453125,-8.524255735778809,-6.467786147308349,-1.8471265808105468
1788862020456686600,2.2006865234375,-8.385840952301026,-6.010493630218505,-1.6428712516784667
1788862020466727400,2.2107275390625,-8.230816394805908,-5.5540989387512205,-1.6141408317565917
1788862020476768500,2.2207685546875,-8.022071937561035,-4.701912785339355,-1.395071379852295
1788862020486810400,2.230810302734375,-8.115445802307129,-3.978564608764648,-1.1975497428894042
1788862020496851500,2.2408515625,-8.264484855651855,-3.4473511154174803,-1.1420341918945311
1788862020506893300,2.250893310546875,-8.17859287109375,-2.864213373565674,-0.9638158058166504
1788862020516934400,2.260934326171875,-8.23575443572998,-2.884414450073242,-1.1098621070861816
1788862020526976500,2.2709765625,-8.477568803405761,-2.7902923973083493,-1.1266215187072752
1788862020537017600,2.281017578125,-8.54849702758789,-2.4343045379638673,-0.8713397666931152
1788862020547059500,2.2910595703125,-8.660874868011474,-2.357241172027588,-1.0743979949951172
1788862020557100500,2.3011005859375,-8.552387605285643,-1.938255881500244,-1.025915411376953
1788862020567141600,2.3111416015625,-8.693495865631103,-1.5617676704406738,-0.9953893402099608
1788862020577183500,2.32118359375,-8.799140013885497,-1.6499042190551756,-1.871218235015869
1788862020587224600,2.331224609375,-8.635286837768554,-1.9410989959716796,-2.127248175048828
1788862020597266400,2.341266357421875,-9.085097474670409,-1.6068085891723631,-1.5038579177856444
1788862020607307500,2.3513076171875,-9.412205276489257,-1.467795255279541,-1.451185481262207
1788862020617349600,2.361349609375,-8.910620028686523,-2.4609400314331054,-1.5435118827819823
1788862020627390700,2.371390625,-8.006509626770018,-4.5890860321044915,-0.6979097839355468
1788862020637432600,2.3814326171875,-8.719532808685303,-3.4666543663024902,-0.8364742050170898
1788862020647473700,2.3914736328125,-8.252962760162353,-3.403357659912109,-1.848174044036865
1788862020657514500,2.401514404296875,-8.948328704833983,-6.140379070281982,-1.7366940292358397
1788862020667556600,2.411556640625,-9.13537570953369,-6.326228974151611,-1.5209166046142577
1788862020677597400,2.421597412109375,-8.709507089233398,-5.368398672485351,-1.7292121490478514
1788862020687639600,2.4316396484375,-8.758139310455322,-6.525396624755859,-2.4206875160217285
1788862020697680400,2.441680419921875,-8.545504275512695,-7.3751885765075675,-2.657863117980957
1788862020707722500,2.451722412109375,-8.63798031463623,-6.501005695343017,-2.638559867095947
1788862020717763300,2.461763427734375,-9.133280783081053,-5.997774433898925,-2.527079852294922
1788862020727805700,2.4718056640625,-9.130736943817139,-5.697302125549316,-2.3671172538757324
1788862020737846500,2.481846435546875,-8.86108998184204,-5.748777461242676,-2.5585037490844726
1788862020747887600,2.4918876953125,-8.900893584442137,-5.779303532409668,-3.1952117530822752
1788862020757929500,2.501929443359375,-8.738536784362793,-5.645228239440917,-3.8603509017944333
1788862020767970600,2.511970458984375,-8.751555255889892,-5.390694675445556,-3.6598365127563475
1788862020778012400,2.522012451171875,-7.9840639862060545,-4.869057988739013,-3.0621839233398433
1788862020788053500,2.532053466796875,-8.434772448730468,-4.358644122314453,-2.6312276245117188
1788862020798095400,2.542095458984375,-8.666561096954345,-4.178330809783935,-2.179172423553467
1788862020808136400,2.552136474609375,-8.180089247131347,-4.283376407623291,-1.8510171585083006
1788862020818178300,2.56217822265625,-8.012794406127929,-3.6037224113464355,-1.2376526206970213
1788862020828219400,2.572219482421875,-7.915529963684081,-2.015468885040283,-1.412279704284668
1788862020838260500,2.582260498046875,-8.38180073699951,3.1452327934265134,-1.1035773277282714
1788862020848302600,2.592302490234375,-10.65569376373291,4.245967006683349,-1.7829320487976072
1788862020858343700,2.60234375,-10.013000255584716,0.9917980377197265,-2.1890485054016113
1788862020868385500,2.612385498046875,-10.11924295425415,-2.706345701599121,-1.786224076080322
1788862020878426600,2.622426513671875,-11.226860497283935,-2.3939023849487304,-0.08394669570922851
1788862020888468500,2.632468505859375,-11.814936280059813,-1.7176900535583495,0.962768342590332
1788862020898509600,2.642509521484375,-8.247426168823242,-4.583250165557861,0.508169302368164
1788862020908551400,2.652551513671875,-7.637204020690917,-5.923404544830322,-0.02663549346923828
1788862020918592500,2.662592529296875,-8.498966980743408,-6.059125851440429,-0.4170400016784668
1788862020928633300,2.67263330078125,-8.032247294616699,-6.107758072662353,-1.2096703887939453
1788862020938675500,2.682675537109375,-7.00977354812622,-6.4740709266662595,-1.783081686401367
1788862020948716300,2.69271630859375,-6.927622503662109,-5.0182466796875,-1.7744027053833007
1788862020958758700,2.702758544921875,-8.193706269073486,-3.981856636047363,-2.0789152290344237
1788862020968799500,2.712799560546875,-9.609876551055908,-4.328716601562499,-2.985868745422363
1788862020978841600,2.722841552734375,-9.448267938995361,-3.6967970008850095,-3.405302948760986
1788862020988882400,2.73288232421875,-8.776245460510253,-3.197755592346191,-2.927958992767334
1788862020998924500,2.742924560546875,-8.456769176483153,-2.5281273155212403,-1.920449006652832
1788862021008965400,2.75296533203125,-8.330624676513672,-1.9823989746093749,-1.105672254180908
1788862021019006500,2.76300634765625,-7.785494886016846,-3.7395933555603027,-1.7679682884216308
1788862021029048300,2.77304833984375,-8.448539108276366,-5.54167901763916,-2.49640414352417
1788862021039089700,2.783089599609375,-9.830292741394043,-5.602581522369384,-2.278382154846191
1788862021049131500,2.793131591796875,-9.649380878448486,-5.073762230682373,-2.203862628173828
1788862021059172600,2.803172607421875,-8.996661650848388,-4.932055419921875,-2.398541150665283
1788862021069214500,2.81321435546875,-8.417115211486816,-4.921131874847412,-2.6623522460937497
1788862021079255600,2.823255615234375,-8.597129248809814,-4.637568615722656,-2.6970681701660153
1788862021089297400,2.83329736328125,-9.085546387481688,-4.286069884490966,-2.6316765373229978
1788862021099338500,2.84333837890625,-9.00249751739502,-3.9713820037841794,-2.4328081619262694
1788862021109379600,2.853379638671875,-8.840290354919434,-3.827430628967285,-2.2506991981506346
1788862021119421700,2.863421630859375,-8.812607398223877,-3.857507787322998,-2.1507412788391114
1788862021129462800,2.873462890625,-8.870666788482666,-3.88159944152832,-2.0636521934509275
1788862021139504600,2.883504638671875,-8.671050225067138,-3.96464831161499,-2.150292366027832
1788862021149545700,2.893545654296875,-8.571241943359375,-3.957465706634521,-2.1531354804992673
1788862021159587600,2.903587646484375,-8.760982424926757,-3.8621465530395507,-2.0784663162231443
1788862021169628700,2.913628662109375,-8.762927713775634,-3.771765440368652,-2.043600754547119
1788862021179670500,2.92367041015625,-8.721328459930419,-3.7385458923339843,-2.1128829650878904
1788862021189711600,2.933711669921875,-8.569147016906738,-3.7140053253173826,-2.163610112762451
1788862021199752400,2.94375244140625,-8.401103987884522,-3.700537940979004,-2.178873148345947
1788862021209794600,2.953794677734375,-8.404396015167237,-3.5797803947448728,-2.2465093452453613
1788862021219835400,2.96383544921875,-8.54849702758789,-3.414131567382812,-2.3695114555358887
1788862021229877800,2.973877685546875,-8.965088116455078,-3.2721254814147946,-2.4001871643066406
1788862021239918600,2.983918701171875,-8.857648316955565,-3.092560356903076,-2.5258827514648434
1788862021249960700,2.993960693359375,-8.757091847229004,-2.8281507110595703,-2.4191911399841306
1788862021260001500,3.00400146484375,-8.778938937377928,-2.536058108520508,-2.2135890724182126
1788862021270042600,3.014042724609375,-8.974964198303223,-2.354398057556152,-2.1945850967407226
1788862021280084700,3.024084716796875,-9.236680367279051,-2.226906819152832,-2.140715559387207
1788862021290125600,3.03412548828125,-9.428515775299072,-2.0214543891906738,-1.8595465019226074
1788862021300167700,3.044167724609375,-9.241917683410644,-1.6801310150146482,-1.59603468170166
1788862021310208500,3.05420849609375,-9.201216255187989,-1.2823942642211914,-1.6820763038635254
1788862021320250600,3.064250732421875,-9.541342528533935,-1.114650510406494,-2.0272902557373045
1788862021330291700,3.074291748046875,-9.51261210861206,-1.31516489944458,-2.5649381660461423
1788862021340333800,3.084333740234375,-9.489867192840576,-1.6374842979431152,-2.9613281784057617
1788862021350374700,3.094374755859375,-9.48044002380371,-2.120813758087158,-3.074454206848144
1788862021360415700,3.104415771484375,-9.075670305633544,-2.5685294685363766,-3.008314385986328
1788862021370457600,3.11445751953125,-8.870966063690185,-2.9659669441223144,-2.972999911499023
1788862021380498700,3.124498779296875,-8.239046463012695,-3.143586779785156,-3.188178785705566
1788862021390540500,3.13454052734375,-8.15928962020874,-3.1296704826354977,-3.1808465431213375
1788862021400581600,3.14458154296875,-8.31805511779785,-3.1766566902160642,-3.4352304695129394
1788862021410623500,3.15462353515625,-8.033444395446777,-3.1886276985168456,-4.075829051208496
1788862021420664600,3.16466455078125,-8.234258059692383,-3.033154228210449,-3.665822016906738
1788862021430706700,3.174706787109375,-8.443152154541016,-2.9453169548034666,-2.7443536529541013
1788862021440747800,3.184747802734375,-8.475473876953124,-3.2561142578125,-2.5092729774475098
1788862021450788900,3.194788818359375,-8.680627031707763,-3.315520386505127,-3.004573445892334
1788862021460830700,3.204830810546875,-8.393472470092773,-2.549675130462646,-2.9336452217102047
1788862021470871800,3.214871826171875,-8.328978662872315,-2.061257991790771,-2.412756723022461
1788862021480913700,3.22491357421875,-8.125770796966552,-2.5195979721069333,-2.3573908096313474
1788862021490954800,3.234954833984375,-8.016086433410644,-2.926462616729736,-2.9779379524230953
1788862021500996600,3.24499658203125,-8.493131114196776,-2.7214590995788575,-3.6450223899841308
1788862021511037700,3.25503759765625,-8.698284268951415,-2.392854921722412,-4.035726173400879
1788862021521079600,3.26507958984375,-8.40888514328003,-2.114080065917969,-3.87516502456665
1788862021531120600,3.27512060546875,-8.736142582702636,-2.09402862701416,-3.380463106536865
1788862021541161500,3.285161376953125,-9.326612567138671,-2.524984925842285,-2.8987796600341795
1788862021551203800,3.295203857421875,-9.543587092590332,-2.9427731155395507,-2.6446950088500976
1788862021561244700,3.30524462890625,-9.745747495269775,-3.1949124778747557,-2.616114226531982
1788862021571286800,3.315286865234375,-9.754875389099121,-3.1771056030273437,-2.5782559127807616
1788862021581327600,3.32532763671875,-9.60793126220703,-2.9225720390319823,-2.3898621696472166
1788862021591369700,3.33536962890625,-9.056815967559814,-2.6467899353027344,-2.1351789680480957
1788862021601410600,3.34541064453125,-8.56121622390747,-2.3745991340637205,-2.0766706649780273
1788862021611452700,3.35545263671875,-8.7463179397583,-2.2397756530761717,-2.246210070037842
1788862021621493500,3.365493408203125,-9.222614432525635,-2.3603835617065427,-2.4021324531555175
1788862021631534600,3.37553466796875,-9.27648396987915,-2.6405051559448243,-2.2659622337341307
1788862021641576400,3.385576416015625,-8.698882819366455,-2.8089970977783203,-1.9960159965515136
1788862021651617500,3.395617431640625,-8.110657398986817,-2.7801170402526854,-1.7932570434570312
1788862021661659600,3.40565966796875,-7.719654340362548,-2.717568521881103,-1.8553566490173339
1788862021671700700,3.41570068359375,-7.726986582946777,-2.618358790588379,-2.233341236114502
1788862021681742600,3.42574267578125,-8.511536539459229,-2.560598675537109,-2.540098323822021
1788862021691783700,3.43578369140625,-9.299528160858154,-2.7048493255615234,-2.3612813873291016
1788862021701825500,3.445825439453125,-9.21857421722412,-2.948309706878662,-1.6953940505981444
1788862021711866600,3.45586669921875,-8.68990456314087,-3.155108875274658,-1.0612298858642577
1788862021721907700,3.46590771484375,-8.334964167022704,-3.3822587577819823,-0.939724151611328
1788862021731949600,3.475949462890625,-8.25505768661499,-3.5571851165771484,-1.3313257606506348
1788862021741990700,3.48599072265625,-8.29351455078125,-3.7740100044250484,-1.9387047943115234
1788862021752032500,3.496032470703125,-8.461407942199706,-4.018517848968505,-2.3605331993103027
1788862021762073600,3.506073486328125,-8.469189097595214,-4.403086490631103,-2.633322550964355
1788862021772115700,3.51611572265625,-8.157344331359862,-4.733336682128906,-2.8163293403625485
1788862021782156800,3.52615673828125,-7.813776393127441,-4.948665193939209,-3.0096611244201656
1788862021792198700,3.53619873046875,-7.946504947662353,-5.082590849304199,-3.3066917678833008
1788862021802239700,3.54623974609375,-8.326584461212157,-5.22235237121582,-3.306542130279541
1788862021812280600,3.556280517578125,-8.456320263671875,-5.318569350433349,-2.8166286155700684
1788862021822322700,3.56632275390625,-8.088211758422851,-5.326051230621338,-2.0233996780395507
1788862021832363500,3.576363525390625,-7.656357633972168,-5.232378090667725,-1.1634323692321777
1788862021842405600,3.586405517578125,-7.3389762763977044,-5.0766053451538085,-0.4700117134094238
1788862021852446500,3.596446533203125,-7.406313198089599,-4.991311911010742,-0.15906477279663084
1788862021862488800,3.60648876953125,-8.02461577682495,-4.968417357635498,-0.17028759307861327
1788862021872529700,3.61652978515625,-8.227674005126953,-4.975599962615966,-0.22879589614868162
1788862021882571800,3.62657177734375,-7.725939119720459,-4.999691616821289,-0.3871124809265136
1788862021892612600,3.636612548828125,-7.310844406890869,-5.049371301269531,-0.6587047317504883
1788862021902653700,3.64665380859375,-7.25892015838623,-5.197811804199218,-0.9944915145874023
1788862021912695600,3.656695556640625,-7.621043159484863,-5.372139612579345,-1.373224289703369
1788862021922736600,3.666736572265625,-8.462904318237305,-5.51609098739624,-1.7586907569885253
1788862021932778500,3.676778564453125,-9.434351641845703,-5.663932939910889,-1.7917606674194335
1788862021942819600,3.686819580078125,-10.21486138305664,-5.933280626678466,-1.4395137481689453
1788862021952861400,3.696861328125,-10.359411308288573,-6.298246742248534,-0.6566098052978515
1788862021962902500,3.706902587890625,-9.798270294189452,-6.583007102203369,0.27398645248413084
1788862021972943600,3.716943603515625,-9.398737892150878,-6.5886933311462395,0.89378540725708
1788862021982985700,3.72698583984375,-9.445873737335205,-6.318298181152343,1.134402674102783
1788862021993026800,3.73702685546875,-9.708487731933593,-5.970241114807129,1.2536638442993164
1788862022003068700,3.747068603515625,-9.798868844604492,-5.661239463043213,1.2764087600708007
1788862022013109800,3.75710986328125,-9.518447975158692,-5.505317079925537,1.172111350250244
1788862022023151600,3.767151611328125,-8.960449350738525,-5.547514884185791,1.105073703765869
1788862022033192700,3.777192626953125,-8.349778289794921,-5.804741925048828,0.9159317726135253
1788862022043233500,3.787233642578125,-7.817218058013916,-6.133196465301514,0.6076783088684081
1788862022053274600,3.797274658203125,-7.625532287597656,-6.3447840370178215,0.2885013000488281
1788862022063316500,3.80731640625,-7.742548893737792,-6.439803915405273,-0.10878653793334961
1788862022073357600,3.817357666015625,-8.065317205047608,-6.565050589752197,-0.5421370384216309
1788862022083398700,3.827398681640625,-8.28034644165039,-6.771700120544433,-0.8363245674133301
1788862022093440500,3.8374404296875,-7.959074506378173,-6.914903307342529,-1.0800842239379882
1788862022103481600,3.847481689453125,-7.525873643493652,-6.899640271759033,-1.5180734901428221
1788862022113523700,3.857523681640625,-7.677755811309814,-6.740725136566161,-1.7645266235351562
1788862022123564800,3.867564697265625,-7.95518392868042,-6.463446656799316,-1.6898574592590332
1788862022133606700,3.877606689453125,-7.960421244812011,-6.150105514526367,-1.466448516845703
1788862022143647700,3.887647705078125,-7.238719081878662,-6.055833824157714,-1.2852373786926268
1788862022153688600,3.8976884765625,-6.164919637298584,-5.846790091705322,-1.1905167755126953
1788862022163730700,3.907730712890625,-5.7794531700134275,-5.608567026519775,-0.951844797515869
1788862022173771500,3.917771484375,-6.189759479522705,-5.495141722869873,-0.4765957679748535
1788862022183813600,3.927813720703125,-6.728754128265381,-5.550657273864746,0.16310498809814453
1788862022193854500,3.9378544921875,-7.129333993530273,-5.820753148651122,0.5235819755554199
1788862022203896600,3.947896484375,-7.5439797935485835,-6.47975715560913,0.5909188972473144
1788862022213937400,3.9579375,-7.663540238952637,-7.347655257415771,0.354940396118164
1788862022223979800,3.967979736328125,-7.435342893218993,-8.06950705795288,-0.050128597259521485
1788862022234020600,3.9780205078125,-7.550863123321533,-8.426243105316162,-0.4122515983581543
1788862022244061700,3.988061767578125,-8.053944747161864,-8.410680794525145,-0.5779004257202148
1788862022254103600,3.998103515625,-8.212111694335936,-7.836820584106444,-0.23388357467651366
1788862022264144600,4.00814453125,-7.781005757904052,-7.068581126403808,0.04878185882568359
1788862022274186500,4.0181865234375,-7.202656419372558,-6.717680945587158,-0.04683656997680664
1788862022284227600,4.0282275390625,-6.8569935546875,-6.503100621795654,-0.22939444656372068
1788862022294269400,4.03826953125,-6.725462100982666,-6.452672749328613,-0.36481647796630856
1788862022304310500,4.048310546875,-6.296750366210937,-6.533776330566406,-0.21832126388549802
1788862022314352600,4.0583525390625,-5.686977130889892,-6.795791774749755,-0.0665887336730957
1788862022324393700,4.068393798828125,-5.449651891326904,-7.036259403991699,-0.19153613281249998
1788862022334434800,4.078434814453125,-5.870283195495605,-7.13142891998291,-0.3277063522338867
1788862022344476700,4.0884765625,-6.23090982055664,-7.114220595550536,-0.46686932373046874
1788862022354517800,4.098517822265625,-6.067206282043457,-6.9792474769592285,-0.6233902572631835
1788862022364559600,4.1085595703125,-6.0242602897644035,-6.987477545166016,-1.0130465774536133
1788862022374600700,4.1186005859375,-6.302137319946289,-7.133823121643066,-1.4531307701110838
1788862022384642600,4.128642578125,-6.295403627777099,-7.320870126342773,-1.4998177024841308
1788862022394683600,4.13868359375,-6.063315704345703,-7.596652230072021,-1.34718734664917
1788862022404724500,4.148724365234375,-5.6501662803649895,-7.5354504501342765,-1.1239280418395996
1788862022414766600,4.1587666015625,-5.5349453254699705,-7.930942636871338,-1.115249060821533
1788862022424807400,4.168807373046875,-6.385186190032958,-8.536974932098389,-1.13006318359375
1788862022434849800,4.178849853515625,-7.2888476791381835,-9.092429717254639,-0.6108206985473632
1788862022444890600,4.188890625,-7.981819422149658,-9.450512503051756,0.40970775909423823
1788862022454932700,4.1989326171875,-7.323563603210449,-8.93097074279785,1.5355810897827147
1788862022464973600,4.2089736328125,-6.011391455841064,-8.09464617538452,1.5755343299865723
1788862022475015700,4.219015625,-5.565172121429443,-7.247846975708008,0.9727940620422363
1788862022485056500,4.229056396484375,-5.502773240661621,-7.116764434814453,0.3872621185302734
1788862022495097600,4.23909765625,-5.963357785034179,-7.765293809509277,-0.1714846939086914
1788862022505139700,4.2491396484375,-5.849633206176757,-8.46559779510498,-0.3416226493835449
1788862022515180500,4.2591806640625,-5.303904865264892,-9.228749574279785,-0.5916670852661132
1788862022525222700,4.26922265625,-5.46506456451416,-9.731531922912596,-0.958279214477539
1788862022535263500,4.279263427734375,-5.831975968933105,-9.670479780578614,-1.1938088027954101
1788862022545305900,4.289305908203125,-6.723217536926269,-9.35294878540039,-1.3697826248168945
1788862022555346700,4.2993466796875,-8.028356716918944,-8.97002615737915,-1.2376526206970213
1788862022565388800,4.309388916015625,-8.571840493774413,-8.508843062591552,-0.647332273864746
1788862022575429600,4.3194296875,-7.977928844451903,-7.779509381866455,0.28924948806762696
1788862022585470700,4.329470703125,-6.750301943206787,-7.17632020111084,0.7384615745544433
1788862022595512600,4.3395126953125,-5.508908382415771,-6.693589291381835,0.7541735229492187
1788862022605553700,4.3495537109375,-4.938040924072265,-6.437110438537597,0.5686228942871093
1788862022615595500,4.359595458984375,-4.955249248504638,-6.572382832336426,0.5244798011779784
1788862022625636600,4.36963671875,-5.268889665985107,-7.045985848236084,0.5178957466125488
1788862022635678500,4.379678466796875,-5.500528676605224,-7.528417482757568,0.39698856277465816
1788862022645719600,4.389719482421875,-5.672761558532715,-7.767837648773193,0.232387198638916
1788862022655760600,4.3997607421875,-5.568164873504639,-7.800458646392822,0.06389525680541992
1788862022665802800,4.409802734375,-5.455338120269775,-7.772476414489746,-0.0770633659362793
1788862022675843800,4.41984375,-5.43304211730957,-7.96116943283081,-0.2979284690856933
1788862022685885700,4.4298857421875,-5.559336254882812,-8.315960191345214,-0.6708253776550293
1788862022695926800,4.4399267578125,-5.789029976654052,-8.668057472991944,-1.0696095916748045
1788862022705968600,4.44996875,-6.083067868041992,-8.785672629547118,-1.4244003501892089
1788862022716009700,4.460009765625,-6.202628313446045,-8.571840493774413,-1.6041151123046875
1788862022726051600,4.470051513671875,-6.072593235778808,-8.179640334320068,-1.820191812133789
1788862022736092700,4.4800927734375,-5.876567974853515,-7.711424272155761,-1.802235299682617
1788862022746133500,4.490133544921875,-5.8557683479309075,-7.338078450775146,-1.30873048248291
1788862022756175600,4.500175537109375,-5.893925936889648,-7.120056462097168,-0.5786486137390137
1788862022766216700,4.510216796875,-6.038775137329101,-7.066785475158691,0.006733692169189453
1788862022776258800,4.5202587890625,-6.302885507965088,-7.134720947265625,0.43409868850708005
1788862022786299600,4.530299560546875,-6.562656388092041,-7.311442957305908,0.7923311119079589
1788862022796341800,4.540341796875,-6.618171939086913,-7.573308763885498,0.9262567672729491
1788862022806382600,4.550382568359375,-6.72935267868042,-7.674912696838378,0.7176619476318359
1788862022816424700,4.5604248046875,-6.945878291320801,-7.763797433471679,0.27832594299316404
1788862022826465500,4.570465576171875,-7.224503509521484,-7.645284451293945,-0.2823661582946777
1788862022836506600,4.580506591796875,-7.4405802093505855,-7.419780582427978,-0.6845920372009276
1788862022846548500,4.590548583984375,-7.697657612609863,-7.107786178588867,-0.8556278182983398
1788862022856589600,4.600589599609375,-7.891438309478759,-6.829310597991943,-0.7125742691040039
1788862022866631700,4.610631591796875,-7.913883950042724,-6.637475189971924,-0.5156511825561523
1788862022876672800,4.6206728515625,-7.742399256134033,-6.461800643157958,-0.1592144104003906
1788862022886714600,4.630714599609375,-7.41873311920166,-6.209511643218994,0.3107973030090332
1788862022896755700,4.640755615234375,-7.16330172958374,-6.176441732788086,0.55545478515625
1788862022906796800,4.650796875,-6.968772844696044,-6.318298181152343,0.39100305862426754
1788862022916838700,4.660838623046875,-7.06139852142334,-6.477662229156493,0.14215572357177733
1788862022926879700,4.670879638671875,-7.354089674377441,-6.642263593292236,-0.0326209976196289
1788862022936921600,4.680921630859375,-7.57794752960205,-6.816890676879883,-0.0013467384338378906
1788862022946962700,4.690962646484375,-7.57824680480957,-6.89530078125,0.15876549758911132
1788862022957004500,4.701004638671875,-7.446266438293456,-6.78606533050537,0.4246715194702148
1788862022967045600,4.711045654296875,-7.368155609130859,-6.5120788780212395,0.814028564453125
1788862022977087700,4.721087646484375,-7.15716658782959,-6.164620362091064,1.2448352256774902
1788862022987128800,4.73112890625,-7.023839482879638,-5.76493832244873,1.720533168029785
1788862022997169700,4.741169677734375,-7.004835507202148,-5.521029028320312,2.057068138885498
1788862023007211800,4.751211669921875,-6.99076957244873,-5.399523294067382,2.187252854156494
1788862023017252600,4.761252685546875,-6.975506536865234,-5.538985540771484,2.003946789550781
1788862023027294700,4.771294677734375,-7.1309800071716305,-5.859658925628662,1.5198691413879393
1788862023037335800,4.781335693359375,-7.181407879638671,-6.155193193054199,0.9906009368896483
1788862023047378000,4.7913779296875,-7.2432082099914545,-6.202329038238525,0.5131073432922363
1788862023057418800,4.801418701171875,-7.612364178466796,-6.078728377532959,0.1452981132507324
1788862023067460900,4.8114609375,-8.277952239990235,-6.121824007415771,-0.11596914291381835
1788862023077501700,4.821501708984375,-8.876652292633056,-6.547094077301025,-0.25318682556152344
1788862023087542800,4.831542724609375,-9.035567427825928,-7.095665532684325,-0.5415384880065918
1788862023097584600,4.841584716796875,-8.56076731109619,-7.359775903320312,-0.7243956398010254
1788862023107625700,4.851625732421875,-7.736413751983642,-7.248146250915527,-0.5436334144592285
1788862023117667600,4.86166748046875,-7.033565927124023,-6.884227598571777,-0.11611878051757812
1788862023127708700,4.871708740234375,-6.847117472839355,-6.481253531646728,0.3829226280212402
1788862023137750800,4.881750732421875,-7.145345217132568,-6.28822102279663,0.7190086860656738
1788862023147792000,4.8917919921875,-7.572859851074218,-6.368426778411865,0.7019499992370605
1788862023157833000,4.9018330078125,-7.904307143402099,-6.48664048538208,0.5614402893066406
1788862023167874800,4.911874755859375,-8.243984503936767,-6.503699172210693,0.4961982940673828
1788862023177916000,4.921916015625,-8.506897773742676,-6.468683972930908,0.42796354675292964
1788862023187957800,4.931957763671875,-8.707561800384521,-6.293607976531982,0.3371335212707519
1788862023197998800,4.941998779296875,-8.452579323577881,-5.944204171752929,0.2641103706359863
1788862023208040700,4.952040771484375,-7.9104422851562495,-5.534197137451171,0.24510639495849607
1788862023218081800,4.962081787109375,-7.493551921081543,-5.2724809684753415,0.34177228698730466
1788862023228123600,4.97212353515625,-7.407809574127197,-5.163245517730712,0.5370493598937988
1788862023238164700,4.982164794921875,-7.840411886596679,-5.225644398498535,0.5708674583435058
1788862023248205600,4.99220556640625,-8.589348093414307,-5.436334144592285,0.42497079467773435
1788862023258248000,5.002248046875,-9.22500863418579,-5.691166983795165,0.17507599639892577
1788862023268288800,5.012288818359375,-9.613467853546142,-5.7900774398803705,-0.00239420166015625
1788862023278331000,5.022330810546875,-9.719860189819336,-5.689072057342529,0.06584054565429687
1788862023288371700,5.032371826171875,-9.44871685180664,-5.341912816619873,0.4246715194702148
1788862023298413800,5.042413818359375,-9.088539139556884,-4.964377142333984,0.7683890953063964
1788862023308454700,5.05245458984375,-8.884882360839843,-4.773289922332763,1.0769418342590331
1788862023318495700,5.062495849609375,-8.690503113555907,-4.7952866500854485,1.299901863861084
1788862023328537600,5.07253759765625,-8.405144203186035,-4.797082301330566,1.322796417236328
1788862023338578700,5.08257861328125,-8.149712813568115,-4.799775778198242,1.2729670951843262
1788862023348620500,5.09262060546875,-8.202684525299071,-4.901230073547363,1.1614870803833006
1788862023358661600,5.10266162109375,-8.377311608886718,-5.219808531951904,0.8505401397705078
1788862023368703700,5.112703857421875,-8.489988724517822,-5.52895982131958,0.4466682472229004
1788862023378744800,5.122744873046875,-8.635586112976073,-5.648520266723632,0.23208792343139648
1788862023388786700,5.13278662109375,-8.826673332977295,-5.578340230560302,0.1984194625854492
1788862023398827800,5.142827880859375,-8.86064106903076,-5.414487054443359,0.32620997619628905
1788862023408868900,5.152868896484375,-8.904634524536132,-5.136161111450195,0.6043862815856933
1788862023418910700,5.16291064453125,-8.904335249328613,-4.914547820281983,0.7621043159484863
1788862023428951800,5.172951904296875,-8.94383957672119,-4.828206922912598,0.6239888076782226
1788862023438993700,5.18299365234375,-8.86827258682251,-4.693533079528808,0.43185412445068355
1788862023449034800,5.19303466796875,-8.72671541366577,-4.561552713012695,0.22266075439453123
1788862023459076600,5.20307666015625,-8.674192614746094,-4.3816883132934565,0.03396773605346679
1788862023469118000,5.213117919921875,-8.779836763000487,-3.963451210784912,-0.025139117431640625
1788862023479159800,5.223159912109375,-9.135226071929932,-3.6930560607910152,-0.12734160079956053
1788862023489201000,5.233200927734375,-9.472658868408203,-3.6439749267578123,-0.2952349922180176
1788862023499241700,5.24324169921875,-9.430461064147948,-3.7051767066955565,-0.45444940261840816
1788862023509283800,5.253283935546875,-9.170241271209717,-3.6745009979248047,-0.5116109672546386
1788862023519324700,5.26332470703125,-8.910320753479004,-3.606715163421631,-0.5383960983276367
1788862023529366800,5.27336669921875,-8.896554093933105,-3.5353380264282226,-0.4604349067687988
1788862023539407600,5.28340771484375,-9.161711927795409,-3.6074633514404293,-0.30092122116088865
1788862023549449700,5.29344970703125,-9.596708441925049,-3.7428853828430175,-0.34446576385498046
1788862023559490600,5.303490478515625,-9.770736975097655,-3.892522986602783,-0.3477577911376953
1788862023569531600,5.31353173828125,-9.57037222366333,-3.917961379241943,-0.15637129592895507
1788862023579573800,5.32357373046875,-9.772831901550292,-3.8590041633605954,0.029927520751953124
1788862023589614800,5.33361474609375,-10.03619408416748,-3.8998552291870117,0.16729484100341796
1788862023599656700,5.34365673828125,-10.004620549774168,-3.9468414367675777,0.27623101654052734
1788862023609697800,5.35369775390625,-9.760860893249511,-3.72852017288208,0.2790741310119629
1788862023619739600,5.36373974609375,-9.16186156539917,-3.2152631919860837,0.37454292221069335
1788862023629780700,5.37378076171875,-8.390629355621337,-2.760065601348877,0.3778349494934082
1788862023639822800,5.38382275390625,-7.8161705947875975,-2.4961048683166505,0.22161329116821288
1788862023649863700,5.39386376953125,-7.7519760627746574,-2.522441086578369,-0.0017956512451171875
1788862023659904800,5.40390478515625,-7.870339407348633,-2.9109003059387204,-0.356885684967041
1788862023669946600,5.413946533203125,-7.84624775314331,-3.3105823455810546,-0.6892308029174804
1788862023679987700,5.42398779296875,-7.631817066955566,-3.2595559226989743,-0.939724151611328
1788862023690029800,5.43402978515625,-7.777564093017578,-2.8782793083190916,-1.1834838081359862
1788862023700071000,5.44407080078125,-8.068459594726562,-2.3542484199523925,-1.4775216995239258
1788862023710112800,5.45411279296875,-8.469488372802735,-2.0579659645080564,-1.4648025032043457
1788862023720153900,5.46415380859375,-8.837746515655517,-2.2601263671875,-1.2669815910339355
1788862023730194700,5.474194580078125,-8.94428848953247,-2.4947581298828125,-1.093701245880127
1788862023740236800,5.48423681640625,-8.61239228439331,-2.3030723594665528,-1.0341454795837401
1788862023750277600,5.494277587890625,-8.200290323638916,-1.9301754508972166,-0.9554361000061035
1788862023760319700,5.50431982421875,-8.085219006347655,-1.709759260559082,-0.8801683853149413
1788862023770360800,5.51436083984375,-8.566453540039062,-1.9729718055725096,-0.75971011428833
1788862023780402700,5.524402587890625,-9.16186156539917,-2.3671172538757324,-0.4887164138793945
1788862023790443800,5.53444384765625,-9.240870220184325,-2.468870824432373,-0.38037878875732417
1788862023800486000,5.54448583984375,-9.777620304870604,-2.490568276977539,-0.5238812507629395
1788862023810526700,5.554526611328125,-10.796053836059569,-2.7474960426330566,-0.9696516723632812
1788862023820567800,5.56456787109375,-11.065850435638428,-2.9746459251403805,-1.1840823585510254
1788862023830610000,5.57460986328125,-10.77076508102417,-3.2034418212890623,-1.23855044631958
1788862023840650800,5.584650634765625,-10.506953985595702,-3.426551488494873,-1.0676643028259276
1788862023850692900,5.59469287109375,-10.083180291748047,-3.731512924957275,-0.6431424209594726
1788862023860733700,5.604733642578125,-9.31419264602661,-3.778050219726562,0.07751227874755859
1788862023870775800,5.61477587890625,-9.112331518554686,-3.4065000495910644,0.3024175971984863
1788862023880816600,5.624816650390625,-9.139565562438964,-2.71352830657959,-0.11911153259277343
1788862023890858800,5.634858642578125,-8.937405159759521,-1.5699977386474608,-0.6183025787353515
1788862023900899600,5.644899658203125,-8.849867161560057,-1.243039574432373,-1.0128969398498535
1788862023910940700,5.654940673828125,-8.591891932678221,-1.7298106994628906,-1.3217489540100096
1788862023920982800,5.664982666015625,-8.454973525238037,-1.8915689491271972,-1.368136611175537
1788862023931024000,5.67502392578125,-8.167818963623047,-2.1033061584472654,-1.2533645690917967
1788862023941065700,5.685065673828125,-8.967332680511474,-2.242918042755127,-1.06616792678833
1788862023951106800,5.69510693359375,-9.534908111572266,-2.1187188316345216,-0.7722796730041503
1788862023961148700,5.705148681640625,-9.795127904510498,-1.6092027908325195,-0.4408323806762695
1788862023971189800,5.715189697265625,-9.959280355834961,-0.6407482192993164,-0.4267664459228515
1788862023981230800,5.72523095703125,-10.408043529510497,0.028431144714355466,-0.5017348854064941
1788862023991272700,5.735272705078125,-10.420463450622558,-0.2958335426330566,-0.75971011428833
1788862024001313800,5.745313720703125,-9.829394915771484,-0.9944915145874023,-0.8464999244689941
1788862024011356000,5.75535595703125,-9.05292538986206,-1.6032172866821288,-0.385616104888916
1788862024021397000,5.76539697265625,-8.434922086334227,-1.6584335624694824,-0.17732056045532227
1788862024031438800,5.77543896484375,-7.767388735961914,-1.0048165092468262,-0.3184288208007812
1788862024041480000,5.78547998046875,-7.598747156524658,-0.12419921112060546,-0.771232209777832
1788862024051521800,5.795521728515625,-8.270021446990967,0.40357261734008787,-1.111508120727539
1788862024061563000,5.80556298828125,-8.40738876724243,0.40895957107543945,-1.185578734588623
1788862024071603700,5.815603759765625,-7.741501430511474,0.12808978881835936,-1.2870330299377442
1788862024081646000,5.82564599609375,-8.103474794006347,-0.13467384338378904,-1.3836989219665528
1788862024091687000,5.83568701171875,-8.543110073852539,-0.5220855995178222,-1.007360348510742
1788862024101729000,5.84572900390625,-8.487295247650145,-0.850989052581787,-0.46731823654174803
1788862024111769900,5.855769775390625,-9.296086495971679,-0.8008604553222656,-0.5997475158691405
1788862024121812000,5.86581201171875,-9.87069489440918,-0.39534254913330075,-0.6606500205993652
1788862024131852800,5.875852783203125,-10.172513941192626,0.19527707290649413,-0.48243163452148435
1788862024141894000,5.885893798828125,-10.429441706848143,0.44906244888305663,-0.09232640151977539
1788862024151935700,5.895935791015625,-10.366743550872803,0.4418798439025879,0.44412440795898434
1788862024161976800,5.905976806640625,-9.88296517791748,0.35583822174072266,0.678007982635498
1788862024172019000,5.91601904296875,-9.152135121154785,0.13512275619506836,0.29388825378417965
1788862024182060000,5.92606005859375,-8.445845631408691,-0.00239420166015625,-0.45175592575073237
1788862024192102000,5.936101806640625,-8.711602015686035,-0.15846622238159178,-0.9618705169677734
1788862024202143000,5.94614306640625,-9.019107291412354,-0.5096656784057617,-1.1451765815734862
1788862024212184800,5.956184814453125,-9.186252494812011,-0.8690952026367187,-0.732924983215332
1788862024222226000,5.966225830078125,-9.596409166717528,-1.0314520027160643,-0.09023147506713866
1788862024232267000,5.97626708984375,-9.5507696975708,-1.1547533882141112,0.3323451179504394
1788862024242308900,5.986308837890625,-8.93112038040161,-1.055394019317627,0.4300584732055664
1788862024252350000,5.996349853515625,-8.685714710235596,-0.8877999031066894,0.1728314323425293
1788862024262391800,6.006391845703125,-8.253710948181151,-0.6941688438415526,-0.15248071823120116
1788862024272433000,6.016432861328125,-8.262090653991699,-0.5288192916870117,-0.3233668617248535
1788862024282475000,6.02647509765625,-8.82338130569458,-0.6120177993774414,-0.29224224014282224
1788862024292516000,6.03651611328125,-8.953566020965576,-0.8966285217285156,0.14454992523193358
1788862024302557000,6.046556884765625,-8.905382712554932,-1.3054384552001952,0.6241384452819824
1788862024312599000,6.05659912109375,-8.98304462890625,-1.7405846069335937,0.7924807495117187
1788862024322640000,6.066639892578125,-9.081955084991455,-2.048987708282471,0.6750152305603027
1788862024332682000,6.076681884765625,-9.342025240325928,-2.236034712982178,0.3404255485534668
1788862024342722800,6.086722900390625,-9.562441430664062,-2.3617303001403807,0.015263035583496093
1788862024352765000,6.096764892578125,-9.046191697692871,-2.4461259086608886,-0.0953191535949707
1788862024362805800,6.1068056640625,-8.5678002784729,-2.501791097259521,-0.2615665313720703
1788862024372847900,6.116847900390625,-8.803180229187012,-2.593518948364258,-0.4144961624145508
1788862024382888700,6.126888671875,-9.179219527435302,-2.6562171043395995,-0.3716998077392578
1788862024392929800,6.1369296875,-9.35205095977783,-2.717119609069824,-0.23822306518554687
1788862024402972000,6.146971923828125,-9.180117353057861,-2.7500398818969725,0.03441664886474609
1788862024413013000,6.157012939453125,-8.626757494354248,-2.9554923118591305,0.2154781494140625
1788862024423054800,6.167054931640625,-8.36294639892578,-3.228730576324463,0.13437456817626953
1788862024433096000,6.177095947265625,-9.012074324035645,-3.5327941871643063,-0.015861585998535155
1788862024443137800,6.1871376953125,-9.87638112335205,-3.751863639068603,0.09846154327392577
1788862024453179000,6.197178955078125,-9.933243412780762,-3.929483474731445,0.6145616386413574
1788862024463220000,6.207219970703125,-9.485677339935302,-4.00909067993164,1.1489175216674803
1788862024473261800,6.21726171875,-9.117718472290038,-3.9438486846923824,1.5280992095947266
1788862024483303000,6.227302978515625,-8.601319101715088,-3.801393685913086,1.6240169136047362
1788862024493344800,6.2373447265625,-8.518569506835936,-3.685723818206787,1.1278186195373534
1788862024503385900,6.2473857421875,-8.954014933776856,-3.54311918182373,0.39848493881225583
1788862024513428000,6.257427978515625,-9.250596664428711,-3.3515830490112304,0.004339490509033203
1788862024523469000,6.267468994140625,-8.905382712554932,-3.246537451171875,0.00014963760375976562
1788862024533510000,6.277510009765625,-8.364293137359619,-3.3885435371398924,0.09247603912353515
1788862024543552000,6.287552001953125,-8.388684066772461,-3.697694826507568,0.20545242996215818
1788862024553592800,6.2975927734375,-8.316109828948974,-4.2515035980224605,0.3049614364624023
1788862024563635000,6.307635009765625,-8.297405128479003,-5.0106151618957515,0.10863690032958984
1788862024573675800,6.31767578125,-8.93755479736328,-5.786635774993896,-0.25094226150512694
1788862024583718000,6.3277177734375,-9.502885664367675,-6.290166311645508,-0.4508581001281738
1788862024593758700,6.3377587890625,-9.772532626342773,-6.484545558929443,-0.598849690246582
1788862024603800800,6.34780078125,-9.712378309631347,-6.396259372711182,-0.42706572113037106
1788862024613841700,6.357841552734375,-9.044695321655272,-6.063016429138183,0.0818517692565918
1788862024623882800,6.3678828125,-7.908796271514892,-5.61859274597168,0.34222119979858395
1788862024633924900,6.3779248046875,-7.620743884277343,-5.1201498878479,0.3312976547241211
1788862024643966000,6.387966064453125,-8.352771041870117,-4.819079029083252,0.4052186309814453
1788862024654007800,6.3980078125,-9.136872085571289,-4.982932205200195,0.6815992851257324
1788862024664049000,6.408048828125,-9.16141265258789,-5.417928719329834,1.0296563514709471
1788862024674090800,6.4180908203125,-8.221538863372801,-5.817012208557129,1.3365630767822265
1788862024684131800,6.4281318359375,-7.045686573028564,-5.951985327148437,1.2087725631713866
1788862024694173000,6.4381728515625,-6.771550482940674,-5.9102364356994626,0.766743081665039
1788862024704214800,6.44821484375,-7.237372343444823,-5.827636478424072,0.4487631736755371
1788862024714256000,6.458255859375,-7.612064903259277,-5.893177748870849,0.3393780853271484
1788862024724298000,6.468298095703125,-7.647828290557861,-6.095787064361572,0.4605845443725586
1788862024734339000,6.478339111328125,-7.345859606170654,-6.425139430236816,0.6229413444519043
1788862024744381000,6.488380859375,-7.077858657836914,-6.914604032135009,0.6600514701843261
1788862024754422000,6.498422119140625,-7.2343795913696285,-7.4128972526550285,0.4355950645446777
1788862024764463900,6.5084638671875,-7.545925082397461,-7.823353199768066,0.06898293533325195
1788862024774505000,6.5185048828125,-7.80809016418457,-8.078934226989746,-0.09472060317993164
1788862024784545800,6.5285458984375,-7.800907559204101,-8.26164174118042,-0.004339490509033203
1788862024794588000,6.538587890625,-7.665485527801513,-8.375366320037841,0.20635025558471679
1788862024804628700,6.548628662109375,-7.5251254554748535,-8.341548221588134,0.39549218673706055
1788862024814670800,6.5586708984375,-7.340622290039062,-8.24144066467285,0.3829226280212402
1788862024824711700,6.568711669921875,-7.103147412872314,-8.081178791046142,0.15128361740112303
1788862024834754000,6.578754150390625,-7.066037287139892,-7.879168025970459,-0.13078326568603516
1788862024844795000,6.588794921875,-7.259967621612549,-7.840112611389159,-0.38411972885131834
1788862024854836000,6.5988359375,-7.423671160125732,-7.896525988006592,-0.4477157104492187
1788862024864877800,6.6088779296875,-7.189039397430419,-7.977180656433105,-0.31663316955566406
1788862024874919000,6.6189189453125,-6.764816790771484,-8.019977011108399,-0.17567454681396483
1788862024884960800,6.628960693359375,-6.55682052154541,-7.9563810295104975,-0.001496376037597656
1788862024895001900,6.639001953125,-6.5601125488281244,-7.774870616149902,-0.024690204620361325
1788862024905044000,6.6490439453125,-6.729502316284179,-7.686434792327881,-0.06120177993774414
1788862024915084800,6.659084716796875,-6.956203285980224,-7.963862909698486,-0.06838438491821289
1788862024925126000,6.6691259765625,-7.115716971588134,-8.404246377563476,-0.06374561920166015
1788862024935167700,6.679167724609375,-6.68416212234497,-8.740631710815428,-0.05357026214599609
1788862024945208800,6.689208740234375,-6.207117441558838,-8.79734436264038,0.04878185882568359
1788862024955251000,6.6992509765625,-6.025457390594482,-8.666112184143065,0.13168109130859373
1788862024965292000,6.7092919921875,-5.965153436279296,-8.475922789764404,0.06868366012573242
1788862024975334000,6.719333984375,-5.72678073348999,-8.045565041351319,-0.20440496673583983
1788862024985375000,6.729375,-5.546617058563232,-7.587374698638915,-0.5653308670043945
1788862024995416800,6.739416748046875,-5.401767858123779,-7.154473110961914,-0.6763619689941406
1788862025005458000,6.7494580078125,-5.325452680206299,-6.988824283599853,-0.502483073425293
1788862025015498800,6.759498779296875,-5.448454790496826,-7.236175242614745,-0.3290530906677246
1788862025025540900,6.769540771484375,-5.559785167694091,-7.632565254974365,-0.34671032791137696
1788862025035582000,6.77958203125,-5.743989057922363,-7.958027043151855,-0.5398924743652344
1788862025045623800,6.789623779296875,-6.0513446960449215,-8.17814395828247,-0.7844003189086913
1788862025055665000,6.799664794921875,-6.490531063079834,-8.244433416748047,-0.8499415893554687
1788862025065707000,6.80970703125,-7.051223164367675,-8.22961929397583,-0.6476315490722656
1788862025075747800,6.819747802734375,-7.524077992248535,-8.090905235290528,-0.2825157958984375
1788862025085789000,6.829788818359375,-7.876324911499023,-7.931391549682616,0.21487959899902342
1788862025095831000,6.8398310546875,-7.914632138061523,-7.821856823730468,0.6313210502624511
1788862025105872000,6.849871826171875,-7.5840826713562,-7.625681925201415,0.8345289161682128
1788862025115914000,6.8599140625,-7.244255673217773,-7.423072609710693,0.8396165946960449
1788862025125954800,6.869954833984375,-7.053617366027831,-7.331644033813476,0.8277952239990234
1788862025135997000,6.879996826171875,-6.935254021453857,-7.353491123962402,0.9630676177978515
1788862025146037800,6.890037841796875,-6.611587884521484,-7.326855630493164,1.0170867927551268
1788862025156078800,6.900078857421875,-6.43546442489624,-7.176619476318359,1.0721534309387206
1788862025166120700,6.91012060546875,-6.65213967514038,-7.290194417572021,0.9051578651428223
1788862025176162000,6.920162109375,-7.081898873138427,-7.625981200408935,0.4655225852966308
1788862025186204000,6.930203857421875,-7.602338459014892,-7.965359285736083,0.07751227874755859
1788862025196245000,6.940244873046875,-8.05693749923706,-7.902062579345703,0.1640028137207031
1788862025206286800,6.950286865234375,-8.479364454650879,-7.7036431167602535,0.4655225852966308
1788862025216328000,6.960327880859375,-8.684218334197997,-7.645434088897705,0.6772597946166992
1788862025226369800,6.970369873046875,-8.75305163192749,-7.492654095458984,0.9198223503112792
1788862025236411000,6.980410888671875,-8.729408890533447,-7.320870126342773,1.080233861541748
1788862025246452000,6.990451904296875,-8.314014902496337,-7.060500695800781,0.9490016830444336
1788862025256493800,7.000493896484375,-7.753921351623535,-6.79923343963623,0.5274725532531738
1788862025266535000,7.010534912109375,-7.089231115722656,-6.591835720825195,0.07287351303100585
1788862025276577000,7.020576904296875,-6.21848989944458,-6.469432160949706,-0.13811550827026367
1788862025286618000,7.0306181640625,-5.294627333831786,-6.242880828857421,-0.03172317199707031
1788862025296660000,7.040659912109375,-5.069572377777099,-5.9856537879943845,0.261117618560791
1788862025306701000,7.050701171875,-5.75221912612915,-5.963357785034179,0.40132805328369137
1788862025316742000,7.060741943359375,-6.449530359649658,-6.127659873962402,0.2166752502441406
1788862025326784000,7.070783935546875,-6.803872205352783,-6.207715991973877,0.0939724151611328
1788862025336824800,7.080824951171875,-7.2158245285034175,-6.173149705505371,0.09038111267089843
1788862025346867000,7.090866943359375,-7.753472438812255,-6.052841072082519,0.2937386161804199
1788862025356907800,7.10090771484375,-8.350376840209961,-5.951386776733398,0.5285200164794922
1788862025366950000,7.110949951171875,-9.137769911193848,-6.009745442199707,0.7615057655334472
1788862025376990700,7.12099072265625,-9.880122063446045,-6.291213774871826,0.7971195152282714
1788862025387031800,7.13103173828125,-10.074202035522461,-6.790255183410644,0.672920304107666
1788862025397074000,7.141073974609375,-9.631424365997313,-7.193229250335693,0.41270051116943357
1788862025407115000,7.151114990234375,-8.984840280151367,-7.212682138824462,0.3794809631347656
1788862025417156900,7.161156982421875,-8.442104691314697,-6.610241146087646,0.6546645164489746
1788862025427198000,7.171197998046875,-8.281543542480469,-5.807585039520263,0.9299977073669433
1788862025437239800,7.18123974609375,-8.433126435089111,-5.33727405090332,1.064222637939453
1788862025447281000,7.191281005859375,-8.568548466491698,-5.062389772796631,1.071405242919922
1788862025457322000,7.201322021484375,-8.738985697174071,-4.885967037963867,1.031003089904785
1788862025467363800,7.21136376953125,-8.959850800323485,-4.87773696975708,0.9277531433105468
1788862025477405000,7.221405029296875,-9.142857589721679,-4.97305612335205,0.7386112121582031
1788862025487446800,7.23144677734375,-9.299228885650635,-5.112668007659912,0.5786486137390137
1788862025497488000,7.24148779296875,-9.293542656707762,-5.213823027801514,0.2964320930480957
1788862025507530000,7.251530029296875,-9.19343509979248,-5.158157839202881,0.016759411621093748
1788862025517571000,7.261571044921875,-8.934711682891844,-4.873696754455566,0.10025719451904297
1788862025527612000,7.27161181640625,-8.700079920196533,-4.589834220123291,0.25947160491943355
1788862025537654000,7.281654052734375,-8.129062824249267,-4.360888686370849,0.35314474487304687
1788862025547694800,7.29169482421875,-7.7036431167602535,-4.211251082611084,0.38352117843627925
1788862025557737000,7.301737060546875,-7.696161236572265,-4.172494943237305,0.3682581428527832
1788862025567777800,7.31177783203125,-7.90385823059082,-4.044554792022705,0.40132805328369137
1788862025577820000,7.32181982421875,-8.247725444030761,-4.049642470550537,0.3737947341918945
1788862025587860700,7.33186083984375,-8.910769666290284,-4.322880735015869,0.12973580245971678
1788862025597902800,7.34190283203125,-9.635614218902587,-4.601505953216552,-0.06075286712646484
1788862025607943700,7.351943603515625,-9.772532626342773,-4.785709843444824,-0.2841618095397949
1788862025617984800,7.36198486328125,-9.391106374359131,-4.828057285308837,-0.48557402420043944
1788862025628027000,7.37202685546875,-9.043647858428955,-4.626645070648193,-0.3930979850769043
1788862025638068000,7.38206787109375,-8.622866916656493,-4.001010249328613,-0.11207856521606445
1788862025648109800,7.39210986328125,-8.299350417327881,-3.418321420288086,0.1637035385131836
1788862025658151000,7.40215087890625,-8.151658102416992,-2.9530981101989746,0.4462193344116211
1788862025668192800,7.41219287109375,-8.14073455734253,-2.62374574432373,0.4408323806762695
1788862025678233900,7.42223388671875,-8.298751866912841,-2.5698762069702146,0.10115502014160156
1788862025688275000,7.43227490234375,-8.437017012786864,-2.6384102294921874,-0.4011784156799316
1788862025698316800,7.44231689453125,-8.432527884674071,-2.7877485580444334,-0.886752439880371
1788862025708358000,7.45235791015625,-8.575431796264647,-3.0014310562133786,-1.229572190093994
1788862025718400000,7.46239990234375,-8.770259956359864,-3.0808886238098143,-1.380257257080078
1788862025728441000,7.472441162109375,-8.96344210281372,-3.0705636291503904,-1.11075993270874
1788862025738483000,7.48248291015625,-8.948179067230225,-2.9038673385620117,-0.6765116065979003
1788862025748524000,7.49252392578125,-8.863184908294677,-2.729838805389404,-0.3892074073791504
1788862025758564900,7.50256494140625,-9.159018450927734,-2.7274446037292477,-0.6001964286804199
1788862025768607000,7.51260693359375,-9.19343509979248,-2.6690859382629393,-0.7513304084777832
1788862025778647800,7.522647705078125,-8.587402804565428,-2.51555775680542,-0.7573159126281738
1788862025788690000,7.53268994140625,-8.206874378204345,-2.367266891479492,-0.7275380294799805
1788862025798730800,7.542730712890625,-8.750358155059814,-2.279728893280029,-0.715716658782959
1788862025808772900,7.55277294921875,-8.883984535217285,-2.0403087272644043,-0.5958569381713866
1788862025818813700,7.562813720703125,-8.309825049591064,-1.8049287765502928,-0.5740098480224609
1788862025828854800,7.572854736328125,-8.225130165863037,-1.6648679794311523,-0.6308721374511719
1788862025838897000,7.58289697265625,-8.707262525177,-1.5791256324768066,-0.9232640151977538
1788862025848938000,7.59293798828125,-8.787468280792236,-1.3766659545898436,-1.2847884658813475
1788862025858979800,7.602979736328125,-8.43297679748535,-1.0543465560913086,-1.5976806953430174
1788862025869021000,7.61302099609375,-8.516474580383301,-0.7300818687438965,-1.504157192993164
1788862025879062800,7.623062744140625,-8.03763424835205,-0.845302823638916,-0.8444049980163574
1788862025889104000,7.633103759765625,-8.05125127029419,-1.0128969398498535,-0.3458125022888183
1788862025899145000,7.64314501953125,-8.964040653228759,-1.324741706085205,-0.4653729476928711
1788862025909186800,7.653186767578125,-9.58952583694458,-1.2835913650512694,-0.7296329559326171
1788862025919228000,7.663227783203125,-9.5384994140625,-0.773776049041748,-0.9250596664428711
1788862025929269800,7.673269775390625,-9.274389043426513,-0.22879589614868162,-0.6358101783752441
1788862025939310800,7.683310791015625,-8.601468739318847,0.32127193527221676,-0.06673837127685546
1788862025949353000,7.69335302734375,-8.323890984344482,0.43619361495971676,0.35583822174072266
1788862025959394000,7.70339404296875,-8.62600930633545,0.24779987182617186,0.49889177093505854
1788862025969435000,7.713434814453125,-8.911368216705322,0.026186580657958983,0.08170213165283202
1788862025979477000,7.72347705078125,-8.975413111114502,-0.030226795959472655,-0.32127193527221676
1788862025989517800,7.733517822265625,-9.281122735595703,-0.12030863342285156,0.001197100830078125
1788862025999560000,7.743559814453125,-9.485228427124023,-0.6343138023376464,0.27189152603149414
1788862026009600800,7.753600830078125,-9.102006523895263,-1.149216796875,-0.2549824768066406
1788862026019643000,7.763642822265625,-8.797045087432862,-1.132607022857666,-1.172859538269043
1788862026029683700,7.77368359375,-8.86108998184204,-0.8031050193786621,-1.6138415565490722
1788862026039725800,7.783725830078125,-8.432527884674071,-0.5442319648742675,-1.5307926864624022
1788862026049766700,7.7937666015625,-7.707084781646728,-0.4791396072387695,-1.2639888389587401
1788862026059807700,7.803807861328125,-7.5156982864379875,-0.4531026641845703,-0.9988310050964355
1788862026069849900,7.813849853515625,-8.05708713684082,-0.5110124168395995,-1.0462661254882812
1788862026079891000,7.823890869140625,-8.19086315460205,-0.7193079612731933,-1.4401122985839843
1788862026089932800,7.833932861328125,-8.063820829010009,-1.0052654220581054,-1.7750012557983397
1788862026099974000,7.843973876953125,-8.047061417388916,-1.2048819854736328,-1.8321628204345701
1788862026110015700,7.854015625,-7.972541890716553,-1.2612953620910643,-1.5996259841918945
1788862026120056800,7.864056884765625,-8.431181146240235,-1.1541548377990722,-1.303044253540039
1788862026130098000,7.874097900390625,-9.00264715499878,-1.084722989654541,-1.0966939979553223
1788862026140139800,7.884139892578125,-9.176825325775146,-1.262791738128662,-0.831236888885498
1788862026150180900,7.894180908203125,-8.774000896453856,-1.5828665725708007,-0.32875381546020505
1788862026160222700,7.90422265625,-8.393472470092773,-1.6350900962829589,0.13871405868530273
1788862026170263800,7.914263916015625,-8.72087954711914,-1.6156372077941894,0.31049802780151364
1788862026180306000,7.924305908203125,-8.706514337158202,-1.7305588874816893,0.2127846725463867
1788862026190347000,7.934346923828125,-8.66326906967163,-1.905784521484375,0.1427542739868164
1788862026200387800,7.944387939453125,-9.234136528015137,-2.1576246086120605,0.42871173477172847
1788862026210430000,7.954429931640625,-9.516353048706055,-2.4564509033203126,0.8168716789245605
1788862026220470800,7.964470703125,-9.373898049926757,-2.79627790145874,1.1095628318786621
1788862026230513000,7.974512939453125,-8.940996462249755,-3.0801404357910154,1.2196961082458495
1788862026240553700,7.9845537109375,-9.00204860458374,-3.2083798622131345,1.045667575073242
1788862026250595800,7.994595947265625,-9.554510637664794,-3.3420062423706054,0.8125321884155273
1788862026260637000,8.004636962890626,-9.754426476287842,-3.578433656311035,0.5681739814758301
1788862026270677800,8.014677734375,-9.469965391540526,-3.8679824195861814,0.4011784156799316
1788862026280720000,8.024719970703124,-9.230096312713622,-4.2143934722900385,0.38367081604003905
1788862026290761000,8.034760986328125,-9.08464856185913,-4.43032053451538,0.5964554885864257
1788862026300803000,8.044802978515625,-8.959401887512206,-4.535216494750976,0.8325836273193359
1788862026310844000,8.054843994140626,-8.571092305755615,-4.623801956176758,0.8007108177185058
1788862026320886000,8.064885986328125,-8.247426168823242,-4.61602080078125,0.4836287353515625
1788862026330926800,8.0749267578125,-8.619874164581299,-4.588038568878174,0.17298106994628906
1788862026340968000,8.084968017578126,-8.863933096313476,-4.5699324188232415,-0.035464112091064454
1788862026351009800,8.095009765625,-8.52246008453369,-4.5976153755187985,-0.1610100616455078
1788862026361051000,8.10505078125,-8.094346900177001,-4.7949873748779295,-0.42272623062133785
1788862026371092700,8.1150927734375,-8.053795109558106,-5.080944835662842,-0.6423942329406738
1788862026381133800,8.1251337890625,-8.252064934539794,-5.4704515182495115,-0.7142202827453613
1788862026391176000,8.135176025390624,-8.345588436889647,-5.849333930969238,-0.4346972389221191
1788862026401217000,8.145217041015625,-8.329876488494872,-6.3156047042846675,0.021697452545166016
1788862026411257900,8.1552578125,-8.15809251937866,-6.793846485900879,0.42227731781005856
1788862026421300000,8.165300048828126,-7.715464487457275,-7.085789450836181,0.6551134292602538
1788862026431341000,8.175341064453125,-7.461080561065673,-7.208641923522949,0.7049427513122558
1788862026441383000,8.1853828125,-7.772177139282226,-7.324611066436767,0.5615899269104003
1788862026451424000,8.195424072265626,-8.118288916778564,-7.429058113861084,0.36526539077758785
1788862026461465900,8.2054658203125,-7.9375266914367675,-7.495497209930419,0.12943652725219726
1788862026471507000,8.2155068359375,-7.4226236968994135,-7.436689631652832,-0.13542203140258788
1788862026481547800,8.2255478515625,-7.026832234954834,-7.342268303680419,-0.2693476867675781
1788862026491590000,8.23558984375,-7.096264083099364,-7.188291209411621,-0.2518400871276855
1788862026501630700,8.245630615234376,-7.41873311920166,-7.122600301361084,-0.19258359603881836
1788862026511673000,8.255673095703125,-7.409605225372314,-7.28435855102539,-0.16355390090942382
1788862026521714000,8.2657138671875,-7.222857495880127,-7.509712782287597,-0.19826982498168944
1788862026531756000,8.275756103515626,-7.275230657196045,-7.821856823730468,-0.1958756233215332
1788862026541796900,8.285796875,-7.473650119781493,-8.131157750701904,-0.06329670639038086
1788862026551838000,8.295837890625,-7.460482010650634,-8.265831594085693,0.2946364418029785
1788862026561879800,8.3058798828125,-7.2063973594665525,-8.203133438110351,0.6630442222595214
1788862026571921000,8.3159208984375,-6.8487634864807125,-8.008754190826416,0.8110358123779297
1788862026581962800,8.325962646484374,-6.829909148406982,-7.866149554443359,0.6887818901062012
1788862026592003800,8.33600390625,-7.049427513122558,-7.802403935241699,0.443076944732666
1788862026602045700,8.346045654296875,-7.539191390228271,-7.84624775314331,0.0526724365234375
1788862026612086800,8.356086669921876,-7.716661588287353,-7.877970925140381,-0.3173813575744629
1788862026622127900,8.3661279296875,-7.210886487579345,-7.93588067779541,-0.6197989547729492
1788862026632170000,8.376169921875,-6.7290534034729,-7.981669784545898,-0.9211690887451172
1788862026642211000,8.386211181640626,-6.673537852478027,-7.906701345062255,-1.0239701225280762
1788862026652253000,8.3962529296875,-6.546345889282226,-7.803002485656738,-0.7368155609130859
1788862026662294000,8.4062939453125,-6.363937650299072,-7.836670946502685,-0.03920505218505859
1788862026672336000,8.4163359375,-6.179135209655762,-8.026561065673828,0.7962216896057128
1788862026682377000,8.426376953125,-6.319495281982421,-8.213159157562256,1.3202525779724121
1788862026692417800,8.436417724609376,-7.071274603271484,-8.623166191864014,1.272368544769287
1788862026702460000,8.4464599609375,-7.615356930541992,-9.106346014404297,0.9368810371398926
1788862026712500700,8.456500732421874,-7.479635623931884,-9.241768045806884,0.49425300521850585
1788862026722543000,8.466543212890626,-7.1312792823791495,-9.185055393981933,0.026485855865478514
1788862026732584000,8.476583984375,-6.974309436035155,-8.892513878631592,-0.37454292221069335
1788862026742626000,8.4866259765625,-6.945130103302001,-8.531139065551757,-0.8330325401306152
1788862026752667000,8.4966669921875,-7.0738184425354,-8.253561310577393,-1.1367968757629394
1788862026762708000,8.5067080078125,-7.070975328063964,-8.112004137420653,-1.0051157844543457
1788862026772749800,8.516749755859376,-6.83739102859497,-7.9773302940368644,-0.6416460449218749
1788862026782791000,8.526791015625,-6.474519839477539,-7.790133651733398,-0.29134441452026366
1788862026792832800,8.536832763671875,-6.139181969451904,-7.566724709320068,-0.05357026214599609
1788862026802873900,8.546873779296876,-5.734412251281738,-7.296329559326171,0.06958148574829101
1788862026812915700,8.556915771484375,-5.515043524169921,-7.037755780029296,0.14888941574096679
1788862026822956800,8.566956787109374,-5.556343502807617,-6.959794588470459,0.08723872299194335
1788862026832998000,8.576997802734375,-5.84828646774292,-7.135469135284423,-0.06419453201293945
1788862026843040000,8.5870400390625,-6.170755503845214,-7.332092946624756,-0.1919850456237793
1788862026853081000,8.5970810546875,-6.506991199493408,-7.320570851135254,-0.10549451065063475
1788862026863123000,8.607123046875,-7.101202124023437,-7.4685624412536615,-0.08200140686035155
1788862026873164000,8.6171640625,-7.517493937683105,-7.8621093391418455,-0.16310498809814453
1788862026883206000,8.627205810546876,-7.631667429351806,-7.856572747802734,0.09382277755737305
1788862026893247000,8.6372470703125,-7.478737798309326,-7.577348979187011,0.26874913635253905
1788862026903287800,8.647287841796874,-7.466766790008545,-7.387159584808349,0.3006219459533691
1788862026913330000,8.657329833984376,-7.5813891944885246,-7.357680976867675,0.5345055206298828
1788862026923370800,8.667370849609375,-7.453299405670165,-7.38641139678955,0.8065466842651366
1788862026933412900,8.677412841796874,-7.2617632728576655,-7.33523533630371,1.0307038146972656
1788862026943453700,8.68745361328125,-7.526472193908691,-7.315632810211182,1.2482768905639647
1788862026953496000,8.69749609375,-7.714117749023437,-7.330446932983398,1.4170681076049805
1788862026963537000,8.707536865234376,-7.8438535514831536,-7.181856792449951,1.5192705909729003
1788862026973578000,8.717577880859375,-7.905803519439697,-7.142951015472412,1.307533381652832
1788862026983619800,8.727619873046875,-8.040776638031005,-7.153724922943115,0.8846575134277344
1788862026993661000,8.737660888671876,-8.071003433990478,-7.180360416412353,0.37229835815429685
1788862027003702800,8.747702880859375,-7.83981333618164,-7.16360100479126,0.08499415893554688
1788862027013743900,8.757743896484374,-7.479336348724365,-6.993762324523925,0.04414309310913086
1788862027023785700,8.76778564453125,-7.140257538604736,-6.80596713180542,-0.03696048812866211
1788862027033826800,8.777826904296875,-7.188291209411621,-6.680720457458496,-0.06299743118286133
1788862027043868200,8.7878681640625,-7.64184278640747,-6.657676266479492,0.11522095489501953
1788862027053910000,8.797909912109375,-7.716811225891113,-6.647949822235107,0.20171148986816406
1788862027063951000,8.807951171875,-7.6005428077697745,-6.544699875640869,0.11776479415893554
1788862027073993000,8.817992919921876,-7.9189716285705565,-6.341192734527588,0.08289923248291015
1788862027084034000,8.828033935546875,-8.579023098754883,-6.073341423797607,-0.020500351715087888
1788862027094076000,8.838075927734375,-8.93725552215576,-5.800552072143554,-0.20769699401855468
1788862027104117000,8.848116943359376,-8.456619538879394,-5.715707550811767,-0.4616320075988769
1788862027114157800,8.85815771484375,-7.68015001296997,-5.738302828979492,-0.4352957893371582
1788862027124200200,8.8682001953125,-6.943484089660644,-5.588365950012206,0.02154781494140625
1788862027134241000,8.878240966796875,-6.997952177429199,-5.281159949493408,0.6549637916564941
1788862027144283100,8.888283203125,-8.096292189025878,-5.1714755859374995,1.0769418342590331
1788862027154324000,8.898323974609376,-9.271396291351317,-5.288791467285156,1.2690765174865721
1788862027164366000,8.908365966796875,-10.02302597503662,-5.728426747131348,1.3184569267272948
1788862027174407000,8.918406982421875,-9.749937348175049,-6.0802247535705565,1.1930606147766112
1788862027184449000,8.928448974609376,-8.97646057434082,-6.106261696624755,0.9392752388000488
1788862027194489900,8.93848974609375,-8.48490104598999,-5.80997924118042,0.7318775199890136
1788862027204531000,8.948531005859374,-8.21675046005249,-5.220407082366943,0.6353612655639648
1788862027214572800,8.95857275390625,-8.111255949401855,-4.644302307891845,0.5256769020080566
1788862027224614000,8.96861376953125,-8.104971170043944,-4.374954621124267,0.24630349578857422
1788862027234656000,8.978656005859374,-8.319252218627929,-4.36043977355957,-0.2389712532043457
1788862027244697000,8.988697021484375,-8.655188639068603,-4.582801252746582,-0.755220986175537
1788862027254739000,8.998739013671875,-9.02733735961914,-4.872948566436767,-1.1236287666320801
1788862027264780000,9.008780029296876,-9.35294878540039,-5.128978506469727,-1.4235025245666504
1788862027274821000,9.018821044921875,-9.83747534637451,-5.180603479766845,-1.638831036376953
1788862027284863000,9.028863037109375,-10.358812757873535,-5.109226342773437,-1.7609353210449217
1788862027294904000,9.038904052734376,-10.511293476104736,-4.8804304466247554,-1.6723498596191406
1788862027304946000,9.04894580078125,-9.878027136993408,-4.5307273666381835,-1.0998363876342774
1788862027314987000,9.058987060546874,-8.747814315795898,-4.197484423065185,-0.3661632164001465
1788862027325028900,9.06902880859375,-8.10093095474243,-3.820996212005615,0.0282815071105957
1788862027335070000,9.079070068359375,-8.27301419906616,-3.3979707061767574,0.03067570877075195
1788862027345110800,9.08911083984375,-8.85495484008789,-3.152714673614502,-0.44322658233642576
1788862027355153200,9.099153076171875,-9.260173471069335,-3.1857845840454098,-1.0069114356994628
1788862027365194000,9.109194091796875,-8.870068238067626,-3.49852717590332,-1.3976152191162108
1788862027375236000,9.119236083984376,-8.11409906387329,-3.5326445495605467,-1.5599720191955566
1788862027385277000,9.12927685546875,-7.61041888961792,-3.3623569564819333,-1.5442600708007812
1788862027395319000,9.139319091796875,-7.132626020812988,-3.1759085021972653,-1.4502876556396485
1788862027405359900,9.14935986328125,-7.450905204010009,-2.652027251434326,-0.8375216682434081
1788862027415402000,9.159402099609375,-8.575581433868408,-2.1465514259338376,0.02079962692260742
1788862027425442800,9.16944287109375,-8.838045790863037,-2.6874913635253903,-0.3898059577941894
1788862027435484000,9.17948388671875,-9.025840983581542,-2.819920642852783,-0.7146691955566405
1788862027445526000,9.189526123046875,-9.080608346557616,-2.6325743629455567,-0.5267243652343749
1788862027455567000,9.199567138671876,-8.760832787322997,-2.066046395111084,0.08708908538818359
1788862027465609000,9.20960888671875,-8.774300171661377,-1.6291045921325682,0.42871173477172847
1788862027475650000,9.219650146484375,-9.159317726135253,-1.5043068305969238,0.6322188758850097
1788862027485692000,9.22969189453125,-8.757091847229004,-1.6268600280761718,0.2305915473937988
1788862027495733000,9.23973291015625,-8.046313229370117,-1.6973393394470213,-0.3672106796264648
1788862027505774000,9.249774169921874,-7.564480145263672,-1.6482582054138182,-1.118541088104248
1788862027515816000,9.25981591796875,-7.504026553344726,-1.520766967010498,-1.9719243423461912
1788862027525857000,9.26985693359375,-7.510909883117676,-1.4181155708312987,-2.382081014251709
1788862027535899000,9.27989892578125,-7.889193745422363,-1.1763012031555176,-2.1021090576171875
1788862027545940000,9.28993994140625,-7.844901014709472,-1.1059715293884276,-1.6026187362670898
1788862027555982000,9.299982177734375,-7.831134355163574,-1.0290578010559082,-1.338807640838623
1788862027566023200,9.310023193359376,-7.669675380706787,-0.7550713485717773,-1.1736077262878417
1788862027576064000,9.32006396484375,-7.847594491577148,-0.6043862815856933,-1.1674725845336913
1788862027586106000,9.330106201171875,-7.730278610229492,-0.37140053253173827,-1.6748936988830565
1788862027596147000,9.34014697265625,-7.410054138183593,-0.044292730712890624,-2.0699369728088377
1788862027606189000,9.35018896484375,-8.67598826599121,-0.06808510971069336,-1.8737620742797851
1788862027616230000,9.36022998046875,-9.00100114135742,0.013018471527099609,-1.2645873893737791
1788862027626272000,9.37027197265625,-9.330952057647705,0.2888005752563476,-1.064222637939453
1788862027636313000,9.38031298828125,-9.409960712432861,0.4487631736755371,-0.8818143989562988
1788862027646355000,9.39035498046875,-8.984690642547607,0.28790274963378903,-0.8613140472412109
1788862027656396000,9.40039599609375,-8.635286837768554,0.18614917907714842,-0.946158568572998
1788862027666436900,9.410436767578124,-8.25490804901123,0.07676409072875977,-1.1586439659118652
1788862027676479000,9.42047900390625,-8.71459476776123,-0.21562778701782226,-1.5554828910827636
1788862027686520000,9.43052001953125,-9.245359348297118,-0.5113116920471191,-1.514931100463867
1788862027696562200,9.440562255859374,-9.224709358978272,-0.5114613296508789,-1.1996446693420408
1788862027706603000,9.45060302734375,-8.84837078552246,-0.13646949462890623,-1.313219610595703
1788862027716645000,9.46064501953125,-8.875904104614257,-0.04848258361816406,-1.4082394889831542
1788862027726686000,9.47068603515625,-8.552836518096923,-0.1497872413635254,-1.1361983253479002
1788862027736728000,9.48072802734375,-7.388955236053467,-0.020649989318847654,-0.8291419624328613
1788862027746769000,9.490768798828125,-6.815543938446044,0.09801263046264648,-0.9171288734436035
1788862027756810000,9.50081005859375,-7.784597060394287,0.005237316131591796,-1.3148656242370604
1788862027766851800,9.510851806640625,-8.659079216766356,-0.24555530776977538,-1.4716858329772948
1788862027776893000,9.520892822265624,-8.506448860931396,-0.7823053924560547,-1.185578734588623
1788862027786935000,9.53093505859375,-7.7973162567138665,-1.3724761016845701,-0.60648120803833
1788862027796976000,9.54097607421875,-7.538443202209472,-1.753154165649414,-0.11626841812133788
1788862027807018000,9.55101806640625,-8.236801898956298,-1.9960159965515136,0.08559270935058594
1788862027817059000,9.56105908203125,-8.63184517288208,-2.1830630012512207,-0.06239888076782226
1788862027827100200,9.57110009765625,-8.927977990722656,-2.437446927642822,-0.33309330596923825
1788862027837142000,9.58114208984375,-9.312097719573973,-2.7932851493835447,-0.4939537300109863
1788862027847183000,9.59118310546875,-9.532813185119629,-3.2582091842651364,-0.5995978782653808
1788862027857225000,9.601224853515625,-9.566481645965576,-3.507505432128906,-0.5454290657043457
1788862027867266000,9.61126611328125,-9.315988297271728,-3.5244144813537597,-0.385616104888916
1788862027877308000,9.621307861328125,-9.13642317276001,-3.462913426208496,-0.256029940032959
1788862027887349200,9.631349365234374,-9.117718472290038,-3.3559225395202636,-0.17118541870117188
1788862027897391000,9.64139111328125,-8.95042363128662,-3.3550247138977047,-0.21128829650878905
1788862027907432200,9.65143212890625,-8.514978204345702,-3.4509424179077146,-0.41419688720703124
1788862027917473000,9.66147314453125,-7.864653178405761,-3.560028231048584,-0.581641365814209
1788862027927515100,9.67151513671875,-7.737461215209961,-3.7994483970642086,-0.6783072578430175
1788862027937556000,9.681555908203125,-8.028955267333984,-4.16276849899292,-0.7495347572326659
1788862027947598000,9.69159814453125,-8.41442173461914,-4.505588249206543,-0.6860884132385253
1788862027957639000,9.701638916015625,-8.633640824127196,-4.94118331375122,-0.5798457145690917
1788862027967681000,9.711680908203125,-8.642768717956542,-5.412841040802002,-0.38681320571899414
1788862027977721900,9.721721923828126,-8.422801440429687,-5.811924530029296,-0.2246060432434082
1788862027987764200,9.73176416015625,-8.198644309997558,-6.037877311706542,-0.10549451065063475
1788862027997805000,9.74180517578125,-8.160636358642577,-6.2201359130859375,-0.16774375381469725
1788862028007846100,9.75184619140625,-8.341548221588134,-6.377405034637451,-0.4423287567138672
1788862028017888000,9.761887939453125,-8.769062855529784,-6.508188300323486,-0.8394669570922851
1788862028027929000,9.77192919921875,-9.2443118850708,-6.743119338226318,-1.176600478363037
1788862028037971200,9.78197119140625,-9.42986251373291,-7.063643085479736,-1.3253402565002441
1788862028048012300,9.79201220703125,-9.062951109313964,-7.2264487983703605,-1.2108674896240235
1788862028058054100,9.80205419921875,-8.37641378326416,-7.152378184509277,-1.0435726486206054
1788862028068095200,9.81209521484375,-7.721749266815185,-7.0010945671081535,-1.0492588775634766
1788862028078136300,9.82213623046875,-7.632116342163085,-6.7842696792602535,-0.9907505744934082
1788862028088178200,9.83217822265625,-7.900566203308105,-6.670994013214111,-0.9469067565917968
1788862028098219300,9.84221923828125,-8.387337328338623,-6.690147626495361,-0.951844797515869
1788862028108261400,9.852261474609374,-8.980650427246093,-6.88856708908081,-1.078288572692871
1788862028118302500,9.862302490234375,-9.279027809143066,-7.359177352905273,-1.1074679054260252
1788862028128344300,9.87234423828125,-9.054272128295898,-7.835773120880127,-0.8629600608825683
1788862028138385400,9.882385498046874,-8.467842359161377,-8.15285520324707,-0.6025906303405761
1788862028148427300,9.89242724609375,-7.585579047393798,-8.118288916778564,-0.5098153160095215
1788862028158468400,9.90246826171875,-6.6148799118041985,-7.752424975585937,-0.4091092086791992
1788862028168510200,9.91251025390625,-6.025906303405761,-7.316680273437499,-0.24974516067504882
1788862028178551300,9.92255126953125,-6.031742169952392,-7.057507943725586,0.06943184814453125
1788862028188592000,9.932592041015624,-6.299294205474853,-7.052569902801514,0.5345055206298828
1788862028198634200,9.94263427734375,-6.763021139526367,-7.383119369506836,0.9379285003662109
1788862028208675000,9.952675048828125,-7.4308537651062005,-8.110058848571777,0.9371803123474121
1788862028218717400,9.962717529296874,-8.026261790466307,-8.985438830566405,0.5961562133789062
1788862028228758300,9.97275830078125,-8.250119645690917,-9.504082765197753,0.2838625343322754
1788862028238800400,9.98280029296875,-8.023119400787353,-9.460538222503661,0.10115502014160156
1788862028248841200,9.99284130859375,-7.6738652336120605,-9.011026860809325,0.11013327636718749
1788862028258882300,10.00288232421875,-7.38671067199707,-8.361001110076904,0.1375169578552246
1788862028268924200,10.012924072265625,-7.210287937164306,-7.781903583526611,-0.10100538253784179
1788862028278965200,10.02296533203125,-7.218518005371093,-7.351994747924804,-0.474351203918457
1788862028289007000,10.033007080078125,-7.53964030303955,-7.131877832794189,-0.8251017471313477
1788862028299048200,10.043048095703124,-8.271218547821045,-7.592612014770507,-1.0191817192077637
1788862028309090300,10.05309033203125,-8.289773610687256,-8.06322227859497,-0.8818143989562988
1788862028319131400,10.06313134765625,-7.500734526062011,-7.90370859298706,-0.6112696113586426
1788862028329173200,10.07317333984375,-7.087136189270019,-7.692420296478271,-0.5446808776855468
1788862028339214300,10.08321435546875,-7.143549565887451,-7.652766331481933,-0.6355109031677245
1788862028349255400,10.09325537109375,-7.016806515502929,-7.302614338684082,-0.388159944152832
1788862028359297300,10.10329736328125,-6.552780306243896,-6.909067440795898,-0.023792378997802732
1788862028369338400,10.11333837890625,-6.062717153930664,-6.682665746307372,0.16609774017333984
1788862028379380200,10.123380126953125,-6.2009822998046875,-6.711396166229248,0.4439747703552246
1788862028389421300,10.13342138671875,-6.502950984191894,-7.026532959747314,0.8111854499816894
1788862028399463200,10.143463134765625,-6.363189462280273,-7.340921565246582,0.9802759422302245
1788862028409504300,10.153504150390624,-6.3521162796020505,-7.5813891944885246,0.8228571830749511
1788862028419546400,10.16354638671875,-6.642862143707275,-7.720552165985107,0.5122095176696777
1788862028429587500,10.17358740234375,-6.862081233215331,-7.719803977966309,0.2925415153503418
1788862028439628300,10.183628173828126,-6.912060192871094,-7.617451856994628,0.38037878875732417
1788862028449670400,10.19367041015625,-6.608445494842529,-7.559392466735839,0.4423287567138672
1788862028459711200,10.203711181640625,-6.123918933868408,-7.633313442993163,0.258573779296875
1788862028469753300,10.21375341796875,-6.005555589294433,-7.759457942962646,0.06314706878662109
1788862028479794200,10.223794189453125,-6.228515618896484,-7.864204265594482,-0.16071078643798828
1788862028489836300,10.233836181640624,-6.668899086761474,-7.80195502243042,-0.24435820693969726
1788862028499877000,10.243877197265626,-7.148487606811523,-7.841160074615478,-0.3757400230407715
1788862028509919200,10.253919189453125,-7.631068878936767,-8.151059552001952,-0.5306149429321289
1788862028519960000,10.2639599609375,-7.86585027923584,-8.240093926239012,-0.4756979423522949
1788862028530001200,10.274001220703125,-7.87198542098999,-7.969549138641357,-0.28954876327514645
1788862028540043300,10.284043212890625,-7.833229281616211,-7.643638437652587,-0.2223614791870117
1788862028550084400,10.29408447265625,-7.82036044769287,-7.514650823211669,-0.2747346405029297
1788862028560126200,10.304126220703125,-7.923909669494629,-7.591414913940429,-0.17357962036132812
1788862028570167300,10.314167236328124,-7.927052059173583,-7.828291240692138,0.01062426986694336
1788862028580209200,10.324209228515626,-7.864503540802001,-8.33840583190918,0.08858546142578125
1788862028590250200,10.334250244140625,-7.92929662322998,-8.34394242324829,0.19737199935913086
1788862028600292000,10.3442919921875,-8.040327725219726,-7.999027746582031,0.3178302703857422
1788862028610333200,10.354333251953125,-8.036586785125731,-7.586327235412597,0.3854664672851562
1788862028620374300,10.364374267578125,-8.032845845031737,-7.015459777069092,0.3778349494934082
1788862028630416100,10.374416015625,-7.763498158264159,-6.457161877441406,0.21068974609375
1788862028640457200,10.384457275390625,-7.31608172302246,-5.9479451118469235,-0.0053869537353515625
1788862028650499300,10.394499267578125,-6.9630866157531734,-5.712116248321533,-0.16310498809814453
1788862028660540400,10.40454052734375,-6.683264296722411,-5.777208605957031,-0.2305915473937988
1788862028670582300,10.414582275390625,-6.535871257019043,-5.84783755493164,-0.2615665313720703
1788862028680623400,10.424623291015624,-6.6057520179748535,-5.886743331909179,-0.21877017669677734
1788862028690665200,10.434665283203126,-7.039252156066894,-5.7806502708435055,0.06344634399414062
1788862028700706300,10.444706298828125,-7.529315308380126,-5.713462986755371,0.318578458404541
1788862028710747100,10.4547470703125,-8.54834738998413,-5.748178910827637,0.5473743545532226
1788862028720789200,10.464789306640625,-9.272743029785156,-5.8731263099670405,0.70868369140625
1788862028730830000,10.474830078125,-9.682301151275635,-6.1741971687316894,0.6967126831054687
1788862028740872200,10.4848720703125,-9.714622873687743,-6.304232246398925,0.7800608283996582
1788862028750913000,10.4949130859375,-9.210942699432373,-6.279691679382323,0.8354267417907715
1788862028760955400,10.504955322265625,-8.474725688934326,-6.1355906669616695,0.7992144416809082
1788862028770996200,10.514996337890626,-8.132803764343262,-5.802497360992431,0.7959224143981933
1788862028781038300,10.525038330078125,-8.149712813568115,-5.393537789916992,0.9151835845947265
1788862028791079200,10.5350791015625,-8.31835439300537,-5.059247383117675,0.9570821136474609
1788862028801120300,10.545120361328125,-8.519766607666016,-4.825663083648681,0.9858125335693358
1788862028811162000,10.555162109375,-8.6827219581604,-4.765209491729736,0.805050308227539
1788862028821203200,10.565203125,-9.004143531036377,-4.788702595520019,0.43783962860107417
1788862028831245000,10.5752451171875,-9.529221882629393,-4.76880079421997,-0.008379705810546874
1788862028841286100,10.5852861328125,-9.925462257385254,-4.841674307250976,-0.42886137237548827
1788862028851328300,10.595328369140624,-9.757868141174315,-4.983381118011474,-0.6643909606933593
1788862028861369300,10.605369384765625,-9.296834683990477,-4.98592495727539,-0.6289268486022949
1788862028871411200,10.6154111328125,-8.927678715515135,-4.356249920654297,-0.2163759750366211
1788862028881452300,10.625452392578126,-8.858995055389403,-3.5419220809936522,0.11028291397094726
1788862028891493400,10.635493408203125,-9.057414517974854,-2.96881005859375,0.3295020034790039
1788862028901535200,10.64553515625,-9.00773483352661,-2.6197055290222164,0.47375265350341794
1788862028911576300,10.655576416015625,-8.587552442169189,-2.557456285858154,0.5801449897766113
1788862028921618200,10.6656181640625,-8.25460877380371,-2.7564742988586426,0.6055833824157715
1788862028931659300,10.6756591796875,-8.297255490875244,-3.008912936401367,0.44592005920410155
1788862028941701000,10.685701171875,-8.595333597564697,-3.0743045692443847,0.07197568740844726
1788862028951742200,10.6957421875,-9.157970987701415,-3.0846295639038086,-0.33788170928955075
1788862028961784300,10.705784423828124,-9.203460819244384,-3.302501914978027,-0.716315209197998
1788862028971825400,10.715825439453125,-8.44659381942749,-3.2321722412109373,-0.9534908111572266
1788862028981867300,10.7258671875,-8.168567151641845,-2.9049148017883297,-0.9374795875549315
1788862028991908400,10.735908447265626,-8.260145365142822,-2.498349432373047,-1.045069024658203
1788862029001949200,10.74594921875,-8.103774069213866,-2.13233585357666,-1.368136611175537
1788862029011991300,10.7559912109375,-7.9165774269104,-1.8740613494873046,-1.2811971633911132
1788862029022032400,10.766032470703125,-8.441057228088379,-1.783081686401367,-0.9132382957458496
1788862029032074200,10.77607421875,-8.736741133117675,-1.7832313240051267,-0.4677671493530273
1788862029042114800,10.78611474609375,-8.923488862609863,-1.883937431335449,-0.15547347030639647
1788862029052156700,10.79615673828125,-8.971672171020508,-1.8644845428466796,-0.18375497741699218
1788862029062197800,10.80619775390625,-8.208071479034423,-1.7335516395568846,0.06928221054077148
1788862029072239600,10.816239501953126,-7.895328887176513,-1.4330793312072754,0.2876034744262695
1788862029082280700,10.82628076171875,-8.444349255371094,-1.0754454582214354,0.5653308670043945
1788862029092321500,10.836321533203124,-9.42253027114868,-0.9609726913452148,0.7296329559326171
1788862029102363600,10.84636376953125,-9.54418564300537,-1.107018992614746,0.623090982055664
1788862029112404500,10.856404541015625,-7.702296378326416,-1.139639990234375,0.34760815353393554
1788862029122446800,10.86644677734375,-7.349899821472167,-0.8845078758239746,0.058657940673828124
1788862029132487700,10.87648779296875,-8.597727799224852,-0.7778162643432617,-0.6795043586730957
1788862029142529800,10.88652978515625,-9.230694863128662,-0.5987000526428222,-1.3148656242370604
1788862029152570600,10.896570556640626,-8.47218184967041,-0.515202269744873,-1.1432312927246093
1788862029162612700,10.90661279296875,-7.39942986831665,-0.4207809417724609,-0.8245031967163086
1788862029172653600,10.916653564453124,-8.014889332580566,0.021098902130126954,-0.969801309967041
1788862029182694700,10.926694580078125,-9.229647399902344,0.16879121704101563,-1.3377601776123047
1788862029192736500,10.936736572265625,-9.537152675628661,0.0661398208618164,-1.0721534309387206
1788862029202777600,10.946777587890624,-8.996661650848388,-0.040402153015136714,-0.45115737533569333
1788862029212819500,10.9568193359375,-8.583811502075195,-0.06688800888061523,-0.24136545486450195
1788862029222860500,10.966860595703125,-8.292766362762451,-0.054767362976074214,-0.8074445098876952
1788862029232902700,10.976902587890624,-8.14686969909668,-0.06015431671142578,-1.3606547309875487
1788862029242943700,10.98694384765625,-8.314314177703857,-0.09906009368896483,-1.030404539489746
1788862029252985600,10.996985595703125,-8.371625379943847,-0.18046295013427732,-0.7802104660034179
1788862029263026700,11.007026611328126,-8.328679387664794,-0.2516904495239258,-0.8972270721435547
1788862029273067800,11.01706787109375,-8.365490238189697,-0.2784755805969238,-0.9494505958557128
1788862029283109600,11.027109619140624,-8.615983586883544,-0.13482348098754882,-0.7026981872558593
1788862029293150700,11.037150634765625,-8.437465925598143,0.052073886108398436,-0.6138134506225585
1788862029303192600,11.047192626953125,-7.8338278320312495,0.09472060317993164,-0.7568669998168945
1788862029313233700,11.057233642578124,-7.426065361785888,0.14724340209960937,-0.8316858016967773
1788862029323275500,11.067275634765625,-7.709179708099365,0.1039981346130371,-0.6798036338806152
1788862029333316600,11.077316650390625,-8.218546111297607,-0.2699462371826172,-0.4170400016784668
1788862029343358700,11.087358642578126,-8.218546111297607,-0.8207622566223144,-0.2685994987487793
1788862029353399800,11.09739990234375,-8.788515744018554,-1.2933178092956543,-0.14814122772216795
1788862029363440600,11.107440673828124,-9.651475804901123,-1.6566379112243652,0.049829322052001954
1788862029373482800,11.117482666015626,-9.766846397399902,-1.933766753387451,0.105344873046875
1788862029383523600,11.127523681640625,-9.214234726715087,-2.1269488998413086,0.0004489128112792969
1788862029393565700,11.137565673828124,-8.884732723236084,-2.184559377288818,-0.029179332733154296
1788862029403606500,11.1476064453125,-9.012373599243164,-2.0795137794494627,-0.07990648040771484
1788862029413648600,11.157648681640625,-8.949825080871582,-2.0159177978515626,-0.2237082176208496
1788862029423689700,11.167689697265626,-8.426392742919921,-2.098368117523193,-0.2690484115600586
1788862029433731800,11.17773193359375,-8.085069368743897,-2.1914427070617672,-0.09935936889648436
1788862029443772700,11.187772705078125,-8.26074391555786,-2.306663661956787,0.27892449340820313
1788862029453814800,11.197814697265626,-8.230666757202147,-2.580500476837158,0.5894225212097167
1788862029463855600,11.207855712890625,-7.895478524780273,-2.8892028533935545,0.4569932418823242
1788862029473896700,11.217896728515624,-8.046762142181397,-3.2007483444213864,0.37484219741821284
1788862029483938800,11.227938720703126,-8.572289406585693,-3.670460782623291,0.5080196647644043
1788862029493979600,11.237979736328125,-8.935609508514403,-4.257938014984131,0.7442974411010742
1788862029504021800,11.248021728515624,-8.700379195404052,-4.780921440124511,1.077540384674072
1788862029514062600,11.2580625,-8.106467546081543,-5.154865811920166,1.1279682571411132
1788862029524104700,11.268104736328125,-8.030451643371581,-5.377376928710937,1.1833341705322264
1788862029534145500,11.2781455078125,-8.529792327117919,-5.512350047302246,1.3664905975341797
1788862029544188000,11.28818798828125,-8.93112038040161,-5.599888045501709,1.5108908851623535
1788862029554228700,11.298228759765625,-9.023895694732666,-5.588216312408447,1.4130278923034667
1788862029564269800,11.308269775390626,-9.048585899353027,-5.6024318847656245,1.1519102737426756
1788862029574311700,11.318311767578125,-9.114576082611084,-5.71421117477417,0.7911340110778808
1788862029584352800,11.328352783203124,-8.97705912475586,-6.02051934967041,0.6602011077880859
1788862029594394600,11.33839453125,-8.608950619506835,-6.3144076034545895,0.5975029518127442
1788862029604435700,11.348435791015625,-8.016684983825684,-6.6419643180847165,0.3268085266113281
1788862029614477600,11.3584775390625,-7.589319987487793,-6.910414179229736,-0.09023147506713866
1788862029624518700,11.3685185546875,-7.5816884696960445,-7.170933247375488,-0.43783962860107417
1788862029634560500,11.378560546875,-7.886051355743407,-7.379228791809082,-0.5609913764953613
1788862029644601600,11.3886015625,-7.9849618118286125,-7.510311332702636,-0.4891653266906738
1788862029654643700,11.398643798828125,-7.619546783447265,-7.696610149383544,-0.39369653549194333
1788862029664684800,11.408684814453125,-6.994061599731445,-7.888744832611083,-0.29658173065185545
1788862029674726000,11.418725830078126,-6.412869146728515,-7.821407910919189,-0.2980781066894531
1788862029684767700,11.428767822265625,-6.2976481918334954,-7.614159829711913,-0.3877110313415527
1788862029694808800,11.438808837890624,-6.720075147247314,-7.292738256835937,-0.48183308410644526
1788862029704850700,11.4488505859375,-7.094917344665527,-7.194875263977051,-0.6560112548828124
1788862029714891800,11.458891845703125,-7.036109766387939,-7.341370478057861,-0.8327332649230956
1788862029724933600,11.46893359375,-7.052869178009033,-7.612214540863037,-0.8761281700134277
1788862029734974700,11.478974609375,-7.08025285949707,-8.046313229370117,-0.8298901504516601
1788862029745015600,11.489015625,-7.153724922943115,-8.636633576202392,-0.6510732139587402
1788862029755057700,11.4990576171875,-7.436091081237793,-9.277531433105468,-0.3226186737060547
1788862029765098500,11.509098388671875,-7.817367695617675,-9.748740247344971,0.09561842880249023
1788862029775140900,11.519140869140625,-8.080729878234862,-9.832686943054199,0.6789058082580566
1788862029785181700,11.529181640625,-8.106916458892822,-9.5890769241333,1.2575544219970702
1788862029795223800,11.539223876953125,-7.808539076995849,-9.230245950317382,1.5150807380676268
1788862029805264600,11.5492646484375,-7.307702017211914,-8.796147261810303,1.3350667007446289
1788862029815306800,11.559306640625,-6.960393138885498,-8.33750800628662,0.6964134078979491
1788862029825347600,11.56934765625,-6.9984010902404785,-7.943661833190918,-0.2219125663757324
1788862029835389700,11.5793896484375,-7.18200643005371,-7.71860687713623,-1.1538555625915528
1788862029845430500,11.589430419921875,-7.394192552185058,-7.677007623291015,-1.7699135772705077
1788862029855471600,11.5994716796875,-7.6288243148803705,-7.698256163024902,-1.895459526824951
1788862029865513500,11.609513427734376,-7.708132244873046,-7.868244480895996,-1.6352397338867186
1788862029875554600,11.619554443359375,-7.53320588607788,-8.224531615447997,-1.1177929000854492
1788862029885596700,11.6295966796875,-7.228843000030517,-8.503007196044921,-0.6308721374511719
1788862029895637800,11.6396376953125,-6.88871672668457,-8.386140227508545,-0.2980781066894531
1788862029905679600,11.6496796875,-6.587047317504882,-8.006659264373779,-0.2533364631652832
1788862029915720700,11.659720703125,-6.328922451019286,-7.771728226470946,-0.3950432739257812
1788862029925762600,11.669762451171875,-6.0799254783630365,-7.625831562805176,-0.5997475158691405
1788862029935803600,11.6798037109375,-5.757306804656982,-7.556100439453124,-0.8520365158081055
1788862029945844700,11.6898447265625,-5.616198544311523,-7.548319284057617,-0.9430161788940429
1788862029955886600,11.699886474609375,-5.845293715667724,-7.687781530761718,-0.7800608283996582
1788862029965927700,11.709927734375,-6.26921704711914,-7.950844438171386,-0.31708208236694335
1788862029975969800,11.7199697265625,-6.626551644897461,-8.040627000427246,0.29134441452026366
1788862029986011000,11.730010986328125,-6.913556568908691,-7.89742381362915,0.7809586540222168
1788862029996052700,11.740052734375,-7.395988203430175,-7.81437494354248,0.9675567459106444
1788862030006093800,11.75009375,-7.919121266174316,-7.820510085296631,0.960823053741455
1788862030016135700,11.7601357421875,-8.078335676574707,-7.600393170166015,0.8089408859252929
1788862030026176800,11.7701767578125,-8.343643148040771,-7.268646602630615,0.5446808776855468
1788862030036217600,11.780217529296875,-8.668356748199463,-7.100753211212158,0.30705636291503907
1788862030046260500,11.790260498046875,-8.794800523376464,-7.106738715362549,0.12554594955444334
1788862030056301600,11.800301513671876,-8.800187477111816,-7.292738256835937,0.07811082916259765
1788862030066343400,11.810343505859375,-8.658480666351318,-7.567472897338867,0.06434416961669921
1788862030076384500,11.820384521484375,-8.166322587585448,-7.7227967300415035,0.11103110198974608
1788862030086426600,11.830426513671876,-7.435791806030273,-7.472153743743896,0.489015689086914
1788862030096467500,11.840467529296875,-6.989422834014892,-6.996904714202881,0.9533411735534667
1788862030106509600,11.850509521484375,-7.095366257476806,-6.661417206573486,1.2559084083557128
1788862030116550400,11.86055029296875,-7.409156312561035,-6.487089398193359,1.337460902404785
1788862030126591500,11.870591552734375,-7.6484268409729,-6.405985816955566,1.1065700798034668
1788862030136633300,11.88063330078125,-7.829488341522216,-6.270563785552978,0.642244595336914
1788862030146674400,11.89067431640625,-7.902661129760742,-6.040570788574218,0.0618003303527832
1788862030156716500,11.900716552734375,-8.095992913818359,-5.829731404876709,-0.39758711318969725
1788862030166757600,11.910757568359376,-8.370428279113769,-5.833771620178222,-0.6459855354309082
1788862030176799500,11.920799560546875,-8.40798731765747,-6.042067164611816,-0.7805097412109374
1788862030186840600,11.930840576171875,-7.996783182525634,-6.236446411895751,-0.8059481338500976
1788862030196881400,11.94088134765625,-7.584681221771239,-6.323685134887695,-0.6027402679443359
1788862030206923500,11.950923583984375,-7.517344300079345,-6.373813732147217,-0.11477204208374023
1788862030216964600,11.960964599609374,-7.90415750579834,-6.37171880569458,0.6232406196594238
1788862030227006500,11.97100634765625,-8.336759818267822,-6.379649598693847,1.0721534309387206
1788862030237047600,11.981047607421875,-9.291896643066405,-6.4172086372375485,1.1764508407592773
1788862030247089700,11.991089599609374,-9.810839852905273,-6.389376042938232,0.9404723396301269
1788862030257130500,12.001130615234375,-9.852738381958007,-6.202329038238525,0.5187935722351074
1788862030267172600,12.011172607421875,-9.502137476348876,-5.985803425598144,0.376039298248291
1788862030277213700,12.021213623046876,-8.584559690093993,-5.698199951171874,0.428412459564209
1788862030287254500,12.031254638671875,-8.040477362823486,-5.22235237121582,0.7633014167785644
1788862030297296600,12.041296630859375,-8.104372619628906,-4.704157349395752,1.003619408416748
1788862030307337500,12.05133740234375,-8.729558528137206,-4.364330351257324,0.9873089096069335
1788862030317379600,12.061379638671875,-9.205705383300781,-4.187458703613281,0.8672995513916015
1788862030327420400,12.07142041015625,-8.928726178741455,-4.0714895606994626,0.5826888290405273
1788862030337462500,12.081462646484376,-8.476072427368164,-3.8955157386779784,0.13976152191162108
1788862030347503400,12.09150341796875,-8.424746729278564,-3.712957862091064,-0.33967736053466796
1788862030357545700,12.101545654296874,-8.498966980743408,-3.6673183929443356,-0.7477391059875488
1788862030367586600,12.111586669921875,-8.75320126953125,-3.8551135856628416,-1.0075099861145018
1788862030377627600,12.121627685546875,-8.636334300994873,-4.20751014251709,-1.18108960647583
1788862030387669500,12.13166943359375,-7.981071234130859,-4.3914147575378415,-1.2639888389587401
1788862030397710600,12.141710693359375,-7.927351334381103,-4.114585190582275,-1.2077250999450684
1788862030407752400,12.15175244140625,-8.715342955780029,-3.8417958389282223,-0.8946832328796386
1788862030417793500,12.16179345703125,-8.986635931396483,-3.8275802665710446,-0.6688800888061524
1788862030427835400,12.17183544921875,-8.66356834487915,-3.7358524154663084,-0.591816722869873
1788862030437876500,12.18187646484375,-8.570793030548096,-3.738096979522705,-0.4724059150695801
1788862030447917600,12.19191748046875,-8.509890525817871,-3.8955157386779784,-0.30795418853759765
1788862030457959400,12.20195947265625,-8.607154968261717,-3.803189337158203,-0.07392097625732422
1788862030468000500,12.21200048828125,-9.082553635406494,-3.5199253532409664,0.22655133209228515
1788862030478042600,12.222042724609375,-9.502885664367675,-3.347093920898437,0.36571430358886714
1788862030488083700,12.232083740234375,-9.644742112731933,-3.057245882415771,0.07870937957763671
1788862030498125600,12.24212548828125,-9.29593685836792,-2.5206454353332517,-0.12419921112060546
1788862030508166700,12.252166748046875,-8.991573972320555,-1.8167501472473144,-0.24869769744873046
1788862030518208500,12.26220849609375,-8.661772693634033,-1.3058873680114744,-0.23687632675170897
1788862030528249600,12.27224951171875,-8.329876488494872,-1.1815385192871093,-0.3794809631347656
1788862030538290400,12.28229052734375,-8.0828248046875,-1.0699088668823242,-0.8596680335998534
1788862030548332500,12.29233251953125,-7.756165915679931,-1.0422259101867675,-1.1457751319885254
1788862030558373400,12.302373291015625,-7.6354083694458,-0.8892962791442871,-1.3097779457092285
1788862030568415500,12.31241552734375,-7.395090377807617,-0.7160159339904785,-1.498470964050293
1788862030578456300,12.322456298828126,-7.463774037933349,-0.39668928756713867,-1.4012065216064453
1788862030588498700,12.332498779296875,-7.623287723541259,-0.26051906814575193,-1.2798504249572753
1788862030598539500,12.34253955078125,-8.262689204406739,-0.411802685546875,-1.2274772636413573
1788862030608580600,12.35258056640625,-8.659528129577636,-0.905307502746582,-1.3711293632507324
1788862030618622500,12.36262255859375,-8.179939609527587,-1.0586860466003418,-1.511190160369873
1788862030628663600,12.37266357421875,-7.821557548522949,-0.673518854522705,-1.338807640838623
1788862030638705400,12.382705322265625,-8.278401152801512,-0.4176385520935058,-0.802506468963623
1788862030648746500,12.39274658203125,-7.520187414550781,-0.3699041564941406,-0.3133411422729492
1788862030658788400,12.402788330078126,-7.113921320343017,0.04279635467529297,-0.38666356811523434
1788862030668829400,12.412829345703125,-8.110208486175537,0.41973347854614257,-0.8186673301696776
1788862030678871300,12.422871337890625,-8.872911352539061,0.35149873123168945,-0.9139864837646484
1788862030688912600,12.43291259765625,-7.887547731781005,0.24226328048706053,-0.46028526916503903
1788862030698953700,12.44295361328125,-7.108684004211425,-0.061949967956542965,-0.10324994659423828
1788862030708995600,12.45299560546875,-7.443124048614502,-0.6618471214294434,-0.3419219245910644
1788862030719036700,12.46303662109375,-8.69544115447998,-1.1432312927246093,-0.6519710395812988
1788862030729078500,12.47307861328125,-9.16754779434204,-1.2885294059753418,-0.826149210357666
1788862030739119600,12.48311962890625,-8.555679632568358,-1.102529864501953,-0.7565677246093749
1788862030749161500,12.493161376953125,-8.070554521179199,-0.6723217536926269,-0.6645405982971191
1788862030759202600,12.50320263671875,-8.63738176422119,-0.3302501914978027,-0.37289690856933594
1788862030769243400,12.513243408203126,-8.830713548278808,-0.2337339370727539,0.009127893829345703
1788862030779285500,12.523285400390625,-7.912686849212646,-0.08319850769042968,0.09262567672729492
1788862030789326300,12.533326416015624,-7.566275796508789,0.11133037719726561,-0.1227028350830078
1788862030799368700,12.54336865234375,-8.263138117218016,0.13976152191162108,-0.38531682968139647
1788862030809409500,12.553409423828125,-8.422951078033448,-0.15128361740112303,-0.8400655075073241
1788862030819451600,12.56345166015625,-8.628104232788086,-0.7586626510620117,-1.2617442749023438
1788862030829492500,12.573492431640625,-9.383325218963623,-1.4990695144653319,-1.364246033477783
1788862030839533600,12.583533447265625,-9.784802909851074,-2.2459107948303223,-1.4514847564697264
1788862030849575400,12.593575439453126,-9.923068055725096,-2.9994857673645017,-1.3835492843627928
1788862030859616500,12.603616455078125,-9.900622415161132,-3.67090969543457,-1.0027215827941893
1788862030869658400,12.613658447265625,-9.199570241546631,-3.950582376861572,-0.5077203895568847
1788862030879699500,12.623699462890626,-8.511386901855468,-3.8308722938537594,-0.07900865478515624
1788862030889741300,12.6337412109375,-8.443900342559814,-3.4522891563415525,0.10429740982055663
1788862030899782400,12.643782470703124,-8.544157537078856,-3.1693244476318356,0.03336918563842773
1788862030909824500,12.653824462890626,-8.368183715057372,-2.892943793487549,-0.029927520751953124
1788862030919865600,12.663865478515625,-7.805546324920654,-2.6595091316223143,-0.08768763580322265
1788862030929906700,12.67390673828125,-7.360075178527832,-2.6288334228515624,-0.07870937957763671
1788862030939948500,12.683948486328125,-7.663989151763915,-2.8673557632446287,-0.004339490509033203
1788862030949989600,12.69398974609375,-8.144774772644043,-3.356670727539062,0.3151367935180664
1788862030960031500,12.704031494140626,-8.109609935760497,-3.963002297973633,0.7906850982666015
1788862030970072600,12.714072509765625,-7.819163346862792,-4.571728070068359,1.1780968544006347
1788862030980114400,12.724114501953125,-8.0314991065979,-5.109525617980957,1.3195043899536132
