time,seconds_elapsed,z,y,x
1789031206663549400,0.036549560546875,-0.9730904146403073,-0.8239078611716628,-0.21974227313194422
1789031206673555500,0.046555419921875,-1.1227204196155072,-0.6182353587180376,-0.5744207669109106
1789031206683562500,0.0565625,-1.2997533953011036,-0.5639464269086718,-0.7064443149816244
1789031206693568500,0.066568603515625,-1.6878765145748853,-0.887754018138349,-0.3257510169150308
1789031206703575300,0.0765751953125,-1.5977537605792282,-0.727842857645452,-0.21865188407935202
1789031206713581600,0.08658154296875,-1.4659037424445152,-0.8799851377025246,-0.09540138851832598
1789031206723587600,0.096587646484375,-1.3976321702510117,-1.2420637151375413,0.5116162279516459
1789031206733594400,0.106594482421875,-1.2788900554925202,-1.4946031827062367,0.727667135752365
1789031206743600400,0.116600341796875,-1.0693944876194,-1.837642420889437,0.5725389352196827
1789031206753607400,0.126607421875,-0.9276327318012714,-1.8828177796557544,0.8099656989283859
1789031206763613400,0.136613525390625,-0.8049667215973139,-1.827321810144186,1.1338177868869155
1789031206773620500,0.146620361328125,-0.9026075961381197,-1.9796891311287879,1.1852371546093374
1789031206783626500,0.15662646484375,-0.9218272603929042,-2.278829898613691,1.199642915776372
1789031206793632500,0.166632568359375,-0.8862076654791832,-2.4262545024991033,1.4318619182415306
1789031206803639300,0.176639404296875,-0.9740525376707315,-2.334097612327337,1.5040687840573488
1789031206813645300,0.186645263671875,-0.8016700181394815,-2.2036618449047207,0.9121787767555564
1789031206823652600,0.196652587890625,-0.19093173717856407,-1.8455533401444553,0.21717523565553126
1789031206833658400,0.206658447265625,0.5602794288337231,-1.0560454689636827,-0.1212007599569857
1789031206843665400,0.21666552734375,0.8162316274553537,-0.34593291379809377,-0.0540314499169588
1789031206853671400,0.22667138671875,0.4263338997244835,-0.062300388829410074,0.530280888672173
1789031206863677400,0.236677490234375,-0.44871699644625185,0.014768530064821242,1.153981088667363
1789031206873684500,0.2466845703125,-0.8723030587673187,0.16053922926336525,1.0186172171927987
1789031206883690200,0.256690185546875,-0.03386193759143352,0.44652036318480964,-0.9053209467500448
1789031206893697500,0.266697509765625,0.35228783578276635,1.0878370300218463,-2.131856984018534
1789031206903703600,0.27670361328125,-0.12692600573599339,0.5705205446019769,-1.7661824279181657
1789031206913709300,0.286709228515625,0.3540016539633274,0.030290801106393334,-1.878782825051248
1789031206923716600,0.296716552734375,0.7664975824713707,-0.1883747461721301,-1.3960272192724048
1789031206933722600,0.30672265625,0.3818511993974447,0.2455211132392287,-1.23713780304268
1789031206943729400,0.3167294921875,-0.2871341033488512,1.0236261313959956,-1.3434411458581685
1789031206953735400,0.3267353515625,-1.096428040495515,0.5518582219690085,-1.0947551388472319
1789031206963742500,0.336742431640625,-1.0766443126171827,-0.06790624601244927,-1.3037664303347467
1789031206973748500,0.34674853515625,-0.7757067248433828,0.05246463899165391,-1.9328782801151274
1789031206983754500,0.35675439453125,-0.14972411299943922,-0.517934617318213,-1.8559221739456055
1789031206993761500,0.366761474609375,0.6140086809337139,-1.1823935286812484,-1.1964108019873498
1789031207003767600,0.376767578125,0.7495499548017979,-0.7089343051664531,-0.811652482971549
1789031207013774300,0.3867744140625,0.8383949439465999,0.403337347279489,-0.6288736571103334
1789031207023780400,0.3967802734375,0.8619640355825424,0.566823735910654,-0.32808892181068655
1789031207033787400,0.406787353515625,1.9345646257668732,0.0671760320417583,-0.3502136598572135
1789031207043793400,0.41679345703125,4.626999290913343,-0.386593425488472,-1.03119890473783
1789031207053799400,0.42679931640625,7.631575074893235,-0.8872095359981059,-1.4806857165127991
1789031207063806500,0.436806396484375,8.688608093589544,-1.4478054834350942,-1.9223656539291143
1789031207073812500,0.4468125,7.4240283030003305,-1.5891034211337565,-2.2716092997103927
1789031207083819300,0.4568193359375,4.264701517769694,-1.7729554291844367,-2.733341260552406
1789031207093825300,0.4668251953125,0.9669242932260036,-2.2572753616705534,-2.9489819070518015
1789031207103832600,0.47683251953125,-0.9587328034639357,-2.40845961035043,-1.7367752777785062
1789031207113838300,0.48683837890625,-1.2434019780039787,-2.71472131575644,-1.334055477875471
1789031207123844400,0.49684423828125,-1.0596037459671497,-1.9299743753671645,-1.2751894474089145
1789031207133851600,0.5068515625,-0.3226309486657381,-1.6089868099942803,0.3646539808809757
1789031207143857400,0.516857421875,-0.9433169154062867,-0.7997106277000159,1.3207809857606887
1789031207153864400,0.526864501953125,0.27317455157935616,0.6615282647386193,1.4976543869704007
1789031207163870200,0.5368701171875,2.307095039111376,1.848229135224968,1.517141177728772
1789031207173877500,0.54687744140625,2.799377621039748,2.0803069756537673,0.6760667854398489
1789031207183883500,0.556883544921875,2.207715211948752,1.8366081094056366,0.17887655772566793
1789031207193889300,0.56688916015625,2.022976922582835,1.8648022304937242,0.2738017435669899
1789031207203896600,0.576896484375,1.0036498035550117,1.6367209123551845,0.6537444789946079
1789031207213902600,0.586902587890625,-0.01904620738402009,1.8021087506934999,1.579363532885909
1789031207223909400,0.596909423828125,-0.34276663178689776,2.734692090639472,1.9850930359989403
1789031207233915400,0.606915283203125,-0.18336393227279185,2.924278842949867,1.0308569594323636
1789031207243922400,0.61692236328125,-0.0904477481663227,2.5834277624607083,-0.10014379727244377
1789031207253928400,0.626928466796875,-0.6887718801688403,2.4888649801909923,0.25424831731319425
1789031207263935500,0.636935546875,-3.2743636157304046,3.5410748165145516,2.6193659218043086
1789031207273941500,0.64694140625,-4.930149878561497,5.640947201120853,2.430001872333884
1789031207283947500,0.656947509765625,-5.830394252699613,6.303485227423906,1.0699994677752256
1789031207293954300,0.666954345703125,-7.319993343508243,4.531639805307984,-2.386317628908157
1789031207303960600,0.676960693359375,-7.540826882475614,2.720419235137105,-4.723286412757635
1789031207313967400,0.68696728515625,-7.112728895688057,2.652195593738556,-3.8949785630613563
1789031207323973400,0.696973388671875,-6.377657548093795,3.320575916329026,-1.3588292691260575
1789031207333980700,0.706980712890625,-5.546573803943395,4.185336304631829,0.128323597574234
1789031207343986400,0.716986328125,-3.7399943375766274,4.761588963145018,0.5180658424824476
1789031207353992400,0.726992431640625,-1.5434461240693926,2.665575884315371,1.4429109893918037
1789031207363999500,0.73699951171875,-0.5098948109865188,1.8690023125320672,1.9004928448170422
1789031207374005500,0.747005615234375,0.08916676844507455,1.9714134702146051,1.8653887982100248
1789031207384012500,0.757012451171875,-0.1496516322851181,1.9776836365252732,1.5338929905652998
1789031207394018300,0.767018310546875,0.1172676582917571,2.406616905093193,1.2059978377610445
1789031207404025600,0.777025634765625,-1.2058967154741287,4.620195456117392,-0.7014613389372826
1789031207414031600,0.787031494140625,-2.2927885736003515,3.627577918708324,-0.4320364952802658
1789031207424037400,0.797037353515625,-1.204922902005911,3.9214591582298275,-0.8649573721796273
1789031207434044400,0.80704443359375,-0.27914778077006336,2.9219056840777395,-0.2617167534977197
1789031207444050400,0.817050537109375,0.06469459048956633,-0.6278156724900007,0.5391437018245459
1789031207454057500,0.827057373046875,0.7008689260020852,-5.050796365636587,1.8581208530336617
1789031207464063500,0.8370634765625,1.8284747795715928,-7.353441439601778,2.75875393422842
1789031207474070500,0.847070556640625,1.6113640605196355,-7.212320904296636,3.0484704552859068
1789031207484076500,0.85707666015625,0.952370867216587,-7.200232407096028,1.2967606432259082
1789031207494083300,0.867083251953125,1.1543711108982562,-6.738668788558244,0.19485300227552652
1789031207504090400,0.87709033203125,1.3162754910349845,-3.3667420396983623,-0.2826256860136986
1789031207514096400,0.887096435546875,-0.3026090281173587,3.4680443593561647,-1.4448863811179995
1789031207524103200,0.897103271484375,-0.23686492857486008,3.6117397135853766,-1.107800498381257
1789031207534109200,0.907109130859375,-0.3552230124518275,4.8424873771995305,-1.096108891543746
1789031207544116200,0.9171162109375,-0.3718412620365619,5.1059360690563915,-1.746068883563578
1789031207554122200,0.927122314453125,0.15159545982927083,4.632143668064475,-2.173595500203967
1789031207564129000,0.93712890625,0.6304103651583194,4.142528844040632,-1.9048694524660705
1789031207574135300,0.94713525390625,0.39691666658222674,3.7338475053846834,-1.1506086896248162
1789031207584141300,0.957141357421875,0.4368035635516047,2.7182757933676243,-0.38205636658072467
1789031207594148000,0.967148193359375,0.5753381740167737,1.9029162725716828,-0.31339827928766606
1789031207604154000,0.977154052734375,0.8199962406858802,1.3042179734945296,-0.8909175967358052
1789031207614161200,0.9871611328125,0.7795327128723263,1.5759318048715591,-1.4345520341083406
1789031207624167200,0.997167236328125,-0.42105858967006204,1.2288269246846437,-2.010479698450863
1789031207634174200,1.00717431640625,-2.097995192557573,-1.2587608751773833,-2.941319117338955
1789031207644180200,1.01718017578125,-2.445160570760071,-3.068490330007672,-2.784724826309085
1789031207654187300,1.027187255859375,-2.9943466509103773,-2.83766205124855,-1.8707229988448322
1789031207664193300,1.037193359375,-0.23772183766514063,-1.221899755769968,-1.0400330032523721
1789031207674199000,1.047198974609375,2.0769497741803526,0.0845657043904066,-0.7486955299295485
1789031207684206300,1.057206298828125,1.4400240357786416,0.6144120010375976,-0.6089152302522212
1789031207694212000,1.067212158203125,-0.7221022681668401,0.18143267194926738,-0.3570943592816591
1789031207704219100,1.07721923828125,-0.5545151662185788,-0.39154374137222764,0.44242381458617747
1789031207714225400,1.087225341796875,-0.5478256054520607,-0.39429333234131336,0.436004814389348
1789031207724232200,1.097232177734375,-0.019339783503115177,-1.108673189562559,0.580412408541143
1789031207734238200,1.10723828125,1.7856375083640217,-1.072408282482624,0.4169696398559958
1789031207744245200,1.117245361328125,2.6977204965949055,-0.7290297293424606,0.8463648999124765
1789031207754251300,1.127251220703125,1.6584820777863263,0.4856500120460987,1.0033121690984814
1789031207764257300,1.13725732421875,0.2618614226654172,0.0019371055424213409,0.7848877370994538
1789031207774264000,1.14726416015625,-0.7967071350350976,-0.30133097100555895,0.8573872291862964
1789031207784270300,1.157270263671875,-2.3811256132230163,1.664422573751211,1.2833680776894092
1789031207794277000,1.167277099609375,-1.2932578958019614,3.4180291593432424,0.48896662578079847
1789031207804283100,1.177283203125,-3.645587038129568,-0.8358475975513457,-0.8044421132013201
1789031207814290200,1.187290283203125,-3.7290447812780734,-7.7588459485441446,-2.974496287536621
1789031207824296200,1.197296142578125,-2.2041540123358367,-11.694489699470996,-3.174773360687494
1789031207834303200,1.20730322265625,1.1995648821040987,-11.80380932136774,-1.0515611631564796
1789031207844309000,1.21730908203125,5.156175140953064,-9.070492026212811,1.4284262447044251
1789031207854315300,1.227315185546875,5.719751273244619,-5.132970790976286,2.701477803301811
1789031207864322300,1.237322265625,2.7356159274861214,-1.6593670439273118,2.8437147754162546
1789031207874328000,1.247328125,-1.3545254344522952,1.3485580504804848,2.313165006674826
1789031207884335400,1.25733544921875,-4.38998092534244,2.8579280096858737,2.32289744226858
1789031207894341000,1.267341064453125,-4.703037113194167,2.728174087047577,2.449299277999997
1789031207904348200,1.27734814453125,-2.6538614811241623,1.696508149319887,1.4177940837919711
1789031207914354200,1.287354248046875,0.4747735209837556,0.35216976236104963,-0.03519742397889495
1789031207924361200,1.297361328125,1.9524360902830957,-0.7633101846069097,-0.8259767764002084
1789031207934367200,1.3073671875,1.969161015112698,-1.2369237219005822,-0.8422368601970374
1789031207944374000,1.3173740234375,0.1596113007634878,8.595340611827373,3.3780697816595433
1789031207954380300,1.32738037109375,-1.1300813037723303,4.966868374627828,-0.4408037391036749
1789031207964386300,1.33738623046875,-0.46760143739730115,-5.781006244674325,-5.078229146963357
1789031207974393000,1.34739306640625,-0.359649596722424,-2.998795447012782,-2.0864127451829613
1789031207984399000,1.357399169921875,0.13101619765907524,-2.042336433699727,-0.5058218624591827
1789031207994406100,1.36740625,1.2584712445810435,3.1608518028408286,1.6692404954269526
1789031208004412200,1.377412109375,1.6447814692139624,23.58616902747154,7.417174783843755
1789031208014419200,1.387419189453125,-4.437544056028128,2.451296004775166,-4.843977908018231
1789031208024425200,1.39742529296875,0.6819993903592229,-8.479777711626888,-8.032493962854147
1789031208034432300,1.407432373046875,0.6800070474982262,-9.886502704393862,-6.22995880344212
1789031208044438000,1.41743798828125,0.33490269347876306,-10.716768117898702,-2.987689238847792
1789031208054445300,1.4274453125,2.5037998067334293,-1.807983487945795,2.8925615161716935
1789031208064451300,1.437451416015625,1.6627584399312734,3.834859317663312,2.906499732892215
1789031208074457000,1.44745703125,-1.6859435006856918,4.591237657180428,3.2398373690113424
1789031208084464400,1.45746435546875,-3.5296149726063013,1.3200485798329114,4.186279722961783
1789031208094470100,1.46747021484375,-1.2299056598320603,-0.8249713987499475,3.804988495534658
1789031208104477200,1.477477294921875,1.2126242701634764,-0.4115753065317869,2.626729144048691
1789031208114483200,1.487483154296875,1.965249979148805,-0.4276519965857267,1.0430740514487027
1789031208124490200,1.497490234375,0.5198559407696127,-0.6156546945750713,-0.029447336019575596
1789031208134496300,1.507496337890625,-1.3096999120369552,-0.41760640338957306,0.3271758986189961
1789031208144503000,1.5175029296875,-0.5858250812396407,-0.138536364030838,0.7378586402252316
1789031208154509300,1.52750927734375,-0.14616758956164122,0.4422165285110473,0.05413257220387459
1789031208164516000,1.53751611328125,-0.5071747383728623,0.32945933338105676,-0.8058332752987742
1789031208174522000,1.547522216796875,-0.7860255820229649,-0.40100247459113597,-1.5029790891245007
1789031208184528100,1.557528076171875,0.006840367414057255,-0.6856506063431501,-1.932761667998135
1789031208194535200,1.56753515625,-1.4906895163938403,-2.8142618864387274,-2.1564666707485913
1789031208204541200,1.577541259765625,-0.07508651290535927,-2.031374310180545,-2.500420393428206
1789031208214548200,1.58754833984375,0.5585761320471764,0.6126069974422454,-1.9374927881732582
1789031208224554200,1.59755419921875,-0.8428735506653785,1.5820973417639732,-0.2110205854833126
1789031208234561300,1.607561279296875,-1.0130535917162895,2.208157695019245,0.5581500155895948
1789031208244567000,1.617567138671875,-0.3208744603872299,2.7629285895645617,0.45345279279649253
1789031208254574300,1.62757421875,-0.9594041268542408,1.8653508042871951,0.48494098699390886
1789031208264580400,1.637580322265625,-0.06415566130727529,1.1337170299261807,0.09814940858483313
1789031208274587100,1.647587158203125,1.3704887272596358,1.6632658049315212,0.27784078982472415
1789031208284593200,1.65759326171875,0.374526847858727,1.2946511037260293,0.7335048289299011
1789031208294600200,1.66760009765625,-1.677669885598123,0.18176409586071968,0.6083247900784016
1789031208304606200,1.677606201171875,-0.8645657425135373,0.7017360642254352,-0.005762801310420036
1789031208314612200,1.6876123046875,1.4113915232732892,0.3160983320266008,-0.20998948886990546
1789031208324619300,1.697619384765625,2.069665754652023,0.16006781235933304,1.1253946072608232
1789031208334625300,1.707625244140625,0.05264905564785003,0.5665168619185685,2.0604279707074165
1789031208344632000,1.717632080078125,-1.508972776581347,-1.2073130120128392,2.3623703516095875
1789031208354638000,1.72763818359375,-0.5734565980538725,-1.9084984566181897,1.7821692477315663
1789031208364645000,1.73764501953125,0.9216346604302526,-1.3610481142193078,-0.40708851650655264
1789031208374651100,1.747651123046875,0.9893331089109182,-0.4472305572807789,-1.9453414558470248
1789031208384658200,1.757658203125,0.16582622975558042,2.8410668912559744,-3.9444980885118244
1789031208394664200,1.767664306640625,-0.3794344936445355,4.623179440364241,-5.394926613926887
1789031208404671200,1.777671142578125,-0.5651750919207931,3.7716678252130746,-4.715229947552085
1789031208414677200,1.78767724609375,-0.540829170693457,1.6452455795943737,-2.091003726235032
1789031208424684300,1.797684326171875,-0.5972025075614452,0.048856677627563475,-0.458274806125462
1789031208434690300,1.807690185546875,0.40192309656739234,-1.0251783292740584,0.3184583391562104
1789031208444696000,1.817696044921875,1.8396072912216186,-1.5172820475041866,1.0261913057088852
1789031208454703000,1.827703125,1.035594801609218,-1.1613660843521356,2.126919673746824
1789031208464709400,1.83770947265625,-0.048398120205104346,-1.2064864980608223,2.6824241432636975
1789031208474716200,1.847716064453125,-0.936908217407763,-1.4384417350232601,3.4642250933289525
1789031208484722200,1.85772216796875,-0.7880000969663262,-0.4287234252095222,2.635918412676453
1789031208494729200,1.867729248046875,0.1331283675074577,0.7059533896595239,1.4606424609154463
1789031208504734700,1.877734619140625,-0.5203066071465611,0.6294926657915115,0.842438081857562
1789031208514741800,1.88774169921875,-0.24175913035720586,0.8426847500950098,-0.8222583403989672
1789031208524747800,1.897747802734375,-0.11171937651485205,-0.44872927140593527,0.7566738153323531
1789031208534754800,1.9077548828125,-0.1718728164434433,-1.0752420446038244,2.00932994389385
1789031208544760800,1.9177607421875,-1.2572758973166345,-2.2071271829277275,2.663192788571119
1789031208554768000,1.927767822265625,0.7025485496520996,-2.0600316648662087,0.1678250023573637
1789031208564774000,1.93777392578125,0.8949442219033836,-1.567837930265069,0.8296157174244523
1789031208574780700,1.94778076171875,0.06470686544924974,-0.7037503266572952,-0.9028767684683203
1789031208584786700,1.95778662109375,-0.2259805464670062,0.7090741520285606,-2.171029156847298
1789031208594793000,1.96779296875,-1.6415066853269933,-0.9702893857449293,-2.2546368298605084
1789031208604799700,1.9777998046875,-1.9944825033739209,-1.4956383709728718,-3.417132502764463
1789031208614805800,1.9878056640625,-1.3637655564844609,-0.4769014729231596,-3.1974244606956836
1789031208624812800,1.997812744140625,0.13476269071102143,-0.14643617736995218,-1.5241694689303635
1789031208634818800,2.00781884765625,1.214585341103375,0.15079846423268317,0.9111550597310065
1789031208644825600,2.01782568359375,0.6031479719623923,-1.0557494086265564,4.295490331526101
1789031208654831600,2.02783154296875,-0.29369857643097635,-1.1059785436511038,6.641181058752537
1789031208664839000,2.0378388671875,-0.39765667129456994,0.04292378044724464,7.783152122282981
1789031208674844700,2.0478447265625,-0.8238236900195479,-0.06977963866889476,7.25918202419281
1789031208684851700,2.057851806640625,-1.2346461323574185,-0.08217442533969879,5.210424033012986
1789031208694857700,2.067857666015625,-0.8497899059250951,0.698875414097309,3.383023604674637
1789031208704864800,2.07786474609375,-1.0228142304912209,0.30476386806368827,2.5454285789340734
1789031208714870800,2.087870849609375,-0.28392303234785793,1.4868588521897792,0.5543289959967136
1789031208724876500,2.09787646484375,-0.10640724158138036,1.5665671796768903,0.36181437354087825
1789031208734883800,2.1078837890625,-0.15409253734201192,0.5668856952309608,1.9091671496599911
1789031208744889900,2.117889892578125,-0.17335516395568848,-0.26728549354076386,4.148780013389885
1789031208754896600,2.127896728515625,-1.3882698831439018,-0.8990192162573337,4.971716399180889
1789031208764903000,2.13790283203125,-1.0204559769272803,-1.105883266583085,4.581467958316207
1789031208774909700,2.14790966796875,0.9898656083524227,-2.3067636151999236,3.7938276345729824
1789031208784915700,2.157915771484375,1.1795292252913117,-3.1294156310915944,-0.11560849290788174
1789031208794922800,2.1679228515625,0.15506021333038805,-4.914206459498405,-2.2297259682267905
1789031208804928800,2.1779287109375,-0.5166530530750751,-6.017075346696377,-4.520962343949079
1789031208814935800,2.187935791015625,-1.9430647430866956,-5.996428864508867,-6.00114127998352
1789031208824941600,2.197941650390625,-2.7836609964698553,-5.042132582187652,-5.406347002607584
1789031208834948900,2.207948974609375,-2.3876278347238897,-3.348780266550183,-4.933610248148441
1789031208844954600,2.21795458984375,-0.5892530098617077,-0.3489233277857303,-5.273798480814695
1789031208854961700,2.227961669921875,1.7446499566763638,0.722760732075572,-3.2172038046598432
1789031208864968000,2.237968017578125,2.537266023005545,0.07756722380518913,-0.6497533635318279
1789031208874973700,2.2479736328125,0.7807406273573636,1.9996943928033113,0.0004699555993080139
1789031208884980700,2.257980712890625,0.578795328733325,3.7730496349602936,0.1258966626882553
1789031208894986800,2.26798681640625,2.442887657392025,2.9623130977898833,0.20008067379593847
1789031208904993800,2.277993896484375,3.3246815980821847,2.5248364572823045,0.5348872134238482
1789031208914999800,2.287999755859375,2.4547622195810077,2.8991134220331904,1.0990993055313825
1789031208925006600,2.298006591796875,1.16167471190989,2.7210300605118274,1.3606032930612564
1789031208935012900,2.308012939453125,0.41709845386743544,3.5454368111163377,0.8912181871175765
1789031208945019600,2.31801953125,0.3295215849623084,4.295484778568149,-1.1035171219736337
1789031208955025700,2.328025634765625,0.7576692561104893,3.831708744677901,-2.1222978591650725
1789031208965032700,2.33803271484375,1.9154086743980645,1.158721122801304,-1.4529600897192954
1789031208975038700,2.348038818359375,1.8704180245488882,-0.29852935758829113,-1.04444066362679
1789031208985045800,2.358045654296875,0.04677461065649986,1.7579653653234242,-0.9718611651062965
1789031208995051500,2.368051513671875,-1.4254682716816662,3.049809010413289,-0.7456359962284564
1789031209005058800,2.378058837890625,0.02137479646205902,2.2824229546695944,-0.7388590494394301
1789031209015064800,2.38806494140625,3.9746886441141362,1.0370108058869838,-1.002856607350707
1789031209025070600,2.398070556640625,1.2799632376819847,0.612701105466485,-0.9548223520219326
1789031209035078000,2.408077880859375,-0.11089081673622131,0.26425357849895953,-0.638339404591918
1789031209045083600,2.418083740234375,0.513329753871262,0.3709977969497442,-0.9655705405294894
1789031209055090700,2.428090576171875,0.6732140263572335,-0.048314241313934324,-1.1504057143986224
1789031209065097000,2.438096923828125,0.36305823612213134,-0.3696346919029951,-1.17860948009789
1789031209075103700,2.448103759765625,0.33244507119357586,-1.0764297930836677,-1.2138257549077272
1789031209085109800,2.45810986328125,-0.45594051795899865,-2.4673931530952453,-0.6952019862815737
1789031209095116800,2.46811669921875,-0.5744371335238218,-1.6054852316141128,-0.9912778132379054
1789031209105122800,2.478122802734375,-0.3361909797236323,0.12906769393980502,-1.425213127876818
1789031209115129600,2.488129638671875,-0.2059399212181568,0.15746493638455866,-1.3540794442504644
1789031209125135600,2.498135498046875,-0.2967249385148287,-0.027250995019078253,-1.34301882879287
1789031209135143000,2.508142822265625,-0.39566842008680103,-0.1326362000763416,-1.0059604185849427
1789031209145148700,2.518148681640625,0.19173077860176563,-0.02769114000201225,-0.694729692594707
1789031209155155700,2.52815576171875,0.5038420868188143,-0.4173088817477226,-0.17706950830370186
1789031209165161700,2.53816162109375,0.26064152548164127,-0.9151642953723669,0.1981695794776082
1789031209175168800,2.548168701171875,0.11561287682205439,-1.3336901516944168,0.2840916669130325
1789031209185174800,2.5581748046875,-0.25054127948880195,-1.4119243149757383,0.24933921022266148
1789031209195180500,2.5681806640625,-0.5579214675307274,-1.2385457701444624,0.31566637035012246
1789031209205187800,2.578187744140625,-1.0020479213163256,-0.7787304565787315,0.3978945717036724
1789031209215193900,2.58819384765625,-1.2804650497242807,-0.11205986051559448,0.3155149791806936
1789031209225200600,2.59820068359375,-1.015725149013102,0.3670037588775158,0.2576774149790406
1789031209235207000,2.60820703125,-0.5826125489339232,0.6168272454857826,0.20635288593322038
1789031209245213700,2.618213623046875,-0.2402688917994499,0.7379781749516725,0.1477817467600107
1789031209255219700,2.6282197265625,-0.14041881677657364,0.696180768185854,0.22510142554491758
1789031209265226800,2.638226806640625,-0.2261062186732888,0.4774374794960022,0.5970207212537527
1789031209275232800,2.648232666015625,-0.3482958435371518,0.24088497787117957,1.0085594951674342
1789031209285239800,2.65823974609375,-0.5290191981732845,0.25339608439803124,1.3167805179476737
1789031209295245600,2.66824560546875,-0.6562170065879821,0.2609884392231703,1.554900122758746
1789031209305252900,2.6782529296875,-0.30307196945399045,0.2411971125602722,1.7894328089937566
1789031209315258600,2.688258544921875,0.2601265616968274,0.20184359181523323,1.7875713990360498
1789031209325265700,2.698265625,0.7335109664097428,0.2832446946948767,1.4092983503863215
1789031209335272000,2.70827197265625,1.1496107646286486,0.30816870807111263,0.7735948472559452
1789031209345278700,2.71827880859375,1.5529183012917638,0.23294366347789763,0.327431626945734
1789031209355284700,2.72828466796875,1.7942144903123378,0.2106283712953329,0.2068392081454396
1789031209365291800,2.738291748046875,1.3454697290763258,0.219229610902071,0.525525218577683
1789031209375297800,2.7482978515625,0.6032911798253655,0.11008593009412287,1.1746297628119586
1789031209385303800,2.7583037109375,-0.06746522424668074,0.09425473923385143,1.9646917607441543
1789031209395310600,2.768310546875,-0.668919836294651,0.11415303340256214,2.6807588403999802
1789031209405316900,2.77831689453125,-1.1162103070691227,0.21884674906432627,3.060833093252778
1789031209415323600,2.78832373046875,-1.3951356772601604,0.21849369784295558,3.25462197342813
1789031209425329700,2.79832958984375,-1.5522478546842933,0.3533791381508112,2.9830390749543905
1789031209435336700,2.808336669921875,-1.3802828299127519,0.7318161451905966,2.18432293818444
1789031209445342700,2.8183427734375,-1.037466294569522,0.6511410184979438,1.4684119258731603
1789031209455349800,2.828349853515625,-1.3292656132504344,0.3241197259187698,0.7359326405987143
1789031209465355500,2.83835546875,-0.7162006429076194,0.006346154156327247,-0.8718149829894304
1789031209475362800,2.84836279296875,0.0391524452149868,-0.5595704037815332,-1.8165300747558473
1789031209485368800,2.858368896484375,-0.502827941340208,-0.9031319122731685,-2.1401889051645995
1789031209495375600,2.868375732421875,-0.6273311038434505,-0.9945312620759009,-1.2970254316419363
1789031209505381600,2.878381591796875,-0.37442280296236274,-0.5202279889523983,0.25890607999116183
1789031209515388400,2.888388427734375,-0.33103549665659665,0.3097106768161058,1.6064426784694195
1789031209525394400,2.89839453125,0.4522776115372777,1.175240880447626,2.3316423281297087
1789031209535401500,2.9084013671875,0.6610977643668651,1.4970260259389876,2.591862705589831
1789031209545407500,2.918407470703125,0.046429742741584776,1.3009598484814167,2.6231170910313724
1789031209555414500,2.92841455078125,0.06642389850020408,1.1205506743609905,2.3934862053632733
1789031209565420300,2.938420166015625,-0.1209820026397705,0.8890531180381774,1.5547934475138783
1789031209575427600,2.948427490234375,-0.723583154374361,0.766304690247774,0.5774649569123983
1789031209585433600,2.95843359375,-0.9107377111017704,0.7061988888531923,0.22818448625206947
1789031209595440400,2.9684404296875,-0.6387548535250127,0.8921271186560392,0.40263621327280996
1789031209605446700,2.97844677734375,-0.7292635380983352,1.2072908001810312,0.8335089254707098
1789031209615453400,2.988453369140625,-0.5528804046235978,1.215782149672508,1.3096172021895647
1789031209625459500,2.99845947265625,-0.22046397500261664,0.8025953162908553,1.5238614258944987
1789031209635466500,3.008466552734375,-0.19523937124460936,0.48816287164986133,1.2093135381802915
1789031209645472500,3.018472412109375,-0.5233667253695428,0.2660492297440767,0.6327823549866676
1789031209655478500,3.028478515625,-0.7696808886826038,-0.11632687031030654,0.2848430698022246
1789031209665485300,3.0384853515625,-0.6931900619372725,-0.40310733791589737,0.14115443757474422
1789031209675491600,3.04849169921875,-0.51399581656456,-0.4546592459768057,-0.2039212748721242
1789031209685498400,3.058498291015625,-0.5450491264760494,-0.47536593391895293,-0.7422653507515787
1789031209695504400,3.06850439453125,-0.5621418617047369,-0.6999053416669369,-0.6072469317138195
1789031209705511700,3.07851171875,-0.5295360616542398,-0.6499164451390504,-0.15768296304941176
1789031209715517400,3.088517333984375,0.09208338654413818,-0.2624327928125858,0.1874336659297347
1789031209725524500,3.0985244140625,0.6378920992158353,0.30948446684479713,0.6188719030559062
1789031209735530500,3.108530517578125,0.9891108444623649,0.8626572785437107,1.2461024691343308
1789031209745537500,3.11853759765625,0.6649803048886358,1.329157768961787,1.521994170717895
1789031209755543600,3.12854345703125,0.514547605228424,1.340239719468355,1.7016960733518003
1789031209765550300,3.13855029296875,0.38286534487605095,0.9669149408757686,1.8693270144417882
1789031209775556600,3.148556640625,0.4542120867311954,0.6224480079770088,1.7751973628923297
1789031209785563400,3.1585634765625,0.7317981711424887,0.6140092654556035,1.5196423468947409
1789031209795569400,3.1685693359375,0.3640390638530254,0.8197370052278041,1.309348029859364
1789031209805576400,3.178576416015625,0.37106603988036513,0.9001555268108844,1.3443340030446649
1789031209815582500,3.18858251953125,-0.2802325072668493,0.7965823396116495,0.8026730577021837
1789031209825589500,3.198589599609375,0.533604480136931,0.04232990620732307,0.5471320702299476
1789031209835595500,3.208595458984375,0.03423880807980895,-0.2102408332824707,0.7115835045009851
1789031209845602600,3.2186025390625,-0.31475568524599074,-0.3306926745682955,0.5463754066437483
1789031209855608600,3.228608642578125,-0.2263457265175879,-0.38200083700120446,0.1877954849794507
1789031209865615600,3.23861572265625,-0.8912450751245021,-0.3897241247296333,-0.13499153103083372
1789031209875621600,3.24862158203125,-0.7622503002904355,-0.5107166487634182,0.2395391162201762
1789031209885628400,3.25862841796875,-0.5946775191284716,-0.34065351209044453,0.5514277215972543
1789031209895634400,3.268634521484375,-0.22690540622696279,0.0446639021128416,0.9462102987602352
1789031209905641500,3.278641357421875,-0.1743336535990238,0.1873217299878597,0.8674138254210353
1789031209915647500,3.2886474609375,-0.05430091450810432,0.2995212912350893,0.6891951470822095
1789031209925654500,3.298654541015625,-0.33643326404690743,0.3697703009814024,0.921906170848012
1789031209935660500,3.30866064453125,-0.07144274957552552,0.2945622075229883,1.1580319714933633
1789031209945667600,3.31866748046875,-0.10862418697848915,0.518007390293479,1.4923726471751928
1789031209955673300,3.32867333984375,0.5603096778415143,0.7189215923041105,1.6790978725746273
1789031209965680600,3.3386806640625,0.7813736645638942,1.014574517673254,1.667229155604541
1789031209975686700,3.348686767578125,0.5121919820129871,1.1459943276971578,1.4231342757761478
1789031209985693400,3.358693359375,0.35224677312001584,1.0048936661362649,1.3566770595282316
1789031209995699500,3.368699462890625,-0.6856628813028335,0.8636907132446765,1.2347633289963007
1789031210005706500,3.37870654296875,-0.6041374213911592,0.3579454231530428,0.9286986074671149
1789031210015712500,3.38871240234375,0.014441197806596756,0.021876316243410108,0.9891893165260552
1789031210025718500,3.398718505859375,-0.07390460964441299,-0.052722705405950546,1.149658695423603
1789031210035725600,3.4087255859375,-0.15303484498262404,-0.3236293120533228,0.8533861768513917
1789031210045731600,3.418731689453125,-0.3699237379774451,-0.5209340913951397,0.36638650376200677
1789031210055738400,3.42873828125,-0.6564752191327512,-0.4068909481078386,0.3448956797048449
1789031210065744400,3.438744384765625,-0.9121301883734763,-0.1286632047921419,0.7291162385821343
1789031210075751400,3.44875146484375,-1.1132630015708505,0.09038228171467781,1.3202496553629637
1789031210085757400,3.45875732421875,-1.4597617325581609,0.19387480489313602,1.7405191404819487
1789031210095764500,3.468764404296875,-2.0503728790305553,0.061631988048553465,1.8393384111523627
1789031210105770500,3.4787705078125,-2.639514975863695,-0.1726642590820789,2.0924036561608315
1789031210115777500,3.488777587890625,-3.238821762228012,-0.3424105848908424,3.0656191584855317
1789031210125783600,3.498783447265625,-3.972759137356281,-0.4661386713683605,4.445122382327914
1789031210135790600,3.50879052734375,-4.449515064328908,-0.6896463979810475,5.415023061016202
1789031210145796600,3.518796630859375,-3.6382170938834544,-1.0392238057613372,5.592982503896951
1789031210155803400,3.528803466796875,-2.295286820156872,-1.0591747069001196,4.939179572713375
1789031210165809400,3.538809326171875,-1.0545856255441903,-1.0171662877321244,4.307767921558022
1789031210175816400,3.54881640625,0.4614955217376351,-0.8013380097061396,4.130983075414598
1789031210185822500,3.558822509765625,1.092977607780695,-0.3428127359509468,4.042242715688049
1789031210195829500,3.56882958984375,0.7028302892029284,0.019060089778900145,4.087034920355677
1789031210205835500,3.57883544921875,-0.06188304020017385,-0.059391515645384786,4.478001738622784
1789031210215842600,3.588842529296875,-0.8135916343405842,-0.5357844545245171,4.9334085880964995
1789031210225848300,3.598848388671875,-1.1662804521396755,-1.2048679569482803,4.81246165677011
1789031210235855600,3.608855712890625,-1.00938776268512,-1.7313807252585887,3.82331793295145
1789031210245861600,3.618861572265625,-0.13337825061529873,-1.9581115055710077,2.633916425204277
1789031210255868400,3.628868408203125,0.90178634288311,-1.9753356120944021,2.0451421387702227
1789031210265874400,3.63887451171875,1.096257944625616,-1.8566566256999968,1.7299410478442907
1789031210275881500,3.648881591796875,0.8571569275617599,-1.5609405719667673,1.2077642629116774
1789031210285887500,3.658887451171875,0.2936860092103481,-1.2331062094390393,0.7783201222121715
1789031210295894300,3.668894287109375,-0.07309943074136972,-1.1794622975349425,0.6629430999726057
1789031210305900500,3.678900634765625,-0.11023615221977233,-1.0345569829940795,0.7860264588057995
1789031210315907600,3.688907470703125,-0.15500468375086784,-0.6117600252240896,0.5847171199977398
1789031210325913300,3.698913330078125,-0.21302140391170976,0.2459036828160286,0.2737742710381746
1789031210335920600,3.708920654296875,0.7243295888274908,0.9801496855020523,0.014841010779142379
1789031210345926400,3.718926513671875,0.7404156312316655,1.4228694873601198,-0.5024363116741181
1789031210355933400,3.728933349609375,0.08139876479208469,1.2140057876497505,-0.534022121027112
1789031210365939500,3.738939453125,0.0938677857428789,0.5557727650642394,-0.695762835034728
1789031210375946500,3.748946533203125,0.07123626721799373,0.2721235812216997,-1.3256009532630442
1789031210385952500,3.758952392578125,0.3552344106286764,-0.002381342178583145,-1.8541648088842628
1789031210395959300,3.768959228515625,0.8615846808761358,-0.3347691302269697,-2.533489134815335
1789031210405965600,3.778965576171875,1.09748134894073,0.35687662487775085,-2.9329408728331328
1789031210415972400,3.788972412109375,1.5284569369912147,1.8402941044420003,-2.1363860057502984
1789031210425978400,3.798978271484375,2.0381255380064247,3.1847248458594084,-1.0769628770470618
1789031210435985700,3.808985595703125,2.7721266260206696,4.169697129212319,-0.25746494127213954
1789031210445991400,3.818991455078125,2.64726398255527,4.9377802273094655,0.4353419665664434
1789031210455998500,3.82899853515625,1.7284943561673163,5.090357976174354,0.9353940134525298
1789031210466004500,3.83900439453125,0.5867144312947988,4.4554915083900095,1.0959218445390462
1789031210476011500,3.849011474609375,1.1959995908379555,3.165399675403535,0.5626262842208146
1789031210486017500,3.859017578125,2.756207172355056,2.471274378442764,0.06380056425929069
1789031210496024600,3.869024658203125,3.540864680895209,2.83627293497771,0.25435411577522754
1789031210506030600,3.879030517578125,2.402866612648964,3.7415766383320093,0.4505757760554552
1789031210516038100,3.8890380859375,1.290973876518011,4.206759616410732,0.30400048247575756
1789031210526044200,3.899044189453125,0.7531991249591111,4.213789076656103,-0.5310132945999503
1789031210536051000,3.909051025390625,0.18323767554461956,3.5545901316478847,-0.7631339512571692
1789031210546057000,3.919056884765625,-0.6517313856065273,2.478169398653507,-0.33344548040777444
1789031210556064300,3.929064208984375,0.3494944056719541,1.7839669448032973,0.13107991054505108
1789031210566070000,3.939070068359375,1.7628525528430938,1.4962509499132632,1.0732429797410965
1789031210576077000,3.9490771484375,2.1168939542949197,0.9551301027968525,3.2129514079123735
1789031210586083000,3.9590830078125,1.0676888527452946,0.5482876700058579,5.852455277860164
1789031210596090000,3.969090087890625,0.8422808454692363,0.4033601436331868,7.340713475453853
1789031210606096100,3.97909619140625,1.2798556856542824,0.7630281527951359,7.159200724005699
1789031210616103200,3.989103271484375,0.0036953473865985868,1.7727488006964325,5.645216549003124
1789031210626109200,3.999109130859375,-1.3988497293472288,3.3336215681239962,3.4504204398602245
1789031210636116000,4.009115966796875,-1.6227449939727783,3.585451718379557,2.056005478090048
1789031210646122000,4.0191220703125,-1.5116846658885479,2.228392673796415,1.2885846432939172
1789031210656129000,4.02912890625,-0.6200011993467808,0.5286819290429353,0.13727876518517731
1789031210666135000,4.039135009765625,1.1468266868680714,-0.9439414770454168,-0.2635305249214172
1789031210676142000,4.04914208984375,3.1968501679390666,-0.5671832168728113,1.7881337090939282
1789031210686148000,4.059148193359375,4.402769679766893,1.0533978770643473,5.512555799007416
1789031210696155100,4.069155029296875,4.369118170055747,2.469804598151147,7.618516855877638
1789031210706161000,4.079160888671875,2.91474353736341,3.614215163788199,6.158777481281757
1789031210716168200,4.089168212890625,2.1564947277992963,3.561893148137629,3.841086521615088
1789031210726174200,4.09917431640625,2.144080067384243,1.6993129776075482,4.577632617937028
1789031210736181000,4.109180908203125,-0.2824982602417469,0.8981970862194896,3.7081118833646176
1789031210746187000,4.11918701171875,-2.3591268396437166,0.359884574522078,2.5970120511770247
1789031210756194000,4.129194091796875,-2.4849703108400103,-0.6391980672478675,2.1180062994509936
1789031210766200000,4.139199951171875,-0.5082137260317802,-1.5303352980837226,1.2278542802602053
1789031210776206800,4.149206787109375,1.1433154638767242,-0.9663953009158373,0.6748761143505573
1789031210786213000,4.159213134765625,1.7966344109356402,0.27591318276301025,1.3303899411052464
1789031210796220200,4.16922021484375,2.387448094242811,0.9467623796850443,2.6768799531400203
1789031210806226000,4.179225830078125,2.85541690364778,1.3670270424984394,3.8416424019321798
1789031210816233200,4.189233154296875,2.519423784583807,1.9650065257817506,3.9604976216763257
1789031210826240000,4.199239990234375,1.7593816618621347,1.882760058119148,3.491513497748971
1789031210836246000,4.20924609375,1.1887819145441054,0.9097633131116628,2.6080545464560387
1789031210846253000,4.219253173828125,0.49176528005599973,-0.3030041649147868,1.3858940939232707
1789031210856259000,4.229259033203125,0.33146891963779923,-0.8789712844848633,0.6217167710930108
1789031210866266000,4.23926611328125,1.2669558720707892,-0.8175482630118727,0.4027729913949966
1789031210876271900,4.24927197265625,2.132068727073073,-0.3835051040843129,0.4206944325327873
1789031210886279200,4.259279052734375,2.2316297560214995,0.7158394083797931,0.38026568377166986
1789031210896285200,4.26928515625,1.8341981256544588,1.7402992141209541,1.1074027312353252
1789031210906292000,4.2792919921875,0.8845400245279074,1.720011189982295,2.288430670651793
1789031210916298200,4.28929833984375,-0.019879004946351052,1.3118075518406926,2.375050969484448
1789031210926305000,4.299304931640625,-0.8094511735349893,0.5405636516250669,2.6737872478216884
1789031210936311000,4.30931103515625,-2.6827842087477443,-0.8721003027368336,3.0016502519220114
1789031210946318000,4.319318115234375,-3.2506185830056666,-2.678995630119741,3.8430993227422237
1789031210956324000,4.329323974609375,-2.4091145671278236,-4.780584755516052,4.139671701043844
1789031210966331000,4.339330810546875,-1.1226058533251284,-5.473936437755823,1.7071639833688734
1789031210976337000,4.3493369140625,-0.27768589152395723,-3.6582366763442753,-1.0930635324984788
1789031210986344200,4.35934423828125,-0.1624526616692543,-1.52145319570899,-1.5939695658653974
1789031210996350000,4.369349853515625,-0.5673164878636598,-0.08876640748325734,-1.945139795795083
1789031211006357000,4.37935693359375,-0.31879005532860755,0.6191555423028767,-0.8419891690462827
1789031211016363300,4.38936328125,-0.5413748218774795,-1.0282312871038912,0.2664005273997784
1789031211026370000,4.3993701171875,0.33446342527866363,-2.6398177582025526,-0.5697656345814466
1789031211036376000,4.4093759765625,1.8608780427873133,-2.0404864219188688,-2.3260797255665064
1789031211046383000,4.419383056640625,2.69299346807301,-0.8986885960634797,-4.5719010885477065
1789031211056389000,4.42938916015625,3.3805162980288266,-0.04483244534647092,-5.588622555121779
1789031211066396000,4.43939599609375,2.62971429733932,0.8159938001114875,-4.961673144072294
1789031211076402200,4.449402099609375,1.3589736460328101,0.5411630788229406,-3.189696789053082
1789031211086409200,4.4594091796875,1.2207739666104316,-0.28414378069275986,-2.4742349818140266
1789031211096415000,4.4694150390625,-0.09766951611340045,-0.5953872748330236,-2.3128216000646353
1789031211106422300,4.47942236328125,-0.9745932204186916,0.1706239123608917,-0.8194996893405914
1789031211116428000,4.489427978515625,-0.9664414781451225,1.310709381340444,1.7362077070236206
1789031211126435000,4.49943505859375,-0.007245733344554901,1.1655509688213468,3.563284017974138
1789031211136441000,4.509441162109375,-0.25464053150117394,-0.20993808747623113,4.890639705950021
1789031211146448100,4.5194482421875,-2.3266332677960393,-1.0556920524161308,4.577164708164334
1789031211156455000,4.529454833984375,-2.714150822392106,-0.753190064869821,2.527927993556857
1789031211166461000,4.5394609375,-1.7361685440570116,-0.5118313685396686,-0.25464929932951924
1789031211176468200,4.54946826171875,-1.3034423129469155,-1.5598052843265235,-1.5708786131352186
1789031211186474000,4.559473876953125,-0.44524084476828574,-3.891860723301768,-0.36716684048473835
1789031211196481000,4.56948095703125,-0.9735399119734763,-4.200139613749086,-0.258428233346343
1789031211206487300,4.5794873046875,-2.286681781157851,-2.398754355024546,-1.145960425427556
1789031211216494000,4.589494140625,-3.042277445864677,-0.6343875982262194,-2.044618991678953
1789031211226500000,4.5995,-1.3343290341198444,0.34215880208685995,-1.057844335079193
1789031211236507100,4.609507080078125,-0.2988023293107748,0.004593182142311707,1.6592162372797727
1789031211246513200,4.61951318359375,0.42612171827852724,-1.2533984713613986,2.888513702085614
1789031211256520000,4.62952001953125,0.6912240225613117,-2.2499577321335673,1.1627952403724193
1789031211266526000,4.63952587890625,-0.5775666637212038,-2.3069671749480065,-1.4285714983940123
1789031211276533200,4.649533203125,-0.8132236778110266,-1.2215252233691514,-3.409515013498068
1789031211286539000,4.6595390625,0.11098550928235053,0.39633893975950774,-4.328947487708926
1789031211296546000,4.669546142578125,1.0326531951993703,1.2114843794133514,-3.9244782137900587
1789031211306552000,4.679552001953125,1.4764906029105185,1.0411894067458807,-2.8217601332396267
1789031211316559000,4.68955908203125,1.6668857489943503,0.42424083643537014,-2.3738585448294875
1789031211326565000,4.699565185546875,1.4979419717401266,-0.19242698070500044,-2.5680712033748625
1789031211336572200,4.709572265625,0.9253741392195224,-0.6245134160742163,-2.790817297965288
1789031211346578200,4.719578125,0.8728612771719694,-0.5856724114285782,-3.0575644468456504
1789031211356585000,4.7295849609375,1.2846592865437267,-0.05615425075720995,-2.967769609630108
1789031211366591000,4.739591064453125,1.9517337872326372,0.3622825390418991,-2.215677569130063
1789031211376598000,4.749597900390625,2.6101269688159228,-0.0278177255237475,-1.873331281647086
1789031211386605000,4.75960498046875,2.6981717474937437,-0.44692561951745297,-2.2954519475907085
1789031211396611000,4.769611083984375,1.9095248770564794,-0.7087294302441179,-3.146558489072323
1789031211406618000,4.7796181640625,-0.6038724868446588,-0.31053043223377313,-4.500307093933224
1789031211416624000,4.7896240234375,-3.0879449720621106,1.1368647533673792,-5.538577544492483
1789031211426631000,4.799630859375,-2.619016377714276,3.521657291600108,-5.265817418932914
1789031211436637200,4.80963720703125,0.3501712820202112,4.720974920944869,-3.8573254164934156
1789031211446644000,4.81964404296875,-0.29173662870824335,4.2709760679945346,-2.2457529739201068
1789031211456650000,4.82964990234375,-3.161269151470065,2.5589997159078717,-1.4682634573131799
1789031211466657300,4.8396572265625,-3.659232701644301,0.43326647546663877,-0.7623369556605816
1789031211476663000,4.8496630859375,-4.295292470866442,-1.019950511623174,0.4661521153718233
1789031211486670000,4.859670166015625,-3.303829948711395,-1.2815091519497335,1.857133595561981
1789031211496676000,4.869676025390625,-2.3588883547127244,-0.35712058970145877,3.3119676624596117
1789031211506683100,4.87968310546875,-2.2823694709166884,0.7068284189283848,3.9260809728115795
1789031211516689000,4.88968896484375,-2.0045441709220406,1.6621429383814335,2.565684600499272
1789031211526695700,4.89969580078125,-1.775584608644247,2.1499436987206337,0.5018757551819085
1789031211536702000,4.909701904296875,-1.4356617489159107,2.231340271555632,-0.7164227612257004
1789031211546708700,4.919708740234375,-1.2891215266495943,2.383856499491632,-1.1867249820142984
1789031211556715800,4.9297158203125,-1.5824270121097563,2.361105884631723,-1.212468495079875
1789031211566721800,4.9397216796875,-1.4043360518038273,1.9812172174789011,-0.8136240753054619
1789031211576728800,4.949728759765625,-0.9605305005356669,1.4118283072553575,-0.5425795214921235
1789031211586734800,4.95973486328125,-0.7821370501518249,0.9845593186378478,-0.640112844005227
1789031211596742000,4.969741943359375,-0.4105348575681448,0.8676262991279363,-0.8561474582582712
1789031211606748000,4.979747802734375,0.06488806723505258,0.8581466692514718,-0.7944856595933437
1789031211616754700,4.989754638671875,0.6161299108713865,1.037145976573974,-0.3256237007409334
1789031211626760700,4.9997607421875,0.5672171191424131,1.459143454529345,0.4510743732273578
1789031211636767700,5.009767822265625,0.6591723492622376,1.8988339716941116,1.354331957706809
1789031211646773800,5.019773681640625,0.7004039388388394,2.269783691718429,1.2628098583072422
1789031211656780800,5.02978076171875,-1.5085463678628206,2.4191262580543755,1.0863538057267665
1789031211666786800,5.039786865234375,-1.3771253887951374,2.229542136092484,0.7826496758490801
1789031211676793900,5.0497939453125,-1.24049953456074,2.1538947744339705,0.1500911927461624
1789031211686800000,5.0597998046875,-2.007123666021228,1.900786274805665,-0.3348556394666433
1789031211696807000,5.069806884765625,-1.5617016194671391,1.4159221524402499,-1.2263280936062335
1789031211706813700,5.079813720703125,-1.1229302629739046,1.0398390150502324,-2.0525597215503453
1789031211716819700,5.08981982421875,-0.9621960956603288,0.8353490003794432,-2.3287276097267866
1789031211726827000,5.099826904296875,-0.2805076709464192,0.9159984081089496,-2.2923709327101705
1789031211736832800,5.109832763671875,-0.5035205997794866,1.1428276803597808,-1.6310007811427116
1789031211746839800,5.11983984375,-0.7316679688915609,1.5379796753570436,-0.6614309418439864
1789031211756845800,5.129845703125,-0.38704555317014455,1.9661983659148214,-0.09701426707506179
1789031211766852900,5.139852783203125,-0.23873218375146388,2.2814722298160195,0.16586919211447237
1789031211776859000,5.14985888671875,-0.18045915074199437,2.548745156136155,0.10735445930361748
1789031211786865700,5.15986572265625,-0.19142332008779048,2.708234291824698,0.03440495842695236
1789031211796872000,5.169871826171875,-0.28791502459347246,2.9586300253629685,-0.1728168192952871
1789031211806878700,5.179878662109375,-0.09289280323088168,3.186150494748354,-0.4030126453697681
1789031211816884700,5.189884765625,-0.03513911792039871,3.2951006988108156,-0.1809919424444437
1789031211826891800,5.199891845703125,-0.44372138011604545,3.124637164643407,0.37110359541177745
1789031211836897800,5.209897705078125,-0.6276645735815167,2.4010490418329833,0.9385264662593602
1789031211846904800,5.21990478515625,-1.4916650834277272,1.4740537311524151,1.3774556436628103
1789031211856912000,5.229911865234375,-2.3258836184725165,0.7126157701581716,1.8656389735788106
1789031211866918000,5.23991796875,-3.0470497748330234,0.18573124592602253,2.389045008045435
1789031211876924700,5.249924560546875,-2.573338914644718,0.2007072812616825,2.530615040683746
1789031211886930700,5.2599306640625,-1.4347335281550884,0.9226981980085373,1.9367144972771404
1789031211896937700,5.269937744140625,-1.0062670003160834,1.6672271097779272,1.263386781412363
1789031211906943700,5.27994384765625,-1.2211617968842385,1.8443787434071302,1.0140209754437208
1789031211916951000,5.289950927734375,-1.5592130175217984,1.6680033548474311,0.8492740653574467
1789031211926956800,5.299956787109375,-1.5420499935358762,1.2325778016507625,0.30751404355466366
1789031211936963800,5.3099638671875,-1.9505086293518543,0.5629927794456482,-0.24435703789591787
1789031211946969900,5.319969970703125,-2.3958248774439097,-0.36489948007464407,-0.4010580041706562
1789031211956977000,5.329976806640625,-2.454342240603268,-0.8658195419669151,-0.3386696447968483
1789031211966983700,5.339983642578125,-2.246712758862972,-0.8179004374504089,-0.18915420611202716
1789031211976989700,5.34998974609375,-2.185287107041478,-0.6122071844696998,0.284497325104475
1789031211986997000,5.3599970703125,-1.99263775229007,-0.3488590303778648,0.9402917223662137
1789031211997002800,5.370002685546875,-1.7099797714419662,-0.3274970933973789,1.6780547932624816
1789031212007009800,5.380009765625,-2.0830137503944335,-0.6804127056896686,2.438696635442972
1789031212017015800,5.390015869140625,-3.22085618968755,-1.4690794498711823,3.158786687004566
1789031212027022800,5.40002294921875,-4.335978409259021,-2.3325270020097495,3.45177185446918
1789031212037028900,5.41002880859375,-4.4315556292682885,-2.9370231737107035,3.3676188225328922
1789031212047036000,5.420035888671875,-4.410136116881668,-2.795428006631136,2.6249720712482927
1789031212057042000,5.4300419921875,-4.14908805642575,-2.065839474362135,1.4149451241016386
1789031212067048700,5.440048583984375,-3.781170105312764,-1.6330033531367778,0.4042553389072418
1789031212077056000,5.450055908203125,-3.2055645125314594,-1.3721955311775207,-0.3447083404392004
1789031212087061800,5.460061767578125,-2.128872561380267,-1.0957347975343465,-0.8292664655953645
1789031212097068800,5.47006884765625,-0.8958920241475105,-0.6130138246774673,-0.9424643902301788
1789031212107074800,5.48007470703125,0.23974048401117323,-0.10357026458978652,-0.4938216280639171
1789031212117081900,5.490081787109375,0.7711600213244557,0.4305196609765291,0.3585831365346908
1789031212127087900,5.500087890625,0.7793070874229073,0.8161421956062317,1.3648288018018007
1789031212137094700,5.5100947265625,0.6103729547798633,0.9554606499254703,2.3115794910490512
1789031212147101000,5.520100830078125,0.20842852316349744,1.0528121861308812,3.0253543681144714
1789031212157107700,5.530107666015625,-0.5770408862814307,1.0073422283321618,3.171608759176731
1789031212167113700,5.54011376953125,-1.3739090570971368,0.8058931887924671,2.525477677795291
1789031212177121000,5.55012109375,-2.0059306568443773,0.38163901795148847,1.4353677344053983
1789031212187127800,5.5601279296875,-2.794610845029354,-0.14094342517256736,0.38727439348995685
1789031212197133800,5.5701337890625,-3.3854178063347935,-0.5322796612739563,-0.10761749415397644
1789031212207140900,5.580140869140625,-2.9850156357243653,-0.3791232357382774,-0.16642331886589526
1789031212217147000,5.59014697265625,-1.5573486849546432,0.03418284010887146,0.056012979122996326
1789031212227153700,5.600153564453125,0.20635726984739303,0.39782910525202747,0.1877180358290672
1789031212237159700,5.61015966796875,1.61775288477391,0.6316758550494909,0.03409925347864628
1789031212247167000,5.6201669921875,2.0934327069476244,0.916667101150751,-0.203352827334404
1789031212257172700,5.6301728515625,1.664864764560759,1.1575392195403575,-0.11003799929916858
1789031212267179800,5.6401796875,0.8106056042671204,1.2776748344838618,0.20052724851965903
1789031212277186800,5.650186767578125,-0.24145605575740337,1.3151076162993907,0.2038964326918125
1789031212287192800,5.66019287109375,-1.0043041758105158,1.1614409031540154,-0.15109481683075426
1789031212297199600,5.67019970703125,-1.545459509718418,0.8107096491634845,-0.6231634627699851
1789031212307206000,5.680205810546875,-1.7404744245573878,0.4160644346445799,-0.7349404146909714
1789031212317213000,5.690212890625,-1.56883366330415,0.26051789910197254,-0.7581494408428668
1789031212327218700,5.70021875,-1.3445619665816426,0.24906974563151596,-0.5509229869455099
1789031212337226000,5.71022607421875,-1.3715055030867456,0.3717953770682215,-0.0916156229019165
1789031212347231700,5.720231689453125,-1.8053230365648865,0.45265199780762194,0.7068611521542072
1789031212357238800,5.73023876953125,-1.9912121034011243,0.6177046128422021,1.2084130822092294
1789031212367244800,5.740244873046875,-1.8953207028761505,1.0236413289651274,1.2831447903275488
1789031212377251800,5.750251953125,-1.7420865359291433,1.6502987713307142,0.8329840248137712
1789031212387259000,5.7602587890625,-1.4028931595191358,2.2083374355003236,-0.12657353903651236
1789031212397264600,5.7702646484375,-0.6903913711294531,2.566520759062469,-0.8254010223388671
1789031212407272000,5.78027197265625,-0.07126023261547088,2.5971634423464534,-0.8341571602463722
1789031212417277700,5.790277587890625,-0.38603900647610423,2.388374853698909,-0.40273850460350513
1789031212427284700,5.80028466796875,-1.4361644377410412,2.0518466048449278,0.11763853743076323
1789031212437291000,5.810291015625,-2.209267409826815,1.584149013596773,0.5534539667278527
1789031212447297800,5.8202978515625,-2.5700308130100367,1.1072536781534552,0.7671323732435703
1789031212457303800,5.8303037109375,-2.518123807901144,0.6163733642384409,0.5038081845492124
1789031212467310800,5.840310791015625,-2.0904750261858105,0.3972027900472283,0.17131752064824105
1789031212477318000,5.85031787109375,-1.9512807827681302,0.6042433659836649,0.11753741514384745
1789031212487323600,5.86032373046875,-1.9690569702163339,0.7630509491488338,0.18470482548773287
1789031212497331000,5.8703310546875,-1.7919772327795624,0.8597872760653495,0.4099211095839739
1789031212507337000,5.8803369140625,-1.2063000355780125,1.0587889224529266,0.6371966642975807
1789031212517344000,5.890343994140625,-0.8217255486965179,1.1024033155128359,0.8567407479763031
1789031212527350000,5.90035009765625,-1.017903369835019,1.1258557950317858,1.1785218018144368
1789031212537356800,5.910356689453125,-1.392542153635621,0.9626189972475171,1.2964672132372856
1789031212547363000,5.920363037109375,-0.7995876589074731,0.8032303993239999,1.0722247426092624
1789031212557369900,5.930369873046875,0.14371552023440598,1.0733765429928899,1.1294500201314688
1789031212567377000,5.940376953125,0.07827975598871707,1.2791142196372152,1.5644646544396876
1789031212577383200,5.950383056640625,-0.8082786226242781,1.3660989678680895,1.3736322859823702
1789031212587390000,5.960389892578125,-1.2007552609324454,1.3540101784065366,0.18077742291092871
1789031212597396000,5.97039599609375,-0.6332455885842442,0.7983052178815007,-1.1794751570165156
1789031212607403000,5.980403076171875,-0.20874913341999052,0.027086598237603902,-1.5036176792889833
1789031212617409000,5.990408935546875,-0.6926788975447415,-0.24563348757252096,-0.6493570576906204
1789031212627415800,6.000415771484375,-1.953922237187624,0.8733288946837187,-0.02665244460403919
1789031212637421800,6.010421875,-1.8117168292552233,2.609857211963832,0.25564357106387614
1789031212647428900,6.020428955078125,-0.827588887771964,2.529443658816814,0.5580132374674082
1789031212657436000,6.030435791015625,-0.26430092477202416,0.9737370419807732,0.5182692561000585
1789031212667442000,6.04044189453125,0.7899369102478027,-0.805176126564294,0.5213537781119346
1789031212677449000,6.050448974609375,1.3952625185102223,-2.099841258815676,1.18528588912189
1789031212687455000,6.060455078125,-0.1884463501036167,-2.7027000385731457,2.6568916426002978
1789031212697461800,6.070461669921875,-2.103348244023323,-2.2392710645548997,4.40611372949779
1789031212707468000,6.080468017578125,-1.8492682690143585,-0.7024830832004547,4.929959324425458
1789031212717474800,6.090474853515625,0.10548866543173789,0.9439296404771507,2.8411458017110824
1789031212727481900,6.10048193359375,1.3320833010196684,1.3564192853748798,0.468316015407443
1789031212737488100,6.110488037109375,0.9819242939591407,1.622225061751902,-0.04043605528473854
1789031212747495000,6.120494873046875,1.502514101961255,1.621675757306069,-1.096584107840061
1789031212757501000,6.1305009765625,1.9301573307186364,1.302648532220721,-4.043562273854017
1789031212767508000,6.140508056640625,0.6589765344291925,0.6820950327534229,-5.275324082946777
1789031212777514000,6.150513916015625,0.44924774232208725,0.09696889356337487,-5.294392940554022
1789031212787520800,6.160520751953125,1.3553490257948637,0.16314583156518636,-5.700506474548578
1789031212797526800,6.17052685546875,0.6193862823188304,0.5181299572272225,-5.433242608317732
1789031212807534000,6.1805341796875,-0.10217851797044276,0.6057434683483094,-5.1676475520819425
1789031212817540900,6.190540771484375,0.916695158201456,0.5249056984398514,-4.057486169788241
1789031212827547000,6.200546875,1.6380039379030464,0.684592110266164,-2.3012580035209655
1789031212837554000,6.210553955078125,1.3497446299165488,0.5685491349311546,-0.640776860871911
1789031212847560000,6.220559814453125,0.7773749503165484,0.08762456223806366,-0.4159416850477457
1789031212857566700,6.230566650390625,0.9761784437835216,-0.18253263254780322,-0.9429875373214482
1789031212867573000,6.240572998046875,1.4813585012078285,0.43325938813872633,-1.5942396149784326
1789031212877580000,6.250580078125,1.9253233346909284,1.3179196049802004,-2.937816954436898
1789031212887586800,6.2605869140625,2.2838111941576003,1.9395240017399191,-3.28006036606729
1789031212897593000,6.270593017578125,2.2378344558805225,3.10030264159292,-3.1003157933354375
1789031212907600000,6.280599853515625,1.1875304531782864,3.911778891214728,-1.4108780207931995
1789031212917606000,6.29060595703125,-0.5331278025358915,3.8986034755602477,0.5115671281129122
1789031212927613000,6.300613037109375,-0.04611234735548496,3.2846587997734544,2.0680548123240468
1789031212937619000,6.310618896484375,0.9194090933352709,2.1333188732646406,3.4911212835609913
1789031212947626000,6.3206259765625,1.2769967890918255,0.9626302492938935,3.1984009045124053
1789031212957632000,6.330632080078125,1.5548089373439549,0.5314282320763916,0.37557401882410046
1789031212967639000,6.34063916015625,1.458218448638916,1.2193651227258144,-2.785936540186405
1789031212977645800,6.350645751953125,0.05863455979824066,2.793691099835932,-4.857708911728858
1789031212987652000,6.360652099609375,-0.30487258913516996,4.2004640233978625,-5.68021245906055
1789031212997659000,6.370658935546875,-0.01902034229040146,4.613297805558145,-4.574267233157157
1789031213007665000,6.380664794921875,0.5150619844913482,3.9234251976057886,-2.5336282510250805
1789031213017672000,6.390671875,1.068284480550885,2.5353835702598095,-0.7148088962882757
1789031213027678000,6.400677978515625,1.1424527095675467,1.343743197544664,0.06096855570375919
1789031213037685000,6.41068505859375,1.0463456204652786,0.3800027950517833,-0.06971358769536018
1789031213047692000,6.420692138671875,0.7599988681018353,-0.3830246270909905,-0.6235510007828474
1789031213057698000,6.430697998046875,0.5463502722024918,-0.6460691220611333,-1.4283517181634902
1789031213067704800,6.440704833984375,0.15649463004767894,-0.9517781620204449,-1.9077514376431703
1789031213077710800,6.4507109375,-0.93009707608819,-0.5324548717103899,-2.1001170070171353
1789031213087718000,6.4607177734375,-0.5734130511730909,0.37553923977166415,-1.7678589828282594
1789031213097724000,6.470723876953125,0.16848434304893015,0.8956538314774632,-0.961576502457261
1789031213107731000,6.48073095703125,0.7650798246279359,1.09335988509655,-0.3625432723373174
1789031213117738000,6.490738037109375,1.8764245714873073,0.900137698893249,-0.0850578718215227
1789031213127744000,6.500743896484375,2.2924314307257534,0.9471192302986979,-1.1149404332637787
1789031213137750800,6.510750732421875,1.0377867586955427,1.1966758826643227,-2.429364743474126
1789031213147757000,6.520757080078125,-0.3737497260063886,1.469964123751223,-3.270112972548604
1789031213157763800,6.530763916015625,-1.3765543109089136,1.5335700422212482,-3.5414813514888284
1789031213167769900,6.540769775390625,-2.8541932070717215,1.402385794518888,-2.9041636911600825
1789031213177777200,6.550777099609375,-3.090523882639408,1.3774527210533618,-1.669865057066083
1789031213187784000,6.560783935546875,-1.925400491580367,1.2810253139555454,-0.43858080235719676
1789031213197790000,6.5707900390625,-2.1133619807764887,0.8471756317734718,0.6291010361254215
1789031213207797000,6.580796875,-2.3416256697446105,0.053823360124230384,1.687300760513544
1789031213217803000,6.590802978515625,-2.5597218927025795,-1.0138047023445367,3.110956429815292
1789031213227809800,6.600809814453125,-2.5928625302821398,-1.947552702155709,4.810159809568524
1789031213237815800,6.61081591796875,-1.56877754920274,-2.4442408255666495,6.233520295315981
1789031213247823000,6.620822998046875,-0.7075698849454521,-2.665856454822421,7.118267825114726
1789031213257830000,6.630829833984375,-1.0071882068142295,-2.297700603300333,7.1771034604430195
1789031213267836000,6.6408359375,-1.0173124182045459,-1.2111790397912263,6.643961629381775
1789031213277843000,6.650843017578125,-0.48436084901839493,-0.022483049964904783,5.691735139071941
1789031213287849000,6.660848876953125,0.03953384574800729,0.582210105612874,4.218066607844829
1789031213297855700,6.670855712890625,0.3707318394899368,1.003332408168912,2.604249601215124
1789031213307862000,6.680862060546875,0.04155483018159866,1.0306745886027813,1.752766043114662
1789031213317869000,6.690869140625,-0.5881003326952458,0.5667763896375895,1.6821207275271415
1789031213327875800,6.700875732421875,-1.7627274651587008,-0.13946926096677778,1.6866028413772582
1789031213337882000,6.710882080078125,-3.808793440775573,-0.8833072678625583,1.4852075778514147
1789031213347889000,6.720888916015625,-5.2331028978109355,-1.762704668805003,1.7228204021841287
1789031213357895000,6.73089501953125,-5.3695414127796885,-2.6512884157657624,2.2857482997000216
1789031213367902000,6.74090185546875,-4.234770197625458,-2.9608506240218877,2.9713550669014452
1789031213377909000,6.750908935546875,-3.1758561874881384,-2.802689522066712,3.2113767059415577
1789031213387915000,6.7609150390625,-3.1716599048420786,-2.5551117685586213,2.3850427866667507
1789031213397922000,6.770922119140625,-3.5977518125042316,-2.51469967867136,1.1952981645703316
1789031213407928000,6.780927978515625,-3.8612195013225077,-2.481638536068797,0.304745747885108
1789031213417934800,6.790934814453125,-2.9906998188406226,-1.8166256440848112,0.048424715951085086
1789031213427940900,6.80094091796875,-1.6544892087578773,-0.8620353472530842,0.5362082328945398
1789031213437948000,6.810947998046875,-0.48860213984996076,-0.0711591103285551,1.0894172849506139
1789031213447955000,6.820954833984375,0.226786602152884,0.6177168878018856,1.1667460238248109
1789031213457961000,6.8309609375,0.2539996032491326,1.1876678158223628,0.8685212021410464
1789031213467968000,6.840968017578125,-0.012472235821187495,1.6282207950353622,0.6126110890954732
1789031213477974000,6.85097412109375,-0.3225643131703138,1.8724071525394916,0.7363847682803869
1789031213487980800,6.860980712890625,-0.8029153420254588,1.9512246686667203,1.0392027629733085
1789031213497987000,6.870987060546875,-1.4764718982100486,2.019451232674718,1.213508944043517
1789031213507993900,6.880993896484375,-1.6606085684210061,2.102053528037667,1.1464017394542694
1789031213518000400,6.89100048828125,-1.08908878364861,2.2585686163514853,0.7513011823832988
1789031213528006700,6.901006591796875,-0.02084375832527876,2.6427327688664195,0.17529636115133762
1789031213538013400,6.911013427734375,1.6502368120104074,2.8393174172401427,-0.07633797427117824
1789031213548019500,6.92101953125,3.0656764416307207,2.7340140452474353,0.22236849344968795
1789031213558026500,6.931026611328125,3.2120150038450954,2.467483461727202,0.7226718847483397
1789031213568033500,6.941033447265625,2.3588567905306816,2.2928230603918434,0.7848802113801241
1789031213578039300,6.951039306640625,1.2310665203049778,2.197376188763976,0.760071933338046
1789031213588046600,6.961046630859375,-0.2839686250552535,1.8933859354212879,1.042749057278037
1789031213598052600,6.971052490234375,-2.367147649013996,1.3595406322658061,1.3437807530760764
1789031213608059400,6.981059326171875,-3.2224455047056075,0.3148749277114868,1.3206132279783487
1789031213618065400,6.9910654296875,-2.7715374279558658,-1.1607315858408809,0.9905939226269721
1789031213628072400,7.001072509765625,-2.1446330250918866,-2.2058257449403404,0.6596691928684711
1789031213638079500,7.01107958984375,-1.7213257797122001,-2.7138287508308885,0.8763403514593839
1789031213648085200,7.021085205078125,-1.5318828197866676,-2.881040297465026,1.6487036110937594
1789031213658092500,7.031092529296875,-1.4956553221076727,-2.229260396541655,2.213372799319029
1789031213668098600,7.0410986328125,-1.1901239768028258,-0.9924626391083001,2.262254611387849
1789031213678105300,7.051105224609375,-0.6842103444069624,0.24290596230477093,2.2018319991290567
1789031213688111600,7.061111572265625,0.05707271730899811,0.9871595642641187,2.1003601681232453
1789031213698118400,7.071118408203125,0.7222972062170505,1.3072495962753892,1.5967980672895907
1789031213708125400,7.08112548828125,1.537553851160407,1.6775827918365598,0.42753743029534813
1789031213718131500,7.09113134765625,2.1399457440584895,1.8456451100811362,-0.33435996490418907
1789031213728138500,7.101138427734375,1.968776691970229,1.4569571965314447,-0.7079366724312305
1789031213738144500,7.11114453125,1.5009318012058734,0.5941476500354707,-0.5483382311493158
1789031213748151600,7.121151611328125,0.8111959713757038,-0.17119754753038285,-0.22463994551301
1789031213758158300,7.131158447265625,0.42481823446452616,0.13408654501512646,-0.08056815918684006
1789031213768164400,7.141164306640625,-0.3109235597372055,1.263734718067199,-0.08503975164294242
1789031213778171600,7.151171630859375,-0.9466793775767087,1.843113399646431,-0.29233517912328244
1789031213788177400,7.161177490234375,-0.3697732235908508,0.7727836770035326,-1.435853472095728
1789031213798184400,7.171184326171875,2.7673195179998875,-1.0914363696880638,-2.894914801299572
1789031213808190500,7.1811904296875,5.277829928287863,-1.5710031162977218,-3.2221494443684815
1789031213818197500,7.191197509765625,4.081767209085822,-1.6394304635748267,-0.7640653868883848
1789031213828204300,7.201204345703125,0.9516337851136922,-1.8106567988082765,1.4535814364880322
1789031213838210300,7.211210205078125,-1.0855535952597857,-0.9985041112296282,0.3460240992128849
1789031213848217600,7.221217529296875,-2.189579835799336,-0.4381001061681658,-0.5592547619611025
1789031213858223400,7.231223388671875,0.3899889131456613,-0.22551165031362325,-0.6497311517000198
1789031213868230400,7.24123046875,3.5489772602021694,0.4232296135662123,-0.5360480738967657
1789031213878237400,7.251237548828125,1.6104688652455805,1.077072767162323,0.4157487928241491
1789031213888243500,7.261243408203125,-1.806011895611882,0.5795825335882604,0.5186965416014194
1789031213898250200,7.271250244140625,-0.05459609806239605,-0.7806091829974204,-1.590036902591586
1789031213908256500,7.281256591796875,4.745236963281035,-1.7321316897563634,-2.852015570771694
1789031213918263600,7.291263671875,4.326433459061384,-1.8560139438822865,-3.253016291797161
1789031213928269300,7.301269287109375,3.0291508377879857,-1.3235302844688295,-4.532465150216222
1789031213938276600,7.311276611328125,0.48047056358158585,-0.11497768419105558,-6.770825675797462
1789031213948283400,7.321283447265625,-0.3663759823679924,1.5900373409830033,-8.617616741043328
1789031213958289400,7.331289306640625,0.027632103291153905,2.7039523767217992,-7.031735789087414
1789031213968296400,7.34129638671875,0.9976982016742229,2.5891882256835697,-3.3328543831437822
1789031213978302500,7.351302490234375,2.534388714003563,1.8071392922066152,-0.726145698338747
1789031213988309500,7.3613095703125,2.870620317998528,1.2434699286736548,-0.09228957664072512
1789031213998316500,7.371316650390625,2.1447657115608454,1.0521081295147539,-0.7575514749497175
1789031214008322600,7.381322509765625,2.563920513436198,1.2072733375895768,-2.016888104188442
1789031214018329300,7.391329345703125,2.226043480321765,1.5880194252893327,-3.32713308288753
1789031214028335400,7.40133544921875,1.5580898587107657,1.934437053864449,-4.043610789170861
1789031214038342400,7.41134228515625,1.2267208923161028,2.175031670486927,-4.217763825505972
1789031214048349400,7.421349365234375,0.8784574897438288,2.161972866949439,-4.2475609978765245
1789031214058355500,7.43135546875,0.8370552197754383,1.94833479244411,-3.9025253251791
1789031214068362500,7.441362548828125,0.6116477970212698,1.8978271327391265,-3.252270441865921
1789031214078368500,7.451368408203125,0.589283989521861,2.0987387044012547,-2.5082728604942557
1789031214088375300,7.461375244140625,0.7519108387142419,2.0411999770157037,-1.7280425207465886
1789031214098381600,7.471381591796875,-0.017716858476400376,1.066114589165896,-0.14355916062891483
1789031214108388400,7.481388427734375,-1.970499862501025,-0.22077654808312652,2.077237651211023
1789031214118395600,7.491395751953125,-1.8185171569198368,-1.8003598611995577,4.245024172875285
1789031214128401400,7.5014013671875,-1.2030167761236428,-3.5552509336441753,6.076014442399144
1789031214138408400,7.511408447265625,-0.38844285274744034,-5.195878205788135,6.580304857507348
1789031214148414500,7.52141455078125,-0.0964034417003393,-5.38529778483808,4.243265931031107
1789031214158421500,7.53142138671875,1.8638970983475445,-3.0769977538511157,-0.03413257122635841
1789031214168428500,7.541428466796875,3.1611747511848804,-0.3353679729029536,-3.6053128954082725
1789031214178434300,7.551434326171875,0.5290595301836729,2.335312248814106,-6.719952982172369
1789031214188441600,7.561441650390625,-2.125646585071087,4.274160835510492,-8.31865425273478
1789031214198447400,7.571447265625,-2.9615839067324994,5.2462815283358095,-7.654377273809909
1789031214208454400,7.581454345703125,-2.2569378002792595,4.870500004240871,-4.962599611267447
1789031214218460700,7.591460693359375,-1.104758646467328,3.4438968833103774,-1.3618173450261353
1789031214228467500,7.601467529296875,-0.5710109584674239,1.9277686820164321,1.4561211840987205
1789031214238474500,7.611474609375,0.24303426485955715,0.21666823598146437,2.9240076247930524
1789031214248480500,7.62148046875,0.5980664309144019,-1.5306950713068246,3.7444741133391855
1789031214258487600,7.631487548828125,-0.20736147845387456,-2.83797944663465,3.819293499740958
1789031214268493300,7.641493408203125,-0.9538023613244294,-3.2046161257654426,2.8651123682320114
1789031214278500600,7.65150048828125,-1.3125778055608273,-2.8387901784956453,2.2813912735342976
1789031214288507400,7.66150732421875,-1.7261431168660522,-2.647269827774167,3.35432445667386
1789031214298513400,7.671513427734375,-2.834657608735561,-2.1265742213100194,4.972978966462612
1789031214308520400,7.6815205078125,-2.835594305063784,-1.1528951931267977,5.870999234810471
1789031214318526500,7.6915263671875,-2.745117623063922,0.18064181383252143,5.595433988702297
1789031214328533500,7.701533447265625,-3.202309894649684,0.9498094922959804,5.341168720254302
1789031214338540500,7.71154052734375,-3.733635908460617,0.7090040094017982,5.345851325112581
1789031214348546600,7.721546630859375,-3.4711575229406355,-0.6389058063030243,5.795125955441594
1789031214358553300,7.73155322265625,-3.5707065691903233,-2.693621829104423,7.032299268189072
1789031214368559400,7.741559326171875,-4.278165979498625,-4.895113636493683,7.672638906687498
1789031214378566400,7.75156640625,-4.708423482407629,-6.191579680687188,6.889214154812693
1789031214388573400,7.761573486328125,-5.181805256772041,-5.886023200941086,3.945570686179399
1789031214398579500,7.771579345703125,-4.349233027629554,-4.648623093700409,0.7269003160983324
1789031214408586500,7.78158642578125,-2.249301606312394,-2.737500133797526,-1.0978531048625706
1789031214418592500,7.791592529296875,0.8189788803368806,-1.0924135441571474,-0.7140297286093235
1789031214428599300,7.801599365234375,3.3551872109830376,-0.1907563806116581,0.7254390113741159
1789031214438606600,7.811606689453125,4.2322970855101945,0.20811200456023216,1.715268379369378
1789031214448612400,7.8216123046875,4.489784530875086,0.13269056061208248,1.7654478300333023
1789031214458619400,7.831619384765625,4.186503010323643,0.15742694246172903,0.39909342609941956
1789031214468625700,7.841625732421875,5.332703089725971,-0.4071276794731617,-0.7236667410045862
1789031214478632400,7.851632568359375,2.732162864422798,1.1543477300226688,-0.6676672058850527
1789031214488639200,7.86163916015625,1.794827653774619,1.8143045076608657,-1.525273046258092
1789031214498645500,7.8716455078125,0.46843116621971126,2.895360206979513,-2.2163515228688717
1789031214508652500,7.881652587890625,0.39002456898093224,3.3994700048238036,-2.875701566785574
1789031214518658600,7.891658447265625,0.8935574437201023,3.287905526609719,-3.2173505196541545
1789031214528665900,7.901665771484375,1.5901397784441709,3.2765330687239764,-3.053975482442975
1789031214538671600,7.911671630859375,1.6665610470846295,2.5283497261002656,-2.3282032935917374
1789031214548678700,7.9216787109375,2.1087650083750487,1.3384694949254392,-1.2513789482325315
1789031214558685700,7.931685791015625,2.714378201407194,0.6852084155336022,-1.0405097539186476
1789031214568691700,7.941691650390625,1.2104156542032956,0.3917635216027498,-0.8752987334519624
1789031214578698800,7.95169873046875,-1.0638660795867443,-0.3490782260864973,1.2047644965738058
1789031214588704500,7.96170458984375,-3.032953152680397,-1.19493722230345,4.323149030563235
1789031214598711800,7.9717119140625,-4.729289160303771,-1.2257105462297797,6.5140183216512195
1789031214608718600,7.981718505859375,-5.0887061173141,-0.24135317990481853,5.764609821146727
1789031214618724600,7.991724609375,-5.531960172179341,-1.4933105125471948,6.148017017814516
1789031214628731600,8.001731689453125,-2.7637089262872934,-2.735368674726784,5.920656707426906
1789031214638737700,8.011737548828124,0.966211176520586,-1.2171981539502739,4.4213796876907345
1789031214648744700,8.02174462890625,3.2189222990155217,1.4299521390974521,3.125117641636729
1789031214658751700,8.031751708984375,3.932223128828406,3.2354367959648367,1.3099591474950312
1789031214668757800,8.0417578125,3.4543145246893165,2.697688932412863,-0.7085375609338284
1789031214678764500,8.0517646484375,2.806801049038768,0.012860066094994545,-1.0580354737371205
1789031214688770800,8.061770751953125,1.9526272289410231,-2.0098376011550427,-1.002192590484023
1789031214698777600,8.071777587890624,1.8649515758365391,-2.6187907522648572,-0.7390379131376743
1789031214708784600,8.08178466796875,1.108108541417122,-1.4979561463959514,0.20050503668785094
1789031214718790700,8.091790771484375,-0.7805518267869949,0.8977763765893876,-0.21079963620901107
1789031214728797700,8.101797607421876,-2.245290617105365,1.8600380848318336,-0.5810504141837358
1789031214738803700,8.1118037109375,-3.526340188719332,0.7621639371812343,-0.6548205837935209
1789031214748810800,8.121810791015625,-2.10269153368026,-1.0137868744269012,-1.0578028340250254
1789031214758817800,8.13181787109375,2.3310569294571875,-2.198421752294153,-0.9863327580511569
1789031214768823600,8.141823486328125,4.9566830807000395,-2.906846938894689,0.24862697030007838
1789031214778830800,8.151830810546874,3.2816005812466145,-3.0058316292598843,1.5799205822467803
1789031214788836600,8.161836669921875,0.659344783219695,-1.956021109163016,1.1143144103199243
1789031214798843600,8.17184375,0.23870588026642797,-0.24564890433736145,-1.437649123340845
1789031214808850700,8.1818505859375,2.0387954000920057,0.4244346419744193,-3.0461522414714097
1789031214818856700,8.191856689453125,3.4719010347843167,-0.432117670757696,-4.18927072147131
1789031214828863700,8.20186376953125,0.6917004079014063,-0.591146422392875,-4.211994594454765
1789031214838869800,8.211869873046876,-0.6817486304685473,0.152410648669675,-2.854942271873355
1789031214848876800,8.221876708984375,1.803458703997731,-1.0684615906834602,0.7240940265059471
1789031214858883600,8.231883544921875,4.351825674471259,-2.7800509892791507,2.062698253726959
1789031214868889900,8.241889892578126,4.381752610701322,-4.090130548283457,-0.12460253122448921
1789031214878896600,8.251896728515625,1.8052151922762394,-4.103864474603533,-2.9569699831962586
1789031214888902700,8.261902587890624,0.5358469983667135,-3.044693274834752,-5.695043532967567
1789031214898909700,8.27190966796875,0.7967962746232747,-1.2995309847220777,-7.518497561767697
1789031214908916700,8.281916748046875,0.7763648964911699,-0.2655710908383131,-8.23653769506216
1789031214918922800,8.2919228515625,0.7334937230139971,0.2262925350256264,-7.858571228143572
1789031214928929800,8.3019296875,1.6456705270081757,1.246981151665002,-6.825393716809153
1789031214938935800,8.311935791015625,2.9577251854777336,1.4346448269583285,-6.450089747098088
1789031214948942600,8.321942626953126,3.2261592645317316,0.5209639750767499,-6.186438810667395
1789031214958950000,8.331949951171875,1.8241992942094802,-0.951255234124884,-6.310051746332645
1789031214968955600,8.34195556640625,-0.9265805923998355,-0.5986478840641677,-5.995220073240995
1789031214978962700,8.351962646484376,-2.959928540740907,0.9870923442468047,-4.516797040963173
1789031214988968700,8.36196875,-1.5152841516852378,1.1643638048633933,-2.948663342621922
1789031214998975700,8.371975830078124,1.1222948876798153,1.0746813419811427,-1.5582985330253838
1789031215008982800,8.381982666015626,2.2658266246557233,0.8186507443610578,-1.0069716414541006
1789031215018988500,8.391988525390625,1.0965917066246271,0.39560857965834434,-1.1057651931613683
1789031215028995800,8.401995849609374,-0.5544055683642626,-0.49317887318097053,-0.7646464016467333
1789031215039001600,8.412001708984375,-1.9664017795324324,-0.9537420094393193,0.5665501796662807
1789031215049008600,8.422008544921875,-2.437714054146409,0.3252626854088157,1.72108378764987
1789031215059015700,8.432015625,-0.9534943182885647,0.8753759634066373,3.0150381412833926
1789031215069021700,8.442021728515625,-0.2672626971870661,-0.13584529831595718,4.149202330455184
1789031215079028500,8.452028564453125,-0.5485381376355886,-0.5557160664409398,3.6082770059108733
1789031215089034800,8.46203466796875,0.650478755196929,-0.7110675178028643,2.5293618257522583
1789031215099041800,8.472041748046875,1.7800658457115293,-0.94317531497851,1.7787462875455617
1789031215109048600,8.482048583984374,1.3645140367642044,-0.8584785315543413,1.831424569287896
1789031215119054800,8.492054931640626,0.7062257768601179,0.4007752417065203,0.9125164112120866
1789031215129061600,8.5020615234375,0.8752449574381113,0.3152227182358503,0.7156722351193427
1789031215139067600,8.512067626953124,1.9058184237539768,-0.5924696338206529,0.9287012378156184
1789031215149074700,8.52207470703125,3.6756373084783553,-0.30759529209733005,-0.8447557111501693
1789031215159081700,8.532081787109375,4.718929678852856,0.18464491199404,-3.3391900159060954
1789031215169087700,8.542087646484376,2.977261368335783,0.7364733233466744,-5.936117311409116
1789031215179094800,8.5520947265625,-0.06349661287665367,1.5256266820013522,-7.583470092415809
1789031215189100800,8.562100830078125,-2.020193283213675,2.1253844270035622,-6.781591984483599
1789031215199107600,8.572107666015626,-2.4985887940868734,1.6837655721247196,-3.4098879384636875
1789031215209115000,8.582114990234375,-0.9576818331062793,-0.37310090670883655,1.3770020546764135
1789031215219120600,8.59212060546875,-1.5875874636128544,-2.7736802852034566,7.198463059335946
1789031215229127700,8.602127685546876,-3.3708912683323025,-4.0425013666242355,11.373598872470856
1789031215239133700,8.6121337890625,-4.335737001718581,-2.4072779993504283,10.91145949987173
1789031215249140700,8.622140625,-5.103395152401924,-1.3607096760451793,9.067591628596187
1789031215259147500,8.6321474609375,-6.381661523038148,-0.8931845187544822,6.9178481286227695
1789031215269153500,8.642153564453125,-5.812781439119577,-1.5257038388907909,6.259301802304387
1789031215279160800,8.652160888671874,-4.570908570379019,-2.283890104612708,6.58533759097755
1789031215289166600,8.66216650390625,-1.9016259405001996,-1.9050953701764344,6.352963251820206
1789031215299173600,8.672173583984375,-0.5836302015438676,-0.1824468174278736,3.757586692890525
1789031215309180700,8.6821806640625,0.07361790165752172,0.25137422318160535,1.5390461355447769
1789031215319186700,8.692186767578125,-0.07472732420414686,-0.2355640751093626,1.9391928700894117
1789031215329193500,8.702193359375,-2.0912088934183117,-0.301718801279366,2.3451474141299724
1789031215339199700,8.71219970703125,-3.1110771335855123,-0.8847574666708707,3.6656945911347862
1789031215349206800,8.722206787109375,-2.953113600029051,-1.5766548584491014,4.629444345977902
1789031215359213600,8.732213623046874,-1.846540597616136,-2.0949048253268003,4.079894985473156
1789031215369219800,8.7422197265625,-0.44336715985089536,-2.442936172708869,3.133722972896695
1789031215379226600,8.7522265625,0.6173676359727979,-1.9086609537035226,2.0651333719193934
1789031215389233700,8.762233642578124,1.740783636637032,-0.7277686233654618,1.2509803043037653
1789031215399239700,8.77223974609375,2.482736268177628,-0.0830541307836771,1.3008423595815897
1789031215409246700,8.782246826171875,1.355458331388235,0.7679048189207911,0.23535247818529603
1789031215419252700,8.792252685546876,1.396074419414997,1.0893895201608539,-0.9296966785937547
1789031215429259800,8.802259765625,1.6297592566490173,0.9502405771896243,-1.593863767403364
1789031215439266600,8.8122666015625,0.8869242893159389,0.6468827765315771,-1.847476709422469
1789031215449272600,8.8222724609375,0.34561142675876616,-0.06565495995432138,-0.722917383942008
1789031215459280000,8.83227978515625,-0.03488514315932989,-0.357570160099864,0.4884130470186472
1789031215469285600,8.84228564453125,0.43067718962579965,-0.4999877494782209,1.059065985828638
1789031215479292700,8.852292724609375,0.8856365875929594,-0.8924076891630888,1.7270219455271958
1789031215489299700,8.8622998046875,-1.1915665768265724,-0.8103980989962816,2.156355611589551
1789031215499305700,8.8723056640625,-2.6988433631449937,-0.7787979688569903,3.2783436252772806
1789031215509312500,8.8823125,-1.7643752323657274,-0.7904691174283623,3.8118700717419385
1789031215519318300,8.892318359375,0.951727308616042,-0.3176259799852967,2.1198107185244557
1789031215529325600,8.90232568359375,2.929926493448019,0.28395445039942857,-0.5372545270770788
1789031215539332400,8.912332275390625,2.3819342992573973,1.041805346687138,-2.3237626807957885
1789031215549338400,8.92233837890625,1.9620435843229294,0.7991247175708412,-2.9957173547416924
1789031215559345400,8.932345458984376,0.4609890335202217,-0.5353969165116548,-2.8918659351229667
1789031215569351400,8.942351318359375,-0.5367553453832864,-1.271020783422142,-1.5842080503076315
1789031215579358500,8.9523583984375,-1.6085256222233175,-1.4469804307878016,1.2377046431452035
1789031215589365500,8.962365478515625,-1.778253243331611,-1.4687057942532002,3.9687615921527146
1789031215599371500,8.97237158203125,-0.08387070786356926,-0.9575291267625987,4.617019164168834
1789031215609378300,8.98237841796875,1.0367910256564616,-0.2650459709856659,4.0846313663452865
1789031215619384600,8.992384521484375,0.23344459873735904,0.5647707854362204,3.3722096574544906
1789031215629391400,9.002391357421875,0.29828210482895373,0.5092017506884411,2.598387431183457
1789031215639398400,9.0123984375,1.0798936698019503,-0.43376773951966313,0.654266457042098
1789031215649404400,9.022404296875,2.012831522274017,-1.4632649183735251,-0.9236170664191246
1789031215659411500,9.032411376953124,2.196372564679384,-2.698188698628545,-1.1375596768289804
1789031215669418200,9.042418212890626,2.276765367299318,-2.6664193494021893,-1.3729723607689142
1789031215679424500,9.052424560546875,0.9445505488544702,-1.9450790055185556,0.2711123583525419
1789031215689431600,9.062431640625,-0.9035293871581553,-0.6607395985789597,1.063418920341134
1789031215699437300,9.072437255859375,0.23031974471509456,-0.055088850015401834,-0.4871072251170873
1789031215709444600,9.082444580078125,0.13962766639888285,-0.5483864542052149,-2.41885679346323
1789031215719451400,9.092451416015624,1.346675889995694,-0.886344881992787,-3.283816503730416
1789031215729457400,9.10245751953125,3.710537941467762,-1.2588180121921002,-3.4972599324464797
1789031215739464400,9.11246435546875,3.8588568638443945,-1.9153874854795634,-3.5381951694250104
1789031215749470500,9.122470458984376,3.4840590900897976,-2.417763737529516,-3.3014930301964283
1789031215759477500,9.1324775390625,2.800927773091197,-2.8650290738627313,-2.778008085274696
1789031215769484500,9.142484619140625,2.178492624595761,-3.0025659054622054,-3.329894948816299
1789031215779490600,9.152490478515626,2.126616306886077,-1.9721910304583607,-4.467606016814709
1789031215789497300,9.162497314453125,2.060885651347041,-0.7538667950876057,-5.230602313166856
1789031215799503600,9.172503662109374,1.9717408024728298,0.14838526561111212,-5.70882129842937
1789031215809510400,9.182510498046875,2.2858383160710334,0.5698376769043505,-5.368141482853889
1789031215819517400,9.192517333984375,3.164816614818573,-0.5575644707866013,-4.0863709034889935
1789031215829523500,9.2025234375,3.4966146202802655,-2.2952033796571194,-3.5892309446573254
1789031215839530500,9.212530517578125,2.1358856550127268,-2.085155292467773,-5.3115229390531775
1789031215849536500,9.22253662109375,1.188079903754592,-1.4116450596429406,-6.949223510095477
1789031215859543600,9.23254345703125,1.2639005761533975,-1.2634624769970775,-6.921451706072688
1789031215869550600,9.242550537109375,1.4803198058098554,-0.4599563294716179,-6.152780871215462
1789031215879556400,9.252556396484374,2.2266385236054655,0.6532029194638133,-5.648088305047154
1789031215889563600,9.262563720703126,3.13018895355165,1.2045804452437907,-5.250502945423126
1789031215899570400,9.2725703125,2.2276474083870648,1.4025060598976908,-4.73685375033915
1789031215909576400,9.282576416015624,-0.0866571237117052,1.7420038260817527,-4.090196599256992
1789031215919583500,9.29258349609375,-0.7450517665997147,2.0053757994405923,-2.7006045275986192
1789031215929589500,9.302589599609375,-0.283919232955575,1.9641079695068298,-0.9706032739996909
1789031215939596300,9.31259619140625,1.0492349121659994,1.2957498587481677,0.9975088165819644
1789031215949603600,9.322603515625,1.2008967152297496,-0.18812661662995814,2.7789778070896864
1789031215959609600,9.332609619140625,-0.08250409568548202,-1.226061697755009,3.7897196147322654
1789031215969616400,9.342616455078126,-1.4518869075298309,-1.7547034409180282,4.230558425149321
1789031215979622400,9.352622314453125,-2.5452824484616516,-1.4250366022661327,3.9897506041675803
1789031215989629400,9.36262939453125,-1.873484426382184,-0.6949862246390431,3.598355331355333
1789031215999636500,9.372636474609376,-0.7109677106902003,-0.7727256632059812,3.526948383745551
1789031216009642200,9.382642333984375,-0.4560042308449745,-1.3972512081094086,3.9493209786236285
1789031216019649500,9.3926494140625,-0.47405368227660655,-2.0278034659564494,4.46195310561955
1789031216029655600,9.402655517578125,-0.7850812869101762,-2.5159534781247377,4.516738588774204
1789031216039662300,9.412662353515625,-1.5026906275719403,-2.352058362562209,3.376410031753778
1789031216049669600,9.422669677734374,-1.4525471250042319,-2.0491160108372566,2.3571739520102737
1789031216059675400,9.43267529296875,-0.7192556465640664,-2.088076148350537,2.2600392734259365
1789031216069682400,9.442682373046875,0.4512254721358418,-2.2051403930246827,2.016209474274516
1789031216079689500,9.452689453125,1.6622493213653564,-2.3680711935997008,1.9644290181547401
1789031216089695500,9.462695556640625,0.4318915338516235,-1.3235752926543354,0.9741139124691486
1789031216099702300,9.472702392578125,-0.7702665796160697,0.06068856971859932,-0.23986031099855898
1789031216109708500,9.48270849609375,-1.1793053534075617,0.7453264918878674,-0.8543991532862186
1789031216119715300,9.49271533203125,-1.232548867817223,1.1740765128433703,-0.8933376634895801
1789031216129722400,9.502722412109375,-0.43457916550040243,1.2824044933542609,0.38195699785947795
1789031216139728600,9.512728759765626,-0.5116343481302261,1.34550859978199,1.9289964702457187
1789031216149735400,9.5227353515625,-1.7180784683540462,1.4471934890165925,2.805420408335328
1789031216159741400,9.532741455078124,-2.5920228645876047,1.740356351135671,3.5438463270545
1789031216169748500,9.54274853515625,-2.5063342936471105,1.8115236447706817,4.369305801582336
1789031216179755500,9.552755615234375,-1.3561474826961755,1.5653113343968987,5.527832863116264
1789031216189761300,9.56276123046875,-0.8914841445773839,1.2941861165627837,6.222434837678074
1789031216199768600,9.5727685546875,-1.1871464222967625,0.9008978696107864,5.887789626091719
1789031216209775400,9.582775390625,-0.8864476117148995,0.25766134062707424,4.2688335030078886
1789031216219781400,9.592781494140626,-0.8724807534217834,-0.7589554965287446,1.58766082111001
1789031216229788400,9.602788330078125,-1.7763912488520144,-1.8989821479931472,-0.7243547232687473
1789031216239794400,9.61279443359375,-2.2877403503000733,-2.773474533498287,-1.1214794796437024
1789031216249801500,9.622801513671876,-1.8178206990882753,-2.9911224281668662,0.7352566410332918
1789031216259808500,9.63280859375,-0.8131433060511947,-1.9397987270280717,2.806429877638817
1789031216269814500,9.642814453125,0.23355127398222683,-0.9219541016429662,3.2797108219772575
1789031216279821300,9.6528212890625,0.5893129233554005,-1.1853969482809303,2.8429227482557295
1789031216289827300,9.662827392578125,-0.10960632988363504,-1.7589345026165246,1.265706748792529
1789031216299834400,9.67283447265625,-0.22784692486077546,-1.9034709838449955,-0.3505886306494474
1789031216309841400,9.68284130859375,-0.07355418877154589,-1.9345429984569549,-0.2993541179746389
1789031216319847400,9.692847412109375,-0.6454653109490871,-1.0311696786433457,0.058768999832868575
1789031216329854500,9.7028544921875,1.0172583499297498,-0.04044891476631164,1.23142629352808
1789031216339860500,9.712860595703125,2.3351956366971134,0.41517800719887016,1.999523127889633
1789031216349867300,9.7228671875,2.0330065875574945,0.7981304458364844,1.437719850489497
1789031216359874600,9.73287451171875,1.1661337371453642,1.0695423716574908,0.6568319236159325
1789031216369880300,9.74288037109375,-0.6686348818734288,0.8984475538492203,1.076205336678028
1789031216379887400,9.752887451171874,-2.008749221396446,0.6635048255085945,2.4944056631833313
1789031216389894400,9.762894287109376,-0.952674818599224,0.7657388730585575,3.458994791460037
1789031216399900400,9.772900390625,0.9236346020758152,0.6874917041651905,3.287459828668833
1789031216409907500,9.782907470703124,1.0843620473876594,0.5818542779125273,2.4774340701162814
1789031216419913500,9.79291357421875,-1.0873910398200153,1.1586395819976925,0.3717699503660202
1789031216429920500,9.80292041015625,-2.639473767070472,1.2169574770621954,-0.3270259687542915
1789031216439927300,9.81292724609375,-3.2341546471998095,0.2870458405435085,0.3662228376328945
1789031216449933600,9.82293359375,-2.378128184972703,-1.318488490909338,2.263233685553074
1789031216459940400,9.8329404296875,0.20932985591739414,-2.7552397886276245,3.85366221781075
1789031216469946400,9.8429462890625,0.8678335121378302,-3.592112053051591,2.7079800248026844
1789031216479953400,9.852953369140625,0.09496025715470313,-3.6421617398560047,0.9549223052650689
1789031216489960400,9.86296044921875,-0.2422685411840677,-3.5374013886988163,-0.5419406390666961
1789031216499966500,9.872966552734376,0.45145606602132315,-3.124764882676303,-2.329426113384962
1789031216509973500,9.882973388671875,1.6349395818963646,-2.8747864977672695,-2.303310259875655
1789031216519980300,9.892980224609374,1.3616577705502508,-2.379822713930905,-1.0903016665697096
1789031216529986000,9.902986083984375,1.3469295724958181,-2.081690538966656,0.5202478626966476
1789031216539993300,9.912993408203125,1.091199784453213,-1.9611682627931235,1.5708353585153818
1789031216549999400,9.922999267578126,1.1724369289427996,-1.9625433505386114,1.3736363776355982
1789031216560006100,9.933006103515625,1.3292442782014608,-2.059743057183176,0.05042962603271007
1789031216570013200,9.94301318359375,1.4242670791983603,-1.5791630418777465,-1.8040233521431683
1789031216580019200,9.953019287109376,1.1240192272543907,-0.3419122799798846,-3.64761591360867
1789031216590026200,9.963026123046875,1.3646113596588372,0.8840705073200166,-4.54007737878561
1789031216600032000,9.973031982421874,1.2245122763559222,1.026869204970449,-4.674603922653198
1789031216610039300,9.983039306640626,2.0639009075149892,-0.6787357123881578,-4.3643455488264555
1789031216620046000,9.993046142578125,2.3566256704777477,-2.2413021319910884,-4.074761714237928
1789031216630052000,10.003052001953124,0.633369214963913,-2.2818010233789683,-4.488511442199349
1789031216640059100,10.01305908203125,-0.08205927452743053,-1.0419140677586198,-5.011844995951653
1789031216650066200,10.023066162109375,0.5954729072898626,0.8469776249833405,-5.06768729468286
1789031216660072200,10.033072265625,2.434497430187464,2.007223619264364,-4.891004447609186
1789031216670079200,10.043079345703125,2.8382494957476854,0.23119813498482106,-3.4778310093551874
1789031216680085200,10.053085205078125,1.2875228592813015,-2.0212962760195134,-2.6147698261857033
1789031216690092000,10.063092041015626,-0.6104878133311867,-2.1638103115096685,-2.2253215957880017
1789031216700099300,10.073099365234375,-1.9699603487968445,-0.8104981983698905,-1.8462205718815325
1789031216710105000,10.08310498046875,-0.9304507118314504,-0.4009292632244527,-0.9424375022232532
1789031216720112000,10.093112060546876,1.4272539860546587,-1.153257450567931,-0.26799159598350525
1789031216730118400,10.103118408203125,2.3422858872190115,-1.288929072817415,-1.2714976071536541
1789031216740125200,10.113125244140624,1.6035428653746842,-0.11706877471879124,-3.8772307249248024
1789031216750132000,10.123132080078125,0.9793950677424669,-0.8486804833784699,-3.887711202406883
1789031216760138200,10.13313818359375,-0.8502116384685039,-1.1519267864860594,-2.7308488592147824
1789031216770145300,10.143145263671874,-0.4773319732949137,-0.7427597101397811,-1.4507704707205296
1789031216780152000,10.153152099609375,0.15724807876348496,0.22116890840157866,-1.6287907038778067
1789031216790158300,10.163158447265625,2.0429829149097203,0.6782376997381449,-2.451664253565669
1789031216800165000,10.1731650390625,2.610931270936131,0.833498257946223,-2.708182269376516
1789031216810171100,10.183171142578125,2.6190605091169474,1.1140161580257117,-2.8976117852985857
1789031216820178200,10.19317822265625,2.1347347314119336,1.1701646000966428,-3.3420576802968975
1789031216830185200,10.203185302734376,1.831844256004691,0.9291741160243749,-3.7900118756771084
1789031216840191200,10.213191162109375,1.4570745393007993,0.6192494311314076,-4.235379561695456
1789031216850198300,10.2231982421875,1.1950205166727303,0.07285272597130388,-3.752266959172487
1789031216860204300,10.233204345703125,1.547593306876719,-0.834705368713662,-2.876701099216938
1789031216870211000,10.243211181640625,2.1423034131005405,-1.6418436621963977,-2.3605612563610077
1789031216880218400,10.25321826171875,1.7777321420669554,-2.1769917185135186,-2.067165754529834
1789031216890224000,10.26322412109375,1.2867363850787281,-1.7486974785014986,-2.69972599119842
1789031216900231200,10.273231201171875,1.540836526092887,-1.515901114539802,-2.9027053090453148
1789031216910238200,10.28323828125,0.9051263009607792,-1.3472509134046733,-2.574288178193569
1789031216920244200,10.293244140625,-0.513251427938044,-1.0687396769724786,-1.3641636158913373
1789031216930251000,10.3032509765625,-1.192059621040523,-0.816654529042542,1.0882990945756434
1789031216940257300,10.31325732421875,-0.9278229936763643,-1.0655576859354972,4.110509319445491
1789031216950264300,10.323264404296875,0.18382482778280973,-2.166583429484814,7.23840577814579
1789031216960271000,10.33327099609375,-0.4869955814361572,-2.56470026563704,8.619058756545186
1789031216970277400,10.34327734375,-1.7677271731421351,-2.8862168233200904,9.069974139818548
1789031216980284200,10.3532841796875,-3.626123628246784,-3.417571186442673,8.476735275191068
1789031216990290200,10.363290283203124,-3.910554317855835,-4.079135399277508,7.724413517588377
1789031217000297200,10.373297119140625,-2.8023341327577826,-3.6767870630353685,6.698554804834723
1789031217010304300,10.38330419921875,-2.0752108215585348,-2.3613106134235857,4.825861821091175
1789031217020310300,10.393310302734376,-0.6960086264893413,-0.9667767014488577,3.4033383706897493
1789031217030317300,10.4033173828125,-0.5460556731700897,-0.06529109507799148,2.216584162580967
1789031217040324000,10.413323974609375,-0.6490469688281416,0.19054566047042606,1.6179986762285232
1789031217050330000,10.423330078125,-1.805721388232708,0.34969635798484083,1.143892386981845
1789031217060337400,10.43333740234375,-2.2650766830712556,0.8288760049730539,0.33856618442237374
1789031217070343200,10.44334326171875,-1.49837364115566,1.413463653372228,-0.7001221992880106
1789031217080350200,10.45335009765625,-1.001532665270567,1.963629392209649,-1.7554589354604482
1789031217090357200,10.463357177734375,-0.40274814921468494,2.0350901158332824,-1.968838066768646
1789031217100363300,10.47336328125,0.1136228720486164,1.496257087393105,-0.8243500519812107
1789031217110370000,10.4833701171875,-0.5968100011125207,1.6779653614133596,0.41848377074599263
1789031217120376000,10.4933759765625,-0.9107356652751565,1.8746435332894325,1.757139435893297
1789031217130383400,10.50338330078125,-1.278228376713395,1.8659622141838073,2.129596199479699
1789031217140390100,10.51339013671875,-0.8340256428211927,1.922097650642693,1.2748194450527428
1789031217150396200,10.523396240234375,-0.3430558970570564,1.9168369536355137,0.6148603293269872
1789031217160403200,10.5334033203125,-0.7414896902039647,1.8165479026734828,0.3344207551807165
1789031217170410200,10.54341015625,-0.6476970155239105,1.3862164577454328,1.070873328000307
1789031217180416000,10.553416015625,-1.064944814734161,0.9381757531255484,1.4866513469189404
1789031217190423300,10.56342333984375,-0.4521373262837529,0.4157499618679285,2.1113263832956553
1789031217200429300,10.57342919921875,-0.8271011042550206,-0.4317766753003001,2.704547712266445
1789031217210436000,10.58343603515625,-0.8719535146772861,-1.594483360606432,3.650515726703405
1789031217220443100,10.593443115234376,-0.5901134260833263,-2.700373641452193,4.529201179984212
1789031217230449200,10.60344921875,-0.11627104846984147,-3.5581951704025268,4.8420583381325
1789031217240456200,10.613456298828124,-0.006119651924073695,-3.8815468345582484,3.707844464600086
1789031217250463200,10.623463134765625,-0.4840723874658346,-3.0914234618276355,0.8440963704586029
1789031217260469200,10.63346923828125,-0.9447869879588484,-2.1034597415737806,-1.047676576808095
1789031217270476000,10.64347607421875,-2.3771558328092097,-1.1486791828669607,-1.1347387741893529
1789031217280482300,10.653482421875,-2.7086478410616515,-0.4697384494259953,0.5767541782945395
1789031217290489000,10.663489013671875,-0.8945511309325694,-0.5632642898634076,2.992038373968005
1789031217300496100,10.67349609375,0.846444102628529,-0.5480399788551032,4.561347545829415
1789031217310502400,10.68350244140625,0.8607184194356202,-0.23444997638761997,4.668541261613369
1789031217320509200,10.69350927734375,-0.8077101750865578,0.4233011078998446,3.2290818739801646
1789031217330515200,10.70351513671875,-1.4289125669166445,0.4524492417771369,2.6007629281431437
1789031217340522200,10.713522216796875,-1.262741761507094,0.4433949246406555,1.6432769098699092
1789031217350529300,10.723529296875,0.1874438950628042,0.32486426067575813,0.0237982242166996
1789031217360535000,10.73353515625,1.8471052457615733,-0.3987343104634434,-0.7984586548775434
1789031217370542300,10.743542236328125,1.6461267463430762,-0.7510206118762492,-1.204683832553029
1789031217380549000,10.753549072265624,0.42738837721347805,-0.9339677069764584,-0.9013958822607994
1789031217390555100,10.76355517578125,-0.5673489288285374,-0.8695852511759847,-0.2648725871801376
1789031217400562200,10.773562255859375,-0.9987705070808529,-0.9911708457320928,0.5284095418423413
1789031217410568200,10.783568115234376,-0.8659019595533609,-1.10845662420243,0.6097276426136493
1789031217420575200,10.7935751953125,-0.5875643261224031,-1.4669479908004401,0.7130214283496141
1789031217430582300,10.803582275390625,-0.9907090734392404,-1.4449692370958624,-0.14459551793932915
1789031217440588300,10.81358837890625,-0.09735767368525267,-1.0878826227292417,-0.9587187749385833
1789031217450595000,10.823594970703125,0.12922434580624104,-1.1171717725124208,-1.0935755736738442
1789031217460602400,10.833602294921874,0.5127849794700742,-1.7470635936893522,-0.26453824065923687
1789031217470608100,10.843608154296875,0.8929977640107274,-2.8240128806024787,1.3561527433931826
1789031217480615200,10.853615234375,1.0689692479446529,-3.762265790617466,2.6487738025963306
1789031217490621200,10.86362109375,1.2053203768908978,-4.1354041067272425,2.4188819279044864
1789031217500628200,10.873628173828125,1.5654782153964042,-3.4438773018270727,0.41718437858521934
1789031217510635300,10.88363525390625,1.803910247157514,-1.1257155097782612,-3.175169082006812
1789031217520641300,10.893641357421876,2.7449744152009488,1.211323416697979,-6.951725263783335
1789031217530648300,10.9036484375,3.9833892524421213,-0.12760975021645427,-6.743644238883257
1789031217540654300,10.913654296875,2.239068381589651,-0.8109510567039251,-6.217235515469312
1789031217550661400,10.923661376953126,2.0860452270448206,-1.9489049935474991,-5.199061511999369
1789031217560668200,10.933668212890625,0.7239470192506909,-1.7773339365296066,-5.208564668881893
1789031217570674400,10.94367431640625,0.6393365989357233,-0.7755567949786781,-5.538484020990133
1789031217580681200,10.95368115234375,2.90058817076087,-0.3363521616347134,-6.449285444977879
1789031217590688300,10.963688232421875,3.777142457231879,-0.6464500842027365,-6.7446449403584
1789031217600694500,10.973694580078124,3.1510347577035427,-1.0025552863165736,-6.960602397722005
1789031217610701300,10.983701416015625,2.339862751725316,-2.087812236717343,-6.082050215432047
1789031217620707300,10.993707275390625,-0.05130582434535026,-1.7659559256859123,-4.851405427670478
1789031217630714400,11.00371435546875,0.02857698292583227,-0.3752919870123267,-4.256781246164441
1789031217640721400,11.013721435546875,0.004554594564437866,-0.9561574000179767,-3.336352162131667
1789031217650727200,11.02372705078125,0.2272401911392808,-1.0257064448013902,-2.420735446816683
1789031217660734500,11.033734375,0.2848848631173372,-0.148134651850909,-1.606051633325219
1789031217670741200,11.0437412109375,0.6286717047974467,-0.0701917266011238,-1.503672039824724
1789031217680747300,11.053747314453124,0.47855859248042104,0.029277240149676798,-2.164981401115656
1789031217690754300,11.06375439453125,-0.09948737919032573,0.7559795494578778,-2.4297552040964363
1789031217700760300,11.07376025390625,-0.8006774999707936,1.4156076796635984,-1.4302397238671778
1789031217710767400,11.083767333984374,-0.5433332624688744,1.0394316032931208,1.4096885187476873
1789031217720774400,11.0937744140625,-0.2812631654888391,-0.47407998576164245,4.371045923247933
1789031217730780400,11.103780517578125,0.8709048824071883,-2.4660481682270765,5.476743311870098
1789031217740787200,11.113787109375,1.3931284290909767,-3.682683719858527,4.410854786545038
1789031217750794500,11.12379443359375,0.5132619493320584,-2.221504083326459,-0.12641221099495886
1789031217760800300,11.13380029296875,0.5601701232403516,-1.2335197586759925,-2.695433262440562
1789031217770807300,11.143807373046876,0.07130845567137002,-0.3942168695716187,-4.160317014187574
1789031217780813300,11.153813232421875,2.056425164806843,0.19304799868017433,-4.271257515284419
1789031217790820400,11.1638203125,3.048338937860727,-0.380550272866711,-3.4964749195486307
1789031217800827400,11.173827392578126,1.779167143306136,-0.16459785700440405,-4.292810006400942
1789031217810833200,11.183833251953125,0.9301920608952641,0.09764408941119909,-4.919592828711867
1789031217820840400,11.19384033203125,-0.23096827175170181,0.2620002466142177,-4.519297041085363
1789031217830846200,11.20384619140625,-0.28858868607133625,0.11328881778866053,-2.575335056897998
1789031217840853200,11.213853271484375,1.4082666692510246,-0.30854850116893645,-0.26744565253853797
1789031217850860300,11.2238603515625,2.671491538099944,-0.19517273574918506,1.4485440268427132
1789031217860866300,11.2338662109375,2.376746667486429,-0.5770186744496226,3.4421137992858886
1789031217870873000,11.243873046875,-0.44560909355878825,-0.4733391042664647,4.015729679554701
1789031217880880400,11.25388037109375,-3.4667151565790175,-0.24992782376557587,4.3267642984509465
1789031217890886400,11.263886474609375,-5.109744229167699,-0.7711322565346955,6.012860943871736
1789031217900893200,11.27389306640625,-5.064360780608654,-1.8010814534723758,8.196566334679723
1789031217910899500,11.2838994140625,-3.4603944291248916,-2.8932343008667227,10.097046320015192
1789031217920906200,11.29390625,-1.3120607959493993,-3.0133667009398337,10.222705666816234
1789031217930913300,11.303913330078124,-0.9030486179038881,-1.7074924846708774,8.058271378189325
1789031217940919300,11.313919189453125,-1.8890166342958807,-0.04787818798422813,5.334702739110589
1789031217950926300,11.32392626953125,-4.164693037314713,0.5991174012720585,4.264375939077139
1789031217960933000,11.33393310546875,-4.007681982177496,-0.35115620140433307,5.588080703330039
1789031217970939400,11.343939453125,-2.2629934470564126,-1.0922291275009512,6.382829397773742
1789031217980946200,11.3539462890625,-0.4825751346454024,-1.0342302352577448,4.782988894048333
1789031217990952200,11.3639521484375,0.9665139588594436,-0.6604679420307278,1.7560551477879285
1789031218000959500,11.37395947265625,0.7515791225418448,-0.08252864560484886,-1.4522294373571871
1789031218010966300,11.38396630859375,0.18798896172493695,-0.3212424169167876,-2.7822318404495716
1789031218020972300,11.39397216796875,-1.4564239664375782,-0.8459288465827703,-2.5729256576687094
1789031218030979300,11.403979248046875,-1.51722914827317,-1.246116789920628,-0.8278677047133445
1789031218040986400,11.413986328125,-2.012263074736297,-0.5219008906006812,1.0877893914878367
1789031218050992000,11.4239921875,-1.311214992775023,0.6536167609617114,2.09229435056746
1789031218060999400,11.43399951171875,0.8426347734734415,1.2273185659483075,1.669674502930045
1789031218071005400,11.44400537109375,1.6167872546121478,2.111010741475224,-0.3724532564550638
1789031218081012200,11.45401220703125,1.9393240952536464,2.6814561750143766,-2.1137650086194277
1789031218091019500,11.46401953125,1.061449373833835,2.733969913844764,-3.1136785482555625
1789031218101025300,11.474025390625,0.04347089293599128,2.730311391337216,-3.2034821532994506
1789031218111032300,11.4840322265625,-0.936781376157701,2.4135692084491254,-2.302092116257548
1789031218121039400,11.494039306640625,-1.2919430138111114,1.3715432047486305,-0.792155755341053
1789031218131045400,11.50404541015625,-0.7070519985511898,0.10363397747576236,0.19783844782710075
1789031218141052200,11.51405224609375,-0.2758741659268737,-1.11774467702955,0.7480138312757014
1789031218151058400,11.524058349609374,-0.11112024157792329,-2.161623907381296,1.4143968425691127
1789031218161065200,11.534065185546876,-0.6085390173509717,-2.5977771903306244,2.2972148656100035
1789031218171072300,11.544072265625,-1.130479070918262,-1.9001646357759832,2.9876322479635475
1789031218181078500,11.55407861328125,-0.9775026781246066,-0.6325821562394499,3.1374872938662763
1789031218191085300,11.564085205078126,-0.33677667065709826,-0.05376198532581329,3.4899025554209944
1789031218201092400,11.57409228515625,-0.6140379070281982,-0.05900237019732594,3.7346716812491416
1789031218211098400,11.584098388671874,-1.2185992529198526,-0.45558030634447927,4.275008976772427
1789031218221105400,11.59410546875,-2.2534297921583053,-1.604302451570332,5.540811002632975
1789031218231111200,11.604111083984375,-2.776910353165865,-2.3061044206388295,6.62146162828207
1789031218241118500,11.614118408203124,-1.5673495622262357,-2.438787820857763,7.037801957258582
1789031218251125200,11.624125244140625,-0.18974281965494155,-1.8868480580851434,5.933585747104883
1789031218261131300,11.63413134765625,0.3402382092878222,-1.2886523017026483,3.6714638221859928
1789031218271138300,11.64413818359375,0.2180839479982853,-1.2240244928389787,1.6699609186559914
1789031218281145300,11.654145263671875,0.16447013897150753,-1.8750551828302442,0.9025754474341868
1789031218291151400,11.6641513671875,-0.31720103257149457,-2.276252010949701,0.6057488021105527
1789031218301158400,11.674158447265626,-0.17077713016122578,-2.320392035318911,0.9190653944641352
1789031218311164400,11.684164306640625,0.22268705787956714,-2.141079862654954,0.4653326156824827
1789031218321171200,11.694171142578124,1.1197601085051894,-1.8610545683979987,-0.9190811765551566
1789031218331178500,11.704178466796876,1.6980343359738588,-1.1361072860635817,-3.240090174728632
1789031218341184300,11.714184326171875,1.9229194884195924,-1.2100160604264587,-4.173989565709233
1789031218351191300,11.72419140625,0.6935849064737558,-1.8026738372303543,-4.041968867182732
1789031218361197300,11.734197265625,0.20270400803685187,-1.8572766572944819,-3.6740643600732086
1789031218371204400,11.744204345703125,0.6659504650950432,-1.2100479899346828,-2.8891993462622163
1789031218381211400,11.75421142578125,0.32108342696279285,-0.49409766852632164,-1.5899340267390012
1789031218391217200,11.764217041015625,0.3890779357805848,-0.12079933954924345,-0.7762380552411079
1789031218401224400,11.774224365234375,2.3670944575220343,-0.9628525137424468,-1.2755150261014698
1789031218411231200,11.784231201171876,3.6469831686630845,-3.0840608241051433,-2.278759171465039
1789031218421237200,11.7942373046875,2.8025755402982235,-3.8319150809049605,-4.394069655960798
1789031218431244300,11.804244384765624,0.228121942409873,-1.8242057239502667,-7.276479780474305
1789031218441250300,11.814250244140625,-0.04449263719916344,1.2210656430333853,-7.803487054303288
1789031218451257300,11.82425732421875,0.38565351428985595,1.9622575193345546,-4.3867654704272745
1789031218461264400,11.834264404296874,0.925880335175991,0.2400344985216856,-1.5365759460389614
1789031218471270400,11.8442705078125,3.072068188494444,-2.800670583459735,-1.2259054842799901
1789031218481277200,11.854277099609375,2.2966589852929116,-3.6031367204129694,-1.783816430416703
1789031218491284500,11.864284423828124,0.015321487772464752,-1.8038032796517014,-1.6449842983096836
1789031218501290200,11.874290283203125,-0.9648387191236019,0.6804059836879373,-1.7967600831419228
1789031218511297300,11.88429736328125,1.232795243793726,1.876509327161312,-3.0717309193640947
1789031218521303300,11.89430322265625,0.22357406984716652,-0.04566694167554378,-2.153548152953386
1789031218531310600,11.904310546875,0.5186825130760669,-0.09287760566174984,-2.724092370691895
1789031218541317400,11.9143173828125,1.9886749861389397,-0.6641966071650386,-2.2629542840898034
1789031218551323400,11.924323486328126,0.2763908832773566,-0.589013648147881,-3.235809720930457
1789031218561330400,11.934330322265625,1.0952513979315757,-0.5697321707032621,-3.9654157888561485
1789031218571337500,11.94433740234375,0.1328121411651373,-0.13093524137735366,-4.471085091102123
1789031218581343500,11.954343505859375,0.23955957448631524,0.5448908671744167,-4.709555993568897
1789031218591350500,11.9643505859375,1.9502844652071594,0.5508231798328459,-3.698295715010166
1789031218601356500,11.9743564453125,2.0076929903417824,0.47053836763203144,-2.9098709628909822
1789031218611363300,11.98436328125,1.6473925284951925,-0.07001534712091088,-1.9284522803664206
1789031218621370600,11.99437060546875,-0.04177665623873472,-0.18193967162333427,-2.05148770840466
1789031218631376400,12.00437646484375,0.6120405957311391,-0.7537547130152583,-1.5106892251104116
1789031218641383400,12.014383544921875,0.6373439638137817,-1.825934447439015,0.046024084550142286
1789031218651390500,12.024390380859375,0.7096417227834463,-1.9967691530063747,0.6208534322619438
1789031218661396500,12.034396484375,1.7558920661807058,-2.357183304360509,-0.060383449292182916
1789031218671403500,12.044403564453125,2.0620938580930233,-2.4784964386507866,-1.3401906196296214
1789031218681409300,12.0544091796875,1.4231228775992988,-2.2189324792727825,-2.6543746913433073
1789031218691416600,12.06441650390625,0.25872955438047646,-1.5532488484203815,-3.4640018059670923
1789031218701423400,12.07442333984375,-0.40050826133340595,-0.7983132550574839,-3.372015011665225
1789031218711429400,12.084429443359374,-0.07044803944975138,-0.26695933032631874,-2.447804071006179
1789031218721436400,12.0944365234375,0.8283727316260338,0.024537644407153128,-1.1932014845520258
1789031218731443500,12.104443359375,1.4753519542694091,-0.12444281061813235,0.427727984431386
1789031218741449500,12.114449462890626,1.7805796404525636,-0.6700175684034824,1.7920277939230203
1789031218751456500,12.12445654296875,1.7918819557115435,-1.6013390717200935,3.1956828777253627
1789031218761462500,12.134462646484375,0.3459162549242377,-2.2202479457855224,3.6325638904273507
1789031218771469300,12.14446923828125,-0.7844573097929358,-2.3111203491047023,3.3502994389414784
1789031218781476600,12.1544765625,-1.7880650277718901,-2.0779574899181723,2.59730080499053
1789031218791482400,12.164482421875,-2.247800554099679,-1.6079256105035542,2.1209581349939106
1789031218801489400,12.174489501953126,-2.672238557074964,-1.353923376905918,2.588912331351638
1789031218811496400,12.184496337890625,-3.238788152219355,-1.3468673209145665,3.7340409821301694
1789031218821502500,12.19450244140625,-3.210965494792163,-1.1420707245126367,4.828559974133968
1789031218831509200,12.20450927734375,-2.297875083084404,-0.5037701906263828,5.770186744496226
1789031218841515500,12.214515625,-1.4470461895003914,0.2377683071553707,6.698292354506254
1789031218851522600,12.2245224609375,-1.8246458689332008,0.8779615229204296,7.259731474769115
1789031218861529300,12.234529296875,-2.728378961969912,1.4123109762057662,7.074219424551725
1789031218871535600,12.24453564453125,-3.4858921507358547,1.622933794543147,6.141099785771965
1789031218881542400,12.25454248046875,-2.2289105601906773,0.8316890165671705,5.814762968325614
1789031218891549400,12.264549560546875,-1.791131429605186,-0.07170943768769503,5.0524675137192006
1789031218901555500,12.274555419921874,-1.0430766817972064,-0.7218602761045098,3.605240999215841
1789031218911562500,12.2845625,-0.6113888538241387,-1.604574838770926,2.527911042422056
1789031218921568500,12.294568603515625,-1.5084323860943316,-2.467482584944367,2.156120049268007
1789031218931575600,12.304575439453124,-1.8432117454543708,-2.6957228930369017,2.6922283289194104
1789031218941582300,12.314582275390626,-1.870375354450941,-1.8264573022693396,2.2131249620378015
1789031218951588400,12.32458837890625,0.5691913418248296,-0.7344879947483539,1.4948510199874638
1789031218961595600,12.334595703125,1.6824232176050542,0.34250790778547524,0.12451777555048466
1789031218971602400,12.3446025390625,2.2595585041716695,1.0056599743336438,-1.3592904568970203
1789031218981608400,12.3546083984375,2.034926741965115,1.2919371685922145,-2.49282277790606
1789031218991615500,12.364615478515624,1.2093310738369822,1.4395692777484654,-3.1170565002560613
1789031219001621500,12.37462158203125,0.5478866879895329,1.6481594212144612,-2.952196192923188
1789031219011628300,12.384628173828125,-0.31196313191801306,1.8105080379873513,-2.206458489885926
1789031219021635600,12.394635498046876,-0.684082334113121,1.4984420302167534,-0.8094283771812916
1789031219031641600,12.4046416015625,-0.20778350325822828,0.7513105347335338,0.8161877883136271
1789031219041648400,12.4146484375,1.2269281053259968,0.07264233462363481,1.693186895942688
1789031219051655400,12.424655517578126,2.5305171332672236,-0.4461082752525806,1.5187474438816309
1789031219061661400,12.434661376953125,2.9115155152276158,-0.6194663618177175,0.7307382868260145
1789031219071668500,12.44466845703125,1.6617492628887294,-0.2082405993759632,-0.3343015127152204
1789031219081674200,12.45467431640625,-0.1957689480766654,-0.030097470491379497,-0.6233417419463396
1789031219091681500,12.464681640625,-1.3918600165903567,-0.2349767767407,-0.07060615262091159
1789031219101688300,12.474688232421874,-0.7620625226333737,-0.31787761665880676,0.8645540520757437
1789031219111694300,12.4846943359375,0.6869710412919521,-0.19798297086432576,1.7457921124488114
1789031219121701400,12.494701416015625,0.026425942371785638,0.1996056766953319,2.316082063165307
1789031219131708400,12.50470849609375,-1.9051494384512304,0.6405893754757941,4.150519258272648
1789031219141714400,12.51471435546875,-3.79147288814038,0.7921589702114462,7.648162052556872
1789031219151721500,12.524721435546875,-2.5257579560413954,0.5135984147448093,10.52957965890169
1789031219161727500,12.5347275390625,0.4605845443725586,-0.26241034351876,9.72674994933307
1789031219171734300,12.544734375,1.2814558143272996,-1.1309353633183985,5.490654932844638
1789031219181741600,12.554741455078124,0.24039865565896032,-1.855145344354212,2.094802533996105
1789031219191747300,12.564747314453125,0.18439619792997836,-1.7893772794142364,0.2691758373320102
1789031219201754400,12.57475439453125,1.5048215021207927,-2.205718923565,0.0593166968435049
1789031219211761400,12.584761474609374,2.047628694888949,-2.6490479433625933,-0.4958575178056955
1789031219221767400,12.594767333984375,3.0304116515040396,-2.509921212223172,-0.2683808875620365
1789031219231774200,12.604774169921875,2.019351571692526,-2.41822200269103,0.6890735665291547
1789031219241780500,12.614780517578126,1.0076508558899164,-2.0532186238504946,0.785378224030137
1789031219251787500,12.62478759765625,0.5482189886838197,-2.191825861160457,1.1243237631589174
