time,seconds_elapsed,z,y,x
1789031206663549400,0.036549560546875,0.20881685614585876,-0.1980707347393036,-0.13285551965236664
1789031206673555500,0.046555419921875,0.4301660358905792,-0.4696865379810333,-0.17847147583961487
1789031206683562500,0.0565625,0.6270420551300049,-0.734616756439209,-0.2299189567565918
1789031206693568500,0.066568603515625,0.7105603814125061,-0.9518481492996216,-0.35054150223731995
1789031206703575300,0.0765751953125,0.7576024532318115,-1.127101182937622,-0.5066922307014465
1789031206713581600,0.08658154296875,0.8439408540725708,-1.2211698293685913,-0.6419464349746704
1789031206723587600,0.096587646484375,0.9936602711677551,-1.2951644659042358,-0.7143407464027405
1789031206733594400,0.106594482421875,1.143781304359436,-1.250325083732605,-0.7703331708908081
1789031206743600400,0.116600341796875,1.2461212873458862,-1.062329649925232,-0.7673970460891724
1789031206753607400,0.126607421875,1.255980372428894,-0.7638769149780273,-0.6889293789863586
1789031206763613400,0.136613525390625,1.1633366346359253,-0.4673844873905182,-0.5488223433494568
1789031206773620500,0.146620361328125,0.9995855689048767,-0.15273362398147583,-0.3738556206226349
1789031206783626500,0.15662646484375,0.8021143078804016,0.07957018911838531,-0.1616450846195221
1789031206793632500,0.166632568359375,0.5961959958076477,0.1502683311700821,0.05895359814167023
1789031206803639300,0.176639404296875,0.3787912428379059,0.004186489153653383,0.25321733951568604
1789031206813645300,0.186645263671875,0.15316878259181976,-0.3800019323825836,0.3831721544265747
1789031206823652600,0.196652587890625,-0.0755448266863823,-1.0156753063201904,0.4298541843891144
1789031206833658400,0.206658447265625,-0.30683502554893494,-1.6473134756088257,0.3932439684867859
1789031206843665400,0.21666552734375,-0.5257524847984314,-1.9220422506332397,0.31415101885795593
1789031206853671400,0.22667138671875,-0.6966277956962585,-1.7647130489349365,0.23704662919044495
1789031206863677400,0.236677490234375,-0.7441423535346985,-1.1485028266906738,0.014941665343940258
1789031206873684500,0.2466845703125,-0.624190092086792,-0.6573520302772522,-0.19331912696361542
1789031206883690200,0.256690185546875,-0.25794392824172974,-0.6165241599082947,-0.2569130063056946
1789031206893697500,0.266697509765625,0.22478730976581573,-0.7502380609512329,-0.2366623431444168
1789031206903703600,0.27670361328125,0.6639569401741028,-1.0586425065994263,-0.17493265867233276
1789031206913709300,0.286709228515625,0.9877275824546814,-1.6454447507858276,-0.06963074207305908
1789031206923716600,0.296716552734375,1.1043095588684082,-2.1312148571014404,-0.017400560900568962
1789031206933722600,0.30672265625,1.161094307899475,-2.1329262256622314,-0.13166987895965576
1789031206943729400,0.3167294921875,1.2213679552078247,-1.6746212244033813,-0.4309079945087433
1789031206953735400,0.3267353515625,1.2950488328933716,-1.02670156955719,-0.8186320066452026
1789031206963742500,0.336742431640625,1.4843844175338745,-0.6248888969421387,-1.1427022218704224
1789031206973748500,0.34674853515625,1.7920277118682861,-0.5589833855628967,-1.325719952583313
1789031206983754500,0.35675439453125,1.967309832572937,-0.7701393365859985,-1.306073784828186
1789031206993761500,0.366761474609375,1.9007244110107422,-0.8833010196685791,-1.054331660270691
1789031207003767600,0.376767578125,1.7972790002822876,-0.8515588045120239,-0.7807104587554932
1789031207013774300,0.3867744140625,1.8142726421356201,-1.148172378540039,-0.7728248238563538
1789031207023780400,0.3967802734375,1.8674620389938354,-1.7213618755340576,-0.8946111798286438
1789031207033787400,0.406787353515625,2.0047128200531006,-2.559074878692627,-0.817711353302002
1789031207043793400,0.41679345703125,2.3651328086853027,-3.73722505569458,-0.28503599762916565
1789031207053799400,0.42679931640625,2.840252161026001,-5.102850914001465,0.7019684910774231
1789031207063806500,0.436806396484375,3.272980213165283,-6.367103576660156,1.8635038137435913
1789031207073812500,0.4468125,3.679983615875244,-7.135716438293457,2.8168797492980957
1789031207083819300,0.4568193359375,4.130106449127197,-7.286428928375244,3.320711612701416
1789031207093825300,0.4668251953125,4.580277919769287,-7.109676837921143,3.3495805263519287
1789031207103832600,0.47683251953125,4.946690559387207,-6.89650821685791,3.120074987411499
1789031207113838300,0.48683837890625,5.248758316040039,-6.610802173614502,2.8737518787384033
1789031207123844400,0.49684423828125,5.30960750579834,-6.460760593414307,2.6831398010253906
1789031207133851600,0.5068515625,5.04615592956543,-6.134678840637207,2.4991042613983154
1789031207143857400,0.516857421875,4.677613258361816,-5.727745056152344,2.1854236125946045
1789031207153864400,0.526864501953125,4.3896403312683105,-5.59171199798584,1.8835928440093994
1789031207163870200,0.5368701171875,4.29889440536499,-5.734216213226318,1.7462486028671265
1789031207173877500,0.54687744140625,4.453023433685303,-5.644866943359375,1.799272060394287
1789031207183883500,0.556883544921875,4.603220462799072,-5.170582294464111,1.9496359825134277
1789031207193889300,0.56688916015625,4.530623912811279,-4.303348541259766,2.163212299346924
1789031207203896600,0.576896484375,4.147989273071289,-3.208308696746826,2.3692657947540283
1789031207213902600,0.586902587890625,3.634688377380371,-2.3218894004821777,2.399831533432007
1789031207223909400,0.596909423828125,3.3269033432006836,-2.0344650745391846,2.1811578273773193
1789031207233915400,0.606915283203125,3.1890156269073486,-2.2715511322021484,1.8986868858337402
1789031207243922400,0.61692236328125,3.181636333465576,-2.7136707305908203,1.8633906841278076
1789031207253928400,0.626928466796875,2.8950934410095215,-3.810286045074463,1.693628191947937
1789031207263935500,0.636935546875,2.3673794269561768,-5.380722999572754,1.2755420207977295
1789031207273941500,0.64694140625,2.145824432373047,-7.021478652954102,0.8821840882301331
1789031207283947500,0.656947509765625,2.3938329219818115,-7.6830363273620605,0.7568669319152832
1789031207293954300,0.666954345703125,3.0091147422790527,-6.920729637145996,0.9460991621017456
1789031207303960600,0.676960693359375,3.6564087867736816,-5.223698616027832,1.0775538682937622
1789031207313967400,0.68696728515625,4.156527996063232,-3.443372964859009,0.8726640939712524
1789031207323973400,0.696973388671875,4.404209613800049,-2.249201536178589,0.5316404700279236
1789031207333980700,0.706980712890625,4.507137298583984,-1.4345463514328003,0.19591091573238373
1789031207343986400,0.716986328125,4.570814609527588,-0.9478453993797302,0.07312294840812683
1789031207353992400,0.726992431640625,4.365346431732178,-0.8730347752571106,0.10674908012151718
1789031207363999500,0.73699951171875,3.995460033416748,-1.0657174587249756,0.24500203132629395
1789031207374005500,0.747005615234375,3.45113468170166,-1.404100775718689,0.45341062545776367
1789031207384012500,0.757012451171875,2.809030294418335,-1.6046173572540283,0.7146592736244202
1789031207394018300,0.767018310546875,2.3099582195281982,-1.6516098976135254,0.7846516966819763
1789031207404025600,0.777025634765625,1.878091812133789,-1.3458853960037231,0.5596545338630676
1789031207414031600,0.787031494140625,1.6316522359848022,-0.7841075658798218,0.16014891862869263
1789031207424037400,0.797037353515625,1.5201611518859863,-0.34641599655151367,-0.19253136217594147
1789031207434044400,0.80704443359375,1.2870577573776245,0.08831121772527695,-0.2773498594760895
1789031207444050400,0.817050537109375,0.9515514373779297,0.20680378377437592,-0.1367272287607193
1789031207454057500,0.827057373046875,0.36604589223861694,-0.24829450249671936,0.10793285816907883
1789031207464063500,0.8370634765625,-0.09651082754135132,-0.7498981952667236,0.4381406009197235
1789031207474070500,0.847070556640625,0.12374058365821838,-0.6852452158927917,0.46159985661506653
1789031207484076500,0.85707666015625,0.5757546424865723,-0.6597678065299988,0.1457497477531433
1789031207494083300,0.867083251953125,1.4265270233154297,-1.0628206729888916,-0.17837932705879211
1789031207504090400,0.87709033203125,2.3362789154052734,-1.2445950508117676,-0.3271128833293915
1789031207514096400,0.887096435546875,3.2315220832824707,-1.1615126132965088,-0.26986822485923767
1789031207524103200,0.897103271484375,4.00200891494751,-1.1282223463058472,-0.18953929841518402
1789031207534109200,0.907109130859375,4.51210880279541,-1.2636404037475586,-0.23365004360675812
1789031207544116200,0.9171162109375,4.754796981811523,-1.480580449104309,-0.2432645857334137
1789031207554122200,0.927122314453125,4.57722806930542,-1.7809500694274902,-0.05949528515338898
1789031207564129000,0.93712890625,4.142894744873047,-1.756959319114685,0.3361838757991791
1789031207574135300,0.94713525390625,3.6103200912475586,-1.2933354377746582,0.806425929069519
1789031207584141300,0.957141357421875,2.9212043285369873,-0.8181699514389038,1.2396188974380493
1789031207594148000,0.967148193359375,2.2386374473571777,-0.42553985118865967,1.4610764980316162
1789031207604154000,0.977154052734375,1.6088051795959473,-0.35179823637008667,1.5276116132736206
1789031207614161200,0.9871611328125,1.1349891424179077,-0.5332902669906616,1.3816828727722168
1789031207624167200,0.997167236328125,1.0206096172332764,-0.24847692251205444,0.7583659887313843
1789031207634174200,1.00717431640625,0.5111743211746216,-0.41564515233039856,-0.0341009795665741
1789031207644180200,1.01718017578125,-0.18009546399116516,-0.5375406742095947,-0.633078396320343
1789031207654187300,1.027187255859375,-0.4662204384803772,-0.19463099539279938,-1.1660659313201904
1789031207664193300,1.037193359375,-0.45237278938293457,-0.5199481248855591,-0.7934398651123047
1789031207674199000,1.047198974609375,-0.464222252368927,-1.0015344619750977,0.049918822944164276
1789031207684206300,1.057206298828125,-0.4659687578678131,-1.1114261150360107,0.5339714884757996
1789031207694212000,1.067212158203125,-0.44358623027801514,-1.241597056388855,0.4877861738204956
1789031207704219100,1.07721923828125,-0.4320688545703888,-1.2077240943908691,0.16591599583625793
1789031207714225400,1.087225341796875,-0.40259671211242676,-0.8772521615028381,-0.17207668721675873
1789031207724232200,1.097232177734375,-0.28393983840942383,-0.41710934042930603,-0.5280502438545227
1789031207734238200,1.10723828125,-0.12128781527280807,-0.16767342388629913,-0.7048583030700684
1789031207744245200,1.117245361328125,-0.32797229290008545,-0.7152459621429443,-0.7069150805473328
1789031207754251300,1.127251220703125,-0.23836836218833923,-1.2823102474212646,-0.7602728009223938
1789031207764257300,1.13725732421875,-0.06238268315792084,-1.8236973285675049,-0.5355768799781799
1789031207774264000,1.14726416015625,0.10070078074932098,-1.754042625427246,0.022955382242798805
1789031207784270300,1.157270263671875,0.1326078474521637,-1.5485881567001343,0.49973151087760925
1789031207794277000,1.167277099609375,-0.06085296347737312,-1.672022819519043,0.7173343896865845
1789031207804283100,1.177283203125,-0.7373403310775757,-0.6798831820487976,0.5963126420974731
1789031207814290200,1.187290283203125,-0.9280157685279846,0.8239151835441589,0.3979431092739105
1789031207824296200,1.197296142578125,-0.6772016286849976,2.1941452026367188,-0.0830802395939827
1789031207834303200,1.20730322265625,-0.48682770133018494,2.4232959747314453,-0.7026851773262024
1789031207844309000,1.21730908203125,-0.6056286692619324,1.372800350189209,-1.1913424730300903
1789031207854315300,1.227315185546875,-0.7799184322357178,-0.0644460991024971,-1.440843105316162
1789031207864322300,1.237322265625,-0.7519485950469971,-0.8326788544654846,-1.3822718858718872
1789031207874328000,1.247328125,-0.4848175644874573,-0.670278787612915,-0.8244731426239014
1789031207884335400,1.25733544921875,-0.17320826649665833,-0.1552007645368576,-0.05582917854189873
1789031207894341000,1.267341064453125,-0.09701336175203323,0.4455111622810364,0.23321354389190674
1789031207904348200,1.27734814453125,-0.17119517922401428,0.838634729385376,0.18592406809329987
1789031207914354200,1.287354248046875,-0.14432841539382935,0.6810131669044495,0.072484590113163
1789031207924361200,1.297361328125,-0.06589219719171524,0.34724530577659607,-0.06478565186262131
1789031207934367200,1.3073671875,-0.11165222525596619,0.022163625806570053,-0.12469851970672607
1789031207944374000,1.3173740234375,-1.252410650253296,0.9336475729942322,-0.34185028076171875
1789031207954380300,1.32738037109375,-0.740741491317749,1.0313082933425903,-0.08188527822494507
1789031207964386300,1.33738623046875,-0.1579936295747757,0.7151657938957214,0.044139496982097626
1789031207974393000,1.34739306640625,-0.07377089560031891,0.4788443446159363,-0.04030747711658478
1789031207984399000,1.357399169921875,-0.2526271939277649,0.2240738421678543,-0.06359069049358368
1789031207994406100,1.36740625,-1.2050942182540894,-0.38343074917793274,0.2017722725868225
1789031208004412200,1.377412109375,-3.4758551120758057,-0.4533344507217407,0.4077076017856598
1789031208014419200,1.387419189453125,-3.3666672706604004,0.6379778385162354,0.13949744403362274
1789031208024425200,1.39742529296875,-3.228153944015503,0.3903195559978485,0.6224396228790283
1789031208034432300,1.407432373046875,-2.476720094680786,0.8876289129257202,0.3510837256908417
1789031208044438000,1.41743798828125,-2.25252103805542,0.3471475839614868,0.04355120658874512
1789031208054445300,1.4274453125,-2.5421249866485596,-0.24188587069511414,-0.30418065190315247
1789031208064451300,1.437451416015625,-2.2633273601531982,-0.21789957582950592,-0.8758923411369324
1789031208074457000,1.44745703125,-1.6166112422943115,1.3664977550506592,-0.8167874813079834
1789031208084464400,1.45746435546875,-0.9318560361862183,2.528385639190674,-0.5241114497184753
1789031208094470100,1.46747021484375,-0.5061436295509338,2.270636796951294,-0.35867932438850403
1789031208104477200,1.477477294921875,-0.3179721236228943,1.0328905582427979,-0.07318127155303955
1789031208114483200,1.487483154296875,-0.29802608489990234,-0.07840452343225479,0.13062672317028046
1789031208124490200,1.497490234375,-0.22483764588832855,-0.33658894896507263,0.12672412395477295
1789031208134496300,1.507496337890625,-0.30113452672958374,0.10998722165822983,-0.046057771891355515
1789031208144503000,1.5175029296875,-0.46240466833114624,0.46795654296875,-0.12978117167949677
1789031208154509300,1.52750927734375,-0.5847039222717285,0.5815582275390625,-0.19206637144088745
1789031208164516000,1.53751611328125,-0.6619367003440857,0.6605486273765564,-0.31127238273620605
1789031208174522000,1.547522216796875,-0.6697514653205872,0.4106583595275879,-0.31855159997940063
1789031208184528100,1.557528076171875,-0.6624040603637695,0.06375794112682343,-0.17748956382274628
1789031208194535200,1.56753515625,-0.896984338760376,-0.02363981492817402,-0.1368025839328766
1789031208204541200,1.577541259765625,-0.9846761226654053,-0.5498743057250977,0.05863242223858833
1789031208214548200,1.58754833984375,-1.0738205909729004,-0.7747731804847717,0.15844237804412842
1789031208224554200,1.59755419921875,-1.303434133529663,-0.5144090056419373,0.03802434727549553
1789031208234561300,1.607561279296875,-1.4618037939071655,-0.13095881044864655,-0.17465995252132416
1789031208244567000,1.617567138671875,-1.4831165075302124,0.44744327664375305,-0.4444434940814972
1789031208254574300,1.62757421875,-1.3070634603500366,1.1944549083709717,-0.6543828845024109
1789031208264580400,1.637580322265625,-0.8163113594055176,1.4052238464355469,-0.6102074384689331
1789031208274587100,1.647587158203125,-0.33664992451667786,1.3688749074935913,-0.38448643684387207
1789031208284593200,1.65759326171875,-0.006837399676442146,1.4096308946609497,-0.3038962483406067
1789031208294600200,1.66760009765625,0.19514100253582,1.793143391609192,-0.4232974648475647
1789031208304606200,1.677606201171875,0.20312941074371338,1.933610200881958,-0.660415768623352
1789031208314612200,1.6876123046875,0.1887076050043106,1.3778084516525269,-0.5750547647476196
1789031208324619300,1.697619384765625,0.2887774705886841,1.0323165655136108,-0.3647582530975342
1789031208334625300,1.707625244140625,0.37612542510032654,1.1920783519744873,-0.4042145907878876
1789031208344632000,1.717632080078125,0.33590662479400635,1.488737940788269,-0.4521815776824951
1789031208354638000,1.72763818359375,0.34288012981414795,1.0283637046813965,-0.2860530614852905
1789031208364645000,1.73764501953125,0.32525959610939026,0.05863029137253761,-0.14768479764461517
1789031208374651100,1.747651123046875,0.4396836459636688,-0.48011574149131775,0.010036122053861618
1789031208384658200,1.757658203125,0.9129558205604553,-0.3323172330856323,0.11284159868955612
1789031208394664200,1.767664306640625,1.5882658958435059,0.11528664827346802,0.042818035930395126
1789031208404671200,1.777671142578125,2.096712589263916,0.41482383012771606,-0.08361287415027618
1789031208414677200,1.78767724609375,2.1350114345550537,0.2675185203552246,-0.15525749325752258
1789031208424684300,1.797684326171875,1.97394859790802,-0.06763043999671936,-0.2629658579826355
1789031208434690300,1.807690185546875,1.7455127239227295,-0.4252761900424957,-0.2217840552330017
1789031208444696000,1.817696044921875,1.5984522104263306,-0.6031122207641602,0.11910668015480042
1789031208454703000,1.827703125,1.5290485620498657,-0.24623534083366394,0.3039300739765167
1789031208464709400,1.83770947265625,1.4225075244903564,0.18051624298095703,0.15244227647781372
1789031208474716200,1.847716064453125,1.2971969842910767,0.4454805254936218,-0.2764342427253723
1789031208484722200,1.85772216796875,1.2875115871429443,0.5998392105102539,-0.5029765963554382
1789031208494729200,1.867729248046875,1.3535624742507935,0.6442780494689941,-0.4885654151439667
1789031208504734700,1.877734619140625,1.5189504623413086,0.8530347347259521,-0.5221455097198486
1789031208514741800,1.88774169921875,1.5844780206680298,0.6988899111747742,-0.46811845898628235
1789031208524747800,1.897747802734375,1.5080548524856567,0.578007161617279,-0.3107205927371979
1789031208534754800,1.9077548828125,1.212233066558838,0.7123165130615234,-0.2026444524526596
1789031208544760800,1.9177607421875,0.978580117225647,1.3245983123779297,-0.39915165305137634
1789031208554768000,1.927767822265625,0.8048251271247864,1.1081019639968872,-0.3164389431476593
1789031208564774000,1.93777392578125,0.47978684306144714,0.8349151015281677,-0.1818227916955948
1789031208574780700,1.94778076171875,0.32154473662376404,0.5704701542854309,-0.02136707305908203
1789031208584786700,1.95778662109375,0.398580938577652,0.7394959330558777,0.08264987170696259
1789031208594793000,1.96779296875,0.6411570906639099,1.3024042844772339,-0.09664877504110336
1789031208604799700,1.9777998046875,1.0784378051757812,1.9872848987579346,-0.27481451630592346
1789031208614805800,1.9878056640625,1.2097158432006836,1.8840879201889038,-0.6009947657585144
1789031208624812800,1.997812744140625,0.9406431317329407,1.2518599033355713,-0.6348472833633423
1789031208634818800,2.00781884765625,0.5743660926818848,0.8216251134872437,-0.3997623026371002
1789031208644825600,2.01782568359375,0.13388723134994507,0.6130932569503784,-0.317211776971817
1789031208654831600,2.02783154296875,-0.26734861731529236,0.557841420173645,-0.372761070728302
1789031208664839000,2.0378388671875,-0.5952431559562683,0.45615795254707336,-0.412779837846756
1789031208674844700,2.0478447265625,-0.7539379596710205,0.266440212726593,-0.471428781747818
1789031208684851700,2.057851806640625,-0.9167172908782959,0.03526371344923973,-0.4812939167022705
1789031208694857700,2.067857666015625,-1.1845217943191528,-0.4966944456100464,-0.39194434881210327
1789031208704864800,2.07786474609375,-1.6036179065704346,-0.7096511721611023,-0.2891138195991516
1789031208714870800,2.087870849609375,-1.8466439247131348,-1.1827857494354248,-0.29855048656463623
1789031208724876500,2.09787646484375,-2.0331006050109863,-1.4819897413253784,-0.4370710849761963
1789031208734883800,2.1078837890625,-2.382352352142334,-1.3794572353363037,-0.49613624811172485
1789031208744889900,2.117889892578125,-2.850233793258667,-0.9346675276756287,-0.49660924077033997
1789031208754896600,2.127896728515625,-3.0853610038757324,-0.12818513810634613,-0.6973098516464233
1789031208764903000,2.13790283203125,-3.130683183670044,0.5137927532196045,-0.941660463809967
1789031208774909700,2.14790966796875,-2.78122615814209,0.6800975799560547,-0.9288674592971802
1789031208784915700,2.157915771484375,-2.219681739807129,0.5561066269874573,-0.8517563939094543
1789031208794922800,2.1679228515625,-1.8210163116455078,0.16747768223285675,-0.8964804410934448
1789031208804928800,2.1779287109375,-1.4706348180770874,-0.4501945972442627,-0.9739521145820618
1789031208814935800,2.187935791015625,-1.1182962656021118,-0.8519036769866943,-1.0997473001480103
1789031208824941600,2.197941650390625,-0.8965204358100891,-0.9124783277511597,-1.2570970058441162
1789031208834948900,2.207948974609375,-0.6318653225898743,-0.6730260848999023,-1.2898412942886353
1789031208844954600,2.21795458984375,-0.23765303194522858,-0.5606502890586853,-1.1343436241149902
1789031208854961700,2.227961669921875,-0.03752527013421059,-1.0164647102355957,-1.0082237720489502
1789031208864968000,2.237968017578125,0.1458141952753067,-1.1623315811157227,-0.8713505864143372
1789031208874973700,2.2479736328125,0.45210567116737366,-0.7013562321662903,-0.7415587902069092
1789031208884980700,2.257980712890625,0.6069554686546326,-0.41613224148750305,-0.6066516041755676
1789031208894986800,2.26798681640625,0.5938673615455627,-0.505009651184082,-0.34853240847587585
1789031208904993800,2.277993896484375,0.5899341106414795,-0.4170299768447876,-0.07578397542238235
1789031208914999800,2.287999755859375,0.5557063817977905,0.06077226996421814,0.1358632892370224
1789031208925006600,2.298006591796875,0.442739337682724,0.43941253423690796,0.2194705754518509
1789031208935012900,2.308012939453125,0.2998213469982147,0.6301342844963074,0.236517995595932
1789031208945019600,2.31801953125,0.25969627499580383,0.6706734299659729,0.3731597363948822
1789031208955025700,2.328025634765625,0.2620185613632202,0.6086153984069824,0.648768424987793
1789031208965032700,2.33803271484375,0.26359835267066956,-0.1763276308774948,0.5310369729995728
1789031208975038700,2.348038818359375,0.19598282873630524,-0.6755297183990479,0.3825835883617401
1789031208985045800,2.358045654296875,0.10694269835948944,-0.5186833739280701,0.4084436893463135
1789031208995051500,2.368051513671875,0.06581656634807587,0.15939845144748688,0.779964804649353
1789031209005058800,2.378058837890625,-0.02262461930513382,-0.16538922488689423,0.7164300084114075
1789031209015064800,2.38806494140625,-0.019893014803528786,-1.0334948301315308,0.4774315357208252
1789031209025070600,2.398070556640625,0.09338294714689255,-0.672524631023407,0.5846757292747498
1789031209035078000,2.408077880859375,0.1821727305650711,-0.27830779552459717,0.6647130250930786
1789031209045083600,2.418083740234375,0.2320886254310608,-0.10687451809644699,0.7569028735160828
1789031209055090700,2.428090576171875,0.3291368782520294,0.048649560660123825,0.9770174026489258
1789031209065097000,2.438096923828125,0.4454011619091034,0.05710190162062645,1.1652048826217651
1789031209075103700,2.448103759765625,0.5201930999755859,-0.013287309557199478,1.1271696090698242
1789031209085109800,2.45810986328125,0.509344220161438,0.11663366854190826,0.8988234996795654
1789031209095116800,2.46811669921875,0.6251243352890015,0.27527230978012085,0.6508992314338684
1789031209105122800,2.478122802734375,0.7869015336036682,0.45416802167892456,0.6749451756477356
1789031209115129600,2.488129638671875,0.8337656855583191,0.4628158509731293,0.8139213919639587
1789031209125135600,2.498135498046875,0.8716456890106201,0.3789891302585602,0.9221996665000916
1789031209135143000,2.508142822265625,0.878227174282074,0.21174554526805878,0.9353993535041809
1789031209145148700,2.518148681640625,0.8475204110145569,0.05164268612861633,0.894517719745636
1789031209155155700,2.52815576171875,0.7830767035484314,0.08979859203100204,0.8460510969161987
1789031209165161700,2.53816162109375,0.7131401896476746,0.18737176060676575,0.7770015001296997
1789031209175168800,2.548168701171875,0.6811841130256653,0.2532101571559906,0.6872329711914062
1789031209185174800,2.5581748046875,0.6976773738861084,0.31735771894454956,0.5962159633636475
1789031209195180500,2.5681806640625,0.6965729594230652,0.3645651936531067,0.5197840332984924
1789031209205187800,2.578187744140625,0.6740550994873047,0.4353621304035187,0.44260460138320923
1789031209215193900,2.58819384765625,0.6229442954063416,0.5329778790473938,0.3594188988208771
1789031209225200600,2.59820068359375,0.5213063359260559,0.6048914790153503,0.30471277236938477
1789031209235207000,2.60820703125,0.40576666593551636,0.6062310934066772,0.2906768321990967
1789031209245213700,2.618213623046875,0.31659552454948425,0.4878295958042145,0.2974436581134796
1789031209255219700,2.6282197265625,0.25397369265556335,0.31615716218948364,0.307237446308136
1789031209265226800,2.638226806640625,0.17530417442321777,0.19156010448932648,0.3058627247810364
1789031209275232800,2.648232666015625,0.12901683151721954,0.13933072984218597,0.25835031270980835
1789031209285239800,2.65823974609375,0.13762018084526062,0.15259434282779694,0.15334641933441162
1789031209295245600,2.66824560546875,0.16646647453308105,0.23171524703502655,0.06012911722064018
1789031209305252900,2.6782529296875,0.14563629031181335,0.33676549792289734,0.015045261941850185
1789031209315258600,2.688258544921875,0.08111722022294998,0.4326174557209015,0.01974387653172016
1789031209325265700,2.698265625,0.02184804156422615,0.4957359731197357,0.08420835435390472
1789031209335272000,2.70827197265625,0.017316140234470367,0.4962531626224518,0.2756185233592987
1789031209345278700,2.71827880859375,0.04807937890291214,0.5437533259391785,0.5981411933898926
1789031209355284700,2.72828466796875,0.08903639763593674,0.5315104722976685,0.8718276023864746
1789031209365291800,2.738291748046875,0.08493725955486298,0.4114096462726593,0.958928108215332
1789031209375297800,2.7482978515625,0.05561692267656326,0.21977975964546204,0.8904944658279419
1789031209385303800,2.7583037109375,0.011295264586806297,0.07048748433589935,0.7643069624900818
1789031209395310600,2.768310546875,0.005495166406035423,0.015686817467212677,0.6523953676223755
1789031209405316900,2.77831689453125,0.021915152668952942,-0.04115249589085579,0.5803355574607849
1789031209415323600,2.78832373046875,0.04789828509092331,-0.05297320336103439,0.5702874660491943
1789031209425329700,2.79832958984375,0.11662488430738449,-0.037947915494441986,0.6450873613357544
1789031209435336700,2.808336669921875,0.24744868278503418,-0.1429092139005661,0.7214801907539368
1789031209445342700,2.8183427734375,0.27001336216926575,-0.3907240927219391,0.6499220728874207
1789031209455349800,2.828349853515625,0.24289120733737946,-0.6348558068275452,0.4990454912185669
1789031209465355500,2.83835546875,0.31433236598968506,-0.7002667784690857,0.4634810984134674
1789031209475362800,2.84836279296875,0.425401896238327,-0.4390202462673187,0.4828824996948242
1789031209485368800,2.858368896484375,0.4870058596134186,-0.06792818754911423,0.47714686393737793
1789031209495375600,2.868375732421875,0.40522685647010803,0.27252259850502014,0.4834105968475342
1789031209505381600,2.878381591796875,0.21300920844078064,0.3987628221511841,0.4139907956123352
1789031209515388400,2.888388427734375,0.06389269977807999,0.3687913417816162,0.3411751687526703
1789031209525394400,2.89839453125,0.05462116748094559,0.18607692420482635,0.3211468756198883
1789031209535401500,2.9084013671875,0.0792066678404808,0.006137254647910595,0.34099113941192627
1789031209545407500,2.918407470703125,0.09718939661979675,-0.13170184195041656,0.3688400983810425
1789031209555414500,2.92841455078125,0.092528335750103,-0.1714806705713272,0.38368216156959534
1789031209565420300,2.938420166015625,0.09607886523008347,-0.08433298766613007,0.35031193494796753
1789031209575427600,2.948427490234375,0.09609537571668625,0.08476202189922333,0.28949466347694397
1789031209585433600,2.95843359375,0.07167737931013107,0.1876886785030365,0.2745159864425659
1789031209595440400,2.9684404296875,0.02636023424565792,0.15173600614070892,0.29276156425476074
1789031209605446700,2.97844677734375,-0.019586484879255295,0.10148827731609344,0.29238951206207275
1789031209615453400,2.988453369140625,-0.08046314865350723,0.014152037911117077,0.27922898530960083
1789031209625459500,2.99845947265625,-0.1495964080095291,-0.04929830878973007,0.2784382700920105
1789031209635466500,3.008466552734375,-0.19300967454910278,-0.07776563614606857,0.2646771967411041
1789031209645472500,3.018472412109375,-0.17919905483722687,-0.09602479636669159,0.27167758345603943
1789031209655478500,3.028478515625,-0.14352786540985107,-0.19421102106571198,0.25552791357040405
1789031209665485300,3.0384853515625,-0.11006525158882141,-0.27090659737586975,0.24183446168899536
1789031209675491600,3.04849169921875,-0.04080308973789215,-0.22135262191295624,0.17279760539531708
1789031209685498400,3.058498291015625,0.050037067383527756,-0.12851457297801971,0.05705263465642929
1789031209695504400,3.06850439453125,0.1193452998995781,-0.03545253351330757,0.0002913498319685459
1789031209705511700,3.07851171875,0.18321189284324646,0.0995180681347847,-0.060859888792037964
1789031209715517400,3.088517333984375,0.232596755027771,0.20895402133464813,-0.08987316489219666
1789031209725524500,3.0985244140625,0.2206663340330124,0.21538075804710388,-0.04453923925757408
1789031209735530500,3.108530517578125,0.19476895034313202,0.15231257677078247,0.010982876643538475
1789031209745537500,3.11853759765625,0.19190526008605957,0.1281566321849823,0.039372172206640244
1789031209755543600,3.12854345703125,0.17516516149044037,0.086905337870121,0.046913713216781616
1789031209765550300,3.13855029296875,0.11689865589141846,0.06693828850984573,0.06264154613018036
1789031209775556600,3.148556640625,0.06094697490334511,0.0773075744509697,0.12744078040122986
1789031209785563400,3.1585634765625,0.030705181881785393,0.09396537393331528,0.17990638315677643
1789031209795569400,3.1685693359375,0.018875686451792717,0.09576274454593658,0.1882561892271042
1789031209805576400,3.178576416015625,0.037399303168058395,0.13925109803676605,0.23429985344409943
1789031209815582500,3.18858251953125,0.05174282193183899,0.21810276806354523,0.18642233312129974
1789031209825589500,3.198589599609375,0.042691271752119064,0.10804630815982819,0.23486576974391937
1789031209835595500,3.208595458984375,0.05937118083238602,0.143011212348938,0.21209600567817688
1789031209845602600,3.2186025390625,0.09616141766309738,0.1404210329055786,0.1547296643257141
1789031209855608600,3.228608642578125,0.15212668478488922,0.15830707550048828,0.10161051154136658
1789031209865615600,3.23861572265625,0.19373084604740143,0.12937504053115845,0.03984222188591957
1789031209875621600,3.24862158203125,0.21489179134368896,0.12659069895744324,-0.010486196726560593
1789031209885628400,3.25862841796875,0.24204538762569427,0.055385492742061615,-0.003570500062778592
1789031209895634400,3.268634521484375,0.25923022627830505,0.09881126880645752,0.01462608017027378
1789031209905641500,3.278641357421875,0.2525734007358551,0.07812542468309402,0.007199056912213564
1789031209915647500,3.2886474609375,0.2629978060722351,0.030359236523509026,0.02159024588763714
1789031209925654500,3.298654541015625,0.24720047414302826,0.07912198454141617,-0.021331122145056725
1789031209935660500,3.30866064453125,0.23428520560264587,0.03189215436577797,-0.04795048013329506
1789031209945667600,3.31866748046875,0.2285202592611313,0.13516661524772644,-0.09442823380231857
1789031209955673300,3.32867333984375,0.17667463421821594,-0.007113036699593067,-0.12726661562919617
1789031209965680600,3.3386806640625,0.14239229261875153,-0.04090535640716553,-0.10059371590614319
1789031209975686700,3.348686767578125,0.10322971642017365,0.014522483572363853,-0.08101149648427963
1789031209985693400,3.358693359375,0.07990841567516327,-0.07381563633680344,-0.004053597338497639
1789031209995699500,3.368699462890625,0.11071133613586426,0.010550911538302898,0.0002993392990902066
1789031210005706500,3.37870654296875,0.16251887381076813,0.0020908478181809187,-0.009207346476614475
1789031210015712500,3.38871240234375,0.23517362773418427,-0.013727263547480106,-0.02888251468539238
1789031210025718500,3.398718505859375,0.29632753133773804,0.024708276614546776,-0.08299315720796585
1789031210035725600,3.4087255859375,0.3298495411872864,0.013947241008281708,-0.12638776004314423
1789031210045731600,3.418731689453125,0.3327089846134186,-0.03754524514079094,-0.10563348233699799
1789031210055738400,3.42873828125,0.2946881055831909,-0.057502441108226776,-0.11758708208799362
1789031210065744400,3.438744384765625,0.18683592975139618,0.0018239989876747131,-0.20628659427165985
1789031210075751400,3.44875146484375,0.030464164912700653,0.09885440766811371,-0.29275384545326233
1789031210085757400,3.45875732421875,-0.11549384146928787,0.12787887454032898,-0.41901695728302
1789031210095764500,3.468764404296875,-0.2232019305229187,0.13830327987670898,-0.6587603092193604
1789031210105770500,3.4787705078125,-0.3268657326698303,0.17027772963047028,-0.9094271659851074
1789031210115777500,3.488777587890625,-0.4764949083328247,0.2500162422657013,-1.0896382331848145
1789031210125783600,3.498783447265625,-0.6635513305664062,0.3901304602622986,-1.2418676614761353
1789031210135790600,3.50879052734375,-0.9199512004852295,0.4698604345321655,-1.4279552698135376
1789031210145796600,3.518796630859375,-1.2051844596862793,0.34571292996406555,-1.627563714981079
1789031210155803400,3.528803466796875,-1.446320652961731,0.08883453160524368,-1.8213145732879639
1789031210165809400,3.538809326171875,-1.6784905195236206,-0.20164497196674347,-1.9612817764282227
1789031210175816400,3.54881640625,-1.8783082962036133,-0.37858086824417114,-1.9421815872192383
1789031210185822500,3.558822509765625,-2.0129294395446777,-0.4328278601169586,-1.8321168422698975
1789031210195829500,3.56882958984375,-2.130241870880127,-0.4838244616985321,-1.7187138795852661
1789031210205835500,3.57883544921875,-2.313467025756836,-0.5186242461204529,-1.6246685981750488
1789031210215842600,3.588842529296875,-2.5578815937042236,-0.5607978105545044,-1.593031883239746
1789031210225848300,3.598848388671875,-2.736319065093994,-0.6077730655670166,-1.6320754289627075
1789031210235855600,3.608855712890625,-2.7507448196411133,-0.7016395926475525,-1.7232815027236938
1789031210245861600,3.618861572265625,-2.6513285636901855,-0.9607611894607544,-1.7887574434280396
1789031210255868400,3.628868408203125,-2.499966859817505,-1.273696780204773,-1.7922996282577515
1789031210265874400,3.63887451171875,-2.299509048461914,-1.4034459590911865,-1.7930829524993896
1789031210275881500,3.648881591796875,-2.0440187454223633,-1.3420342206954956,-1.8188058137893677
1789031210285887500,3.658887451171875,-1.848005771636963,-1.2696559429168701,-1.828330159187317
1789031210295894300,3.668894287109375,-1.7832508087158203,-1.2719491720199585,-1.7668718099594116
1789031210305900500,3.678900634765625,-1.7802402973175049,-1.3842909336090088,-1.7224524021148682
1789031210315907600,3.688907470703125,-1.7512949705123901,-1.3696746826171875,-1.6470048427581787
1789031210325913300,3.698913330078125,-1.6925219297409058,-1.250260591506958,-1.456996202468872
1789031210335920600,3.708920654296875,-1.6751881837844849,-1.4517120122909546,-1.3066134452819824
1789031210345926400,3.718926513671875,-1.6540629863739014,-1.598575234413147,-1.2211674451828003
1789031210355933400,3.728933349609375,-1.6670438051223755,-1.6037654876708984,-1.2232961654663086
1789031210365939500,3.738939453125,-1.604694128036499,-1.6040037870407104,-1.3256994485855103
1789031210375946500,3.748946533203125,-1.3828727006912231,-1.5161197185516357,-1.4529892206192017
1789031210385952500,3.758952392578125,-1.1201691627502441,-1.4273645877838135,-1.6187419891357422
1789031210395959300,3.768959228515625,-0.8720403909683228,-1.4061602354049683,-1.7779028415679932
1789031210405965600,3.778965576171875,-0.587131917476654,-1.4260748624801636,-1.8799091577529907
1789031210415972400,3.788972412109375,-0.3345226049423218,-1.5472081899642944,-1.9059492349624634
1789031210425978400,3.798978271484375,-0.1314443051815033,-1.74556303024292,-1.8520903587341309
1789031210435985700,3.808985595703125,0.06460748612880707,-1.9090912342071533,-1.6190145015716553
1789031210445991400,3.818991455078125,0.27461665868759155,-1.9104417562484741,-1.3382762670516968
1789031210455998500,3.82899853515625,0.39632657170295715,-1.7450668811798096,-1.118656039237976
1789031210466004500,3.83900439453125,0.2802620232105255,-1.6713216304779053,-1.0097012519836426
1789031210476011500,3.849011474609375,0.03976871818304062,-2.1963276863098145,-0.9908642172813416
1789031210486017500,3.859017578125,-0.058033742010593414,-2.627021074295044,-0.9143406748771667
1789031210496024600,3.869024658203125,0.054725032299757004,-2.325051784515381,-0.8145368695259094
1789031210506030600,3.879030517578125,0.29427236318588257,-1.5566517114639282,-0.9237717390060425
1789031210516038100,3.8890380859375,0.5244067907333374,-1.0641202926635742,-1.0725759267807007
1789031210526044200,3.899044189453125,0.7093052268028259,-1.0378456115722656,-1.014893889427185
1789031210536051000,3.909051025390625,0.8471275568008423,-1.0406602621078491,-0.8292694687843323
1789031210546057000,3.919056884765625,0.8962777853012085,-1.127640724182129,-0.6691684722900391
1789031210556064300,3.929064208984375,0.9381099343299866,-1.3708269596099854,-0.5161057114601135
1789031210566070000,3.939070068359375,0.9511128067970276,-1.6087572574615479,-0.45678192377090454
1789031210576077000,3.9490771484375,0.7531198263168335,-1.5653818845748901,-0.5541316270828247
1789031210586083000,3.9590830078125,0.3766298294067383,-1.4207149744033813,-0.766739547252655
1789031210596090000,3.969090087890625,-0.00911786500364542,-1.4094852209091187,-0.8729426264762878
1789031210606096100,3.97909619140625,-0.23387427628040314,-1.4090322256088257,-0.7892530560493469
1789031210616103200,3.989103271484375,-0.2774558365345001,-1.1049599647521973,-0.5561511516571045
1789031210626109200,3.999109130859375,-0.21450883150100708,-0.707573652267456,-0.22841505706310272
1789031210636116000,4.009115966796875,-0.2902536690235138,-0.40767696499824524,0.00743314903229475
1789031210646122000,4.0191220703125,-0.4347514510154724,-0.2398216426372528,0.0012402341235429049
1789031210656129000,4.02912890625,-0.4402357041835785,-0.2842074930667877,-0.08653515577316284
1789031210666135000,4.039135009765625,-0.40907034277915955,-0.473338782787323,-0.19495777785778046
1789031210676142000,4.04914208984375,-0.5719000101089478,-0.613135576248169,-0.24848517775535583
1789031210686148000,4.059148193359375,-0.9463279247283936,-0.4779604375362396,-0.3053268790245056
1789031210696155100,4.069155029296875,-1.42641282081604,-0.3763217031955719,-0.3588812053203583
1789031210706161000,4.079160888671875,-1.611444115638733,-0.25999563932418823,-0.49646303057670593
1789031210716168200,4.089168212890625,-1.7571821212768555,-0.46168053150177,-0.4890865981578827
1789031210726174200,4.09917431640625,-1.885122537612915,-0.5070914626121521,-0.4255656898021698
1789031210736181000,4.109180908203125,-1.940412998199463,-0.2946966290473938,-0.3315393328666687
1789031210746187000,4.11918701171875,-2.036315441131592,0.11979750543832779,-0.07276235520839691
1789031210756194000,4.129194091796875,-2.2092695236206055,0.4163338243961334,0.1358529031276703
1789031210766200000,4.139199951171875,-2.336284875869751,0.4209975600242615,0.1483204960823059
1789031210776206800,4.149206787109375,-2.373849630355835,0.5602303147315979,0.06433504819869995
1789031210786213000,4.159213134765625,-2.4316840171813965,0.768397867679596,0.04928792268037796
1789031210796220200,4.16922021484375,-2.5099542140960693,0.7643397450447083,0.10256419330835342
1789031210806226000,4.179225830078125,-2.5921709537506104,0.6552060842514038,0.20268307626247406
1789031210816233200,4.189233154296875,-2.6331145763397217,0.8085324764251709,0.30084478855133057
1789031210826240000,4.199239990234375,-2.7112956047058105,0.9717507362365723,0.4156952202320099
1789031210836246000,4.20924609375,-2.8212554454803467,0.9784648418426514,0.5229724049568176
1789031210846253000,4.219253173828125,-2.875521421432495,0.9610224366188049,0.5305184721946716
1789031210856259000,4.229259033203125,-2.882108211517334,1.1355715990066528,0.4543696343898773
1789031210866266000,4.23926611328125,-2.8887321949005127,1.3340429067611694,0.4342992603778839
1789031210876271900,4.24927197265625,-2.8891568183898926,1.4262391328811646,0.5467200875282288
1789031210886279200,4.259279052734375,-2.8073222637176514,1.3753794431686401,0.6757091879844666
1789031210896285200,4.26928515625,-2.7433364391326904,1.256596326828003,0.6211764812469482
1789031210906292000,4.2792919921875,-2.7278387546539307,1.1502799987792969,0.4402112066745758
1789031210916298200,4.28929833984375,-2.7031924724578857,0.916488528251648,0.4459628462791443
1789031210926305000,4.299304931640625,-2.6448142528533936,0.6525673866271973,0.5630021095275879
1789031210936311000,4.30931103515625,-2.6207430362701416,0.3578534722328186,0.6219631433486938
1789031210946318000,4.319318115234375,-2.7058427333831787,-0.04133039712905884,0.6364142894744873
1789031210956324000,4.329323974609375,-2.8067715167999268,-0.3835172951221466,0.5803062319755554
1789031210966331000,4.339330810546875,-2.605238914489746,-0.28140130639076233,0.3692270517349243
1789031210976337000,4.3493369140625,-2.2247557640075684,0.19867661595344543,0.14667652547359467
1789031210986344200,4.35934423828125,-1.9185923337936401,0.7266613245010376,0.038111165165901184
1789031210996350000,4.369349853515625,-1.7837070226669312,0.6745078563690186,0.1182725802063942
1789031211006357000,4.37935693359375,-1.8134193420410156,0.26288941502571106,0.3741147518157959
1789031211016363300,4.38936328125,-1.7745846509933472,0.09587033838033676,0.5824900269508362
1789031211026370000,4.3993701171875,-1.5882024765014648,-0.10468859225511551,0.6695538759231567
1789031211036376000,4.4093759765625,-1.2320661544799805,0.09742056578397751,0.5229923725128174
1789031211046383000,4.419383056640625,-0.8442322015762329,0.5413873791694641,0.2838732600212097
1789031211056389000,4.42938916015625,-0.5780385732650757,0.700559675693512,0.27683213353157043
1789031211066396000,4.43939599609375,-0.5025302171707153,0.9339048266410828,0.45433714985847473
1789031211076402200,4.449402099609375,-0.6020874381065369,1.0792814493179321,0.5450529456138611
1789031211086409200,4.4594091796875,-0.7120823860168457,1.0631126165390015,0.49164724349975586
1789031211096415000,4.4694150390625,-0.7431497573852539,1.1127305030822754,0.3357473909854889
1789031211106422300,4.47942236328125,-0.8172783255577087,1.495914340019226,0.4211224615573883
1789031211116428000,4.489427978515625,-0.9890138506889343,1.9098845720291138,0.5977973937988281
1789031211126435000,4.49943505859375,-1.1971402168273926,1.7268303632736206,0.6674507260322571
1789031211136441000,4.509441162109375,-1.3860981464385986,1.325849175453186,0.6298799514770508
1789031211146448100,4.5194482421875,-1.4650099277496338,1.260018229484558,0.4522079527378082
1789031211156455000,4.529454833984375,-1.2900134325027466,1.1221165657043457,0.4401712417602539
1789031211166461000,4.5394609375,-0.7981951832771301,0.6933643817901611,0.4648449122905731
1789031211176468200,4.54946826171875,-0.4852604269981384,0.1814214587211609,0.6174381971359253
1789031211186474000,4.559473876953125,-0.4856950640678406,0.18969643115997314,0.713928759098053
1789031211196481000,4.56948095703125,-0.5076272487640381,0.6771183013916016,0.5728265047073364
1789031211206487300,4.5794873046875,-0.48837393522262573,1.216387152671814,0.4196356236934662
1789031211216494000,4.589494140625,-0.4661376178264618,1.37344491481781,0.4752804934978485
1789031211226500000,4.5995,-0.4561164081096649,1.1413626670837402,0.6372470259666443
1789031211236507100,4.609507080078125,-0.5461285710334778,0.8266358971595764,0.7185118198394775
1789031211246513200,4.61951318359375,-0.5500844120979309,0.5152993202209473,0.7231755256652832
1789031211256520000,4.62952001953125,-0.4107441306114197,0.36150839924812317,0.6690773963928223
1789031211266526000,4.63952587890625,-0.3002181351184845,0.474609911441803,0.5748981833457947
1789031211276533200,4.649533203125,-0.24182461202144623,0.6040754914283752,0.5628265738487244
1789031211286539000,4.6595390625,-0.11468743532896042,0.652132511138916,0.5920201539993286
1789031211296546000,4.669546142578125,-0.011928831227123737,0.7060911059379578,0.6196720600128174
1789031211306552000,4.679552001953125,-0.030185598880052567,0.7118917107582092,0.5956849455833435
1789031211316559000,4.68955908203125,-0.05152630805969238,0.7080317139625549,0.6082776784896851
1789031211326565000,4.699565185546875,-0.08486509323120117,0.724012017250061,0.5691505670547485
1789031211336572200,4.709572265625,-0.1345737874507904,0.8515287041664124,0.49690377712249756
1789031211346578200,4.719578125,-0.12614008784294128,0.9354172348976135,0.4211866557598114
1789031211356585000,4.7295849609375,-0.09651242196559906,0.9023564457893372,0.43929746747016907
1789031211366591000,4.739591064453125,-0.08316146582365036,0.777215301990509,0.5185616612434387
1789031211376598000,4.749597900390625,-0.06084231287240982,0.6929531693458557,0.587950587272644
1789031211386605000,4.75960498046875,-0.013501959852874279,0.6620583534240723,0.5454691648483276
1789031211396611000,4.769611083984375,0.020830979570746422,0.7958624958992004,0.4352031350135803
1789031211406618000,4.7796181640625,0.07617466151714325,1.164235234260559,0.20548099279403687
1789031211416624000,4.7896240234375,0.15831241011619568,1.5934491157531738,-0.02857278846204281
1789031211426631000,4.799630859375,0.3457470238208771,1.6190714836120605,-0.06939052790403366
1789031211436637200,4.80963720703125,0.4771857261657715,1.2910118103027344,0.09755957871675491
1789031211446644000,4.81964404296875,0.509051501750946,1.2331974506378174,-0.07445132732391357
1789031211456650000,4.82964990234375,0.6042715311050415,1.6280540227890015,-0.35122406482696533
1789031211466657300,4.8396572265625,0.6530936360359192,1.792035698890686,-0.5397790670394897
1789031211476663000,4.8496630859375,0.6671892404556274,1.6776279211044312,-0.6280644536018372
1789031211486670000,4.859670166015625,0.7094051241874695,1.25285804271698,-0.5613650679588318
1789031211496676000,4.869676025390625,0.7627139091491699,0.7923844456672668,-0.5258121490478516
1789031211506683100,4.87968310546875,0.8556967973709106,0.552979052066803,-0.45640161633491516
1789031211516689000,4.88968896484375,1.0660985708236694,0.5077396631240845,-0.36326155066490173
1789031211526695700,4.89969580078125,1.2570040225982666,0.5170742869377136,-0.3122127652168274
1789031211536702000,4.909701904296875,1.2980473041534424,0.45889168977737427,-0.3100590705871582
1789031211546708700,4.919708740234375,1.256898045539856,0.3832176923751831,-0.3492780923843384
1789031211556715800,4.9297158203125,1.2122013568878174,0.30278223752975464,-0.38221022486686707
1789031211566721800,4.9397216796875,1.2131521701812744,0.22368955612182617,-0.33289220929145813
1789031211576728800,4.949728759765625,1.2944062948226929,0.2964361906051636,-0.2501419186592102
1789031211586734800,4.95973486328125,1.4410654306411743,0.445016086101532,-0.2128848433494568
1789031211596742000,4.969741943359375,1.5935200452804565,0.6014120578765869,-0.18570993840694427
1789031211606748000,4.979747802734375,1.7040350437164307,0.6972469687461853,-0.16911418735980988
1789031211616754700,4.989754638671875,1.725746750831604,0.6786229610443115,-0.17324022948741913
1789031211626760700,4.9997607421875,1.6249383687973022,0.6106130480766296,-0.15829482674598694
1789031211636767700,5.009767822265625,1.4727938175201416,0.4481956362724304,-0.04704953357577324
1789031211646773800,5.019773681640625,1.388533353805542,0.2558045983314514,-0.02088024839758873
1789031211656780800,5.02978076171875,1.3569068908691406,0.15125609934329987,-0.020139889791607857
1789031211666786800,5.039786865234375,1.4055769443511963,0.15898005664348602,0.15763729810714722
1789031211676793900,5.0497939453125,1.4843066930770874,0.25405678153038025,0.2113998681306839
1789031211686800000,5.0597998046875,1.5473519563674927,0.2834165394306183,0.13276231288909912
1789031211696807000,5.069806884765625,1.6257668733596802,0.34899795055389404,0.10655387490987778
1789031211706813700,5.079813720703125,1.6885738372802734,0.46610191464424133,0.07348886132240295
1789031211716819700,5.08981982421875,1.7195011377334595,0.5549615025520325,0.015085741877555847
1789031211726827000,5.099826904296875,1.7046958208084106,0.6257964968681335,-0.05053428187966347
1789031211736832800,5.109832763671875,1.6213867664337158,0.653407633304596,-0.15035754442214966
1789031211746839800,5.11983984375,1.5431848764419556,0.6591933369636536,-0.1569906771183014
1789031211756845800,5.129845703125,1.5278488397598267,0.6487918496131897,-0.08834823966026306
1789031211766852900,5.139852783203125,1.5893158912658691,0.6355170607566833,-0.0013917679898440838
1789031211776859000,5.14985888671875,1.7130436897277832,0.640479326248169,0.06304554641246796
1789031211786865700,5.15986572265625,1.8226064443588257,0.625764012336731,0.0956205353140831
1789031211796872000,5.169871826171875,1.9118945598602295,0.627098798751831,0.10853499919176102
1789031211806878700,5.179878662109375,1.9499777555465698,0.6097384691238403,0.14403893053531647
1789031211816884700,5.189884765625,1.886254906654358,0.5312444567680359,0.2383262813091278
1789031211826891800,5.199891845703125,1.7135337591171265,0.4408588707447052,0.3325957953929901
1789031211836897800,5.209897705078125,1.5017142295837402,0.34440186619758606,0.44429755210876465
1789031211846904800,5.21990478515625,1.321886420249939,0.3616197109222412,0.5407167673110962
1789031211856912000,5.229911865234375,1.2104610204696655,0.39849865436553955,0.579657256603241
1789031211866918000,5.23991796875,1.1760811805725098,0.43574589490890503,0.5687270760536194
1789031211876924700,5.249924560546875,1.249058485031128,0.38876238465309143,0.5793390274047852
1789031211886930700,5.2599306640625,1.4190144538879395,0.3089144229888916,0.6089426875114441
1789031211896937700,5.269937744140625,1.5407912731170654,0.28893566131591797,0.6597592830657959
1789031211906943700,5.27994384765625,1.5102765560150146,0.28233447670936584,0.7392863035202026
1789031211916951000,5.289950927734375,1.3811707496643066,0.2395249754190445,0.8610700368881226
1789031211926956800,5.299956787109375,1.270933747291565,0.2112555205821991,0.9721009135246277
1789031211936963800,5.3099638671875,1.2149708271026611,0.21245314180850983,0.9949098229408264
1789031211946969900,5.319969970703125,1.1872305870056152,0.2738243639469147,0.936665415763855
1789031211956977000,5.329976806640625,1.1943366527557373,0.4292413890361786,0.8388941287994385
1789031211966983700,5.339983642578125,1.227897047996521,0.5796564221382141,0.7697776556015015
1789031211976989700,5.34998974609375,1.2582826614379883,0.6078513264656067,0.6944860816001892
1789031211986997000,5.3599970703125,1.2486779689788818,0.5042346715927124,0.6343575119972229
1789031211997002800,5.370002685546875,1.1764010190963745,0.4177897870540619,0.5746848583221436
1789031212007009800,5.380009765625,1.031908392906189,0.3943318724632263,0.49668166041374207
1789031212017015800,5.390015869140625,0.8252326846122742,0.5167645812034607,0.34822162985801697
1789031212027022800,5.40002294921875,0.5824658274650574,0.562326967716217,0.13470321893692017
1789031212037028900,5.41002880859375,0.3491710424423218,0.42691564559936523,-0.0993225947022438
1789031212047036000,5.420035888671875,0.22722862660884857,0.2779434621334076,-0.299842894077301
1789031212057042000,5.4300419921875,0.1618533432483673,0.1287960559129715,-0.48035329580307007
1789031212067048700,5.440048583984375,0.06961663067340851,0.07573790103197098,-0.6843416094779968
1789031212077056000,5.450055908203125,-0.038660842925310135,0.03717240318655968,-0.8843159675598145
1789031212087061800,5.460061767578125,-0.1474464386701584,-0.019270900636911392,-1.031848430633545
1789031212097068800,5.47006884765625,-0.24329760670661926,-0.12036236375570297,-1.1134535074234009
1789031212107074800,5.48007470703125,-0.34238532185554504,-0.273162841796875,-1.1247975826263428
1789031212117081900,5.490081787109375,-0.46321746706962585,-0.31976816058158875,-1.119275689125061
1789031212127087900,5.500087890625,-0.601778507232666,-0.35680311918258667,-1.115742564201355
1789031212137094700,5.5100947265625,-0.7084701061248779,-0.45927146077156067,-1.0628327131271362
1789031212147101000,5.520100830078125,-0.773928165435791,-0.5353497266769409,-1.0067929029464722
1789031212157107700,5.530107666015625,-0.8012993335723877,-0.3913653790950775,-1.0043212175369263
1789031212167113700,5.54011376953125,-0.8468026518821716,0.03194887936115265,-1.0096815824508667
1789031212177121000,5.55012109375,-0.9474760293960571,0.4489591419696808,-1.0917152166366577
1789031212187127800,5.5601279296875,-1.0478992462158203,0.6686409115791321,-1.279707431793213
1789031212197133800,5.5701337890625,-1.0920372009277344,0.6547362804412842,-1.420164942741394
1789031212207140900,5.580140869140625,-1.0019056797027588,0.5865553617477417,-1.3994994163513184
1789031212217147000,5.59014697265625,-0.8563191890716553,0.6023934483528137,-1.2886452674865723
1789031212227153700,5.600153564453125,-0.7539299726486206,0.6401160359382629,-1.1451382637023926
1789031212237159700,5.61015966796875,-0.7291130423545837,0.6479212641716003,-0.9369331002235413
1789031212247167000,5.6201669921875,-0.7569563984870911,0.661017894744873,-0.6408737301826477
1789031212257172700,5.6301728515625,-0.852749764919281,0.6596066951751709,-0.3446556627750397
1789031212267179800,5.6401796875,-0.9887427687644958,0.6096585392951965,-0.17581523954868317
1789031212277186800,5.650186767578125,-1.1271642446517944,0.5041387677192688,-0.17293289303779602
1789031212287192800,5.66019287109375,-1.199721097946167,0.36898282170295715,-0.2799123525619507
1789031212297199600,5.67019970703125,-1.1824182271957397,0.3398824632167816,-0.4199610650539398
1789031212307206000,5.680205810546875,-1.1067253351211548,0.38438230752944946,-0.5281482338905334
1789031212317213000,5.690212890625,-0.9651588797569275,0.4748394787311554,-0.5672173500061035
1789031212327218700,5.70021875,-0.803502082824707,0.5721969604492188,-0.5663768649101257
1789031212337226000,5.71022607421875,-0.7144907116889954,0.6401634812355042,-0.5740771293640137
1789031212347231700,5.720231689453125,-0.7474220395088196,0.7017658352851868,-0.5609354972839355
1789031212357238800,5.73023876953125,-0.8430396318435669,0.6504738926887512,-0.5290396213531494
1789031212367244800,5.740244873046875,-0.9009018540382385,0.4460776150226593,-0.5036197304725647
1789031212377251800,5.750251953125,-0.8722537159919739,0.16222672164440155,-0.480392724275589
1789031212387259000,5.7602587890625,-0.7254868745803833,-0.04410754144191742,-0.48561224341392517
1789031212397264600,5.7702646484375,-0.5861486792564392,-0.17987655103206635,-0.5489670038223267
1789031212407272000,5.78027197265625,-0.5044008493423462,-0.22237421572208405,-0.6691650152206421
1789031212417277700,5.790277587890625,-0.5012521743774414,-0.2455144226551056,-0.8299834728240967
1789031212427284700,5.80028466796875,-0.5497035980224609,-0.2024063616991043,-0.9528926014900208
1789031212437291000,5.810291015625,-0.5947427153587341,-0.11488477140665054,-0.9510084390640259
1789031212447297800,5.8202978515625,-0.5986682176589966,-0.000975782226305455,-0.8874393105506897
1789031212457303800,5.8303037109375,-0.582859992980957,0.05032575502991676,-0.8902044892311096
1789031212467310800,5.840310791015625,-0.5611608028411865,-0.015733156353235245,-1.0114449262619019
1789031212477318000,5.85031787109375,-0.5174037218093872,-0.14642778038978577,-1.1907355785369873
1789031212487323600,5.86032373046875,-0.5030077695846558,-0.2631852924823761,-1.297695517539978
1789031212497331000,5.8703310546875,-0.5451525449752808,-0.35778477787971497,-1.2655344009399414
1789031212507337000,5.8803369140625,-0.584517776966095,-0.5295069813728333,-1.205784559249878
1789031212517344000,5.890343994140625,-0.5868797302246094,-0.6768010854721069,-1.1831034421920776
1789031212527350000,5.90035009765625,-0.5584059953689575,-0.6151286959648132,-1.1686805486679077
1789031212537356800,5.910356689453125,-0.5561426281929016,-0.5515076518058777,-1.1906063556671143
1789031212547363000,5.920363037109375,-0.5954505801200867,-0.7891851663589478,-1.1714342832565308
1789031212557369900,5.930369873046875,-0.6679431796073914,-1.1270183324813843,-1.0050655603408813
1789031212567377000,5.940376953125,-0.7680441737174988,-1.2247341871261597,-0.8523982167243958
1789031212577383200,5.950383056640625,-0.7910866737365723,-1.0274635553359985,-0.8408139944076538
1789031212587390000,5.960389892578125,-0.6995274424552917,-0.7388516664505005,-0.9076420664787292
1789031212597396000,5.97039599609375,-0.5917245745658875,-0.7156747579574585,-0.9983155131340027
1789031212607403000,5.980403076171875,-0.5701550841331482,-0.8927813172340393,-1.016444444656372
1789031212617409000,5.990408935546875,-0.6390731930732727,-0.9528214931488037,-0.9061802625656128
1789031212627415800,6.000415771484375,-0.6987263560295105,-0.8238999843597412,-0.7927061319351196
1789031212637421800,6.010421875,-0.6575294137001038,-0.7636182904243469,-0.7685675024986267
1789031212647428900,6.020428955078125,-0.5269511342048645,-0.8217335343360901,-0.8211809396743774
1789031212657436000,6.030435791015625,-0.48260578513145447,-1.0558576583862305,-0.8761448264122009
1789031212667442000,6.04044189453125,-0.6002589464187622,-1.4047921895980835,-0.8473643064498901
1789031212677449000,6.050448974609375,-0.7884112596511841,-1.3945767879486084,-0.756442666053772
1789031212687455000,6.060455078125,-0.9959841370582581,-0.9339048266410828,-0.748153030872345
1789031212697461800,6.070461669921875,-1.1608858108520508,-0.4348366856575012,-0.8682331442832947
1789031212707468000,6.080468017578125,-1.1270750761032104,-0.1796182245016098,-0.803882896900177
1789031212717474800,6.090474853515625,-0.8782447576522827,-0.3626607656478882,-0.6240678429603577
1789031212727481900,6.10048193359375,-0.6948554515838623,-0.7847265005111694,-0.5842663645744324
1789031212737488100,6.110488037109375,-0.7692276835441589,-0.7687891125679016,-0.7046242356300354
1789031212747495000,6.120494873046875,-0.8348075151443481,-0.7431143522262573,-0.6828877329826355
1789031212757501000,6.1305009765625,-0.741127610206604,-0.9490091800689697,-0.6416348814964294
1789031212767508000,6.140508056640625,-0.7227920293807983,-0.8970628976821899,-0.6732702851295471
1789031212777514000,6.150513916015625,-0.6933212280273438,-0.5750201344490051,-0.6549959182739258
1789031212787520800,6.160520751953125,-0.5774936676025391,-0.3241514563560486,-0.6393812894821167
1789031212797526800,6.17052685546875,-0.43782714009284973,-0.055215585976839066,-0.6562175154685974
1789031212807534000,6.1805341796875,-0.31346017122268677,0.12869912385940552,-0.665512204170227
1789031212817540900,6.190540771484375,-0.25915780663490295,0.24903671443462372,-0.5619080662727356
1789031212827547000,6.200546875,-0.28562721610069275,0.12221459299325943,-0.4720325171947479
1789031212837554000,6.210553955078125,-0.31033337116241455,0.1583251953125,-0.3766540586948395
1789031212847560000,6.220559814453125,-0.23499973118305206,0.42382052540779114,-0.37408411502838135
1789031212857566700,6.230566650390625,-0.19320380687713623,0.4623660445213318,-0.3489784896373749
1789031212867573000,6.240572998046875,-0.14978790283203125,0.27685344219207764,-0.22826512157917023
1789031212877580000,6.250580078125,-0.03850877657532692,0.32380735874176025,-0.11298460513353348
1789031212887586800,6.2605869140625,0.08931150287389755,0.5769967436790466,-0.030789071694016457
1789031212897593000,6.270593017578125,0.2514157295227051,0.873440146446228,0.008064850233495235
1789031212907600000,6.280599853515625,0.33734288811683655,1.2199571132659912,-0.008414523676037788
1789031212917606000,6.29060595703125,0.3438500463962555,1.323402762413025,0.03539421036839485
1789031212927613000,6.300613037109375,0.31659045815467834,0.9876487255096436,0.23869433999061584
1789031212937619000,6.310618896484375,0.32007014751434326,0.5316305756568909,0.4599071443080902
1789031212947626000,6.3206259765625,0.3628152012825012,0.2990407645702362,0.6594639420509338
1789031212957632000,6.330632080078125,0.4757654666900635,0.2408488243818283,0.8257580995559692
1789031212967639000,6.34063916015625,0.6447334289550781,0.4432716965675354,0.9008083939552307
1789031212977645800,6.350645751953125,0.9151095747947693,0.7953687906265259,0.9003859758377075
1789031212987652000,6.360652099609375,1.243577480316162,0.9341045618057251,0.8875210881233215
1789031212997659000,6.370658935546875,1.4426742792129517,0.8585610389709473,0.9424381256103516
1789031213007665000,6.380664794921875,1.4731181859970093,0.6016405820846558,1.0200189352035522
1789031213017672000,6.390671875,1.4709019660949707,0.4151167571544647,1.0974454879760742
1789031213027678000,6.400677978515625,1.4990547895431519,0.3648735582828522,1.129815697669983
1789031213037685000,6.41068505859375,1.6181321144104004,0.3703005611896515,1.1129217147827148
1789031213047692000,6.420692138671875,1.7493906021118164,0.3753107786178589,1.1483111381530762
1789031213057698000,6.430697998046875,1.84827721118927,0.2534588873386383,1.1639251708984375
1789031213067704800,6.440704833984375,1.9277139902114868,0.21804498136043549,1.156622052192688
1789031213077710800,6.4507109375,1.9454940557479858,0.23686127364635468,1.1790642738342285
1789031213087718000,6.4607177734375,1.9314370155334473,0.19012759625911713,1.242532730102539
1789031213097724000,6.470723876953125,1.9016733169555664,0.13694213330745697,1.2569427490234375
1789031213107731000,6.48073095703125,1.8545633554458618,-0.022727416828274727,1.233280062675476
1789031213117738000,6.490738037109375,1.8437330722808838,-0.1913720965385437,1.3008700609207153
1789031213127744000,6.500743896484375,1.92240571975708,-0.11256062984466553,1.362829566001892
1789031213137750800,6.510750732421875,2.0430209636688232,0.15299434959888458,1.2894493341445923
1789031213147757000,6.520757080078125,2.1329574584960938,0.376578152179718,1.2029857635498047
1789031213157763800,6.530763916015625,2.1010661125183105,0.48836249113082886,1.173963189125061
1789031213167769900,6.540769775390625,1.9937622547149658,0.5783549547195435,1.1573247909545898
1789031213177777200,6.550777099609375,1.8917481899261475,0.6036331653594971,1.1734652519226074
1789031213187784000,6.560783935546875,1.849103331565857,0.6416599154472351,1.1449025869369507
1789031213197790000,6.5707900390625,1.8777223825454712,0.8771094083786011,0.9988630414009094
1789031213207797000,6.580796875,1.897093415260315,1.1522715091705322,0.8140069246292114
1789031213217803000,6.590802978515625,1.7758578062057495,1.2728914022445679,0.7197392582893372
1789031213227809800,6.600809814453125,1.5440025329589844,1.1196355819702148,0.7592475414276123
1789031213237815800,6.61081591796875,1.2806971073150635,0.7641053795814514,0.8356027603149414
1789031213247823000,6.620822998046875,1.137369990348816,0.34194961190223694,0.8659177422523499
1789031213257830000,6.630829833984375,1.1964352130889893,0.1913960576057434,0.8673720955848694
1789031213267836000,6.6408359375,1.3665603399276733,0.20431213080883026,0.8546313047409058
1789031213277843000,6.650843017578125,1.4921691417694092,0.22378143668174744,0.8216446042060852
1789031213287849000,6.660848876953125,1.4745845794677734,0.3158125579357147,0.821517825126648
1789031213297855700,6.670855712890625,1.3506876230239868,0.2890744209289551,0.8673210144042969
1789031213307862000,6.680862060546875,1.0920861959457397,0.16573171317577362,0.9624560475349426
1789031213317869000,6.690869140625,0.7280563116073608,0.023312246426939964,1.067415475845337
1789031213327875800,6.700875732421875,0.40523776412010193,0.038782015442848206,1.0971184968948364
1789031213337882000,6.710882080078125,0.18021930754184723,0.1771039366722107,0.9164320826530457
1789031213347889000,6.720888916015625,0.00968431867659092,0.23117409646511078,0.6019452214241028
1789031213357895000,6.73089501953125,-0.13929903507232666,0.13113485276699066,0.2910888195037842
1789031213367902000,6.74090185546875,-0.2697635591030121,-0.2047872394323349,0.020432304590940475
1789031213377909000,6.750908935546875,-0.39249375462532043,-0.5057694315910339,-0.20466633141040802
1789031213387915000,6.7609150390625,-0.471918523311615,-0.5740976333618164,-0.44114917516708374
1789031213397922000,6.770922119140625,-0.542302668094635,-0.5298467874526978,-0.7510942220687866
1789031213407928000,6.780927978515625,-0.6233858466148376,-0.47133103013038635,-1.062990665435791
1789031213417934800,6.790934814453125,-0.6596758961677551,-0.5068011283874512,-1.2405192852020264
1789031213427940900,6.80094091796875,-0.6944176554679871,-0.6260843873023987,-1.2909481525421143
1789031213437948000,6.810947998046875,-0.7367669939994812,-0.8361204862594604,-1.3167853355407715
1789031213447955000,6.820954833984375,-0.7809168696403503,-0.9906117916107178,-1.3704757690429688
1789031213457961000,6.8309609375,-0.7900989055633545,-0.8986485600471497,-1.473370909690857
1789031213467968000,6.840968017578125,-0.7902445793151855,-0.5549023747444153,-1.5859845876693726
1789031213477974000,6.85097412109375,-0.8262009620666504,-0.07842157036066055,-1.6159510612487793
1789031213487980800,6.860980712890625,-0.8819350600242615,0.46498578786849976,-1.4591113328933716
1789031213497987000,6.870987060546875,-0.9814773797988892,0.9348523616790771,-1.1818746328353882
1789031213507993900,6.880993896484375,-1.1015585660934448,1.0093955993652344,-0.915894627571106
1789031213518000400,6.89100048828125,-1.1977425813674927,0.6459718346595764,-0.7228010892868042
1789031213528006700,6.901006591796875,-1.2266474962234497,0.2606659531593323,-0.5475350022315979
1789031213538013400,6.911013427734375,-1.2655218839645386,-0.017610685899853706,-0.340977281332016
1789031213548019500,6.92101953125,-1.3684985637664795,-0.19968567788600922,-0.16422303020954132
1789031213558026500,6.931026611328125,-1.5080649852752686,-0.28105324506759644,-0.1862098127603531
1789031213568033500,6.941033447265625,-1.5761932134628296,-0.23085957765579224,-0.3569868803024292
1789031213578039300,6.951039306640625,-1.5705236196517944,-0.17389217019081116,-0.561955988407135
1789031213588046600,6.961046630859375,-1.5647737979888916,-0.12554727494716644,-0.7115540504455566
1789031213598052600,6.971052490234375,-1.6209691762924194,-0.10517249256372452,-0.7865217328071594
1789031213608059400,6.981059326171875,-1.6907267570495605,-0.2566392421722412,-0.7964819669723511
1789031213618065400,6.9910654296875,-1.745995044708252,-0.5145373940467834,-0.8135080933570862
1789031213628072400,7.001072509765625,-1.7385661602020264,-0.7068836688995361,-0.7725670337677002
1789031213638079500,7.01107958984375,-1.712904453277588,-0.8074515461921692,-0.6910260915756226
1789031213648085200,7.021085205078125,-1.7302192449569702,-0.7455918788909912,-0.6776442527770996
1789031213658092500,7.031092529296875,-1.6958434581756592,-0.5227478742599487,-0.7887276411056519
1789031213668098600,7.0410986328125,-1.5983986854553223,-0.36439821124076843,-0.8789060115814209
1789031213678105300,7.051105224609375,-1.5338870286941528,-0.409298837184906,-0.9000189900398254
1789031213688111600,7.061111572265625,-1.5204212665557861,-0.5831358432769775,-0.8167632818222046
1789031213698118400,7.071118408203125,-1.4519604444503784,-0.7206940054893494,-0.7338420152664185
1789031213708125400,7.08112548828125,-1.3218402862548828,-0.9247105121612549,-0.695914089679718
1789031213718131500,7.09113134765625,-1.2326688766479492,-1.138685703277588,-0.7420469522476196
1789031213728138500,7.101138427734375,-1.248449683189392,-1.3067348003387451,-0.8421088457107544
1789031213738144500,7.11114453125,-1.3535878658294678,-1.4815468788146973,-0.8815577030181885
1789031213748151600,7.121151611328125,-1.4282969236373901,-1.5926480293273926,-0.7815453410148621
1789031213758158300,7.131158447265625,-1.3972163200378418,-1.6223881244659424,-0.6090010404586792
1789031213768164400,7.141164306640625,-1.2260229587554932,-1.3359612226486206,-0.4891257584095001
1789031213778171600,7.151171630859375,-1.0899401903152466,-0.8922995924949646,-0.46448326110839844
1789031213788177400,7.161177490234375,-1.0823947191238403,-0.8548533916473389,-0.5077716112136841
1789031213798184400,7.171184326171875,-1.0758305788040161,-1.5674798488616943,-0.6017348766326904
1789031213808190500,7.1811904296875,-0.976700484752655,-1.7797002792358398,-0.7334542870521545
1789031213818197500,7.191197509765625,-0.9470259547233582,-0.7200812101364136,-0.8219886422157288
1789031213828204300,7.201204345703125,-0.9390583038330078,0.1906391829252243,-0.9177250266075134
1789031213838210300,7.211210205078125,-0.8854166269302368,-0.2112046480178833,-0.9352760910987854
1789031213848217600,7.221217529296875,-0.8016647696495056,-0.43709105253219604,-0.8005243539810181
1789031213858223400,7.231223388671875,-0.7965152859687805,-0.33687442541122437,-0.688302218914032
1789031213868230400,7.24123046875,-0.8030328154563904,-0.34462130069732666,-0.6811500191688538
1789031213878237400,7.251237548828125,-0.7826852202415466,-0.07284890860319138,-0.7320020198822021
1789031213888243500,7.261243408203125,-0.7358604073524475,0.06458085775375366,-0.7827094197273254
1789031213898250200,7.271250244140625,-0.6630054116249084,-0.43145179748535156,-0.5345070958137512
1789031213908256500,7.281256591796875,-0.6431254148483276,-0.7544676661491394,-0.26573100686073303
1789031213918263600,7.291263671875,-0.6380212306976318,-0.5137213468551636,-0.3161102831363678
1789031213928269300,7.301269287109375,-0.5377377867698669,0.1647828221321106,-0.3706129491329193
1789031213938276600,7.311276611328125,-0.2321741133928299,1.0815616846084595,-0.5680429339408875
1789031213948283400,7.321283447265625,0.20772096514701843,1.5681278705596924,-0.6082814335823059
1789031213958289400,7.331289306640625,0.4409489035606384,1.5335863828659058,-0.5001821517944336
1789031213968296400,7.34129638671875,0.48065024614334106,1.2661041021347046,-0.30637192726135254
1789031213978302500,7.351302490234375,0.44704753160476685,0.9942017197608948,-0.06744029372930527
1789031213988309500,7.3613095703125,0.5041353106498718,0.9593638181686401,0.08321339637041092
1789031213998316500,7.371316650390625,0.612612247467041,0.934264600276947,0.2316148579120636
1789031214008322600,7.381322509765625,0.7728940844535828,0.9550899863243103,0.39463359117507935
1789031214018329300,7.391329345703125,0.9584964513778687,1.0274419784545898,0.4433737099170685
1789031214028335400,7.40133544921875,1.1469483375549316,1.129145622253418,0.494030237197876
1789031214038342400,7.41134228515625,1.3228716850280762,1.2922656536102295,0.5470700263977051
1789031214048349400,7.421349365234375,1.4811314344406128,1.2892192602157593,0.5905240178108215
1789031214058355500,7.43135546875,1.598058819770813,1.209460973739624,0.6459515690803528
1789031214068362500,7.441362548828125,1.733366847038269,1.1759837865829468,0.7243443727493286
1789031214078368500,7.451368408203125,1.8466236591339111,1.1235826015472412,0.820480227470398
1789031214088375300,7.461375244140625,2.0426576137542725,0.975362241268158,0.8321163654327393
1789031214098381600,7.471381591796875,2.2012131214141846,1.0634082555770874,0.7830780148506165
1789031214108388400,7.481388427734375,2.2512073516845703,1.093940258026123,0.7650161981582642
1789031214118395600,7.491395751953125,2.1482980251312256,0.8049119114875793,0.8663918375968933
1789031214128401400,7.5014013671875,1.899472951889038,0.3537548780441284,1.0695630311965942
1789031214138408400,7.511408447265625,1.6708285808563232,-0.22843371331691742,1.1890190839767456
1789031214148414500,7.52141455078125,1.5501235723495483,-0.4010792374610901,1.212578296661377
1789031214158421500,7.53142138671875,1.5912257432937622,-0.4348806142807007,1.3322399854660034
1789031214168428500,7.541428466796875,1.800457239151001,-0.2086583971977234,1.461910605430603
1789031214178434300,7.551434326171875,2.1715409755706787,0.43333253264427185,1.318321943283081
1789031214188441600,7.561441650390625,2.5767297744750977,0.9659615159034729,1.032751202583313
1789031214198447400,7.571447265625,2.8199241161346436,1.1204216480255127,0.9028264880180359
1789031214208454400,7.581454345703125,2.830190896987915,0.827950119972229,1.0885803699493408
1789031214218460700,7.591460693359375,2.6522066593170166,0.4138467013835907,1.3963818550109863
1789031214228467500,7.601467529296875,2.485485792160034,0.18860693275928497,1.5409572124481201
1789031214238474500,7.611474609375,2.384777069091797,0.1691988855600357,1.4609038829803467
1789031214248480500,7.62148046875,2.257258415222168,0.37236106395721436,1.3372397422790527
1789031214258487600,7.631487548828125,2.0711519718170166,0.7146057486534119,1.2737263441085815
1789031214268493300,7.641493408203125,1.9764524698257446,0.9865951538085938,1.1834746599197388
1789031214278500600,7.65150048828125,1.9467356204986572,0.8426454663276672,1.0569510459899902
1789031214288507400,7.66150732421875,1.880568265914917,0.32283371686935425,0.9501439929008484
1789031214298513400,7.671513427734375,1.7539680004119873,-0.22340326011180878,0.7145330309867859
1789031214308520400,7.6815205078125,1.5462702512741089,-0.43160173296928406,0.4888271987438202
1789031214318526500,7.6915263671875,1.3069124221801758,-0.03532310202717781,0.41598814725875854
1789031214328533500,7.701533447265625,0.8757174015045166,0.47394731640815735,0.3276841342449188
1789031214338540500,7.71154052734375,0.2871532142162323,0.5737029314041138,0.11332762241363525
1789031214348546600,7.721546630859375,-0.27023547887802124,0.07112184911966324,-0.06634040921926498
1789031214358553300,7.73155322265625,-0.6478536128997803,-0.4200689196586609,-0.1875573843717575
1789031214368559400,7.741559326171875,-0.8373790383338928,-0.7292267680168152,-0.36445093154907227
1789031214378566400,7.75156640625,-0.8504152297973633,-0.6673865914344788,-0.585480272769928
1789031214388573400,7.761573486328125,-0.8180570602416992,-0.2372940480709076,-0.8332218527793884
1789031214398579500,7.771579345703125,-0.8298801183700562,0.093769371509552,-1.025131106376648
1789031214408586500,7.78158642578125,-0.8344373106956482,0.05588537082076073,-1.050366759300232
1789031214418592500,7.791592529296875,-0.8751850128173828,-0.3650285601615906,-0.9102889895439148
1789031214428599300,7.801599365234375,-0.9531381726264954,-0.7939972281455994,-0.7276474833488464
1789031214438606600,7.811606689453125,-1.0605069398880005,-0.9903569221496582,-0.6032952070236206
1789031214448612400,7.8216123046875,-1.1166365146636963,-0.9325010776519775,-0.5311323404312134
1789031214458619400,7.831619384765625,-0.9481319189071655,-0.6041111946105957,-0.5378682613372803
1789031214468625700,7.841625732421875,-0.7319900393486023,0.09665463864803314,-0.9330312609672546
1789031214478632400,7.851632568359375,-0.6473358869552612,0.08552395552396774,-1.0200793743133545
1789031214488639200,7.86163916015625,-0.5991923213005066,0.689568042755127,-0.7340604066848755
1789031214498645500,7.8716455078125,-0.7228593826293945,1.1272886991500854,-0.18571314215660095
1789031214508652500,7.881652587890625,-0.9481630921363831,0.978800356388092,0.27418628334999084
1789031214518658600,7.891658447265625,-1.1406121253967285,0.3060390055179596,0.5260204076766968
1789031214528665900,7.901665771484375,-1.2453255653381348,-0.502545177936554,0.5075084567070007
1789031214538671600,7.911671630859375,-1.3829033374786377,-0.8760143518447876,0.21913261711597443
1789031214548678700,7.9216787109375,-1.5267298221588135,-0.9485609531402588,-0.13050474226474762
1789031214558685700,7.931685791015625,-1.5431641340255737,-0.8586326837539673,-0.4171234667301178
1789031214568691700,7.941691650390625,-1.551732063293457,-0.41234123706817627,-0.7272144556045532
1789031214578698800,7.95169873046875,-1.8183646202087402,0.28118613362312317,-0.9467689394950867
1789031214588704500,7.96170458984375,-2.3776543140411377,1.163863182067871,-1.0901319980621338
1789031214598711800,7.9717119140625,-2.8846018314361572,1.6348823308944702,-1.3992199897766113
1789031214608718600,7.981718505859375,-3.0033578872680664,1.587972640991211,-1.962838888168335
1789031214618724600,7.991724609375,-3.042109251022339,1.4604357481002808,-2.0345098972320557
1789031214628731600,8.001731689453125,-2.869814395904541,0.8526203632354736,-1.3888424634933472
1789031214638737700,8.011737548828124,-2.497134208679199,-0.08890590071678162,-0.5085242390632629
1789031214648744700,8.02174462890625,-2.1912922859191895,-1.0827842950820923,0.0630388855934143
1789031214658751700,8.031751708984375,-1.9128670692443848,-1.686160683631897,0.0794687271118164
1789031214668757800,8.0417578125,-1.7682409286499023,-1.7084391117095947,-0.28377577662467957
1789031214678764500,8.0517646484375,-1.671188473701477,-1.3542810678482056,-0.6650962233543396
1789031214688770800,8.061770751953125,-1.507732629776001,-1.0383925437927246,-0.933081865310669
1789031214698777600,8.071777587890624,-1.516602635383606,-0.9966970682144165,-1.0116264820098877
1789031214708784600,8.08178466796875,-1.7689250707626343,-0.7924835085868835,-1.092224359512329
1789031214718790700,8.091790771484375,-1.8353501558303833,-0.44445282220840454,-1.0909287929534912
1789031214728797700,8.101797607421876,-1.7341375350952148,-0.012119246646761894,-0.898171067237854
1789031214738803700,8.1118037109375,-1.768771767616272,0.2979621887207031,-0.7257454991340637
1789031214748810800,8.121810791015625,-1.916123628616333,-0.0668882206082344,-0.6840419769287109
1789031214758817800,8.13181787109375,-2.0624849796295166,-0.9362491965293884,-0.6083610653877258
1789031214768823600,8.141823486328125,-2.1256062984466553,-1.1907250881195068,-0.45566391944885254
1789031214778830800,8.151830810546874,-1.9685335159301758,-0.31443169713020325,-0.4213424324989319
1789031214788836600,8.161836669921875,-1.6196277141571045,0.5678695440292358,-0.6483481526374817
1789031214798843600,8.17184375,-1.3869426250457764,0.5519587993621826,-0.9892325401306152
1789031214808850700,8.1818505859375,-1.3526318073272705,0.1197650134563446,-0.8704795241355896
1789031214818856700,8.191856689453125,-1.2419090270996094,0.0016759273130446672,-0.5923794507980347
1789031214828863700,8.20186376953125,-0.9061245918273926,0.40428969264030457,-0.633678138256073
1789031214838869800,8.211869873046876,-0.6703011393547058,0.7152717709541321,-0.654601514339447
1789031214848876800,8.221876708984375,-0.7700200080871582,0.46098971366882324,-0.4095883071422577
1789031214858883600,8.231883544921875,-0.9342312812805176,-0.08857034891843796,-0.06682936102151871
1789031214868889900,8.241889892578126,-0.9067760109901428,-0.5092544555664062,0.14952796697616577
1789031214878896600,8.251896728515625,-0.6500163674354553,-0.4459308683872223,0.1689208447933197
1789031214888902700,8.261902587890624,-0.2990516722202301,-0.14221146702766418,0.1445084512233734
1789031214898909700,8.27190966796875,0.008787100203335285,-0.020008062943816185,0.135817751288414
1789031214908916700,8.281916748046875,0.35846227407455444,0.006411293987184763,0.1096455380320549
1789031214918922800,8.2919228515625,0.7197762727737427,0.07244090735912323,0.2001703828573227
1789031214928929800,8.3019296875,0.9915324449539185,-0.018790198490023613,0.38786038756370544
1789031214938935800,8.311935791015625,1.204289197921753,-0.1455145925283432,0.595653772354126
1789031214948942600,8.321942626953126,1.4460275173187256,0.013073990121483803,0.6218172311782837
1789031214958950000,8.331949951171875,1.7282413244247437,0.6218934059143066,0.45797181129455566
1789031214968955600,8.34195556640625,1.8349933624267578,1.1434926986694336,0.24090714752674103
1789031214978962700,8.351962646484376,1.8954910039901733,1.3436334133148193,0.020324978977441788
1789031214988968700,8.36196875,1.9061663150787354,1.2077454328536987,-0.039852872490882874
1789031214998975700,8.371975830078124,1.8555502891540527,0.777660608291626,0.10739357024431229
1789031215008982800,8.381982666015626,1.7971599102020264,0.48964959383010864,0.35158199071884155
1789031215018988500,8.391988525390625,1.889455795288086,0.5877684354782104,0.5290071368217468
1789031215028995800,8.401995849609374,2.083678960800171,0.9644083976745605,0.5331398248672485
1789031215039001600,8.412001708984375,2.206266403198242,1.330106496810913,0.36923661828041077
1789031215049008600,8.422008544921875,2.284994125366211,1.3666082620620728,0.22189244627952576
1789031215059015700,8.432015625,2.3192317485809326,1.0463682413101196,0.2638430893421173
1789031215069021700,8.442021728515625,2.3390400409698486,0.7566897869110107,0.3157808482646942
1789031215079028500,8.452028564453125,2.399631977081299,0.46339720487594604,0.43185579776763916
1789031215089034800,8.46203466796875,2.442652702331543,-0.013017265126109123,0.655117392539978
1789031215099041800,8.472041748046875,2.456266403198242,-0.5188010931015015,1.0226423740386963
1789031215109048600,8.482048583984374,2.4969260692596436,-0.5377089977264404,1.261461853981018
1789031215119054800,8.492054931640626,2.6692755222320557,-0.2171943634748459,1.3574483394622803
1789031215129061600,8.5020615234375,2.712052822113037,-0.08002319931983948,1.4097254276275635
1789031215139067600,8.512067626953124,2.6532349586486816,-0.3684033155441284,1.5145386457443237
1789031215149074700,8.52207470703125,2.61598539352417,-0.7020885944366455,1.6894779205322266
1789031215159081700,8.532081787109375,2.6764907836914062,-0.7371051907539368,1.8724925518035889
1789031215169087700,8.542087646484376,2.8844175338745117,-0.0464942641556263,1.8454794883728027
1789031215179094800,8.5520947265625,3.10471773147583,0.9013060927391052,1.5587886571884155
1789031215189100800,8.562100830078125,3.0767688751220703,1.7142280340194702,1.318002700805664
1789031215199107600,8.572107666015626,2.6301772594451904,1.9247783422470093,1.2917451858520508
1789031215209115000,8.582114990234375,1.982314109802246,0.8509601354598999,1.4402047395706177
1789031215219120600,8.59212060546875,1.461699366569519,-0.25533828139305115,1.4479286670684814
1789031215229127700,8.602127685546876,0.9310355186462402,-0.2717913091182709,1.2263585329055786
1789031215239133700,8.6121337890625,0.5493667125701904,0.30838632583618164,0.9668795466423035
1789031215249140700,8.622140625,0.2774720788002014,0.5936718583106995,0.5416038632392883
1789031215259147500,8.6321474609375,-0.16000431776046753,0.5936020612716675,-0.014945393428206444
1789031215269153500,8.642153564453125,-0.6781694293022156,0.023677365854382515,-0.5520370602607727
1789031215279160800,8.652160888671874,-0.8917016983032227,-0.41155773401260376,-0.8123767971992493
1789031215289166600,8.66216650390625,-0.75905442237854,-0.5633395314216614,-0.8092877864837646
1789031215299173600,8.672173583984375,-0.49910542368888855,-0.2884749472141266,-0.8358429670333862
1789031215309180700,8.6821806640625,-0.608799934387207,-0.3776002824306488,-0.8033028841018677
1789031215319186700,8.692186767578125,-0.848638117313385,-0.5034756660461426,-0.8716491460800171
1789031215329193500,8.702193359375,-1.0673222541809082,-0.535202145576477,-0.9490587115287781
1789031215339199700,8.71219970703125,-1.210334300994873,-0.3979785144329071,-0.9346036314964294
1789031215349206800,8.722206787109375,-1.1915158033370972,-0.14127057790756226,-0.8459416627883911
1789031215359213600,8.732213623046874,-1.0371747016906738,0.025112010538578033,-0.6641263365745544
1789031215369219800,8.7422197265625,-0.9568833708763123,0.007020092569291592,-0.4647836685180664
1789031215379226600,8.7522265625,-0.9345967173576355,-0.06518832594156265,-0.2836194634437561
1789031215389233700,8.762233642578124,-1.0134023427963257,-0.23747992515563965,-0.14497129619121552
1789031215399239700,8.77223974609375,-1.1741541624069214,-0.29090720415115356,-0.05446137860417366
1789031215409246700,8.782246826171875,-1.2073185443878174,0.09964057058095932,-0.11246795207262039
1789031215419252700,8.792252685546876,-1.1895426511764526,0.3841117024421692,-0.2241247147321701
1789031215429259800,8.802259765625,-1.1654179096221924,0.4514915645122528,-0.4011367857456207
1789031215439266600,8.8122666015625,-1.2378149032592773,0.049254629760980606,-0.6450858116149902
1789031215449272600,8.8222724609375,-1.4002575874328613,-0.6363543272018433,-0.7819608449935913
1789031215459280000,8.83227978515625,-1.4662795066833496,-0.7316044569015503,-0.6899198293685913
1789031215469285600,8.84228564453125,-1.4756951332092285,-0.48703357577323914,-0.46752992272377014
1789031215479292700,8.852292724609375,-1.5504686832427979,-0.28967151045799255,-0.44088152050971985
1789031215489299700,8.8622998046875,-1.758711338043213,-0.16398946940898895,-0.8161936402320862
1789031215499305700,8.8723056640625,-2.203660249710083,-0.19689814746379852,-1.23350989818573
1789031215509312500,8.8823125,-2.598381757736206,-0.1883227676153183,-1.2593058347702026
1789031215519318300,8.892318359375,-2.5515689849853516,-0.2900829613208771,-0.952501654624939
1789031215529325600,8.90232568359375,-2.1113481521606445,-0.4571901857852936,-0.7008140087127686
1789031215539332400,8.912332275390625,-1.7668778896331787,-0.46296417713165283,-0.7279998660087585
1789031215549338400,8.92233837890625,-1.6154929399490356,-0.4637082815170288,-0.9938523173332214
1789031215559345400,8.932345458984376,-1.667827844619751,-0.20525994896888733,-1.2855384349822998
1789031215569351400,8.942351318359375,-1.8988183736801147,-0.21861302852630615,-1.418821930885315
1789031215579358500,8.9523583984375,-2.3006155490875244,-0.31379520893096924,-1.398929238319397
1789031215589365500,8.962365478515625,-2.6599249839782715,-0.4404681921005249,-1.0695340633392334
1789031215599371500,8.97237158203125,-2.6067593097686768,-0.6325255036354065,-0.5736145377159119
1789031215609378300,8.98237841796875,-2.1854851245880127,-0.6127454042434692,-0.2883862555027008
1789031215619384600,8.992384521484375,-1.792629361152649,-0.2816292941570282,-0.36971014738082886
1789031215629391400,9.002391357421875,-1.6686829328536987,-0.38211727142333984,-0.5324457883834839
1789031215639398400,9.0123984375,-1.6224526166915894,-0.8299866914749146,-0.5083417892456055
1789031215649404400,9.022404296875,-1.6372944116592407,-1.4792163372039795,-0.2094877064228058
1789031215659411500,9.032411376953124,-1.6418577432632446,-1.8765437602996826,0.14161279797554016
1789031215669418200,9.042418212890626,-1.5351924896240234,-2.170253038406372,0.2498018443584442
1789031215679424500,9.052424560546875,-1.4018805027008057,-1.3364412784576416,0.03830850496888161
1789031215689431600,9.062431640625,-1.2244240045547485,-0.19337213039398193,-0.1535501480102539
1789031215699437300,9.072437255859375,-0.9842917919158936,0.13440601527690887,-0.26026326417922974
1789031215709444600,9.082444580078125,-0.8327851295471191,-0.2683315873146057,-0.3039785325527191
1789031215719451400,9.092451416015624,-0.8006474375724792,-0.6192933320999146,-0.09559709578752518
1789031215729457400,9.10245751953125,-0.7802497148513794,-0.6970850825309753,0.11855487525463104
1789031215739464400,9.11246435546875,-0.7519419193267822,-0.7851890921592712,-0.028111528605222702
1789031215749470500,9.122470458984376,-0.7047589421272278,-0.833551824092865,-0.10644388198852539
1789031215759477500,9.1324775390625,-0.6291864514350891,-0.7127037048339844,-0.009970342740416527
1789031215769484500,9.142484619140625,-0.4862529933452606,-0.5897114872932434,-0.03297259658575058
1789031215779490600,9.152490478515626,-0.3429733216762543,-0.5188170671463013,-0.07674910873174667
1789031215789497300,9.162497314453125,-0.14447249472141266,-0.07724125683307648,-0.12162097543478012
1789031215799503600,9.172503662109374,0.025608690455555916,0.18702182173728943,-0.09212832897901535
1789031215809510400,9.182510498046875,0.16532664000988007,0.22130362689495087,-0.019903400912880898
1789031215819517400,9.192517333984375,0.26053571701049805,0.18185901641845703,0.10791528224945068
1789031215829523500,9.2025234375,0.3180682361125946,0.2739814817905426,0.11623313277959824
1789031215839530500,9.212530517578125,0.380048006772995,0.604915201663971,0.026804981753230095
1789031215849536500,9.22253662109375,0.5700171589851379,0.9964544773101807,-0.05612984672188759
1789031215859543600,9.23254345703125,0.8273869156837463,1.2415417432785034,-0.02599618025124073
1789031215869550600,9.242550537109375,1.0621850490570068,1.302639126777649,0.09942831844091415
1789031215879556400,9.252556396484374,1.304404616355896,1.1969788074493408,0.22995516657829285
1789031215889563600,9.262563720703126,1.5469120740890503,1.070317268371582,0.3445861339569092
1789031215899570400,9.2725703125,1.78080153465271,1.2243547439575195,0.35044029355049133
1789031215909576400,9.282576416015624,1.9849886894226074,1.5838260650634766,0.27398309111595154
1789031215919583500,9.29258349609375,2.1235954761505127,1.7253507375717163,0.2547907531261444
1789031215929589500,9.302589599609375,2.1963982582092285,1.6001275777816772,0.31173577904701233
1789031215939596300,9.31259619140625,2.2676336765289307,1.1240923404693604,0.49541348218917847
1789031215949603600,9.322603515625,2.347024917602539,0.7565656900405884,0.6530939340591431
1789031215959609600,9.332609619140625,2.3847761154174805,0.6798171401023865,0.7687728404998779
1789031215969616400,9.342616455078126,2.419651985168457,0.7714836597442627,0.8333510160446167
1789031215979622400,9.352622314453125,2.4957687854766846,0.8702491521835327,0.8253410458564758
1789031215989629400,9.36262939453125,2.5793240070343018,0.754638671875,0.8556731343269348
1789031215999636500,9.372636474609376,2.6171650886535645,0.567038893699646,0.9116138815879822
1789031216009642200,9.382642333984375,2.5656917095184326,0.3690353035926819,0.9601745009422302
1789031216019649500,9.3926494140625,2.458066701889038,0.18392349779605865,1.0500843524932861
1789031216029655600,9.402655517578125,2.3768246173858643,0.19122454524040222,1.1331020593643188
1789031216039662300,9.412662353515625,2.443479061126709,0.5163235664367676,1.0511720180511475
1789031216049669600,9.422669677734374,2.4953701496124268,0.731401264667511,0.900719165802002
1789031216059675400,9.43267529296875,2.4766628742218018,0.8051252365112305,0.8127818703651428
1789031216069682400,9.442682373046875,2.344635248184204,0.6236257553100586,0.8172141313552856
1789031216079689500,9.452689453125,2.083327054977417,0.11049401760101318,0.9520358443260193
1789031216089695500,9.462695556640625,1.9149113893508911,-0.14059066772460938,1.031307578086853
1789031216099702300,9.472702392578125,1.8055486679077148,-0.10301506519317627,1.042169213294983
1789031216109708500,9.48270849609375,1.6842496395111084,0.22767923772335052,0.9519679546356201
1789031216119715300,9.49271533203125,1.4965330362319946,0.5191201567649841,0.7542093396186829
1789031216129722400,9.502722412109375,1.1915448904037476,0.5318638682365417,0.5612188577651978
1789031216139728600,9.512728759765626,0.8677409887313843,0.5009704232215881,0.39853885769844055
1789031216149735400,9.5227353515625,0.6211690306663513,0.48003318905830383,0.33233001828193665
1789031216159741400,9.532741455078124,0.41638869047164917,0.40284067392349243,0.33554017543792725
1789031216169748500,9.54274853515625,0.09638086706399918,0.04115010052919388,0.2837968170642853
1789031216179755500,9.552755615234375,-0.3618314564228058,-0.6451904773712158,0.18573151528835297
1789031216189761300,9.56276123046875,-0.7821744084358215,-1.0127063989639282,-0.017140371724963188
1789031216199768600,9.5727685546875,-1.1088467836380005,-0.848497211933136,-0.2563076913356781
1789031216209775400,9.582775390625,-1.2774608135223389,-0.3797798156738281,-0.4351764917373657
1789031216219781400,9.592781494140626,-1.3356913328170776,0.16998638212680817,-0.5762518644332886
1789031216229788400,9.602788330078125,-1.2870231866836548,0.5481688380241394,-0.7047973275184631
1789031216239794400,9.61279443359375,-1.1289259195327759,0.5099918842315674,-0.7096951603889465
1789031216249801500,9.622801513671876,-1.0392930507659912,0.1197945773601532,-0.5428816676139832
1789031216259808500,9.63280859375,-1.069962501525879,-0.1046004444360733,-0.34836170077323914
1789031216269814500,9.642814453125,-1.2154475450515747,-0.250524640083313,-0.21204620599746704
1789031216279821300,9.6528212890625,-1.3578648567199707,-0.1524055153131485,-0.21337752044200897
1789031216289827300,9.662827392578125,-1.2705315351486206,0.3012101650238037,-0.37230804562568665
1789031216299834400,9.67283447265625,-1.0441248416900635,0.5162308812141418,-0.507626473903656
1789031216309841400,9.68284130859375,-0.8807545304298401,0.7571976780891418,-0.5903527736663818
1789031216319847400,9.692847412109375,-0.8752135038375854,0.9588266611099243,-0.5209627747535706
1789031216329854500,9.7028544921875,-1.065187692642212,0.7682870626449585,-0.2984143793582916
1789031216339860500,9.712860595703125,-1.3222181797027588,0.5500484704971313,-0.08500464260578156
1789031216349867300,9.7228671875,-1.4336190223693848,0.37466999888420105,-0.09077304601669312
1789031216359874600,9.73287451171875,-1.4597901105880737,0.07215835154056549,-0.2751697897911072
1789031216369880300,9.74288037109375,-1.559879183769226,-0.1850832998752594,-0.49502837657928467
1789031216379887400,9.752887451171874,-1.7824316024780273,-0.35765454173088074,-0.48368677496910095
1789031216389894400,9.762894287109376,-1.9712870121002197,-0.49502599239349365,-0.19852428138256073
1789031216399900400,9.772900390625,-2.0800986289978027,-0.7970675826072693,0.11056512594223022
1789031216409907500,9.782907470703124,-1.9211223125457764,-0.9583092331886292,0.03954820707440376
1789031216419913500,9.79291357421875,-1.6361854076385498,-0.6829367876052856,-0.4116716980934143
1789031216429920500,9.80292041015625,-1.5786118507385254,-0.2790936827659607,-0.8706667423248291
1789031216439927300,9.81292724609375,-1.8035030364990234,-0.13691045343875885,-1.062469482421875
1789031216449933600,9.82293359375,-2.178142786026001,-0.43180546164512634,-0.857749342918396
1789031216459940400,9.8329404296875,-2.317784309387207,-0.9520356059074402,-0.48955824971199036
1789031216469946400,9.8429462890625,-1.9627888202667236,-1.0073022842407227,-0.36279284954071045
1789031216479953400,9.852953369140625,-1.6381721496582031,-0.5881444811820984,-0.4572812616825104
1789031216489960400,9.86296044921875,-1.5270179510116577,-0.23601679503917694,-0.7477083206176758
1789031216499966500,9.872966552734376,-1.5991566181182861,-0.5708741545677185,-1.0159072875976562
1789031216509973500,9.882973388671875,-1.8358689546585083,-1.1847610473632812,-1.13108229637146
1789031216519980300,9.892980224609374,-2.07769775390625,-1.5522513389587402,-1.0296504497528076
1789031216529986000,9.902986083984375,-2.109466791152954,-1.509981393814087,-0.7416264414787292
1789031216539993300,9.912993408203125,-1.9535658359527588,-1.2151391506195068,-0.4112738370895386
1789031216549999400,9.922999267578126,-1.777445912361145,-1.1493688821792603,-0.28973034024238586
1789031216560006100,9.933006103515625,-1.69973623752594,-1.3131980895996094,-0.43780744075775146
1789031216570013200,9.94301318359375,-1.6086288690567017,-1.277010440826416,-0.6334347128868103
1789031216580019200,9.953019287109376,-1.5029029846191406,-0.9058236479759216,-0.6777412295341492
1789031216590026200,9.963026123046875,-1.380923867225647,-0.43450191617012024,-0.5988242626190186
1789031216600032000,9.973031982421874,-1.1916743516921997,-0.31657102704048157,-0.5398035645484924
1789031216610039300,9.983039306640626,-1.0213313102722168,-0.7009927034378052,-0.4515083432197571
1789031216620046000,9.993046142578125,-0.9400511384010315,-0.9369863271713257,-0.40806207060813904
1789031216630052000,10.003052001953124,-0.8229833245277405,-0.5843737125396729,-0.48341113328933716
1789031216640059100,10.01305908203125,-0.6013579964637756,-0.043530967086553574,-0.5252054333686829
1789031216650066200,10.023066162109375,-0.3758237063884735,0.10010422766208649,-0.5127360224723816
1789031216660072200,10.033072265625,-0.12175413221120834,-0.1310693323612213,-0.38935014605522156
1789031216670079200,10.043079345703125,0.14800384640693665,-0.1333487331867218,-0.39260879158973694
1789031216680085200,10.053085205078125,0.37796273827552795,-0.09263645857572556,-0.39964166283607483
1789031216690092000,10.063092041015626,0.5606904625892639,0.0305725559592247,-0.3989708125591278
1789031216700099300,10.073099365234375,0.7171642184257507,0.22327622771263123,-0.3704496920108795
1789031216710105000,10.08310498046875,0.7966569662094116,0.23207718133926392,-0.24223101139068604
1789031216720112000,10.093112060546876,0.8242363929748535,-0.016696954146027565,-0.07991054654121399
1789031216730118400,10.103118408203125,0.8651193380355835,-0.16022349894046783,-0.010395116172730923
1789031216740125200,10.113125244140624,1.0360037088394165,-0.0218520350754261,0.06944618374109268
1789031216750132000,10.123132080078125,1.2783812284469604,0.2741039991378784,0.17117761075496674
1789031216760138200,10.13313818359375,1.4571064710617065,0.6259437799453735,0.18008480966091156
1789031216770145300,10.143145263671874,1.5457303524017334,0.9161282181739807,0.23152697086334229
1789031216780152000,10.153152099609375,1.6923211812973022,0.9331231713294983,0.24244458973407745
1789031216790158300,10.163158447265625,1.838415503501892,0.6574417948722839,0.2750174403190613
1789031216800165000,10.1731650390625,1.9431451559066772,0.5079401731491089,0.41378253698349
1789031216810171100,10.183171142578125,2.0131335258483887,0.4554293155670166,0.6143848896026611
1789031216820178200,10.19317822265625,2.0853891372680664,0.42624345421791077,0.735958456993103
1789031216830185200,10.203185302734376,2.1914689540863037,0.4313513934612274,0.8192259073257446
1789031216840191200,10.213191162109375,2.3168535232543945,0.577930212020874,0.8377180695533752
1789031216850198300,10.2231982421875,2.3456594944000244,0.6744498014450073,0.9081462025642395
1789031216860204300,10.233204345703125,2.347027540206909,0.8109487891197205,1.0120714902877808
1789031216870211000,10.243211181640625,2.3117058277130127,0.7473911046981812,1.1456266641616821
1789031216880218400,10.25321826171875,2.4127869606018066,0.8078185319900513,1.1628985404968262
1789031216890224000,10.26322412109375,2.5952889919281006,0.9131401181221008,1.1514201164245605
1789031216900231200,10.273231201171875,2.738938570022583,1.0577540397644043,1.1457304954528809
1789031216910238200,10.28323828125,2.7405271530151367,1.2257696390151978,1.0548509359359741
1789031216920244200,10.293244140625,2.551459550857544,1.4008864164352417,0.9228859543800354
1789031216930251000,10.3032509765625,2.2408668994903564,1.401934027671814,0.9041026830673218
1789031216940257300,10.31325732421875,1.9436935186386108,1.1544939279556274,0.9999751448631287
1789031216950264300,10.323264404296875,1.7151933908462524,0.7117548584938049,1.1317925453186035
1789031216960271000,10.33327099609375,1.71761155128479,0.4444032907485962,1.1538914442062378
1789031216970277400,10.34327734375,1.7573877573013306,0.2987472712993622,1.129259705543518
1789031216980284200,10.3532841796875,1.6871320009231567,0.3852888345718384,1.0913269519805908
1789031216990290200,10.363290283203124,1.4362003803253174,0.2113761603832245,1.043874740600586
1789031217000297200,10.373297119140625,1.3202927112579346,-0.07363107800483704,0.9676215052604675
1789031217010304300,10.38330419921875,1.3762755393981934,-0.21751980483531952,0.8827686309814453
1789031217020310300,10.393310302734376,1.4269925355911255,-0.2267734855413437,0.891532301902771
1789031217030317300,10.4033173828125,1.3967374563217163,-0.10398738831281662,0.8714401125907898
1789031217040324000,10.413323974609375,1.2096623182296753,-0.1682973951101303,0.7854468822479248
1789031217050330000,10.423330078125,0.9401975870132446,-0.1947423219680786,0.570019006729126
1789031217060337400,10.43333740234375,0.6866260170936584,-0.13831393420696259,0.35265952348709106
1789031217070343200,10.44334326171875,0.5105852484703064,0.14469966292381287,0.19700761139392853
1789031217080350200,10.45335009765625,0.4040433466434479,0.4884546399116516,0.04730253294110298
1789031217090357200,10.463357177734375,0.24206748604774475,0.5114246606826782,-0.16794240474700928
1789031217100363300,10.47336328125,-0.059303537011146545,0.20791271328926086,-0.3396523594856262
1789031217110370000,10.4833701171875,-0.27945268154144287,0.028296086937189102,-0.39922115206718445
1789031217120376000,10.4933759765625,-0.4287604093551636,-0.1441851407289505,-0.33508583903312683
1789031217130383400,10.50338330078125,-0.542590856552124,-0.00920202024281025,-0.21916323900222778
1789031217140390100,10.51339013671875,-0.7280619144439697,-0.02431945502758026,-0.18039055168628693
1789031217150396200,10.523396240234375,-0.9223285913467407,-0.011651596054434776,-0.2402927577495575
1789031217160403200,10.5334033203125,-1.1132569313049316,-0.026144783943891525,-0.28729063272476196
1789031217170410200,10.54341015625,-1.29507315158844,0.025721607729792595,-0.2628609240055084
1789031217180416000,10.553416015625,-1.4320470094680786,0.10774137824773788,-0.2957232594490051
1789031217190423300,10.56342333984375,-1.528563380241394,0.05518362671136856,-0.35577380657196045
1789031217200429300,10.57342919921875,-1.5733553171157837,0.15885862708091736,-0.4623284935951233
1789031217210436000,10.58343603515625,-1.6624630689620972,0.0889703556895256,-0.5535761117935181
1789031217220443100,10.593443115234376,-1.7765904664993286,-0.05860232561826706,-0.6065213680267334
1789031217230449200,10.60344921875,-1.8785887956619263,-0.18700318038463593,-0.6255653500556946
1789031217240456200,10.613456298828124,-1.7919495105743408,0.031680963933467865,-0.6375842094421387
1789031217250463200,10.623463134765625,-1.5510393381118774,0.29533976316452026,-0.6043570041656494
1789031217260469200,10.63346923828125,-1.3764984607696533,0.43331149220466614,-0.5942100882530212
1789031217270476000,10.64347607421875,-1.2672604322433472,0.3901248574256897,-0.6600990891456604
1789031217280482300,10.653482421875,-1.2330176830291748,0.027598338201642036,-0.7082669138908386
1789031217290489000,10.663489013671875,-1.3580100536346436,-0.3994501829147339,-0.604767382144928
1789031217300496100,10.67349609375,-1.5812082290649414,-0.6866188645362854,-0.380611777305603
1789031217310502400,10.68350244140625,-1.7037734985351562,-0.650047242641449,-0.3224235773086548
1789031217320509200,10.69350927734375,-1.6990392208099365,-0.45435550808906555,-0.5473653674125671
1789031217330515200,10.70351513671875,-1.7762436866760254,-0.36694765090942383,-0.8309248685836792
1789031217340522200,10.713522216796875,-1.7742650508880615,-0.17132754623889923,-0.9109864234924316
1789031217350529300,10.723529296875,-1.7262905836105347,-0.13638633489608765,-0.6896817684173584
1789031217360535000,10.73353515625,-1.701448917388916,-0.43788254261016846,-0.48874732851982117
1789031217370542300,10.743542236328125,-1.7377607822418213,-0.9028552770614624,-0.5277109742164612
1789031217380549000,10.753549072265624,-1.8113702535629272,-1.2130690813064575,-0.6976640224456787
1789031217390555100,10.76355517578125,-1.923235297203064,-1.4658573865890503,-0.8321201205253601
1789031217400562200,10.773562255859375,-2.004533529281616,-1.4993000030517578,-0.8458223342895508
1789031217410568200,10.783568115234376,-2.038884401321411,-1.3633149862289429,-0.6803891658782959
1789031217420575200,10.7935751953125,-2.006758213043213,-0.932026743888855,-0.568745493888855
1789031217430582300,10.803582275390625,-1.895377278327942,-0.5917288064956665,-0.640999972820282
1789031217440588300,10.81358837890625,-1.7642699480056763,-0.6003886461257935,-0.8094574213027954
1789031217450595000,10.823594970703125,-1.6451083421707153,-0.7652750611305237,-0.8967829942703247
1789031217460602400,10.833602294921874,-1.621193766593933,-1.001599669456482,-0.7507783770561218
1789031217470608100,10.843608154296875,-1.6508674621582031,-1.1370635032653809,-0.4988763928413391
1789031217480615200,10.853615234375,-1.6705838441848755,-1.218422532081604,-0.2570379078388214
1789031217490621200,10.86362109375,-1.5788252353668213,-1.1279875040054321,-0.15446840226650238
1789031217500628200,10.873628173828125,-1.4790000915527344,-1.0283035039901733,-0.1547035574913025
1789031217510635300,10.88363525390625,-1.265049695968628,-0.9967431426048279,-0.2520650029182434
1789031217520641300,10.893641357421876,-1.1080156564712524,-0.9597151279449463,-0.2933533191680908
1789031217530648300,10.9036484375,-0.8850163817405701,-0.6379197835922241,-0.33122292160987854
1789031217540654300,10.913654296875,-0.582274317741394,-0.35715359449386597,-0.3839748203754425
1789031217550661400,10.923661376953126,-0.3638184368610382,-0.259344220161438,-0.264424204826355
1789031217560668200,10.933668212890625,-0.22906434535980225,-0.21256792545318604,-0.12454086542129517
1789031217570674400,10.94367431640625,-0.13887399435043335,-0.08062081038951874,-0.07627745717763901
1789031217580681200,10.95368115234375,0.05878714844584465,-0.2203986793756485,-0.02882685512304306
1789031217590688300,10.963688232421875,0.15920484066009521,-0.08771467208862305,-0.06346073001623154
1789031217600694500,10.973694580078124,0.30742812156677246,0.11770905554294586,-0.0905219092965126
1789031217610701300,10.983701416015625,0.4785314202308655,0.24853205680847168,-0.10260653495788574
1789031217620707300,10.993707275390625,0.5345185399055481,0.3642658293247223,-0.1266026794910431
1789031217630714400,11.00371435546875,0.6694707274436951,0.5738787055015564,-0.10084938257932663
1789031217640721400,11.013721435546875,0.848046600818634,0.7586184740066528,-0.15390434861183167
1789031217650727200,11.02372705078125,0.9517903327941895,0.7192971706390381,-0.06052033603191376
1789031217660734500,11.033734375,1.1067721843719482,0.7491557598114014,0.030556311830878258
1789031217670741200,11.0437412109375,1.3357079029083252,0.7781418561935425,0.03436170145869255
1789031217680747300,11.053747314453124,1.5395283699035645,0.9373051524162292,-0.012830844148993492
1789031217690754300,11.06375439453125,1.735697865486145,1.176719307899475,0.005627259146422148
1789031217700760300,11.07376025390625,1.895208477973938,1.3334004878997803,0.06571856141090393
1789031217710767400,11.083767333984374,1.9398273229599,1.0785562992095947,0.22454708814620972
1789031217720774400,11.0937744140625,2.001493453979492,0.7323243021965027,0.3585778474807739
1789031217730780400,11.103780517578125,2.099241256713867,0.30829817056655884,0.5593122839927673
1789031217740787200,11.113787109375,2.216944456100464,0.1355959177017212,0.7422330975532532
1789031217750794500,11.12379443359375,2.468759059906006,0.08880310505628586,0.8223670721054077
1789031217760800300,11.13380029296875,2.6978533267974854,0.19515565037727356,0.8757219314575195
1789031217770807300,11.143807373046876,2.9131085872650146,0.4745550751686096,0.8998653292655945
1789031217780813300,11.153813232421875,2.917851448059082,0.25671300292015076,1.1122313737869263
1789031217790820400,11.1638203125,2.815561532974243,0.17676465213298798,1.2948530912399292
1789031217800827400,11.173827392578126,2.810051679611206,0.5612941980361938,1.3289765119552612
1789031217810833200,11.183833251953125,2.8648548126220703,1.1647931337356567,1.2160658836364746
1789031217820840400,11.19384033203125,2.890211820602417,1.7649959325790405,1.0483440160751343
1789031217830846200,11.20384619140625,2.727529287338257,2.0081777572631836,0.9870042204856873
1789031217840853200,11.213853271484375,2.493164539337158,1.6930311918258667,1.0902520418167114
1789031217850860300,11.2238603515625,2.3083345890045166,0.8948487639427185,1.2117787599563599
1789031217860866300,11.2338662109375,2.059462070465088,0.024411866441369057,1.3123173713684082
1789031217870873000,11.243873046875,1.860549807548523,-0.11933784186840057,1.319201946258545
1789031217880880400,11.25388037109375,1.5839486122131348,0.2567894458770752,1.2808502912521362
1789031217890886400,11.263886474609375,1.2248092889785767,0.6035143733024597,1.19212806224823
1789031217900893200,11.27389306640625,0.8864624500274658,0.5995787382125854,0.9984997510910034
1789031217910899500,11.2838994140625,0.7671861052513123,0.3013380169868469,0.8942668437957764
1789031217920906200,11.29390625,0.8629504442214966,0.14708319306373596,0.9289422631263733
1789031217930913300,11.303913330078124,0.9129800796508789,0.19377505779266357,0.8515638709068298
1789031217940919300,11.313919189453125,0.8582814335823059,0.062438078224658966,0.5489915013313293
1789031217950926300,11.32392626953125,0.7405635714530945,-0.15172773599624634,0.04122573509812355
1789031217960933000,11.33393310546875,0.48853105306625366,-0.4156757593154907,-0.2097817212343216
1789031217970939400,11.343939453125,0.3427099585533142,-0.11066233366727829,-0.15059323608875275
1789031217980946200,11.3539462890625,0.2283783107995987,0.025798307731747627,-0.008586031384766102
1789031217990952200,11.3639521484375,0.2137192040681839,0.026740001514554024,0.07889241725206375
1789031218000959500,11.37395947265625,0.2627762258052826,0.0036703685764223337,0.059844158589839935
1789031218010966300,11.38396630859375,0.19188500940799713,0.04839709401130676,-0.09234803915023804
1789031218020972300,11.39397216796875,-0.03375077247619629,0.16813628375530243,-0.3142301142215729
1789031218030979300,11.403979248046875,-0.3508096933364868,-0.05073508247733116,-0.40329205989837646
1789031218040986400,11.413986328125,-0.47226792573928833,-0.0246622022241354,-0.3987974524497986
1789031218050992000,11.4239921875,-0.5014132857322693,-0.0025481125339865685,-0.3446276783943176
1789031218060999400,11.43399951171875,-0.5692355036735535,0.017969412729144096,-0.23967091739177704
1789031218071005400,11.44400537109375,-0.687771737575531,0.0760313868522644,-0.1520550400018692
1789031218081012200,11.45401220703125,-0.8800442218780518,0.04476001486182213,-0.17286765575408936
1789031218091019500,11.46401953125,-1.1050139665603638,-0.040412139147520065,-0.34533077478408813
1789031218101025300,11.474025390625,-1.2378945350646973,-0.15445534884929657,-0.5410065054893494
1789031218111032300,11.4840322265625,-1.3481956720352173,-0.12160526216030121,-0.7102136611938477
1789031218121039400,11.494039306640625,-1.5342599153518677,-0.10909053683280945,-0.797694742679596
1789031218131045400,11.50404541015625,-1.6988482475280762,-0.15098339319229126,-0.8062728047370911
1789031218141052200,11.51405224609375,-1.771838665008545,-0.25220826268196106,-0.7798206806182861
1789031218151058400,11.524058349609374,-1.7701791524887085,-0.22311191260814667,-0.7942784428596497
1789031218161065200,11.534065185546876,-1.8007458448410034,-0.0026019082870334387,-0.8619536757469177
1789031218171072300,11.544072265625,-1.8458462953567505,0.28780195116996765,-0.913945734500885
1789031218181078500,11.55407861328125,-1.9183588027954102,0.23570120334625244,-0.9000086188316345
1789031218191085300,11.564085205078126,-2.0218567848205566,-0.1036480963230133,-0.8228874802589417
1789031218201092400,11.57409228515625,-2.0539591312408447,-0.408929705619812,-0.7832263708114624
1789031218211098400,11.584098388671874,-2.1171083450317383,-0.5574778914451599,-0.8235721588134766
1789031218221105400,11.59410546875,-2.2122745513916016,-0.4964401125907898,-0.8602007627487183
1789031218231111200,11.604111083984375,-2.265806198120117,-0.525189220905304,-0.6731477975845337
1789031218241118500,11.614118408203124,-2.221531629562378,-0.5300878286361694,-0.42365512251853943
1789031218251125200,11.624125244140625,-2.0608980655670166,-0.4171956479549408,-0.3239796757698059
1789031218261131300,11.63413134765625,-1.8428398370742798,-0.34019404649734497,-0.413375586271286
1789031218271138300,11.64413818359375,-1.775359034538269,-0.5968756675720215,-0.5620665550231934
1789031218281145300,11.654145263671875,-1.8960577249526978,-1.109931468963623,-0.6505641937255859
1789031218291151400,11.6641513671875,-2.047588586807251,-1.6013129949569702,-0.573084831237793
1789031218301158400,11.674158447265626,-2.082536458969116,-1.7608938217163086,-0.30448585748672485
1789031218311164400,11.684164306640625,-1.9967992305755615,-1.4863189458847046,-0.0605325847864151
1789031218321171200,11.694171142578124,-1.871752381324768,-1.0866693258285522,-0.07860346883535385
1789031218331178500,11.704178466796876,-1.7135529518127441,-0.9103975892066956,-0.3266684114933014
1789031218341184300,11.714184326171875,-1.6312642097473145,-1.0146164894104004,-0.6173611879348755
1789031218351191300,11.72419140625,-1.6142919063568115,-1.041045069694519,-0.7957887649536133
1789031218361197300,11.734197265625,-1.709536075592041,-1.1099445819854736,-0.7950885891914368
1789031218371204400,11.744204345703125,-1.7845442295074463,-1.0402213335037231,-0.7337738275527954
1789031218381211400,11.75421142578125,-1.7599353790283203,-0.5515339970588684,-0.5931882262229919
1789031218391217200,11.764217041015625,-1.6312860250473022,-0.30220407247543335,-0.38636794686317444
1789031218401224400,11.774224365234375,-1.46259605884552,-0.7745338082313538,-0.23029685020446777
1789031218411231200,11.784231201171876,-1.396838903427124,-1.2246479988098145,-0.16421876847743988
1789031218421237200,11.7942373046875,-1.183065414428711,-0.8915578722953796,-0.3370547294616699
1789031218431244300,11.804244384765624,-0.9412700533866882,-0.011421232484281063,-0.6307420134544373
1789031218441250300,11.814250244140625,-0.740159809589386,0.3011273443698883,-0.6896266341209412
1789031218451257300,11.82425732421875,-0.5312916040420532,0.11480274796485901,-0.5490436553955078
1789031218461264400,11.834264404296874,-0.20064468681812286,0.101532481610775,-0.3505726754665375
1789031218471270400,11.8442705078125,0.0112798186019063,-0.11023569107055664,-0.2324548065662384
1789031218481277200,11.854277099609375,0.1524747610092163,0.02629445493221283,-0.29330191016197205
1789031218491284500,11.864284423828124,0.34351953864097595,0.36704057455062866,-0.32127630710601807
1789031218501290200,11.874290283203125,0.5563908219337463,0.47762197256088257,-0.336376428604126
1789031218511297300,11.88429736328125,0.76495361328125,0.23743198812007904,-0.09924935549497604
1789031218521303300,11.89430322265625,0.9897031188011169,0.35184726119041443,0.013166136108338833
1789031218531310600,11.904310546875,1.2052620649337769,-0.006368949543684721,0.2310502678155899
1789031218541317400,11.9143173828125,1.4284780025482178,-0.16693279147148132,0.3304106593132019
1789031218551323400,11.924323486328126,1.608667016029358,0.02707555890083313,0.34124067425727844
1789031218561330400,11.934330322265625,1.773044466972351,0.3714931309223175,0.33484402298927307
1789031218571337500,11.94433740234375,1.9654653072357178,0.8009483814239502,0.23794278502464294
1789031218581343500,11.954343505859375,2.1047022342681885,0.9270490407943726,0.23730602860450745
1789031218591350500,11.9643505859375,2.188424587249756,0.7392964363098145,0.34070059657096863
1789031218601356500,11.9743564453125,2.202812433242798,0.48378556966781616,0.47160083055496216
1789031218611363300,11.98436328125,2.2051854133605957,0.5292657017707825,0.5655164122581482
1789031218621370600,11.99437060546875,2.2793564796447754,0.7926102876663208,0.6096439361572266
1789031218631376400,12.00437646484375,2.3123583793640137,0.6996219754219055,0.6109906435012817
1789031218641383400,12.014383544921875,2.2208893299102783,0.6659442186355591,0.6157177686691284
1789031218651390500,12.024390380859375,2.1401073932647705,0.5808714032173157,0.6749717593193054
1789031218661396500,12.034396484375,2.1694772243499756,0.35327762365341187,0.7566264271736145
1789031218671403500,12.044403564453125,2.2273478507995605,0.18634191155433655,0.8880252242088318
1789031218681409300,12.0544091796875,2.344440460205078,0.29596641659736633,0.9372507929801941
1789031218691416600,12.06441650390625,2.4890027046203613,0.557465136051178,0.8911440372467041
1789031218701423400,12.07442333984375,2.5959889888763428,0.8769893050193787,0.8309328556060791
1789031218711429400,12.084429443359374,2.6442413330078125,1.12321937084198,0.8210600018501282
1789031218721436400,12.0944365234375,2.6650376319885254,1.1453206539154053,0.8433839678764343
1789031218731443500,12.104443359375,2.6596453189849854,0.9818528890609741,0.8583554625511169
1789031218741449500,12.114449462890626,2.633347272872925,0.6881040930747986,0.8870019912719727
1789031218751456500,12.12445654296875,2.4865546226501465,0.3402579724788666,0.9921917915344238
1789031218761462500,12.134462646484375,2.2618777751922607,0.1861453652381897,1.1023370027542114
1789031218771469300,12.14446923828125,1.988327980041504,0.07324651628732681,1.1943228244781494
1789031218781476600,12.1544765625,1.79389488697052,0.1809367537498474,1.1685311794281006
1789031218791482400,12.164482421875,1.6713790893554688,0.3751230239868164,1.0088379383087158
1789031218801489400,12.174489501953126,1.5744706392288208,0.6622019410133362,0.7111425399780273
1789031218811496400,12.184496337890625,1.4967737197875977,0.8853817582130432,0.397085577249527
1789031218821502500,12.19450244140625,1.4522494077682495,0.7876338958740234,0.23643331229686737
1789031218831509200,12.20450927734375,1.3592214584350586,0.22945129871368408,0.269319623708725
1789031218841515500,12.214515625,1.1401458978652954,-0.3785494267940521,0.3475435972213745
1789031218851522600,12.2245224609375,0.7898320555686951,-0.6444064378738403,0.3537634015083313
1789031218861529300,12.234529296875,0.4617133140563965,-0.3511926531791687,0.2211552858352661
1789031218871535600,12.24453564453125,0.22614631056785583,0.06956975907087326,0.04272695630788803
1789031218881542400,12.25454248046875,-0.043602604418992996,-0.124946728348732,-0.012236692942678928
1789031218891549400,12.264549560546875,-0.21864180266857147,-0.17692416906356812,-0.06414622813463211
1789031218901555500,12.274555419921874,-0.29736775159835815,-0.24975045025348663,-0.134568989276886
1789031218911562500,12.2845625,-0.34117117524147034,-0.10151837021112442,-0.22640250623226166
1789031218921568500,12.294568603515625,-0.44690027832984924,-0.016872189939022064,-0.3354951739311218
1789031218931575600,12.304575439453124,-0.5931967496871948,0.020531639456748962,-0.41772639751434326
1789031218941582300,12.314582275390626,-0.6665215492248535,-0.02047038823366165,-0.4784563183784485
1789031218951588400,12.32458837890625,-0.7284091711044312,-0.25381335616111755,-0.4271244406700134
1789031218961595600,12.334595703125,-0.6881232857704163,-0.2790675759315491,-0.33396998047828674
1789031218971602400,12.3446025390625,-0.6609358787536621,-0.3485742211341858,-0.2240315079689026
1789031218981608400,12.3546083984375,-0.6790078282356262,-0.29718002676963806,-0.17579393088817596
1789031218991615500,12.364615478515624,-0.8050746321678162,-0.10262331366539001,-0.2201067954301834
1789031219001621500,12.37462158203125,-0.9945883750915527,0.17063646018505096,-0.35783377289772034
1789031219011628300,12.384628173828125,-1.2029759883880615,0.31827330589294434,-0.5023874640464783
1789031219021635600,12.394635498046876,-1.4493458271026611,0.1701565533876419,-0.5114150643348694
1789031219031641600,12.4046416015625,-1.67854642868042,-0.15840135514736176,-0.3747485876083374
1789031219041648400,12.4146484375,-1.8186564445495605,-0.41863372921943665,-0.17705094814300537
1789031219051655400,12.424655517578126,-1.9127321243286133,-0.4282573461532593,-0.08226850628852844
1789031219061661400,12.434661376953125,-1.9776873588562012,-0.3170706331729889,-0.2176569551229477
1789031219071668500,12.44466845703125,-2.021284580230713,-0.10921144485473633,-0.6187095642089844
1789031219081674200,12.45467431640625,-2.117807626724243,-0.10044404864311218,-1.0310829877853394
1789031219091681500,12.464681640625,-2.150055170059204,-0.11060081422328949,-1.078908920288086
1789031219101688300,12.474688232421874,-2.132960081100464,-0.21178628504276276,-0.7717308402061462
1789031219111694300,12.4846943359375,-2.031285285949707,-0.5193145275115967,-0.463657945394516
1789031219121701400,12.494701416015625,-1.898506760597229,-0.6945958137512207,-0.5072664022445679
