time,seconds_elapsed,z,y,x
1789635377646317800,0.05231787109375,8.86138925704956,4.112190988922119,1.348982997894287
1789635377656356900,0.06235693359375,8.028356716918944,3.949834188842773,1.0084078117370605
1789635377666397000,0.07239697265625,7.774421703338622,3.755155666351318,0.6582558189392089
1789635377676437000,0.08243701171875,7.203853520202636,3.548356497955322,0.5301660301208496
1789635377686475800,0.092475830078125,6.553827769470215,3.3833062210083007,0.5749076736450195
1789635377696515800,0.102515869140625,5.875370874023437,3.097199122619629,0.266205297088623
1789635377706556000,0.112555908203125,5.180603479766845,3.6035727737426755,-1.027262149810791
1789635377716594700,0.1225947265625,3.997119671630859,4.815038813781738,-1.7539023536682128
1789635377726634800,0.132634765625,3.209427325439453,5.849333930969238,-2.0718822616577146
1789635377736673800,0.142673828125,4.171447480010986,5.617395645141602,-1.7313070755004882
1789635377746713900,0.1527138671875,5.341014990997314,4.140173220825195,-0.9861118087768554
1789635377756753700,0.162753662109375,5.194220501708984,2.1908441566467283,-0.6446387969970703
1789635377766793700,0.172793701171875,4.66659831085205,1.0001777435302734,-0.6570587181091309
1789635377776832800,0.182832763671875,4.573673358917236,1.5487491989135742,-1.1047744285583496
1789635377786872800,0.192872802734375,4.8509518386840815,2.1728876441955567,-1.5587749183654784
1789635377796911600,0.20291162109375,4.9720086601257325,1.8689736709594726,-1.3730746520996093
1789635377806951700,0.21295166015625,5.705681831359863,1.3199533027648924,-0.7095815170288086
1789635377816991700,0.22299169921875,6.478560054779052,1.4487912796020508,0.43140521163940426
1789635377827030800,0.23303076171875,6.8870707130432125,2.0943279022216794,1.9544167427062986
1789635377837070600,0.243070556640625,6.405387266540527,3.153313224029541,3.2864906913757324
1789635377847110700,0.253110595703125,5.941809970092773,3.1362545372009274,3.8509237327575683
1789635377857150000,0.26314990234375,6.510133589172363,2.4979005195617674,4.420743727874756
1789635377867189800,0.273189697265625,6.656329528045654,2.5508722312927246,4.554819020843506
1789635377877229600,0.2832294921875,6.607398031616211,2.1520880172729493,4.2800843803405755
1789635377887268900,0.293268798828125,6.011241818237305,0.9766846397399902,3.5525463508605957
1789635377897309000,0.303308837890625,5.523423229980469,-0.20784663162231445,2.8321909263610836
1789635377907349000,0.313348876953125,5.108328517150879,-1.27685767288208,1.9587562332153319
1789635377917387800,0.3233876953125,4.867711250305176,-1.7966987083435058,1.9608511596679685
1789635377927427800,0.333427734375,4.908562316131592,-1.581370196533203,3.4102409896850583
1789635377937468000,0.343468017578125,5.438877983856201,-1.2455834136962889,5.279214660644531
1789635377947507000,0.3535068359375,6.092345399475097,-0.6172551155090331,6.732195793151855
1789635377957546800,0.363546630859375,5.649418092346191,0.4649240348815918,7.8824600532531734
1789635377967586800,0.3735869140625,4.122366345977783,1.9798551353454588,9.116222096252441
1789635377977625900,0.3836259765625,3.5289036094665525,3.094505645751953,10.072256746673583
1789635377987666000,0.393666015625,2.9596821647644043,3.2314240531921383,10.510994200897215
1789635377997705700,0.403705810546875,2.0030489639282227,3.0412346588134764,10.462361979675292
1789635378007744800,0.413744873046875,1.4832079284667967,3.3433529808044433,10.574889457702636
1789635378017784800,0.423784912109375,1.3316250358581543,3.676745561981201,11.624447610473633
1789635378027825000,0.433824951171875,1.3175591011047363,4.25195251083374,13.384485105895996
1789635378037863700,0.44386376953125,1.2286743644714355,5.6301148414611815,15.329923592376709
1789635378047903700,0.45390380859375,1.0488099647521971,6.967426106262207,16.77841559677124
1789635378057943800,0.46394384765625,0.3559878593444824,7.485321852874756,17.07185493774414
1789635378067982600,0.473982666015625,0.6139630882263183,7.724742018890381,16.584036349487302
1789635378078022700,0.484022705078125,0.4912602531433105,7.351994747924804,15.250316387176513
1789635378088062700,0.494062744140625,-0.2050035171508789,7.247398062896728,14.348749824523924
1789635378098101800,0.504101806640625,-0.5193921226501464,7.730577885437011,14.14135210571289
1789635378108141800,0.514141845703125,-0.7519289588928222,7.845798840332031,14.413692544555664
1789635378118181600,0.524181640625,-0.945560018157959,6.864625072479248,14.454543610382078
1789635378128220700,0.534220703125,-1.9675848518371581,5.688772782135009,13.505392289733885
1789635378138260700,0.5442607421875,-4.670488888549804,5.882403841400146,12.997222987365722
1789635378148301300,0.55430126953125,-7.333140409851074,6.336703606414795,12.833968361663818
1789635378158340400,0.56434033203125,-9.09138225402832,5.112967282867431,12.253673734283447
1789635378168380400,0.57438037109375,-8.20388162612915,3.8961142890930174,11.215338401794433
1789635378178420500,0.58442041015625,-7.641693148803711,3.941005570220947,10.394576145172119
1789635378188459500,0.59445947265625,-20.583550222778317,5.589862326049804,10.933570793914795
1789635378198499300,0.604499267578125,-37.02872287597656,6.088155546569824,7.579593543243408
1789635378208538600,0.61453857421875,-26.577134803771973,2.73881706161499,5.530156922149658
1789635378218578700,0.62457861328125,-4.805761282348633,1.1622352684020996,7.2529346542358395
1789635378228618500,0.634618408203125,-1.913266401672363,1.6551415351867675,5.8457426284790035
1789635378238658300,0.644658203125,-3.6201825477600096,0.30196868438720703,1.064222637939453
1789635378248697600,0.654697509765625,-3.3455975448608397,-1.5126865364074706,-3.304447203826904
1789635378258737700,0.664737548828125,-4.02255806427002,-1.6727987724304199,-4.772841009521484
1789635378268776400,0.6747763671875,-5.430049365234375,-1.6654665298461913,-3.180547267913818
1789635378278816500,0.68481640625,-5.322310290527343,-4.566490753936767,-1.9677344894409179
1789635378288856600,0.694856689453125,-2.2176292877197263,-8.440907590484619,-1.4535796829223633
1789635378298895400,0.704895263671875,2.793135511779785,-10.871770463562012,1.3582605293273926
1789635378308935400,0.714935302734375,1.4395137481689453,-8.10841283493042,9.272294116973876
1789635378318975500,0.7249755859375,-4.693383441925048,0.6006453414916992,21.978172689819335
1789635378329014500,0.7350146484375,-2.167351052856445,4.846462710571289,27.616966512298582
1789635378339054300,0.745054443359375,-6.874201879119872,3.1952117530822752,25.017013146972655
1789635378349094400,0.755094482421875,-8.369380815887451,0.09337386474609374,17.29541351776123
1789635378359133400,0.765133544921875,-7.731774986267089,-2.0138228713989257,12.8199024269104
1789635378369173500,0.775173583984375,-7.619546783447265,-2.504035661315918,10.7390419090271
1789635378379213600,0.785213623046875,-6.8134490119934075,-3.0241759719848633,11.340435438537597
1789635378389252400,0.79525244140625,-7.654113069915771,-3.207332398986816,12.059593762207031
1789635378399292400,0.80529248046875,-7.1674915824890135,-0.29568390502929687,13.754838175201415
1789635378409332500,0.81533251953125,-6.776488523864746,0.07721300354003906,15.946879432678221
1789635378419371300,0.825371337890625,-5.090820917510986,-4.790049333953857,15.688604928588866
1789635378429411300,0.835411376953125,-6.956352923583984,-10.530746364593504,9.154080410003662
1789635378439451400,0.845451416015625,-8.019977011108399,-12.137854228973389,6.496217292022704
1789635378449490400,0.855490478515625,2.78999312210083,-10.24718310546875,7.65501089553833
1789635378459530200,0.8655302734375,8.212560607147216,-12.879907106018065,0.6732195793151855
1789635378469570300,0.8755703125,5.732766237640381,-15.672444067382811,-9.119364485931396
1789635378479609600,0.885609619140625,-3.711760761260986,-16.830639120483397,-9.2573303565979
1789635378489649400,0.8956494140625,-10.978162799835204,-8.938901535797118,3.030011838531494
1789635378499689200,0.905689208984375,-6.957699662017822,-5.130923795318603,5.768679262542724
1789635378509728500,0.915728515625,-4.955398886108398,-4.376301359558105,5.2730795188903805
1789635378519768600,0.9257685546875,-7.89697490081787,-5.199757093048095,4.359990860748291
1789635378529808600,0.93580859375,-7.549217109680176,-4.911255792999268,3.733458213806152
1789635378539847400,0.945847412109375,-5.783493385314941,-4.82027612991333,4.655225852966308
1789635378549887500,0.955887451171875,-4.489726663208008,-7.248146250915527,4.725106613922119
1789635378559927600,0.965927490234375,-4.112939176940918,-10.297012427520752,3.494187685394287
1789635378569966600,0.975966552734375,-3.2679356285095214,-10.200346535491942,3.309684519958496
1789635378580006400,0.98600634765625,-2.3247698120117186,-9.947458985137938,2.6081834335327145
1789635378590046500,0.99604638671875,-3.657591948699951,-9.728539170837402,1.8867805458068847
1789635378600085500,1.00608544921875,-5.492747521209717,-8.913463143157959,1.8148048583984373
1789635378610125600,1.01612548828125,-7.155819849395751,-6.701370446777343,3.143137866973877
1789635378620165400,1.026165283203125,-7.014412313842773,-4.728847554016113,5.450549716949463
1789635378630204400,1.036204345703125,-2.4369980148315427,-4.564246189880371,7.182904255676269
1789635378640244500,1.046244384765625,-4.337994132995605,-2.7922376861572262,9.198223503112793
1789635378650284500,1.056284423828125,-7.264307112121582,-2.583343591308594,9.553762449645996
1789635378660323300,1.0663232421875,-5.794117655181885,-3.5214217292785643,8.485200321197508
1789635378670363400,1.07636328125,-4.415207136535645,-5.350741435241699,6.5762734100341795
1789635378680403500,1.086403564453125,-4.601805228424072,-6.66500850906372,4.51351904220581
1789635378690442500,1.0964423828125,-4.191648556518555,-6.022315000915527,4.708646477508545
1789635378700482300,1.106482421875,-6.788160256958007,-5.811176342010498,4.091391361999512
1789635378710522400,1.1165224609375,-6.167463476562499,-5.592855078125,3.9386113685607906
1789635378720561400,1.1265615234375,-6.219687000274658,-4.345027100372314,4.509778102111816
1789635378730601500,1.1366015625,-7.156119124603271,-2.7474960426330566,4.4744636276245116
1789635378740641300,1.146641357421875,-7.152228546905517,-3.695749537658691,3.7077205459594724
1789635378750680300,1.156680419921875,-6.876596080780029,-6.881234846496581,3.1048306404113766
1789635378760720400,1.166720458984375,-6.308871012115478,-7.549666022491454,3.882048354339599
1789635378770760400,1.176760498046875,-5.756857891845703,-8.007557089996338,4.3819875885009765
1789635378780799500,1.186799560546875,-6.151302615356445,-7.914332862854003,4.963329679107666
1789635378790839600,1.196839599609375,-6.408529656219482,-7.558644278717041,4.752789570617676
1789635378800879400,1.20687939453125,-5.505616355133056,-7.021594918823242,4.554669383239746
1789635378810918700,1.216918701171875,-5.368099397277832,-6.36528438873291,4.036025448608398
1789635378820958500,1.22695849609375,-6.720075147247314,-5.9756280685424805,3.2906805442810056
1789635378830998500,1.23699853515625,-7.121103925323486,-2.876782932281494,3.5564369285583495
1789635378841037600,1.24703759765625,-7.737161940002441,1.9291279876708982,5.360318241882324
1789635378851077600,1.25707763671875,-7.917325614929199,-4.215440935516357,2.1110873138427735
1789635378861117400,1.267117431640625,-6.012887831878662,-7.170334696960449,2.726696415710449
1789635378871156500,1.277156494140625,-3.029413288116455,-0.5063736511230469,6.719326959228515
1789635378881196500,1.287196533203125,-4.519354908752441,-4.424783943176269,2.3856723167419434
1789635378891236600,1.297236572265625,-9.314043008422852,-6.913855844116211,1.9750667320251463
1789635378901275400,1.307275390625,-8.0054621635437,-3.969137439727783,4.970811559295654
1789635378911315500,1.3173154296875,-8.34469061126709,-2.1411644721984864,4.62185666732788
1789635378921354500,1.3273544921875,-7.114519870758056,2.461239306640625,4.030039944458007
1789635378931394600,1.33739453125,-8.946383415985107,-5.069572377777099,0.9319429962158202
1789635378941434400,1.347434326171875,-7.431901228332519,-4.450970523834228,7.823053924560546
1789635378951473400,1.357473388671875,-6.321739846038818,1.5861585998535155,8.492233288574218
1789635378961513500,1.367513427734375,-8.744223013305664,-4.581005601501465,1.419761584472656
1789635378971553500,1.377553466796875,-5.384260258483886,-2.2878093238830566,5.170727397918701
1789635378981592300,1.38759228515625,-9.339331763458251,-4.573224446105956,3.169025172424316
1789635378991632400,1.39763232421875,-12.920608534240722,-10.938957747650147,6.189310566711425
1789635379001672400,1.40767236328125,-8.11409906387329,-3.608810089874267,10.339659144592284
1789635379011711200,1.417711181640625,-10.146776273345946,-11.42064119415283,4.8320975006103515
1789635379021751300,1.427751220703125,-0.6564601676940918,-15.006257455444334,7.642740612030029
1789635379031791400,1.437791259765625,-6.465691220855713,-7.9840639862060545,5.727080008697509
1789635379041830700,1.44783056640625,-9.517550149536133,-9.332598071289063,0.17088614349365233
1789635379051870500,1.457870361328125,-6.9804445777893065,-12.830825971984863,-2.6913819412231446
1789635379061910300,1.46791015625,-4.450970523834228,-7.798962270355224,0.21622633743286132
1789635379071949600,1.477949462890625,-6.247669232177734,-4.689642501831054,0.7953238639831542
1789635379081989600,1.48798974609375,-8.540266959381103,-5.6878749565124505,-0.6750152305603027
1789635379092029700,1.49802978515625,-10.047267266845703,-7.404816822052002,-1.1589432411193847
1789635379102068500,1.508068359375,-10.232518620300292,-8.052149095916748,-1.8089689918518066
1789635379112108500,1.518108642578125,-8.696488617706299,-8.495226040649413,-2.1471499763488766
1789635379122148600,1.528148681640625,-7.783699234771728,-7.503876915740967,-0.3188777336120605
1789635379132187400,1.5381875,-8.154201941680908,-6.343736573791504,2.3095067764282224
1789635379142227500,1.5482275390625,-8.942941751098632,-5.372588525390625,3.736301328277588
1789635379152267500,1.558267578125,-9.171588009643553,-6.60126288986206,2.184110464477539
1789635379162306600,1.568306640625,-9.13537570953369,-7.427711375427245,0.7342717216491699
1789635379172346600,1.5783466796875,-8.858097229766845,-6.5218053222656245,0.2699462371826172
1789635379182386700,1.58838671875,-9.02195040588379,-5.709422771453857,-0.21128829650878905
1789635379192425500,1.598425537109375,-8.997260201263428,-4.150198940277099,-0.39100305862426754
1789635379202465500,1.608465576171875,-8.78477480392456,-3.0558991439819336,-0.6236895324707031
1789635379212505600,1.618505615234375,-8.576778534698486,-1.92164610748291,-0.2647089210510254
1789635379222544400,1.62854443359375,-8.848520423126221,-1.912667851257324,-0.5681739814758301
1789635379232584400,1.63858447265625,-8.719832083892822,-2.715473595428467,-1.3220482292175293
1789635379242624500,1.64862451171875,-8.718036432647704,-3.6023756729125975,-1.6530466087341307
1789635379252663600,1.65866357421875,-8.654440451049805,-4.165611613464355,-1.714248388671875
1789635379262703600,1.66870361328125,-8.461707217407225,-4.5708302444458,-1.5107412475585937
1789635379272743400,1.678743408203125,-8.878597581481934,-4.225616292572021,-1.8662801940917968
1789635379282782500,1.688782470703125,-7.819612259674072,-5.692364084625244,0.6582558189392089
1789635379292822500,1.698822509765625,-7.662043862915039,-7.778013005828857,2.486079148864746
1789635379302862600,1.708862548828125,-7.909544459533691,-7.941267631530761,3.4199674339294432
1789635379312901400,1.7189013671875,-9.319280324554443,-5.419275457763671,3.2591070098876953
1789635379322941400,1.72894140625,-9.574711714172363,-4.173243131256103,1.352275025177002
1789635379332981500,1.7389814453125,-9.510966094970703,-3.0952538337707516,0.9135375709533691
1789635379343020500,1.7490205078125,-9.572167874908446,-1.709160710144043,0.3480570663452148
1789635379353060600,1.759060546875,-8.514828566741944,-1.2805986129760742,-0.14679448928833008
1789635379363100400,1.769100341796875,-8.266430144500731,-2.3699603683471677,-0.48063598327636714
1789635379373139700,1.7791396484375,-8.75275235671997,-3.4145804801940915,0.04608838195800781
1789635379383179500,1.789179443359375,-9.393051663208007,-4.4689270362854,1.194407353210449
1789635379393219600,1.799219482421875,-9.145850341796875,-5.261707061004638,1.343895319366455
1789635379403258600,1.809258544921875,-8.967183042907715,-4.98607459487915,0.388159944152832
1789635379413298700,1.819298583984375,-8.756343659210204,-4.557961410522461,-0.6253355461120605
1789635379423338800,1.8293388671875,-8.931868568420409,-4.628141446685791,-0.5080196647644043
1789635379433377500,1.83937744140625,-9.14225903930664,-5.242254172515869,0.08065466842651367
1789635379443417600,1.84941748046875,-9.125499627685546,-5.754912602996826,1.080233861541748
1789635379453457700,1.859457763671875,-9.92740754623413,-5.927444760131835,1.2624924629211425
1789635379463496400,1.869496337890625,-9.67885948638916,-5.841253500366211,1.3124714225769043
1789635379473536500,1.87953662109375,-9.119963036346435,-5.4878094802856445,1.0197802696228027
1789635379483576600,1.88957666015625,-9.150638745117186,-5.053860429382324,0.5129577056884765
1789635379493615600,1.89961572265625,-8.961945726776122,-4.64175846862793,0.2738368148803711
1789635379503655400,1.909655517578125,-8.7087589012146,-4.637867890930176,-0.13512275619506836
1789635379513695500,1.919695556640625,-9.02718772201538,-4.3339539176940916,-0.25303718795776364
1789635379523734500,1.929734619140625,-9.044396046447753,-4.064157318115234,-0.35299510726928707
1789635379533774600,1.939774658203125,-8.857498679351806,-3.778050219726562,0.00852934341430664
1789635379543814700,1.949814697265625,-8.850316074371337,-3.825934252929687,0.5660790550231933
1789635379553853400,1.959853515625,-9.061903646087647,-4.067150070190429,0.5666776054382324
1789635379563893500,1.9698935546875,-9.277681070709228,-4.276642715454101,0.32082302246093747
1789635379573933600,1.97993359375,-9.386467608642578,-4.585794004821777,0.09307458953857421
1789635379583972400,1.989972412109375,-8.774898722076415,-4.511723390960693,0.0073322425842285155
1789635379594012400,2.000012451171875,-9.005190994262694,-4.223371728515625,-0.18614917907714842
1789635379604052500,2.010052490234375,-9.590274024963378,-4.613925874328613,-0.7389104873657226
1789635379614091500,2.020091552734375,-9.185803582000732,-5.434837768554687,-1.1927613395690917
1789635379624131300,2.03013134765625,-8.686313260650634,-5.043086521911621,-0.7619546783447265
1789635379634171400,2.04017138671875,-9.18685104522705,-4.642506656646728,-0.41464580001831053
1789635379644210700,2.050210693359375,-10.014496631622315,-5.117007498168945,-0.6217442436218261
1789635379654250500,2.06025048828125,-8.735843307495117,-5.620687672424316,-0.8496423141479492
1789635379664290300,2.070290283203125,-9.128342742156981,-6.035483110046386,-0.407313557434082
1789635379674329600,2.08032958984375,-9.496600885009766,-6.284928995513916,-0.9307458953857422
1789635379684369700,2.09036962890625,-8.774300171661377,-4.237437663269043,-1.02142628326416
1789635379694409700,2.10040966796875,-9.445275186920165,-0.08379705810546874,0.9500491462707519
1789635379704448500,2.110448486328125,-8.35007756500244,1.5887024391174316,0.6702268272399902
1789635379714488600,2.120488525390625,-7.72459238128662,-0.5961562133789062,-1.061678798675537
1789635379724528600,2.130528564453125,-9.007136283111572,-2.5336639068603515,-0.7993640792846679
1789635379734567700,2.140567626953125,-9.840468098449707,-2.827103247833252,-0.6290764862060546
1789635379744607500,2.150607421875,-8.03808316116333,-5.910086798095703,-2.157325333404541
1789635379754647600,2.1606474609375,-9.572467150115965,-5.093813669586181,-0.754622435760498
1789635379764686600,2.1706865234375,-9.384372682189941,-3.0036756202697754,0.14679448928833008
1789635379774726700,2.1807265625,-8.522609722137451,-3.6385879730224606,-0.7082347785949706
1789635379784766500,2.190766357421875,-9.759663792419433,-2.760664151763916,0.14454992523193358
1789635379794805500,2.200805419921875,-8.715791868591308,-2.384026303100586,0.5249287139892578
1789635379804845600,2.210845458984375,-8.321646420288085,-2.6096798095703124,0.04234744186401367
1789635379814885600,2.2208857421875,-8.035539321899414,-3.758447693634033,-0.9840168823242187
1789635379824924400,2.23092431640625,-8.581417300415039,-4.34128616027832,-1.246181964111328
1789635379834964500,2.240964599609375,-9.319579599761962,-4.638316803741454,-0.9323919090270996
1789635379845004500,2.251004638671875,-10.1123596244812,-5.276371546173095,-1.5330372505187988
1789635379855043600,2.261043701171875,-10.216806671905516,-6.007351240539551,-2.6904841156005856
1789635379865083400,2.27108349609375,-9.253290141296386,-5.017199216461181,-3.103932814788818
1789635379875123500,2.28112353515625,-8.42130506439209,-3.8373067108154295,-3.091363256072998
1789635379885162500,2.29116259765625,-7.537096463775634,-2.8591256950378416,-2.7397148872375485
1789635379895202600,2.30120263671875,-6.992864498901366,-2.4340052627563473,-2.51540811920166
1789635379905242400,2.311242431640625,-7.194575988769531,-2.77712428817749,-2.453009238433838
1789635379915281400,2.321281494140625,-7.490409531402587,-3.3424551551818844,-2.589329095458984
1789635379925321500,2.331321533203125,-7.915829238891601,-3.2158617424011227,-2.36217921295166
1789635379935361500,2.341361572265625,-8.226177629089355,-2.9185318237304685,-2.0011036750793454
1789635379945400600,2.351400634765625,-8.909722203063964,-3.087323040771484,-1.7937059562683104
1789635379955440600,2.361440673828125,-9.402179557037353,-3.685574180603027,-1.9244892219543457
1789635379965480400,2.37148046875,-9.87069489440918,-4.284423870849609,-2.376394785308838
1789635379975519700,2.381519775390625,-10.320355893707275,-4.703558798980713,-3.0180408302307127
1789635379985559600,2.3915595703125,-9.189694159698485,-4.955398886108398,-3.1950621154785153
1789635379995599600,2.401599609375,-8.21061531829834,-4.733785594940185,-3.094505645751953
1789635380005638700,2.411638671875,-8.803180229187012,-3.7632360969543455,-2.921674213409424
1789635380015678700,2.4216787109375,-9.734823950195311,-2.8329391143798826,-2.529324416351318
1789635380025718500,2.431718505859375,-10.250325495147704,-2.577358087158203,-1.8261773162841797
1789635380035757600,2.441757568359375,-11.098920346069335,-2.8733412673950194,-1.5589245559692382
1789635380045797600,2.451797607421875,-11.348515869140625,-3.5480572227478024,-1.7024270179748535
1789635380055837700,2.461837646484375,-11.263222434997559,-3.3764228912353516,-1.650951682281494
1789635380065876500,2.47187646484375,-10.729315464782713,-2.339883209991455,-1.6955436882019042
1789635380075916500,2.48191650390625,-9.37808790283203,-1.392976453399658,-2.0169652610778805
1789635380085956600,2.49195654296875,-9.384073406982422,-1.087266828918457,-2.439392216491699
1789635380095995400,2.501995361328125,-10.488249285125733,-1.7648258987426757,-3.2324715164184568
1789635380106035500,2.512035400390625,-10.417470698547362,-2.6906337532043456,-3.755305303955078
1789635380116075500,2.522075439453125,-9.150788382720947,-2.788197470855713,-3.2785598983764648
1789635380126114600,2.532114501953125,-8.791358858489989,-2.045695680999756,-2.89204596786499
1789635380136154600,2.542154541015625,-8.986486293792725,-1.2277765388488768,-3.0467712501525877
1789635380146194400,2.5521943359375,-9.790189863586425,-0.6657376991271973,-3.0288147377014156
1789635380156233000,2.56223291015625,-10.143334608459472,-1.0224737464904785,-2.8380267929077148
1789635380166272800,2.572272705078125,-10.310180536651611,-1.9533692794799804,-2.9132945075988768
1789635380176312800,2.582312744140625,-9.779864868927001,-2.5118168167114256,-2.835482953643799
1789635380186351900,2.592351806640625,-8.371026829528809,-2.5604490379333495,-3.12188932723999
1789635380196392000,2.602391845703125,-6.076184538269042,-0.9714473236083984,-3.74767378616333
1789635380206431700,2.612431640625,-4.349067315673828,3.0301614761352536,-4.027645742797851
1789635380216470800,2.622470703125,-4.932803607940674,3.770568339538574,-3.2754175086975095
1789635380226510800,2.6325107421875,-8.288426872253417,0.08678981018066406,-3.7358524154663084
1789635380236551000,2.642551025390625,-9.403077382659912,-2.711283742523193,-4.76281529006958
1789635380246590000,2.65258984375,-9.264363323974608,-3.9737762054443357,-5.7614966575622555
1789635380256630000,2.662630126953125,-10.303446844482421,-3.7051767066955565,-5.6018333343505855
1789635380266669800,2.672669921875,-9.239972394561766,-2.279728893280029,-4.003254813385009
1789635380276710000,2.6827099609375,-8.406640579223632,-0.6968623207092285,-4.116829754638672
1789635380286749000,2.6927490234375,-9.509170443725585,0.2545335639953613,-4.995202488708496
1789635380296789000,2.7027890625,-9.994145917510986,0.3842693664550781,-5.546916333770752
1789635380306828800,2.712828857421875,-9.805303261566161,0.438587816619873,-5.989544365692138
1789635380316867800,2.722867919921875,-9.660304423522948,0.6507739387512207,-6.252756910705566
1789635380326908000,2.732907958984375,-10.123133531951904,0.8116343627929687,-5.478831224060058
1789635380336948000,2.742947998046875,-10.121936431121826,0.5220855995178222,-4.115782291412353
1789635380346986800,2.75298681640625,-9.425822298431395,-0.10818798751831055,-3.6246716758728024
1789635380357026800,2.76302685546875,-9.988459688568115,-0.7357680976867675,-4.336647394561767
1789635380367067000,2.77306689453125,-10.864288583374023,-1.0817302375793456,-5.309441456604004
1789635380377106000,2.78310595703125,-10.50306340789795,-0.9629179801940917,-5.3853077217102046
1789635380387145700,2.793145751953125,-9.73018518447876,-1.1367968757629394,-5.444863488006591
1789635380397185800,2.803185791015625,-9.471461767578125,-1.7429788085937499,-5.9105357109069825
1789635380407224800,2.813224853515625,-9.388412897491454,-2.16405902557373,-5.996726970672607
1789635380417265000,2.823264892578125,-8.573187232208252,-1.7459715606689452,-5.530156922149658
1789635380427304700,2.8333046875,-7.702894928741455,-1.1336544860839843,-5.325751955413818
1789635380437343700,2.84334375,-6.904129399871826,-0.5327098693847656,-5.430498278045654
1789635380447383800,2.8533837890625,-6.318148543548584,-0.2555810272216797,-5.94330634613037
1789635380457424000,2.863423828125,-6.0413189765930175,-0.23882161560058593,-6.209960556030273
1789635380467462700,2.873462646484375,-4.121169245147705,0.15427636947631834,-4.994753575897216
1789635380477502700,2.883502685546875,-3.1802479927062985,1.5463549972534179,-3.8501755447387693
1789635380487542800,2.893542724609375,-4.040664214324951,2.198176399230957,-4.282328944396973
1789635380497581800,2.903581787109375,-4.4458828453063965,0.8994716361999511,-5.630563754272461
1789635380507622000,2.913621826171875,-5.014805014801025,-0.48078562088012694,-7.09312169342041
1789635380517661700,2.92366162109375,-6.575076309204102,-0.5327098693847656,-7.161954991149902
1789635380527701000,2.933700927734375,-7.1683894081115715,-1.0615291610717772,-6.469432160949706
1789635380537741000,2.943740966796875,-6.825270382690429,-1.6524480583190917,-5.259013584136962
1789635380547780900,2.95378076171875,-6.659771192932128,-1.9936217948913573,-4.138227931976318
1789635380557820000,2.96381982421875,-7.21447779006958,-2.032078659057617,-4.101267443847656
1789635380567860000,2.97385986328125,-8.181435985565185,-0.2145803237915039,-4.8512511138916015
1789635380577900000,2.983900146484375,-8.14672006149292,1.7124527374267577,-5.432293929290771
1789635380587938800,2.993938720703125,-8.224980528259277,1.8800468536376953,-5.106832141113281
1789635380597979000,3.003978759765625,-8.08925922164917,-0.5575497116088867,-4.956296711730957
1789635380608019000,3.01401904296875,-7.565826883697509,-3.397072880554199,-5.1234419151306145
1789635380618057700,3.0240576171875,-6.637475189971924,-3.5609260566711423,-5.306149429321289
1789635380628097800,3.034097900390625,-6.025008477783203,-1.559074193572998,-5.585223560333252
1789635380638137900,3.044137939453125,-6.391022056579589,0.46507367248535153,-5.161599504089355
1789635380648177000,3.054177001953125,-6.563703851318359,1.7022773803710936,-3.7102643852233883
1789635380658217000,3.064217041015625,-6.09683452758789,2.1025579704284665,-2.911947769165039
1789635380668256800,3.0742568359375,-5.702689079284668,0.9543886367797851,-3.069067253112793
1789635380678295800,3.0842958984375,-5.674557209777832,-0.2947860794067383,-3.1310172210693357
1789635380688336000,3.0943359375,-5.697152487945556,-1.2265794380187987,-3.0205846694946286
1789635380698376000,3.1043759765625,-6.899490634155273,-1.7206828056335448,-2.7742811737060546
1789635380708414700,3.114414794921875,-8.45961229095459,-1.4405612113952635,-3.131466133880615
1789635380718454800,3.124454833984375,-11.269058301544188,-0.24735095901489257,-4.567987129974365
1789635380728494800,3.134494873046875,-14.419827686309814,0.5888239707946777,-5.872527759552002
1789635380738533600,3.14453369140625,-15.69952847366333,0.3525461944580078,-6.133944653320312
1789635380748573700,3.15457373046875,-13.152247544860838,-1.8191443489074706,-5.659743087005615
1789635380758613800,3.16461376953125,-14.314931726074217,-4.387823455047607,-2.9420249275207517
1789635380768652800,3.17465283203125,-15.423746369934081,-5.668870980834961,2.643797183227539
1789635380778692600,3.184692626953125,-8.808417545318603,-5.7317187744140625,5.173420874786377
1789635380788732700,3.194732666015625,-7.161206803131103,-4.151396041107177,1.3078326568603516
1789635380798772000,3.20477197265625,-8.56765064086914,-1.5044564682006836,-4.106205484771729
1789635380808811800,3.214811767578125,-6.468384697723388,1.3407529296874998,-5.419574732971191
1789635380818851800,3.224851806640625,-4.440346253967285,2.8342858528137205,-2.4343045379638673
1789635380828891600,3.2348916015625,-3.9719805541992184,2.254440138244629,-0.3324947555541992
1789635380838931000,3.244930908203125,-5.278466472625732,-0.0010474632263183592,-1.0767921966552734
1789635380848971000,3.254970947265625,-7.611167077636718,-2.302324171447754,-2.6390087799072264
1789635380859009800,3.265009765625,-9.841515561676024,-3.73480495223999,-3.0942063705444336
1789635380869049900,3.2750498046875,-11.00674358215332,-3.8009447731018065,-2.345569438934326
1789635380879090000,3.28508984375,-10.958560273742675,-3.4645594398498534,-1.467047067260742
1789635380889130000,3.2951298828125,-11.153687709045409,-3.515885137939453,-1.1372457885742187
1789635380899168800,3.305168701171875,-10.80922194519043,-3.695300624847412,-1.1875240234375
1789635380909208800,3.315208740234375,-10.302549018859862,-3.2345664428710936,-1.2786533241271971
1789635380919249000,3.325248779296875,-9.647435589599608,-2.2206220397949217,-1.0752958206176757
1789635380929288000,3.335287841796875,-9.093477180480956,-1.232714579772949,-0.881664761352539
1789635380939327700,3.34532763671875,-9.728239895629882,-0.706139852142334,-0.9044096771240234
1789635380949367800,3.355367919921875,-10.517578255462645,-0.7234978141784667,-0.17971476211547852
1789635380959406800,3.36540673828125,-10.883442196655272,-1.0555436569213867,0.7312789695739745
1789635380969447000,3.375447021484375,-11.413308951568602,-1.2870330299377442,1.0401309837341308
1789635380979487000,3.385487060546875,-11.505784990692138,-1.4232032493591307,0.9276035057067871
1789635380989525800,3.39552587890625,-10.970232006835937,-1.3097779457092285,0.38576574249267576
1789635380999565800,3.40556591796875,-10.971129832458496,-0.7101800674438477,-0.3308487419128418
1789635381009606000,3.41560595703125,-11.045499721527099,-0.3730465461730957,-0.19333178405761717
1789635381019644700,3.425644775390625,-10.423755477905273,-0.5467758041381836,0.5189432098388671
1789635381029684700,3.435684814453125,-9.565284545135498,-0.739957950592041,1.4377180969238281
1789635381039724800,3.445724853515625,-9.520542901611327,-0.738012661743164,2.249202822113037
1789635381049763800,3.455763916015625,-9.489567917633057,-0.7921814743041992,2.8112416618347167
1789635381059803600,3.4658037109375,-9.27603505706787,-1.3742717529296875,3.272574394226074
1789635381069843700,3.47584375,-8.666112184143065,-2.448370472717285,3.414131567382812
1789635381079882800,3.4858828125,-7.997681008148193,-3.3276410324096677,3.3565210899353026
1789635381089922800,3.4959228515625,-8.151508464813231,-3.39647433013916,2.9920038871765136
1789635381099963000,3.505962890625,-9.446322650146485,-3.2646436012268065,2.5564088226318358
1789635381110002000,3.516001953125,-10.140192218780516,-3.6674680305480956,2.244863331604004
1789635381120041700,3.526041748046875,-10.637288338470459,-4.236539837646484,2.182614088439941
1789635381130081800,3.536081787109375,-10.611550670623778,-4.48164623260498,2.094776815032959
1789635381140120800,3.546120849609375,-10.56576156387329,-4.330961165618897,2.1999720504760742
1789635381150161400,3.556161376953125,-9.629030164337157,-4.030788132476807,2.227505369567871
1789635381160201200,3.566201171875,-8.467543083953856,-3.8066310020446776,1.7178396911621092
1789635381170240500,3.576240478515625,-8.09479581298828,-3.803338974761963,0.7351695472717285
1789635381180280300,3.5862802734375,-8.776544735717772,-3.9745243934631347,-0.20096330184936523
1789635381190320400,3.5963203125,-9.744550394439697,-4.337096307373047,-0.4736030158996582
1789635381200359400,3.606359375,-10.132859976196288,-4.96078583984375,-0.09950900650024413
1789635381210399500,3.6163994140625,-10.245986004638672,-5.7511716629028315,0.14260463638305662
1789635381220439600,3.626439453125,-10.049661468505859,-5.996427695465088,0.7064391273498535
1789635381230478600,3.636478515625,-9.538798689270019,-5.622782598876952,1.6017209106445311
1789635381240518400,3.646518310546875,-8.864232371520995,-5.116708222961425,2.107944924163818
1789635381250558500,3.656558349609375,-7.349600546264648,-4.649090711212158,1.688660358428955
1789635381260597500,3.666597412109375,-5.919065054321289,-4.002057712554931,0.6941688438415526
1789635381270637600,3.676637451171875,-7.216123803710937,-3.2836475769042965,0.4026747917175293
1789635381280677400,3.686677490234375,-8.54894594039917,-3.827430628967285,0.6498761131286621
1789635381290716400,3.69671630859375,-7.395988203430175,-5.530007284545898,1.3193547523498534
1789635381300756500,3.706756591796875,-7.962516171264648,-6.247220319366455,2.871695253753662
1789635381310796500,3.716796630859375,-9.88341409072876,-5.783343747711181,4.172345305633545
1789635381320835300,3.72683544921875,-8.660725230407714,-4.812644612121582,3.9395091941833495
1789635381330875400,3.73687548828125,-5.548263072204589,-3.3387142150878906,2.338686109161377
1789635381340915500,3.74691552734375,-5.272630606079101,-2.7766753753662106,0.5702689079284667
1789635381350954500,3.75695458984375,-6.854000802612305,-3.652653907775879,-0.7882908966064452
1789635381360994300,3.766994384765625,-7.377882053375243,-4.575020097351074,-0.6810007347106933
1789635381371034400,3.777034423828125,-6.854599353027344,-5.596596018218994,0.3847182792663574
1789635381381073400,3.787073486328125,-8.671499137878417,-7.091176404571533,0.929548794555664
1789635381391113500,3.797113525390625,-10.704625260162352,-8.61284119720459,1.6297031425476074
1789635381401153300,3.8071533203125,-8.410830432128906,-8.723273748779297,2.5755624359130858
1789635381411193300,3.817193359375,-4.751592469787598,-7.441926947784423,1.0562918449401855
1789635381421232400,3.827232421875,-5.7058314689636225,-5.497685562133789,-0.8066963218688964
1789635381431272400,3.8372724609375,-8.804078054809569,-4.853645315551757,-1.2984054878234863
1789635381441312300,3.847312255859375,-10.022128149414062,-5.931484975433349,-0.502483073425293
1789635381451351300,3.857351318359375,-8.922740674591063,-7.615506568145752,1.6316484313964843
1789635381461391400,3.867391357421875,-7.803601036071777,-8.952817832946776,3.6074633514404293
1789635381471431400,3.877431396484375,-7.756465190887451,-9.004442806243896,3.6649241912841797
1789635381481470500,3.887470458984375,-7.895628162384033,-7.792827128601074,1.8037316757202146
1789635381491510300,3.89751025390625,-7.780556845092773,-6.383839451599121,0.48108489608764643
1789635381501550300,3.90755029296875,-6.903231574249268,-5.777657518768311,0.047584757995605464
1789635381511589600,3.917589599609375,-7.607725412750244,-6.121824007415771,0.24091654205322263
1789635381521629400,3.92762939453125,-8.182034535980224,-6.60126288986206,1.4235025245666504
1789635381531669500,3.93766943359375,-7.310994044494628,-6.47975715560913,2.8540380165100094
1789635381541708500,3.94770849609375,-5.968445463562011,-5.926696572113037,3.295618585205078
1789635381551748600,3.95774853515625,-5.259013584136962,-4.908711953735351,2.3382371963500974
1789635381561788400,3.967788330078125,-5.4221185722351075,-3.928286373901367,0.5846341178894042
1789635381571827500,3.977827392578125,-7.041646357727051,-4.170998567199707,-1.343296768951416
1789635381581867500,3.987867431640625,-9.030479749298095,-5.999121172332764,-1.6852186935424804
1789635381591907600,3.997907470703125,-8.95655877304077,-8.424297816467284,0.22774843292236327
1789635381601946400,4.0079462890625,-7.845798840332031,-9.803956523132324,2.6253917579650876
1789635381611986400,4.017986328125,-7.322067227172851,-9.777171392059326,3.882946179962158
1789635381622026500,4.028026611328125,-7.668777555084228,-9.137021723175048,2.8980314720153806
1789635381632065500,4.0380654296875,-7.403918996429443,-7.943661833190918,1.4278420150756834
1789635381642105300,4.048105224609375,-6.458358978271484,-7.109132917022705,0.3534440200805664
1789635381652145400,4.0581455078125,-6.856395004272461,-7.2063973594665525,-0.23582886352539062
1789635381662184400,4.068184326171875,-7.883806791687011,-8.06920778274536,0.3752911102294922
1789635381672224500,4.078224609375,-7.059303594970703,-8.877400480651856,1.7509096015930175
1789635381682264300,4.088264404296875,-4.904971013641357,-8.961945726776122,2.850596351623535
1789635381692303400,4.098303466796875,-3.5187282524108885,-8.022969763183593,2.2334908737182615
1789635381702343400,4.108343505859375,-4.39874700012207,-7.448810277557373,0.1484405029296875
1789635381712383500,4.118383544921875,-7.000944929504394,-7.9295958984374995,-0.7142202827453613
1789635381722422300,4.12842236328125,-8.10227769317627,-8.86153889465332,0.23882161560058593
1789635381732462300,4.13846240234375,-6.704512836456298,-9.386317971038817,1.8507178833007811
1789635381742502400,4.14850244140625,-5.269188941192627,-9.144054690551757,2.7103859169006346
1789635381752541200,4.158541259765625,-4.86456886062622,-7.991396228790283,1.9846435386657715
1789635381762581200,4.168581298828125,-6.929717430114746,-7.745242370605468,1.7099088981628416
1789635381772621300,4.178621337890625,-7.698405800628661,-8.119486017608642,2.1646575759887696
1789635381782661400,4.188661376953125,-7.344512867736816,-8.36908154067993,2.0600608909606932
1789635381792700400,4.198700439453125,-7.733570637512207,-8.278101877593993,1.8408418014526367
1789635381802740200,4.208740234375,-7.529764221191406,-7.53320588607788,1.8065747901916502
1789635381812780300,4.2187802734375,-6.474220564270019,-6.443844130706787,1.4921861846923827
1789635381822819600,4.228819580078125,-5.511751496887206,-5.719747766113281,0.6220435188293457
1789635381832859400,4.238859375,-5.045331085968018,-5.442319648742675,-0.35613749694824215
1789635381842899200,4.248899169921875,-5.6678235176086424,-5.551555099487304,-0.32576106338500976
1789635381852938500,4.2589384765625,-5.172672686767577,-5.7517702133178705,0.3850175544738769
1789635381862978600,4.268978515625,-4.3993455505371095,-6.000916823577881,0.967257470703125
1789635381873018600,4.2790185546875,-4.7107414039611815,-6.2493152458190915,1.153705924987793
1789635381883057400,4.289057373046875,-5.400870032501221,-6.279242766571045,1.7555483673095702
1789635381893097500,4.299097412109375,-5.575048203277587,-6.458658253479004,2.420238603210449
1789635381903137500,4.309137451171875,-5.380968231201171,-6.629394759368896,2.756623936462402
1789635381913176600,4.319176513671875,-5.282057775115966,-6.6988266075134275,2.3740005836486815
1789635381923216400,4.32921630859375,-5.781099183654785,-6.814646112823486,1.7393875061035156
1789635381933256400,4.33925634765625,-6.543053861999511,-7.304559627532958,1.4062942001342773
1789635381943295500,4.34929541015625,-7.298723760986328,-7.786093436431885,1.8929156875610351
1789635381953335600,4.35933544921875,-7.008576447296142,-8.128913186645507,2.368164717102051
1789635381963375400,4.369375244140625,-6.767510267639159,-8.252064934539794,2.103755071258545
1789635381973414400,4.379414306640625,-7.114669508361816,-8.084021905517577,1.7151462142944336
1789635381983454500,4.389454345703125,-7.497891411590576,-7.784597060394287,1.574337229156494
1789635381993494500,4.39949462890625,-7.987954563903808,-7.752275337982177,1.9629460861206054
1789635382003533300,4.409533203125,-8.315660916137695,-8.190563879394531,2.6958710693359373
1789635382013573400,4.419573486328125,-8.568698104095459,-8.463203593444824,3.2589573722839353
1789635382023613400,4.429613525390625,-8.961197538757323,-8.353968142700195,3.9098809486389157
1789635382033652200,4.43965234375,-9.253589416503905,-8.186972576904296,4.498555281829834
1789635382043692300,4.4496923828125,-9.054721041107177,-7.687631893157959,5.01196190032959
1789635382053732400,4.459732421875,-8.193855906677246,-7.121403200531005,4.9932571998596185
1789635382063771400,4.469771484375,-7.084592350006103,-6.627000557708739,4.333355367279053
1789635382073811500,4.4798115234375,-6.523301698303222,-6.062866791534423,3.4579753852844237
1789635382083851300,4.489851318359375,-6.489184324645996,-5.739350292205811,2.6975170829772948
1789635382093890300,4.499890380859375,-6.58854369354248,-5.837063647460937,1.8737620742797851
1789635382103930400,4.509930419921875,-6.565349864959717,-5.985354512786865,1.0271125122070313
1789635382113970400,4.519970458984375,-6.648698010253906,-5.915623389434814,0.30705636291503907
1789635382124010200,4.53001025390625,-7.07980394668579,-5.626822814178467,0.12075754623413085
1789635382134049500,4.540049560546875,-7.40586428527832,-5.532850399017334,0.14006079711914063
1789635382144089300,4.55008935546875,-7.532457698059082,-5.468057316589356,0.49200844116210934
1789635382154129700,4.560129638671875,-7.774870616149902,-5.698948139190674,1.0630255371093749
1789635382164168700,4.570168701171875,-7.669825018310546,-6.169857678222656,1.4809633644104003
1789635382174208800,4.580208740234375,-7.464821501159667,-6.797737063598633,1.4194623092651366
1789635382184248600,4.59024853515625,-7.4326494163513175,-6.996605438995361,1.3305775726318358
1789635382194287900,4.600287841796875,-7.7221981796264645,-6.452672749328613,1.084124439239502
1789635382204327700,4.61032763671875,-8.56720172805786,-5.746083984375,1.1297639083862303
1789635382214367700,4.62036767578125,-9.507075517272948,-5.634753607177734,1.732803451538086
1789635382224406800,4.63040673828125,-9.66628992767334,-6.196193896484375,2.6598084068298338
1789635382234446800,4.64044677734375,-8.730905266571044,-6.680421182250976,3.4358290199279784
1789635382244486700,4.650486572265625,-7.9575781303405755,-6.691195089721679,3.8729204605102536
1789635382254525700,4.660525634765625,-7.945457484436035,-6.0525417968749995,4.049941745758057
1789635382264565800,4.670565673828125,-8.194005544281005,-5.074959331512451,3.7946599937438963
1789635382274605800,4.680605712890625,-8.06950705795288,-4.103512007904053,3.1215900520324706
1789635382284644600,4.69064453125,-8.228272555541992,-3.650708618927002,2.6219500930786133
1789635382294684700,4.7006845703125,-8.527098850250244,-3.8883331336975093,2.5463831031799313
1789635382304724700,4.710724853515625,-8.349030101776123,-4.581155239105224,2.5104700782775877
1789635382314763800,4.720763671875,-7.752873888397216,-5.360467879486084,2.409315058135986
1789635382324803600,4.730803466796875,-8.12068311843872,-5.829432129669189,2.5041852989196776
1789635382334843600,4.74084375,-9.297582872009277,-5.972186403656005,2.9788357780456542
1789635382344882700,4.750882568359375,-9.78629928588867,-6.048052668762207,3.055300593566894
1789635382354922800,4.7609228515625,-9.534010285949707,-6.210858381652832,2.422932080078125
1789635382364962600,4.770962646484375,-8.780435313415527,-6.254702199554443,1.552639776611328
1789635382375001600,4.781001708984375,-8.29351455078125,-5.927893672943115,1.172859538269043
1789635382385041700,4.791041748046875,-8.352322129058837,-5.242703085327149,1.4496891052246093
1789635382395081700,4.801081787109375,-8.509890525817871,-4.637568615722656,1.786972264099121
1789635382405120500,4.81112060546875,-8.855703028106689,-4.395454972839355,1.8785504776000976
1789635382415160600,4.82116064453125,-9.18041662826538,-4.583100527954102,1.6877625328063963
1789635382425200600,4.83120068359375,-8.882937071990966,-4.8500540130615235,1.375917766571045
1789635382435239700,4.84123974609375,-7.757363016510009,-4.784213467407226,0.7990648040771484
1789635382445279500,4.851279541015625,-7.6093714263916015,-4.13673155593872,0.43020811080932614
1789635382455319600,4.861319580078125,-8.440309040069579,-3.384802597045898,0.6034884559631347
1789635382465359600,4.871359619140625,-8.693495865631103,-3.0865748527526855,0.7873930709838867
1789635382475398700,4.881398681640625,-8.007856365203857,-3.1836896575927733,0.8297405128479003
1789635382485438500,4.8914384765625,-7.602188821411132,-3.2980127868652342,0.7453449043273925
1789635382495478500,4.901478515625,-7.876175273895263,-3.1913211753845214,0.8843582382202148
1789635382505517800,4.911517822265625,-8.188468952941895,-2.8835166244506834,1.2024877838134764
1789635382515558000,4.921557861328125,-8.449137658691406,-2.631077986907959,1.5825672973632812
1789635382525597700,4.93159765625,-8.487444885253906,-2.6931775924682615,1.9161095161437987
1789635382535636700,4.94163671875,-8.201188149261474,-3.1304186706542967,1.8285715179443358
1789635382545676800,4.9516767578125,-7.77606771697998,-3.760841895294189,1.37262573928833
1789635382555716900,4.961716796875,-7.402123345184326,-4.094234476470947,1.1055226165771483
1789635382565755600,4.971755615234375,-7.2815154365539545,-4.369418029785156,1.0577882209777831
1789635382575795700,4.981795654296875,-7.235427054595947,-4.588337844085693,1.1742062767028807
1789635382585835800,4.991835693359375,-7.297975572967529,-4.432415460968017,1.2642881141662596
1789635382595874800,5.001874755859375,-7.707234419250488,-4.246864832305908,0.8854057014465332
1789635382605914600,5.01191455078125,-8.63723212661743,-4.161122485351562,0.39758711318969725
1789635382615954700,5.02195458984375,-9.551517885589599,-3.978863883972168,0.16340426330566404
1789635382625993700,5.03199365234375,-10.301351918029784,-3.986196126556396,0.19946692581176756
1789635382636033800,5.04203369140625,-10.652551374053955,-4.22591556777954,-0.11237784042358398
1789635382646073600,5.052073486328125,-11.273697067260741,-4.655375490570068,0.0005985504150390625
1789635382656112600,5.062112548828125,-11.86267067565918,-5.508609107208252,0.9485527702331542
1789635382666152700,5.072152587890625,-11.292850680541992,-6.3341597671508785,1.4847043045043944
1789635382676192800,5.08219287109375,-10.774954933929443,-6.719027684020996,1.0503063407897948
1789635382686232600,5.092232666015625,-9.605088147735595,-5.612607241821289,-0.6257844589233398
1789635382696271600,5.102271728515625,-8.836848690032959,-3.892971899414062,-1.4226046989440917
1789635382706311700,5.112311767578125,-8.14058491973877,-3.172466837310791,-0.7528267845153808
1789635382716351700,5.122351806640625,-7.483226926422119,-3.6605847007751464,-0.5090671279907226
1789635382726390500,5.132390625,-8.180538159942627,-3.880851253509521,-0.8128314636230468
1789635382736430600,5.1424306640625,-9.151386933135985,-3.2653917892456055,-1.0142436782836914
1789635382746470700,5.152470703125,-9.769988787078857,-2.9613281784057617,-0.3607762626647949
1789635382756509700,5.162509765625,-10.25990230178833,-3.444508000946045,0.5865794067382812
1789635382766549500,5.172549560546875,-9.800963771057129,-3.964049761199951,1.0580874961853026
1789635382776589600,5.182589599609375,-8.565705352020263,-4.373907157897949,0.8991723609924316
1789635382786628600,5.192628662109375,-7.7866919868469235,-4.187458703613281,0.22939444656372068
1789635382796668700,5.202668701171875,-7.17557201309204,-3.203741096496582,-0.41374797439575195
1789635382806708500,5.21270849609375,-7.030124262237549,-1.7776947326660155,-0.7508814956665039
1789635382816747800,5.222747802734375,-6.621314328765869,-0.7018003616333007,-1.2235866859436035
1789635382826787600,5.23278759765625,-6.2392895263671875,0.0378583137512207,-1.638232485961914
1789635382836827600,5.24282763671875,-6.2599395156860345,0.4565443290710449,-0.9545382743835449
1789635382846866700,5.25286669921875,-5.807884314727783,-0.06209960556030273,0.6280290229797363
1789635382856906800,5.26290673828125,-4.918588035583496,-1.0959458099365234,1.0037690460205078
1789635382866946800,5.27294677734375,-6.281636968231201,-1.5228618934631346,0.9268553176879882
1789635382876985600,5.282985595703125,-8.53622674407959,-1.1046247909545899,1.1628338188171385
1789635382887025700,5.293025634765625,-8.326285186004638,-0.08394669570922851,1.5306430488586424
1789635382897065700,5.303065673828125,-5.7225908805847165,1.2910732452392577,1.8411410766601561
1789635382907104800,5.313104736328125,-5.0480245628356935,1.85790048828125,2.368015079498291
1789635382917144800,5.323144775390625,-7.136666236114501,0.8412626083374023,1.3634978454589843
1789635382927184600,5.3331845703125,-9.482684587860106,0.11985972061157225,-0.4421791191101074
1789635382937224700,5.343224609375,-10.702829608917236,-0.25363573837280273,-0.18210896377563476
1789635382947263700,5.353263671875,-10.108618684387206,-1.0763432838439941,0.6323685134887695
1789635382957303800,5.3633037109375,-10.497227541351318,-1.6704045707702635,1.6072575019836426
1789635382967343600,5.373343505859375,-12.067524555206298,-2.76440509185791,2.5207950729370117
1789635382977382700,5.383382568359375,-12.510601499938964,-4.396652073669434,2.0866963844299313
1789635382987422700,5.393422607421875,-11.239130780792236,-4.791246434783935,1.0838251640319823
1789635382997462800,5.403462890625,-10.073603485107421,-3.0856770271301266,0.6612485710144043
1789635383007501600,5.41350146484375,-10.66751513442993,-1.1323077476501464,-0.31274259185791015
1789635383017541600,5.423541748046875,-11.610830588531494,0.2316390106201172,-0.4537012145996093
1789635383027581700,5.433581787109375,-10.472387699127196,0.2657563842773437,0.7844003189086913
1789635383037620700,5.443620849609375,-7.3943421897888175,-0.7972691528320313,1.6722002220153807
1789635383047660500,5.45366064453125,-6.276848564910888,-1.8644845428466796,1.1869254730224608
1789635383057700600,5.46370068359375,-8.147168974304199,-2.3331495178222657,0.3962403747558593
1789635383067739600,5.47373974609375,-8.782679877471923,-2.2194249389648437,-0.02289455337524414
1789635383077779700,5.48377978515625,-7.935132489776611,-1.8463783927917479,0.2855085479736328
1789635383087819500,5.493819580078125,-6.707655226135254,-1.6789339141845703,0.63206923828125
1789635383097858600,5.503858642578125,-5.717054289245605,-1.5408184059143066,0.5871779571533203
1789635383107898600,5.513898681640625,-6.682815383911133,-1.361851831817627,0.5807435401916503
1789635383117938700,5.523938720703125,-7.452102304840087,-1.1091139190673827,0.8267477607727051
1789635383127977700,5.533977783203125,-7.0561612052917475,-0.8526350662231444,1.0322001907348632
1789635383138017500,5.544017578125,-7.38012661743164,-0.7050923889160156,1.0628758995056151
1789635383148057600,5.5540576171875,-8.32463917236328,-0.7882908966064452,1.0986392868041992
1789635383158097200,5.56409716796875,-8.699182094573974,-1.1592425163269042,1.1653776580810546
1789635383168136200,5.57413623046875,-8.988581220245361,-2.000355487060547,1.2612953620910643
1789635383178176300,5.58417626953125,-9.224709358978272,-3.1387983764648437,1.21296241607666
1789635383188216300,5.59421630859375,-9.865906491088866,-4.159476471710205,1.001075569152832
1789635383198255000,5.604255126953125,-11.63881282043457,-4.687098662567139,1.254561669921875
1789635383208295200,5.614295166015625,-11.542146928405762,-4.791096797180176,1.8740613494873046
1789635383218335200,5.624335205078125,-10.288034171295166,-4.525938963317871,2.420986791229248
1789635383228374300,5.634374267578125,-10.41971526260376,-4.1958384094238275,2.52184253616333
1789635383238414000,5.6444140625,-11.231948175811766,-4.224868104553223,2.080411605072021
1789635383248454100,5.6544541015625,-11.200973191833496,-4.425532131195068,1.6189292350769042
1789635383258493200,5.6644931640625,-10.562469536590575,-4.84556488494873,1.4133271675109862
1789635383268533200,5.674533203125,-10.992378372192382,-5.52237576675415,1.7741034301757812
1789635383278573300,5.6845732421875,-11.068394274902342,-5.885097318267822,2.223764429473877
1789635383288612000,5.694612060546875,-10.816703825378417,-6.1741971687316894,2.605938869476318
1789635383298652200,5.704652099609375,-11.39565171432495,-6.7663131668090815,2.632724000549316
1789635383308692200,5.714692138671875,-10.888380237579344,-7.238419806671142,2.8675054008483887
1789635383318731000,5.72473095703125,-9.383774131774901,-7.293785720062256,3.010259674835205
1789635383328771000,5.73477099609375,-8.71399621734619,-7.07396808013916,2.9906571487426756
1789635383338811100,5.74481103515625,-8.788815019226075,-6.998550727844238,2.4844331352233886
1789635383348850200,5.75485009765625,-8.29336491317749,-6.88901600189209,1.9397522575378416
1789635383358890000,5.764889892578125,-7.042544183349609,-6.433818411254882,1.483806478881836
1789635383368930000,5.774929931640625,-7.046584398651123,-6.098330903625488,1.2853870162963867
1789635383378970000,5.78497021484375,-7.521234877777099,-5.793968017578124,1.3009493270874022
1789635383389009200,5.795009033203125,-6.996006888580322,-5.640439836120605,1.6849194183349607
1789635383399049200,5.80504931640625,-5.655403596496582,-5.534197137451171,1.8641852676391601
1789635383409089000,5.815089111328125,-4.620061016082763,-5.2271407745361325,1.4565724349975586
1789635383419128000,5.825128173828125,-4.714033431243896,-4.797680851745605,0.7387608497619629
1789635383429168000,5.835168212890625,-5.864746604156494,-4.515763606262206,0.39010523300170896
1789635383439208200,5.845208251953125,-6.296002178192138,-4.421491915893554,0.6907271789550781
1789635383449247200,5.855247314453125,-4.508431363677978,-4.435258575439453,0.8698433906555175
1789635383459287000,5.865287109375,-3.4151790306091305,-4.804863456726074,0.661398208618164
1789635383469327000,5.8753271484375,-4.523544761657715,-5.302408489227295,0.49545010604858397
1789635383479366100,5.8853662109375,-6.352864467620849,-5.876268699645996,0.4896142395019531
1789635383489406200,5.89540625,-6.993313411712646,-7.116914072418212,0.3764882110595703
1789635383499446300,5.9054462890625,-6.458807891082763,-8.865130197143554,0.2651578338623047
1789635383509485300,5.9154853515625,-7.168838320922851,-9.639205521392821,0.9228151023864746
1789635383519525000,5.925525146484375,-8.974066372680664,-9.701754039764404,1.581370196533203
1789635383529565200,5.935565185546875,-10.009109677886963,-9.489717555236815,2.0591630653381348
1789635383539604200,5.945604248046875,-9.191040898132323,-9.08464856185913,2.5176526832580564
1789635383549644300,5.955644287109375,-7.917325614929199,-8.4651488822937,2.92391877746582
1789635383559684400,5.965684326171875,-7.696460511779785,-7.915529963684081,2.806453258514404
1789635383569724200,5.97572412109375,-7.9475524108886715,-7.799560820770263,2.4498668487548825
1789635383579763200,5.98576318359375,-7.551162398529052,-7.88455497970581,2.046743144226074
1789635383589803300,5.99580322265625,-6.9354036590576165,-7.931092274475097,1.6750433364868162
1789635383599843300,6.00584326171875,-6.552481031036376,-7.973290078735351,1.3640963958740233
1789635383609882000,6.015882080078125,-6.502502071380615,-8.075492562103271,1.0866682785034179
1789635383619922200,6.025922119140625,-6.897994258117675,-8.309226499176026,1.0363900436401368
1789635383629962200,6.035962158203125,-7.491456994628906,-8.531139065551757,1.8532617225646972
1789635383640001000,6.0460009765625,-6.730400141906738,-8.282591005706786,2.765751830291748
1789635383650041000,6.056041015625,-6.487837586212158,-7.888595195007324,2.8393735313415527
1789635383660081200,6.0660810546875,-7.369801622772217,-7.835473845672607,2.6421511695861817
1789635383670120200,6.0761201171875,-7.757961566925048,-8.14028564453125,2.6171616897583005
1789635383680160300,6.08616015625,-7.314884622192382,-8.477419165802,2.4993968955993653
1789635383690200000,6.096199951171875,-6.700771896362304,-8.63124662246704,1.8605939651489256
1789635383700239000,6.106239013671875,-6.016329496765136,-8.355913431549071,1.0901099433898924
1789635383710279200,6.116279052734375,-5.783493385314941,-7.630320690917968,1.1435305679321288
1789635383720319200,6.1263193359375,-5.543175393676758,-6.929567792510986,1.5716437522888183
1789635383730358000,6.13635791015625,-5.019892693328857,-6.918644247436523,1.7193360671997069
1789635383740398000,6.146398193359375,-4.888510877227783,-7.347655257415771,1.7896657409667969
1789635383750438100,6.156438232421875,-5.033509715270996,-7.650970680236816,1.7302596122741698
1789635383760478200,6.166478271484375,-4.931307231903076,-7.3660606826782224,1.3516764747619627
1789635383770517000,6.17651708984375,-5.4056584358215325,-6.637325552368163,1.061678798675537
1789635383780557000,6.18655712890625,-6.106261696624755,-6.087108083343505,1.3648445838928223
1789635383790597000,6.19659716796875,-6.229263806915283,-6.453869850158691,1.7944541442871094
1789635383800636200,6.20663623046875,-6.308122824096679,-7.38072516784668,1.5939397552490233
1789635383810676200,6.21667626953125,-6.617274113464355,-7.873182521820068,0.8954314208984374
1789635383820716000,6.226716064453125,-6.833650088500976,-7.334038235473632,0.5241805259704589
1789635383830755300,6.23675537109375,-7.02922643661499,-6.407033280181884,0.5143044441223145
1789635383840795400,6.24679541015625,-7.948749511718749,-6.654084963989257,0.9909002120971679
1789635383850835200,6.256835205078125,-8.551190504455565,-7.869890494537353,1.7993921852111816
1789635383860874200,6.266874267578125,-7.5445783439636225,-8.316259466552735,1.686715069580078
1789635383870914300,6.276914306640625,-7.867197017669677,-7.93558140258789,2.00439570236206
1789635383880954400,6.286954345703125,-8.59907453765869,-7.614908017730713,2.607884158325195
1789635383890993200,6.2969931640625,-8.015188607788085,-7.584681221771239,2.7539304595947263
1789635383901033200,6.307033203125,-7.315632810211182,-7.645883001708984,2.607435245513916
1789635383911073300,6.3170732421875,-8.340800033569336,-8.092700886535644,2.638859142303467
1789635383921112000,6.327112060546875,-8.846275859069824,-8.247426168823242,2.7343279335021973
1789635383931152100,6.337152099609375,-9.245658623504639,-7.8423571754455565,2.7636569038391112
1789635383941192200,6.347192138671875,-9.534010285949707,-7.4512044792175285,2.5923218475341794
1789635383951232300,6.357232177734375,-9.297582872009277,-7.373243287658691,2.2459107948303223
1789635383961271300,6.367271240234375,-8.724470849609375,-6.910863092041015,2.0720318992614746
1789635383971311000,6.37731103515625,-8.057685687255859,-6.22462504119873,1.7437269966125488
1789635383981351200,6.38735107421875,-7.290194417572021,-5.444264937591552,1.352275025177002
1789635383991390200,6.39739013671875,-6.3986535743713375,-4.902277536773681,1.0907084938049316
1789635384001430300,6.40743017578125,-6.074388887023925,-4.588637119293213,1.3576619789123534
1789635384011470000,6.417469970703125,-6.17374825592041,-4.621407754516602,1.5671546241760252
1789635384021509000,6.427509033203125,-6.2413844528198235,-4.514267230224609,1.7298106994628906
1789635384031549200,6.437549072265625,-6.5762734100341795,-4.375104258728027,1.7913117546081543
1789635384041589200,6.44758935546875,-7.4108023262023925,-4.147056550598144,1.8394950630187987
1789635384051628000,6.4576279296875,-8.317007654571533,-4.108450048828125,2.0611083541870117
1789635384061668000,6.467668212890625,-8.602516202545166,-4.348768040466308,1.833509558868408
1789635384071708200,6.477708251953125,-8.973467822265624,-4.75653051071167,1.608903515625
1789635384081747000,6.487746826171875,-9.32182416381836,-5.073612593078613,1.6078560523986816
1789635384091787000,6.497787109375,-8.825925144958495,-5.146486106109619,1.8742109870910644
1789635384101827000,6.5078271484375,-8.45302823638916,-5.200206005859375,2.5221418113708496
1789635384111866000,6.5178662109375,-7.938574154663086,-5.521477941131591,3.004423808288574
1789635384121906200,6.52790625,-7.532158422851562,-5.619640209197998,2.9885622222900388
1789635384131946000,6.537946044921875,-8.593089033508301,-5.556343502807617,3.009511486816406
1789635384141986000,6.547986083984375,-8.666860372161866,-5.634603969573974,2.990956423950195
1789635384152025300,6.558025390625,-7.218218730163573,-5.619490571594238,2.379387537384033
1789635384162065400,6.5680654296875,-7.005882970428466,-5.354931288146973,1.7082628845214842
1789635384172105500,6.57810546875,-7.6756608848571775,-4.627842171478271,1.39177935256958
1789635384182144500,6.58814453125,-8.79210704650879,-3.7753567428588863,1.6455647285461426
1789635384192184600,6.5981845703125,-10.00387236175537,-3.800495860290527,1.9960159965515136
1789635384202224400,6.608224365234375,-9.873687646484374,-4.854543141174316,1.7238251953125
1789635384212263400,6.618263427734375,-8.800935665130615,-5.475239921569824,0.9699509475708007
1789635384222303500,6.628303466796875,-8.209867130279541,-5.365555558013916,0.21697452545166016
1789635384232343600,6.638343505859375,-7.936329590606689,-4.6724341773986815,0.08215104446411133
1789635384242382600,6.648382568359375,-8.186972576904296,-3.8105215797424314,0.6714239280700683
1789635384252422700,6.658422607421875,-8.368034077453613,-3.7032314178466796,1.080233861541748
1789635384262462500,6.66846240234375,-8.499116618347168,-4.323628923034668,0.9109937316894531
1789635384272501500,6.67850146484375,-9.069086251068114,-4.667795411682128,0.6100725105285644
1789635384282541600,6.68854150390625,-9.702053314971923,-4.525789325714111,0.47330374069213865
1789635384292581600,6.69858154296875,-9.45470235595703,-4.387524179840088,0.623090982055664
1789635384302620400,6.708620361328125,-9.031377574920654,-4.582801252746582,0.6232406196594238
1789635384312660500,6.718660400390625,-9.248501737976074,-4.818031565856933,0.4291606475830078
1789635384322700500,6.728700439453125,-10.122684619140625,-4.996549227142333,0.2237082176208496
1789635384332740600,6.73874072265625,-10.685920559692383,-4.873547116851807,0.364517202758789
1789635384342779400,6.748779296875,-11.177929000854492,-4.312256465148925,0.7109282554626465
1789635384352819500,6.7588193359375,-10.756399871063232,-4.017470385742187,0.7912836486816406
1789635384362859500,6.768859619140625,-8.946682691192626,-4.266616996002197,0.3128922294616699
1789635384372898300,6.778898193359375,-6.930764893341064,-3.756053491973877,0.311545491027832
1789635384382938400,6.7889384765625,-6.359448522186279,-2.4206875160217285,0.48243163452148435
1789635384392978400,6.798978515625,-6.999448553466796,-1.5077484954833984,0.43080666122436523
1789635384403017500,6.809017578125,-7.370100897979736,-1.6786346389770508,-0.19632453613281248
1789635384413057500,6.8190576171875,-7.4208280456542965,-2.2430676803588865,-1.006163247680664
1789635384423097300,6.829097412109375,-7.29109224319458,-2.6560674667358395,-1.0934019706726072
1789635384433136400,6.839136474609375,-6.929567792510986,-2.4449288078308102,-0.45070846252441404
1789635384443176400,6.849176513671875,-6.937947498321533,-1.7428291709899901,0.411802685546875
1789635384453216500,6.859216552734375,-6.758382373809814,-1.0932523330688475,1.2609960868835448
1789635384463256300,6.86925634765625,-6.531980679321289,-1.241692835998535,1.4501380180358885
1789635384473295400,6.87929541015625,-6.583306377410889,-1.1432312927246093,0.963366893005371
1789635384483335400,6.88933544921875,-6.460753179931641,0.07122749938964844,-0.37065234451293944
1789635384493375500,6.89937548828125,-7.2906433303833005,1.5952864936828612,-1.0999860252380371
1789635384503414300,6.909414306640625,-9.021202217864989,1.511190160369873,-0.2501940734863281
1789635384513454300,6.919454345703125,-10.064774866485594,0.31438860549926756,0.6034884559631347
1789635384523494400,6.929494384765625,-9.771784438323975,-0.849791951751709,0.5618892021179199
1789635384533533700,6.93953369140625,-10.349984139251708,-0.7941267631530762,0.5747580360412597
1789635384543573500,6.949573486328125,-11.88780979309082,-0.7580641006469726,1.9111714752197264
1789635384553613300,6.95961328125,-12.590956893157959,-1.6925509361267088,3.1636382186889644
1789635384563652600,6.969652587890625,-10.577582934570312,-2.888903578186035,2.3707085563659667
1789635384573692700,6.979692626953125,-8.368482990264893,-2.9940988136291504,0.2937386161804199
1789635384583732500,6.989732421875,-8.236951536560058,-1.3202525779724121,-1.715445489501953
1789635384593771500,6.999771484375,-9.666589202880859,0.277727392578125,-2.090287686920166
1789635384603811600,7.0098115234375,-9.717765263366699,-0.22355858001708984,-1.4707880073547361
1789635384613851600,7.0198515625,-7.708581157684326,-1.3198036651611327,-0.19916765060424804
1789635384623890400,7.029890380859375,-5.105036489868164,-1.4899416206359863,0.6801029090881348
1789635384633930500,7.039930419921875,-5.948244387054443,-0.7817068420410156,0.17911621170043945
1789635384643970600,7.049970458984375,-9.362824867248534,0.13676876983642577,-0.5900210716247558
1789635384654010600,7.0600107421875,-10.87281792678833,0.25737667846679685,0.8635586112976074
1789635384664049400,7.07004931640625,-7.665635165405273,-0.672920304107666,3.0780455093383785
1789635384674089500,7.08008935546875,-5.3579240402221675,-1.7386393180847166,3.1636382186889644
1789635384684129500,7.090129638671875,-7.551461673736572,-2.3440730628967286,1.8390461502075195
1789635384694168600,7.10016845703125,-9.400234268188475,-2.4455273582458497,0.7926303871154785
1789635384704208400,7.11020849609375,-8.443601067352294,-2.338536471557617,0.30196868438720703
1789635384714248400,7.12024853515625,-7.326406717681884,-2.226906819152832,-0.203656778717041
1789635384724287500,7.13028759765625,-7.222707858276367,-2.0700866104125977,-0.7606079399108886
1789635384734327600,7.14032763671875,-8.138938906097412,-1.575683967590332,-1.068711766052246
1789635384744367400,7.150367431640625,-9.387814347076416,-0.7748235122680663,-0.7203554244995117
1789635384754406400,7.160406494140625,-8.95730696105957,-0.22266075439453123,0.10504559783935546
1789635384764446500,7.170446533203125,-6.95904640045166,-0.48288054733276364,0.8553285430908203
1789635384774486500,7.180486572265625,-6.274903276062012,-1.6247651016235352,0.9211690887451172
1789635384784526300,7.1905263671875,-7.811232553863525,-3.2788591735839843,0.7841010437011718
1789635384794565400,7.2005654296875,-10.24763201828003,-4.43047017211914,0.7939771255493163
1789635384804605400,7.21060546875,-11.400140842437743,-5.106682503509521,1.6121955429077148
1789635384814645500,7.2206455078125,-10.666916584014892,-5.353434912109375,2.987963671875
1789635384824684300,7.230684326171875,-9.304915114593506,-4.798578677368163,4.067598983001709
1789635384834724400,7.240724365234375,-7.728931871795654,-4.389469468688964,3.0142998901367184
1789635384844764400,7.250764404296875,-8.122927682495117,-5.1617491416931145,-0.28206688308715816
1789635384854803500,7.260803466796875,-10.977264974212646,-5.4981344749450685,-2.4142530990600584
1789635384864843300,7.27084326171875,-12.604573915100097,-4.849305825042724,-1.5330372505187988
1789635384874883300,7.28088330078125,-11.927763033294678,-4.163516687011718,1.0084078117370605
1789635384884922600,7.290922607421875,-10.196306320190429,-4.234744186401367,3.0488661766052245
1789635384894962400,7.30096240234375,-7.786991262054443,-4.50693498764038,3.869628433227539
1789635384905002200,7.311002197265625,-5.40072039489746,-4.86471849822998,2.7234043884277344
1789635384915041500,7.32104150390625,-4.789301145935059,-5.049221663665771,0.7481880187988281
1789635384925081600,7.33108154296875,-6.6331356994628905,-4.5611038002014155,-0.6501753883361816
1789635384935121700,7.34112158203125,-9.890746333312988,-3.959410995483398,-0.9264064048767089
1789635384945161200,7.3511611328125,-11.632976953887939,-4.208856880950927,0.5123591552734374
1789635384955200500,7.361200439453125,-8.894010254669189,-5.325602317810058,3.1235353408813475
1789635384965240600,7.371240478515625,-5.452644643402099,-6.095188513946533,4.255693450927734
1789635384975280600,7.38128076171875,-5.083039762115479,-6.4543187629699705,3.7802947837829586
1789635384985319400,7.3913193359375,-7.596203317260742,-6.829160960388183,2.736273222351074
1789635384995359500,7.401359375,-9.634716393280028,-7.307851654815673,1.9852420890808105
1789635385005399600,7.411399658203125,-8.42773948135376,-7.68703334274292,1.3575123413085937
1789635385015438600,7.4214384765625,-6.190956580352783,-7.480084536743163,1.0111012886047364
1789635385025478400,7.431478515625,-6.964283716583251,-7.177666939544677,0.738012661743164
1789635385035518500,7.4415185546875,-10.165630611419678,-7.185897007751464,0.7873930709838867
1789635385045557500,7.4515576171875,-10.829722296905517,-7.340472652435302,1.5746365043640136
1789635385055597600,7.46159765625,-7.746738746643066,-7.3672577835083,2.4384943908691405
1789635385065637400,7.471637451171875,-6.005854864501953,-7.7250412940979,2.642450444793701
1789635385075677400,7.481677490234375,-7.528866395568847,-8.100033129119872,2.5207950729370117
1789635385085716500,7.491716552734375,-9.184606481170654,-8.220341762542724,2.4965537811279295
1789635385095756500,7.501756591796875,-8.65040023574829,-8.0958432762146,2.508524789428711
1789635385105796600,7.511796630859375,-6.493972727966308,-8.00635998916626,2.0632032806396485
1789635385115835400,7.52183544921875,-5.350442160034179,-8.001571585845946,1.2316671165466309
1789635385125875500,7.53187548828125,-6.356605407714843,-7.890540483856201,0.7535749725341796
1789635385135915500,7.54191552734375,-7.969399501037597,-7.724742018890381,0.9510966094970703
1789635385145954300,7.551954345703125,-7.550563848114013,-7.352144385528564,1.6959926010131834
1789635385155993600,7.56199365234375,-5.675155760192871,-6.524199523925781,2.1371242568969726
1789635385166033700,7.57203369140625,-4.339939421844482,-5.577891317749023,1.8683751205444334
1789635385176073000,7.582072998046875,-4.21349564666748,-5.110872356414794,1.2071265495300292
1789635385186112800,7.59211279296875,-4.62873999710083,-5.703287629699707,0.12779051361083985
1789635385196152600,7.602152587890625,-4.626645070648193,-7.426813549804687,-1.2524667434692383
1789635385206191900,7.61219189453125,-6.645405982971191,-9.345616542816161,-1.3064859184265136
1789635385216232000,7.62223193359375,-9.098864134216308,-10.59868183670044,-0.017357962036132813
1789635385226271700,7.632271728515625,-9.434800554656983,-10.759542260742187,1.8825906929016112
1789635385236311600,7.6423115234375,-8.890568589782715,-9.765200383758545,3.5125931106567383
1789635385246350800,7.652350830078125,-8.13370158996582,-8.354865968322754,4.173243131256103
1789635385256391000,7.662390869140625,-7.120655012512207,-6.88258158493042,3.6272155151367187
1789635385266431000,7.672430908203125,-6.982389866638183,-6.696133130645752,2.296189029693603
1789635385276469800,7.6824697265625,-6.667701985931396,-7.5537062377929685,1.2943652725219725
1789635385286509800,7.692509765625,-6.185569626617431,-8.539967684173584,0.8655039001464844
1789635385296550000,7.7025498046875,-6.22507395401001,-9.389310723114013,1.0375871444702147
1789635385306589000,7.7125888671875,-6.286874284362793,-9.762057994079589,1.427542739868164
1789635385316628700,7.722628662109375,-6.254402924346923,-9.382876306152344,1.6099509788513182
1789635385326668800,7.732668701171875,-6.340294908905029,-8.921094660949706,1.6038158370971678
1789635385336707800,7.742707763671875,-6.338948170471191,-8.843432744598388,1.172111350250244
1789635385346748000,7.752747802734375,-6.071994685363769,-8.515277479553221,0.6637924102783203
1789635385356787700,7.76278759765625,-5.715707550811767,-7.634809819030761,0.3746925598144531
1789635385366826800,7.77282666015625,-5.717802477264404,-6.825868933105468,0.22700024490356444
1789635385376866800,7.78286669921875,-6.201431212615966,-6.906074688720703,0.8132803764343262
1789635385386907000,7.792906982421875,-6.488735411834717,-8.069357420349121,1.730708525085449
1789635385396947000,7.802947021484375,-6.108955173492431,-8.174552655792235,2.4461259086608886
1789635385406985700,7.81298583984375,-6.28223551864624,-7.3937436393737785,2.552967157745361
1789635385417025800,7.82302587890625,-6.718129858398437,-7.0661869247436515,2.070984436035156
1789635385427065900,7.83306591796875,-6.804919668579101,-6.9989996406555175,1.6442179901123046
1789635385437104600,7.843104736328125,-7.024288395690918,-6.629245121765137,1.4603133750915527
1789635385447144700,7.853144775390625,-7.396886029052734,-6.063016429138183,1.504755743408203
1789635385457184800,7.863184814453125,-7.718157964324951,-5.781847371673583,1.7693150268554687
1789635385467223800,7.873223876953125,-8.097190014648437,-5.917867953491211,2.461089669036865
1789635385477263600,7.883263671875,-8.119635655212402,-6.685209585571289,2.7391163368225095
1789635385487303700,7.8933037109375,-8.157793244171142,-7.1212535629272455,2.4666262603759765
1789635385497342700,7.9033427734375,-8.297255490875244,-6.488136861419678,2.586037068176269
1789635385507382800,7.9133828125,-8.162880922698974,-5.728576384735107,2.448220835113525
1789635385517422600,7.923422607421875,-7.928099522399902,-5.359420416259765,1.8071733406066894
1789635385527462700,7.933462646484375,-8.290372161102294,-5.246743300628662,1.548150648498535
1789635385537501700,7.943501708984375,-8.920047197723388,-5.344456655883789,1.6123451805114746
1789635385547541800,7.953541748046875,-8.947730154418945,-5.588066674804687,1.8234838394165038
1789635385557581800,7.963581787109375,-8.514080378723143,-5.970091477203368,2.1517887420654294
1789635385567620900,7.973620849609375,-8.123526232910155,-6.552929943847656,2.406322306060791
1789635385577660700,7.98366064453125,-8.209268579864501,-6.827814221954346,2.69407541809082
1789635385587700700,7.99370068359375,-8.88712692489624,-6.589591156768798,2.8960861831665037
1789635385597739800,8.00373974609375,-9.6013472076416,-6.095487789154053,2.9085061042785645
1789635385607779800,8.01377978515625,-9.853785845184326,-5.835866546630859,2.874388730621338
1789635385617820000,8.02381982421875,-9.54448491821289,-5.549160897827148,2.650231600189209
1789635385627859000,8.03385888671875,-9.47400560684204,-5.080047010040283,2.357091534423828
1789635385637898800,8.043898681640625,-9.539995790100097,-4.774487023162841,2.1070470985412597
1789635385647938800,8.053938720703124,-8.953715658569335,-4.710591766357422,1.8490718696594237
1789635385657977900,8.063977783203125,-8.181136710357665,-4.6526820137023925,1.4456488899230957
1789635385668018000,8.074017822265626,-8.14582223587036,-4.395903885650634,1.2788029617309569
1789635385678058000,8.08405810546875,-8.908674739837647,-4.033930522155761,1.7182886039733887
1789635385688097800,8.094097900390626,-9.116222096252441,-3.976768957519531,2.307860762786865
1789635385698136800,8.10413671875,-8.289623973083495,-4.320336895751953,2.2348376121520994
1789635385708177000,8.114177001953125,-7.742249618530273,-4.798728314971924,1.7841291496276854
1789635385718217000,8.124217041015624,-7.4405802093505855,-4.865167411041259,1.3675380607604979
1789635385728255700,8.134255859375,-7.390301974487304,-4.710292491149902,1.097442185974121
1789635385738295800,8.1442958984375,-7.362319742584228,-4.342183985900879,0.8541314422607421
1789635385748335900,8.1543359375,-7.745092733001709,-3.967940338897705,0.584185205078125
1789635385758374700,8.164374755859376,-9.479841473388671,-3.847182792663574,0.4562450538635254
1789635385768414700,8.174414794921875,-11.21728369064331,-4.3260231246948235,0.8976759849548339
1789635385778454800,8.184454833984375,-10.529698901367187,-5.591059426879882,1.3998597831726074
1789635385788493800,8.194493896484374,-8.658480666351318,-6.357802508544921,1.2219406723022461
1789635385798533600,8.20453369140625,-7.710975359344482,-5.876418337249755,0.7230489013671875
1789635385808573700,8.21457373046875,-7.493701558685302,-4.282478582000732,0.615459464263916
1789635385818613800,8.22461376953125,-7.587075423431396,-2.690933028411865,0.6989572471618652
1789635385828652800,8.23465283203125,-8.180538159942627,-2.3035212722778318,0.6287772109985351
1789635385838692900,8.24469287109375,-8.864980559539795,-3.015496990966797,0.0743698890686035
1789635385848732700,8.254732666015625,-9.016264176940917,-3.7371991539001463,-0.2549824768066406
1789635385858771700,8.264771728515624,-9.062502196502685,-4.384082514953613,0.14604630126953125
1789635385868811800,8.274811767578125,-8.21675046005249,-4.656871866607665,0.5979518646240234
1789635385878851800,8.284851806640624,-7.542932330322265,-3.972429467010498,0.636558366394043
1789635385888890600,8.294890625,-7.727734770965576,-2.4274212081909177,0.4225765930175781
1789635385898930700,8.3049306640625,-8.003367237091064,-1.2458826889038086,0.5921159980773926
1789635385908970800,8.314970703125,-8.11365015106201,-1.3561656028747557,0.6503250259399413
1789635385919009800,8.325009765625,-8.167220413208007,-2.126350349426269,0.0618003303527832
1789635385929049900,8.3350498046875,-8.594435771942138,-2.261922018432617,-0.6956652198791503
1789635385939089700,8.345089599609375,-8.624662567901611,-2.0765210273742674,-0.5882254203796387
1789635385949129700,8.355129638671874,-7.46332512512207,-2.404526654815674,0.020350714111328123
1789635385959169000,8.3651689453125,-6.829759510803222,-2.5392004981994627,0.10205284576416015
1789635385969208800,8.375208740234376,-7.9481509613037105,-1.35990654296875,-0.49574938125610346
1789635385979248600,8.38524853515625,-9.649829791259766,0.1336263801574707,0.2558803024291992
1789635385989288000,8.395287841796875,-8.574683608245849,0.30196868438720703,1.4059949249267578
1789635385999328000,8.405327880859375,-6.382343075561523,-0.7276876670837402,0.7215525253295898
1789635386009367800,8.415367919921875,-5.975328793334961,-1.0910077690124511,-0.22505495605468748
1789635386019406800,8.42540673828125,-6.409128206634521,0.2367266891479492,-0.08843582382202148
1789635386029447000,8.435447021484375,-6.354809756469726,0.8164227661132812,0.738012661743164
1789635386039487000,8.445487060546874,-6.179284847259521,-1.1221323905944824,0.33922844772338867
1789635386049525800,8.45552587890625,-6.943484089660644,-1.5291466728210448,-0.7978677032470702
1789635386059565800,8.46556591796875,-8.272714923858642,0.4557961410522461,-1.1813888816833495
1789635386069606000,8.47560595703125,-10.497077903747558,1.2966098365783691,-0.3763385734558105
1789635386079646000,8.48564599609375,-11.696722573089598,-0.13242927932739257,0.37618893585205077
1789635386089684700,8.495684814453124,-11.010484522247314,-1.6102502540588377,0.6874351516723632
1789635386099724800,8.505724853515625,-9.247454274749755,-1.9283797996520995,0.7769184387207031
1789635386109764900,8.515764892578124,-8.154052304077148,-1.4387655601501463,1.647809292602539
1789635386119804000,8.525803955078125,-7.370849085998535,-1.654692622375488,2.335244444274902
1789635386129843700,8.53584375,-6.650942574310302,-2.3719056571960446,1.2253823371887207
1789635386139883800,8.5458837890625,-7.521085240173339,-1.7797896591186522,-0.7730278610229492
1789635386149922800,8.5559228515625,-10.15680199279785,-0.21562778701782226,-1.9162591537475584
1789635386159963600,8.565963623046875,-11.544990042877197,0.5805939025878906,-1.329230834197998
1789635386170003700,8.576003662109375,-9.879822788238524,0.18570026626586913,0.4613327323913574
1789635386180042500,8.58604248046875,-7.773074964904785,-0.5693710823059082,2.2864625854492187
1789635386190082600,8.59608251953125,-7.159411151885986,-1.6849194183349607,2.80914673538208
1789635386200122600,8.60612255859375,-7.278821959686279,-2.784007617950439,1.8152537712097168
1789635386210162700,8.61616259765625,-7.973140441131592,-3.4762311729431152,0.6498761131286621
1789635386220201500,8.626201416015626,-8.1594392578125,-3.5863644493103024,-0.023642741394042967
1789635386230241500,8.636241455078125,-8.336161267852782,-3.0858266647338866,-0.049829322052001954
1789635386240281600,8.646281494140625,-9.220818781280517,-2.3391350219726563,0.6323685134887695
1789635386250320400,8.6563203125,-8.779088574981689,-1.763329522705078,1.3552677772521973
1789635386260360400,8.6663603515625,-8.208969304656982,-1.4778209747314452,1.4446014266967773
1789635386270400500,8.676400390625,-8.710853827667236,-1.569848101043701,1.1073182678222655
1789635386280439600,8.686439453125,-9.575010989379882,-1.9412486335754393,0.951844797515869
1789635386290479600,8.696479736328126,-9.635464581298828,-2.6509797882080077,1.3753192161560057
1789635386300519400,8.70651953125,-8.097190014648437,-3.9264907226562498,2.041655465698242
1789635386310558500,8.716558349609375,-6.105962421417236,-5.339219339752197,1.4136264427185057
1789635386320598500,8.7265986328125,-7.364414669036865,-6.194098970031738,0.3893570449829101
1789635386330638600,8.736638671875,-11.297788721466064,-6.351667366790771,0.36361937713623044
1789635386340678400,8.746678466796874,-11.212495287322998,-5.9582701065063475,1.8408418014526367
1789635386350717400,8.756717529296875,-6.705111386871337,-5.50965657043457,3.364900795745849
1789635386360757500,8.766757568359376,-4.947468093109131,-5.257068295288086,3.432088079833984
1789635386370797600,8.776797607421875,-6.556221971130371,-4.760271450805663,2.379986087799072
1789635386380836600,8.786836669921875,-8.512434365081786,-4.10530765914917,1.4501380180358885
1789635386390876400,8.79687646484375,-7.841010437011718,-3.7921161544799804,0.9618705169677734
1789635386400916500,8.80691650390625,-6.0154316711425775,-4.11144280090332,0.4291606475830078
1789635386410955500,8.81695556640625,-7.52063632736206,-4.801870704650879,0.3193266464233398
1789635386420995600,8.82699560546875,-10.37392615585327,-5.858611462402344,0.9347861106872558
1789635386431035400,8.837035400390626,-9.065046035766601,-6.753743608093261,2.351704580688476
1789635386441074700,8.84707470703125,-5.321262827301025,-7.573608039093017,3.0180408302307127
1789635386451114800,8.85711474609375,-5.490054044342041,-7.872883246612548,2.504035661315918
1789635386461154600,8.867154541015625,-9.329156406402587,-7.793575316619872,1.8460791175842284
1789635386471194600,8.877194580078125,-11.84291851196289,-7.490559169006347,1.504157192993164
1789635386481233700,8.887233642578124,-9.909750308990478,-7.441029122161865,1.6364368347167968
1789635386491273700,8.897273681640625,-6.49307490234375,-7.945607122039794,1.626710390472412
1789635386501313500,8.9073134765625,-6.822277630615234,-8.553883981323242,1.4041992736816404
1789635386511352600,8.9173525390625,-9.12355433883667,-8.883834897613525,1.408389126586914
1789635386521392600,8.927392578125,-8.969577244567871,-8.568997379302978,1.9921254188537596
1789635386531432700,8.9374326171875,-6.48634121017456,-7.898471276855468,2.4992472579956053
1789635386541471500,8.947471435546875,-5.192873763275146,-7.311143682098388,2.2945430160522458
1789635386551511600,8.957511474609374,-6.352864467620849,-7.319972300720214,1.5720926651000975
1789635386561551600,8.967551513671875,-7.653664157104492,-8.307131572723389,0.7918821990966797
1789635386571590400,8.97759033203125,-7.751527149963379,-9.681552963256836,0.5921159980773926
1789635386581630500,8.98763037109375,-7.043591646575927,-10.211868630981444,0.8526350662231444
1789635386591670500,8.99767041015625,-7.219415830993652,-9.5247327545166,1.4031518104553222
1789635386601710600,9.007710693359375,-7.785045973205566,-8.473229312896729,2.4911668273925778
1789635386611749600,9.01774951171875,-6.886621800231933,-7.505822204589843,3.6468180412292477
1789635386621789400,9.02778955078125,-5.455038845062256,-6.694038204193115,3.481917401885986
1789635386631829500,9.03782958984375,-5.450998629760742,-6.74820701675415,2.1734861946105957
1789635386641868500,9.04786865234375,-6.034435646820068,-7.278971597290039,0.7936778503417968
1789635386651908600,9.05790869140625,-5.8180596717834465,-7.203853520202636,-0.18465280303955078
1789635386661948400,9.067948486328126,-6.588244418334961,-7.595305491638183,-0.45400048980712887
1789635386671987500,9.077987548828125,-7.958625593566894,-9.051877926635742,-0.04249707946777344
1789635386682027500,9.088027587890625,-7.640196772766113,-9.351751684570312,0.3082534637451172
1789635386692067600,9.098067626953124,-7.983016522979736,-7.873631434631347,1.045069024658203
1789635386702106400,9.1081064453125,-7.834276744842529,-7.178864040374755,2.4042273796081544
1789635386712146400,9.118146484375,-6.335356867980956,-7.3265563552856445,2.544138539123535
1789635386722186500,9.1281865234375,-6.559813273620605,-7.439233470916748,1.8396447006225585
1789635386732226600,9.1382265625,-7.793874591827392,-7.8535799957275385,2.415300562286377
1789635386742265300,9.148265380859375,-6.995707613372803,-7.812579292297363,3.116203098297119
1789635386752305400,9.158305419921875,-6.498461856079101,-7.678055086517333,2.31130242767334
1789635386762345500,9.168345458984374,-6.563703851318359,-7.981969059753418,0.7336731712341308
1789635386772384800,9.178384765625,-5.9208607055664055,-7.7313260734558105,0.08918401184082031
1789635386782424600,9.188424560546874,-5.463717826080322,-7.344512867736816,0.229843359375
1789635386792464400,9.19846435546875,-5.671564457702637,-7.567622534942626,0.4403834678649902
1789635386802503700,9.208503662109376,-6.23779315032959,-8.21690009765625,0.4661211357116699
1789635386812543700,9.218543701171875,-7.00393768157959,-8.671648775482177,0.9903016616821289
1789635386822583600,9.22858349609375,-7.530811684417724,-8.494477852630615,2.3279122016906735
1789635386832622600,9.23862255859375,-7.301417237854004,-8.27406166229248,3.062632836151123
1789635386842662700,9.24866259765625,-7.35468822479248,-8.495375678253174,2.4341549003601073
1789635386852702700,9.25870263671875,-7.831583267974853,-7.930792999267577,1.6455647285461426
1789635386862742500,9.268742431640625,-8.277054414367676,-6.2009822998046875,1.6163853958129881
1789635386872781600,9.278781494140626,-8.91271495513916,-5.435735594177245,1.9794062225341795
1789635386882821600,9.288821533203125,-9.255385067749023,-5.921608893585205,2.0350714111328125
1789635386892861700,9.29886181640625,-10.253467884826659,-6.610091508483887,2.8172271659851074
1789635386902900500,9.308900390625,-10.868478436279297,-7.615356930541992,3.6824317909240722
1789635386912940500,9.3189404296875,-9.802011234283446,-8.271218547821045,4.023605527496338
1789635386922980600,9.328980712890624,-8.878747219085692,-8.062324452972412,3.787776663970947
1789635386933019600,9.33901953125,-8.470386198425292,-7.379827342224121,2.749590969085693
1789635386943059500,9.3490595703125,-8.240991751861571,-6.616226650238037,1.803582038116455
1789635386953099500,9.359099609375,-7.735216651153564,-6.161627610015869,1.4086884017944334
1789635386963139600,9.3691396484375,-7.063194172668457,-5.671564457702637,1.4392144729614258
1789635386973178600,9.3791787109375,-6.200832662200927,-5.208735349273681,1.2817957138061522
1789635386983218400,9.389218505859375,-5.832424881744385,-4.760870001220703,1.2455834136962889
1789635386993258500,9.399258544921874,-6.874351516723633,-4.958092362976074,1.319654027557373
1789635387003297500,9.409297607421875,-7.463923675537109,-5.544821407318115,1.0344447547912596
1789635387013337600,9.419337646484376,-7.419780582427978,-5.7332151504516595,0.9820715934753418
1789635387023377700,9.429377685546875,-8.182782723999024,-6.13529139175415,1.3392565536499024
1789635387033416400,9.43941650390625,-8.548197752380371,-6.6325371490478515,1.7555483673095702
1789635387043456500,9.44945654296875,-8.208520391845703,-7.162254266357421,2.1775264099121094
1789635387053496600,9.45949658203125,-7.887847006988525,-7.456142520141601,2.5616461387634275
1789635387063535400,9.469535400390624,-6.492476351928711,-6.724564275360107,2.507178050994873
1789635387073575400,9.479575439453125,-5.083039762115479,-3.9624037475585934,1.8851345321655273
1789635387083615500,9.489615478515624,-6.627000557708739,-1.3112743217468261,1.2114660400390624
1789635387093654500,9.499654541015625,-6.791153009033203,-1.0625766242980956,0.5488707305908203
1789635387103694300,9.5096943359375,-6.4655415832519525,-2.245312244415283,0.2745850028991699
1789635387113734400,9.519734375,-7.0567597557067865,-3.787776663970947,0.5322609565734863
1789635387123774500,9.5297744140625,-8.115745077514648,-4.425083218383789,1.3046902671813965
1789635387133813500,9.5398134765625,-10.22817912979126,-4.726303714752197,2.0020015007019043
1789635387143853300,9.549853271484375,-11.96382569580078,-5.398775106048584,2.1704934425354003
1789635387153893400,9.559893310546874,-12.1939683303833,-5.866093342590331,2.146401788330078
1789635387163931600,9.569931640625,-11.359439414215087,-6.1547442802429195,2.144456499481201
1789635387173971700,9.5799716796875,-9.752481187438963,-6.035034197235107,2.369810730743408
1789635387184011800,9.59001171875,-9.081057259368896,-5.1529205230712885,2.35574479598999
1789635387194050600,9.600050537109375,-9.779715231323241,-3.8141128822326658,2.360682836914062
1789635387204090600,9.610090576171874,-9.887304668426513,-2.798372827911377,2.0124761329650878
1789635387214130700,9.620130615234375,-10.012700980377197,-2.553266432952881,1.1634323692321777
1789635387224170800,9.630170654296874,-9.760711255645752,-2.9114988563537594,0.816572403717041
1789635387234209800,9.640209716796875,-8.430582595825195,-3.4395699600219722,0.5321113189697265
1789635387244249600,9.65024951171875,-7.415441091918945,-3.337666751861572,0.6043862815856933
1789635387254289700,9.66028955078125,-7.55909319152832,-3.2785598983764648,0.6941688438415526
1789635387264328700,9.67032861328125,-7.725190931701659,-3.308786694335937,0.9709984107971191
1789635387274368800,9.68036865234375,-8.035539321899414,-3.132663234710693,1.0283096130371092
1789635387284408600,9.69040869140625,-8.531737615966797,-2.844311572265625,0.9442132797241211
1789635387294447600,9.700447509765626,-8.680926306915282,-3.174412126159668,0.951844797515869
1789635387304487700,9.71048779296875,-8.105569720458984,-3.4804210258483885,1.0353425804138183
1789635387314527700,9.72052783203125,-7.700051814270019,-2.6376620414733885,1.1001356628417969
1789635387324566500,9.73056640625,-7.789984014129638,-1.2606968116760253,1.4725836585998535
1789635387334606600,9.740606689453125,-7.504924378967285,-1.2976572998046874,1.1646294700622557
1789635387344646700,9.750646728515624,-7.621192797088622,-1.5218144302368164,0.5635352157592773
1789635387354686700,9.760686767578125,-8.587402804565428,-1.4342764320373533,0.31109657821655273
1789635387364725500,9.7707255859375,-9.862165550994872,-1.670105295562744,0.7082347785949706
1789635387374765600,9.780765625,-9.790489138793944,-2.3418284988403317,0.718260498046875
1789635387384805600,9.7908056640625,-9.968557887268066,-2.00439570236206,0.6503250259399413
1789635387394844700,9.8008447265625,-11.113884106445312,-1.5046061058044433,1.3459902458190918
1789635387404884500,9.810884521484375,-10.007613301849364,-1.4725836585998535,1.5548843406677244
1789635387414924500,9.820924560546874,-7.5327569732666015,-0.9817723182678222,0.9424176284790039
1789635387424963800,9.8309638671875,-6.569090805053711,-0.3051110740661621,0.1283890640258789
1789635387435003600,9.841003662109374,-6.4558151390075675,0.7217021629333495,-0.2883516624450683
1789635387445043500,9.85104345703125,-6.795642137145996,1.425597451019287,-0.7294833183288574
1789635387455083500,9.86108349609375,-7.193827800750732,0.7432499778747558,-0.1336263801574707
1789635387465122800,9.871122802734375,-6.567594429016113,0.06389525680541992,0.7341220840454101
1789635387475162600,9.88116259765625,-5.729025297546387,0.630722499847412,1.361103643798828
1789635387485202400,9.891202392578125,-6.072892510986327,0.9383774131774901,0.8961796089172362
1789635387495241700,9.90124169921875,-6.918644247436523,0.7269394790649414,0.9096469932556152
1789635387505281800,9.91128173828125,-6.111648650360107,0.013916297149658202,1.7772458198547363
1789635387515321900,9.92132177734375,-4.831947863006591,-0.7384615745544433,1.6350900962829589
1789635387525360600,9.931360595703126,-5.953930615997314,-1.1552023010253905,0.36002807464599607
1789635387535400700,9.941400634765625,-8.731354179382324,-1.360505093383789,-0.46462475967407224
1789635387545440800,9.951440673828126,-9.546879119873047,-1.548150648498535,-0.354940396118164
1789635387555479800,9.961479736328124,-9.146299254608154,-1.568651000213623,0.5376479103088379
1789635387565519600,9.97151953125,-9.456049094390869,-1.5586252807617187,1.7561469177246092
1789635387575559700,9.9815595703125,-8.793753060150147,-2.1595698974609374,2.532616443634033
1789635387585599700,9.991599853515625,-7.6936173973083495,-3.0324060401916504,2.3529016815185546
1789635387595638800,10.001638671875,-7.649623941802978,-3.5603275062561033,1.3084312072753905
1789635387605678600,10.0116787109375,-8.679130655670166,-3.5256115821838376,0.4616320075988769
1789635387615718700,10.02171875,-9.226056097412108,-3.1706711860656736,0.34700960311889645
1789635387625757700,10.0317578125,-8.55493144454956,-2.9646202056884765,0.7947253135681152
1789635387635797800,10.0417978515625,-7.889044107818603,-3.021183219909668,1.1736077262878417
1789635387645837800,10.051837890625,-8.683021233367919,-3.244592162322998,1.3811550827026366
1789635387655876600,10.061876708984375,-10.173262129211425,-3.6387376106262206,1.726369034576416
1789635387665916700,10.071916748046876,-9.26376477355957,-4.0985739669799806,2.3192332206726074
1789635387675956700,10.081956787109375,-7.485022577667236,-4.5322237426757805,2.4390929412841795
1789635387685995500,10.09199560546875,-8.611494458770752,-4.831050037384033,2.123507234954834
1789635387696035600,10.10203564453125,-10.326191760253906,-4.952106858825683,1.7281646858215332
1789635387706075600,10.11207568359375,-10.041880313110351,-4.9260699157714845,1.7866729888916015
1789635387716115700,10.12211572265625,-8.939200811004637,-5.397877280426025,1.8760066383361815
1789635387726154500,10.132154541015625,-8.33780728149414,-6.069001933288574,1.853411360168457
1789635387736194600,10.142194580078124,-8.425345279693603,-6.335356867980956,2.1664532272338866
1789635387746234600,10.152234619140625,-8.558373109436035,-6.356755045318603,2.394949848175049
1789635387756273700,10.162273681640626,-8.196100470733642,-6.50549482345581,2.1627122871398923
1789635387766313500,10.1723134765625,-7.486668591308593,-6.654683514404296,1.50670103225708
1789635387776353500,10.182353515625,-6.899789909362792,-6.584204203033447,0.8265981231689452
1789635387786392600,10.192392578125,-7.480982362365722,-6.112247200775146,0.8429086219787597
1789635387796432600,10.2024326171875,-8.271068910217284,-5.848136830139159,1.1870751106262207
1789635387806472700,10.21247265625,-7.513603359985352,-5.799055696105957,1.5912462783813475
1789635387816512500,10.222512451171875,-5.448604428100586,-5.865345154571533,1.9170073417663573
1789635387826551600,10.232551513671876,-4.101865994262695,-6.1255649475097655,1.6283564041137695
1789635387836591600,10.242591552734375,-5.805190837860107,-6.681767920684814,0.9590274024963379
1789635387846631700,10.252631591796876,-8.74048207321167,-7.279270872497558,0.5795464393615722
1789635387856670700,10.262670654296874,-9.7928833404541,-7.841010437011718,1.28957686920166
1789635387866710800,10.272710693359375,-8.232312770843505,-8.807818994903563,2.535309920501709
1789635387876750600,10.28275048828125,-6.4555158638000485,-9.737068514251709,3.4413656112670896
1789635387886789600,10.29278955078125,-5.758952818298339,-9.746046770477294,3.598784370422363
1789635387896829700,10.30282958984375,-6.360795260620117,-9.304765476989745,2.831442738342285
1789635387906869800,10.312869873046875,-7.228693362426758,-8.655188639068603,1.7117045494079588
1789635387916908800,10.32290869140625,-7.8149734939575195,-8.385990589904784,0.75971011428833
1789635387926948900,10.332948974609375,-7.745541645812988,-8.415319560241699,0.37708676147460934
1789635387936988700,10.34298876953125,-7.697807250213622,-8.533533267211913,0.8451531860351562
1789635387947028700,10.35302880859375,-8.355015605926512,-8.80946500854492,1.7137994758605957
1789635387957067800,10.36306787109375,-8.187870402526855,-9.04708952331543,2.346916177368164
1789635387967107800,10.37310791015625,-6.961739877319336,-8.633042273712158,2.327014376068115
1789635387977147600,10.383147705078125,-7.04793113708496,-7.907449533081055,1.9533692794799804
1789635387987186700,10.393186767578126,-8.014141144561767,-7.273135730743408,1.6371850227355955
1789635387997226800,10.403226806640625,-7.568071447753906,-7.178415127563476,1.2125135032653809
1789635388007266800,10.413266845703125,-5.93088642501831,-8.27974789123535,0.4560954162597656
1789635388017305600,10.4233056640625,-4.881777185058594,-8.914211331176757,-0.62563482131958
1789635388027345700,10.433345703125,-6.011990006256103,-8.525003923797607,-0.6851905876159667
1789635388037385700,10.4433857421875,-7.16958650894165,-8.844929120635985,0.5422866760253906
1789635388047424500,10.453424560546875,-6.353163742828369,-9.66000514831543,1.9779098464965819
1789635388057464600,10.463464599609376,-5.566069947052002,-10.121936431121826,3.0660745010375976
1789635388067504600,10.473504638671875,-5.520280840301513,-10.1123596244812,3.2612019363403317
1789635388077544700,10.483544677734375,-5.305550878906249,-9.624690673828125,2.4685715492248534
1789635388087583700,10.493583740234374,-5.924003095245361,-8.633491186523438,1.2389993591308592
1789635388097623600,10.50362353515625,-6.823774006652831,-7.332392221832275,1.0736498069763183
1789635388107663600,10.51366357421875,-6.682815383911133,-6.6148799118041985,1.2409446479797364
1789635388117702700,10.52370263671875,-6.374262644958495,-6.705709937286376,0.8575731071472168
1789635388127742700,10.53374267578125,-7.029525711822509,-7.219266193389892,0.37918168792724605
1789635388137782500,10.543782470703125,-8.231115670013427,-7.800608283996581,0.6039373687744141
1789635388147821600,10.553821533203125,-8.618078513336181,-8.07010560836792,1.209221475982666
1789635388157862100,10.563862060546874,-8.391078268432617,-8.214805171203613,1.2313678413391111
1789635388167902200,10.573902099609375,-8.871564614105225,-8.337059093475341,0.8891466415405272
1789635388177941200,10.583941162109374,-9.617956981658935,-8.89939720840454,1.0529998176574706
1789635388187981300,10.593981201171875,-8.894010254669189,-8.862586357879637,1.915959878540039
1789635388198021000,10.604021240234376,-7.394192552185058,-7.346158881378173,3.3960254173278805
1789635388208061200,10.614061279296875,-6.374412282562256,-7.338078450775146,3.6728549842834473
1789635388218100200,10.624100341796876,-5.751620575714111,-7.8399629737854,3.1495722839355467
1789635388228140300,10.634140380859375,-5.723638343811035,-7.4871175041198725,2.431910336303711
1789635388238180400,10.644180419921875,-6.270414147949219,-6.738779847717285,1.598578520965576
1789635388248219100,10.65421923828125,-6.664260321044922,-6.578368336486816,0.4921580787658691
1789635388258259200,10.66425927734375,-6.956352923583984,-6.621613603973389,0.1589151351928711
1789635388268299300,10.67429931640625,-7.329848382568359,-6.340743821716308,1.0342951171875
1789635388278338300,10.68433837890625,-7.134870584869384,-6.4661401336669915,1.9446902984619139
1789635388288378000,10.694378173828126,-5.411494302368164,-6.438307539367675,2.371606381988525
1789635388298418200,10.704418212890625,-3.882048354339599,-5.600336958312988,2.882618798828125
1789635388308458200,10.714458251953126,-4.179527910614014,-4.868459438323974,2.56014976272583
1789635388318497300,10.724497314453124,-5.44576131362915,-4.435408213043212,1.6722002220153807
1789635388328537300,10.734537353515625,-6.957250749206542,-4.332008628845214,0.8265981231689452
1789635388338577200,10.7445771484375,-8.462006492614746,-4.490175576019287,0.3987842140197754
1789635388348616400,10.754616455078125,-9.462633148956298,-4.607790732574463,0.9261071296691894
1789635388358656500,10.764656494140626,-13.088501925659179,-5.56726704788208,3.0617350105285643
1789635388368696300,10.7746962890625,-15.75713895111084,-7.397484579467773,5.464466014099121
1789635388378735400,10.7847353515625,-15.097237118530273,-8.729109615325926,6.693140378570556
1789635388388775400,10.794775390625,-14.189385776519774,-9.522188915252684,6.241534090423584
1789635388398815500,10.8048154296875,-11.569680247497558,-9.45425344314575,4.496609992980956
1789635388408855300,10.814855224609374,-7.700051814270019,-8.26179137878418,2.7979239151000974
1789635388418894300,10.824894287109375,-5.4649149269104,-6.793547210693359,2.01127903213501
1789635388428934400,10.834934326171876,-4.603750517272949,-4.879083708190918,1.9532196418762207
1789635388438974500,10.844974365234375,-5.838560023498535,-2.5987562644958495,0.873434693145752
1789635388449013200,10.85501318359375,-7.620893521881103,-1.2645873893737791,-0.548421817779541
1789635388459053300,10.86505322265625,-8.365340600585936,-1.3911808021545409,-1.0443208366394043
1789635388469093400,10.87509326171875,-8.493879302215575,-2.5487773048400877,-0.886752439880371
1789635388479132200,10.885132080078124,-7.633612718200683,-3.465008352661133,-0.582239916229248
1789635388489172200,10.895172119140625,-6.696582043457031,-4.007444666290283,-0.14350246200561523
1789635388499212300,10.90521240234375,-5.692663359832763,-4.2211271644592285,0.2958335426330566
1789635388509251300,10.915251220703125,-5.180753117370605,-4.007444666290283,0.7706336593627929
1789635388519291400,10.92529150390625,-5.95048895111084,-3.061884648132324,1.0468646759033202
1789635388529331200,10.935331298828125,-8.006509626770018,-2.0280384437561034,1.2470797897338866
1789635388539371300,10.945371337890625,-9.552565348815918,-2.043600754547119,1.0211270080566406
1789635388549410300,10.955410400390624,-9.875333660125731,-2.6644471725463865,0.40282442932128903
1789635388559450400,10.965450439453125,-9.744550394439697,-3.222146521759033,0.3459621398925781
1789635388569490200,10.975490234375,-8.98364317932129,-3.7542578407287595,0.5539584091186524
1789635388579529200,10.985529296875,-7.964012547302246,-3.5392286041259764,0.7217021629333495
1789635388589569300,10.9955693359375,-8.321945695495605,-2.525583476257324,0.971746598815918
1789635388599609300,11.005609375,-9.457096557617186,-1.7859248008728026,1.6811784782409667
1789635388609648000,11.015648193359375,-9.383025943756103,-2.189347780609131,1.561618032836914
1789635388619688200,11.025688232421874,-7.934833214569092,-2.2014684265136717,0.8328829025268554
1789635388629728300,11.035728271484375,-7.778312281036376,-1.3461398834228515,0.25303718795776364
1789635388639767300,11.045767333984376,-8.496423141479491,-0.9877578224182129,0.6836942115783691
1789635388649807000,11.05580712890625,-8.57393542022705,-1.6671125434875487,0.7321767951965331
1789635388659847200,11.06584716796875,-9.253589416503905,-1.149216796875,0.39758711318969725
1789635388669887200,11.07588720703125,-10.9804073638916,-0.6566098052978515,1.2033856094360351
1789635388679926300,11.08592626953125,-10.492588775634765,-1.4294880287170408,2.1136311531066894
1789635388689966000,11.095966064453124,-8.892962791442871,-0.7540238853454589,1.661127039337158
1789635388700006100,11.106006103515625,-8.510339438629149,0.08065466842651367,0.632667788696289
1789635388710045400,11.11604541015625,-9.68454571533203,-0.981323405456543,0.5831377418518066
1789635388720085500,11.12608544921875,-9.600748657226562,-1.499668064880371,1.2167033561706542
1789635388730125300,11.136125244140626,-8.607304605865478,-1.2764087600708007,0.7767688011169434
1789635388740164400,11.146164306640625,-8.050951995086669,-0.625036270904541,0.25947160491943355
1789635388750204400,11.156204345703125,-7.330746208190917,-0.3221697608947754,0.24660277099609373
1789635388760244500,11.166244384765625,-5.9962780578613275,0.117465518951416,0.42886137237548827
1789635388770284300,11.1762841796875,-4.17533805770874,0.43200376205444335,0.7713818473815918
1789635388780323300,11.1863232421875,-2.455403440093994,-0.39444472351074217,0.13213000411987305
1789635388790363400,11.19636328125,-3.8486791687011714,-0.23089082260131835,-1.9262848731994628
1789635388800403500,11.206403564453124,-8.163180197906494,1.4312836799621582,-2.3235727111816407
1789635388810442200,11.216442138671875,-10.283545043182372,1.0694599540710448,-1.4674959800720213
1789635388820482300,11.226482421875,-9.486275890350342,-1.3952210174560546,0.6209960556030273
1789635388830522400,11.2365224609375,-7.509413507080078,-3.0743045692443847,3.7611411705017086
1789635388840561400,11.2465615234375,-6.461651005554199,-2.9791350532531737,5.197213253784179
1789635388850601200,11.256601318359374,-6.2475195945739745,-2.252345211791992,4.1654619758605955
1789635388860641300,11.266641357421875,-7.324162153625488,-1.3084312072753905,1.7696143020629882
1789635388870681300,11.276681396484374,-7.970596601867675,-0.6343138023376464,-0.26665420989990235
1789635388880720400,11.286720458984375,-8.798691101074219,-0.5125087928771972,-1.086518640899658
1789635388890760200,11.29676025390625,-9.85109236831665,-1.2898761444091795,-0.3318962051391601
1789635388900800300,11.30680029296875,-8.332869240570068,-2.590825471496582,1.075146183013916
1789635388910839300,11.31683935546875,-6.918943522644042,-3.662829264831543,1.8815432296752927
1789635388920879400,11.32687939453125,-7.2441060356140135,-4.027047192382812,1.9366098678588866
1789635388930919400,11.33691943359375,-8.231714220428467,-3.593098141479492,1.6198270606994627
1789635388940958200,11.346958251953126,-8.999504765319823,-3.118746937561035,1.0977414611816405
1789635388950998300,11.356998291015625,-8.904933799743652,-3.2899323562622067,0.29927520751953124
1789635388961038300,11.367038330078126,-9.508122980499268,-3.7764042060852048,-0.19632453613281248
1789635388971077000,11.3770771484375,-11.737124726104735,-4.415057498931884,0.3757400230407715
1789635388981117200,11.3871171875,-11.07063883895874,-5.104737214660644,2.0555717628479004
1789635388991157200,11.3971572265625,-8.276455863952636,-5.842899514007568,3.2692823669433593
1789635389001197300,11.407197265625,-6.944681190490722,-6.245125392913818,2.886210101318359
1789635389011236000,11.417236083984376,-8.14612151107788,-6.284330445098877,1.779939296722412
1789635389021276200,11.427276123046875,-9.777470667266845,-6.244526842498779,0.6208464179992675
1789635389031316200,11.437316162109376,-9.981576358795165,-5.9311857002258295,0.266205297088623
1789635389041355300,11.447355224609375,-9.578303016662597,-5.772719477844238,0.7314286071777343
1789635389051395000,11.45739501953125,-9.13552534713745,-5.895272675323486,1.6117466300964354
1789635389061435100,11.46743505859375,-7.141305001831054,-5.928641860961914,2.504484574127197
1789635389071474400,11.477474365234375,-5.3487961463928215,-5.848585742950439,2.7391163368225095
1789635389081514200,11.48751416015625,-5.722141967773437,-5.3944356155395505,2.4383447532653806
1789635389091554300,11.49755419921875,-7.707384056854248,-5.16474189376831,1.6316484313964843
1789635389101594000,11.507593994140626,-8.39556739654541,-5.6295162910461425,0.24465748214721678
1789635389111633400,11.51763330078125,-9.071181177520751,-6.738630210113525,-0.5351040710449219
1789635389121673500,11.527673583984376,-10.571148517608641,-8.282740643310547,0.7246949150085449
1789635389131713300,11.53771337890625,-9.738714527893066,-9.661501524353026,2.805106520080566
1789635389141752300,11.54775244140625,-7.6354083694458,-10.356268918609619,4.27754054107666
1789635389151792400,11.55779248046875,-6.4263365310668945,-10.265738168334961,4.014178358459472
1789635389161832400,11.56783251953125,-6.136638130187988,-9.075520668029785,3.484012328338623
1789635389171871500,11.57787158203125,-6.658125179290771,-7.744643820190429,2.5477298416137693
1789635389181911600,11.58791162109375,-6.544400600433349,-6.825420020294189,1.031003089904785
1789635389191951600,11.59795166015625,-6.438457176971435,-6.591835720825195,-0.3930979850769043
1789635389201990400,11.607990478515624,-6.915801132965088,-7.144597029113769,-1.0622773490905761
1789635389212030500,11.618030517578125,-7.320870126342773,-7.866897742462157,-0.6934206558227539
1789635389222070500,11.628070556640624,-7.037456504821777,-8.07010560836792,0.49949032135009763
1789635389232110600,11.638110595703125,-6.491129613494873,-7.912986124420166,1.5191209533691405
1789635389242149400,11.6481494140625,-7.0096239105224605,-7.6759601600646965,2.2200234893798827
1789635389252189400,11.658189453125,-7.694814498138427,-7.51405227279663,2.6613047828674317
1789635389262229500,11.6682294921875,-6.8201827041625975,-7.261015084838867,2.5227403617858886
1789635389272268500,11.6782685546875,-6.899939546966553,-7.419331669616699,1.8013374740600585
1789635389282308400,11.688308349609375,-8.434173898315429,-8.008454915618897,1.1661258460998534
1789635389292348400,11.698348388671874,-9.049932637786865,-8.20358235092163,1.3820529083251953
1789635389302387500,11.708387451171875,-8.024017226409912,-7.813776393127441,1.745522647857666
1789635389312427500,11.718427490234374,-7.679102549743652,-7.910891197967529,1.6424223388671875
1789635389322467600,11.728467529296875,-7.884854254913329,-8.881291058349609,1.562216583251953
1789635389332506400,11.73850634765625,-7.215674890899658,-9.370606022644042,1.5070003074645995
1789635389342546400,11.74854638671875,-7.716063037872314,-9.049932637786865,1.772307778930664
1789635389352586500,11.75858642578125,-8.33825619430542,-8.77729292373657,2.4411878677368164
1789635389362626600,11.76862646484375,-7.465719326782226,-8.515427117156982,2.7934347869873046
1789635389372665300,11.778665283203125,-6.658125179290771,-7.7781626434326165,2.765602192687988
1789635389382705400,11.788705322265624,-5.783792660522461,-6.393116983032226,1.926135235595703
1789635389392745500,11.798745361328125,-5.279513935852051,-5.15187305984497,1.0280103378295897
1789635389402784300,11.8087841796875,-5.4041620597839355,-6.243030466461181,0.27727847976684566
1789635389412824300,11.81882421875,-5.450998629760742,-8.13400086517334,-0.35239655685424803
1789635389422864400,11.828864501953126,-6.339397083282471,-9.057863430786131,-0.2603694305419922
1789635389432903400,11.8389033203125,-7.447613176727295,-9.39709187850952,0.3277063522338867
1789635389442943500,11.848943603515625,-7.8067434257507315,-9.353696973419188,1.0634744499206543
1789635389452983300,11.8589833984375,-7.82080936050415,-8.526350662231446,1.7688661140441893
1789635389463023400,11.8690234375,-7.923909669494629,-7.4217258712768555,2.3701100059509277
1789635389473062400,11.8790625,-7.783549597167968,-7.300519412231445,2.9385832626342774
1789635389483102500,11.8891025390625,-6.7651160659790035,-8.250867833709716,2.7856536315917966
1789635389493142300,11.899142333984376,-6.2952539901733395,-8.110208486175537,2.826953610229492
1789635389503181600,11.909181640625,-7.581838107299804,-7.7513775123596185,2.7974750022888184
1789635389513221400,11.919221435546875,-9.304915114593506,-7.557746453094482,2.9937995384216305
1789635389523261400,11.929261474609374,-9.961375282287596,-7.706037318420409,3.2022447204589843
1789635389533300500,11.939300537109375,-9.523685291290283,-7.86540136642456,3.066972326660156
1789635389543340500,11.949340576171876,-9.776572841644287,-7.690026094818115,2.8471546867370603
1789635389553380600,11.959380615234375,-9.562890343475342,-7.0175547035217285,2.970456072235107
1789635389563419400,11.96941943359375,-8.390629355621337,-6.353463018035888,2.912546319580078
1789635389573459500,11.97945947265625,-7.599794619750976,-6.219687000274658,2.1478981643676756
1789635389583499500,11.98949951171875,-6.770203744506835,-6.160131233978271,0.8541314422607421
1789635389593539600,11.99953955078125,-6.003909575653076,-5.496338823699951,0.5205892234802246
1789635389603578600,12.00957861328125,-5.593752903747558,-4.601655590820312,0.7312789695739745
1789635389613618400,12.019618408203126,-5.746233621978759,-3.6318542808532714,0.9464578437805176
1789635389623658500,12.029658447265625,-6.977451825714111,-3.2275334754943845,1.2515689178466796
1789635389633697500,12.039697509765626,-7.685237691497802,-3.4350808319091795,1.4404115737915038
1789635389643737600,12.049737548828125,-8.315361640930176,-3.9558196929931637,1.9888333915710448
1789635389653777400,12.05977734375,-8.785971904754637,-4.825812721252441,2.4178444015502927
1789635389663816400,12.06981640625,-8.896404456329345,-5.8083332275390624,2.8302456375122067
1789635389673856500,12.0798564453125,-8.833556662750244,-6.577320873260498,2.736123584747314
1789635389683896600,12.089896484375,-8.433126435089111,-6.8134490119934075,2.741510538482666
1789635389693936400,12.099936279296875,-7.440131296539306,-6.064363167572021,2.5899276458740235
1789635389703975400,12.109975341796876,-7.434594705200195,-5.008370597839355,2.2040122657775876
1789635389714015500,12.120015380859375,-7.5713634750366205,-3.886088569641113,1.5595231063842772
1789635389724055600,12.1300556640625,-8.030601280975342,-2.808548184967041,0.974290438079834
1789635389734094300,12.14009423828125,-9.36536870651245,-2.3096564140319824,0.29179332733154295
1789635389744134400,12.150134521484375,-9.458892208862304,-2.826953610229492,0.3320458427429199
1789635389754174500,12.160174560546874,-9.337985025024414,-3.521122454071045,1.0613795234680174
1789635389764213500,12.170213623046875,-9.987112950134277,-4.365527452087402,1.8318635452270506
1789635389774253300,12.18025341796875,-9.846303964996338,-5.000140529632568,2.0688895095825193
1789635389784293400,12.19029345703125,-9.54403600540161,-5.191078112030029,1.7580922065734863
1789635389794332400,12.20033251953125,-9.161711927795409,-4.738573998260498,1.4369699089050292
1789635389804372500,12.21037255859375,-8.832509199523924,-3.667767305755615,1.1544541130065917
1789635389814412300,12.220412353515625,-9.631873278808593,-2.8827684364318844,0.8457517364501953
1789635389824452400,12.230452392578124,-11.074529416656494,-3.0858266647338866,0.9880570976257324
1789635389834491400,12.240491455078125,-11.215488039398192,-4.073734124755859,1.3928268157958983
1789635389844531500,12.250531494140626,-9.491812481689452,-5.046378549194336,1.3189058395385742
1789635389854571300,12.2605712890625,-7.469310629272461,-4.638915354156494,0.8877999031066894
1789635389864610600,12.270610595703126,-6.605901655578613,-2.9116484939575193,0.8608651344299316
1789635389874650400,12.280650390625,-6.525097349548339,-1.0284592506408692,0.9434650917053222
1789635389884690400,12.2906904296875,-6.975805812072753,-0.5041290870666504,0.43679216537475585
1789635389894729500,12.3007294921875,-7.387009947204589,-1.1014824012756348,-0.2410661796569824
1789635389904769500,12.31076953125,-7.618050407409667,-1.9448399360656736,-0.6202478675842285
1789635389914809300,12.320809326171876,-7.229890463256836,-2.3410803108215332,-0.45340193939208984
1789635389924849400,12.330849365234375,-6.392967345428467,-2.4178444015502927,-0.029927520751953124
1789635389934888400,12.340888427734376,-5.590760151672363,-1.848174044036865,0.10205284576416015
1789635389944928500,12.350928466796875,-5.430797553253173,-0.9042600395202636,-0.053121349334716794
1789635389954968600,12.360968505859375,-5.615749631500244,0.2337339370727539,-0.4041711677551269
1789635389965007600,12.371007568359374,-6.638821928405761,0.6807014595031737,-0.44427404556274414
1789635389975047400,12.38104736328125,-8.025962515258788,0.17702128524780272,-0.13422493057250975
1789635389985087500,12.39108740234375,-8.015936795806883,-0.2066495307922363,0.11043255157470702
1789635389995126500,12.40112646484375,-7.983166160583496,-0.24001871643066405,0.6625953094482422
1789635390005166600,12.41116650390625,-8.398111235809326,-0.608426496887207,1.8065747901916502
1789635390015206700,12.42120654296875,-8.421454701995849,-1.3590087173461913,2.2028151649475096
1789635390025246500,12.43124658203125,-7.641393873596191,-2.067842046356201,0.859368758392334
1789635390035285500,12.441285400390624,-7.738658316040039,-1.48111300201416,-0.6262333717346191
1789635390045325600,12.45132568359375,-9.194482563018799,-1.0037690460205078,-0.07392097625732422
1789635390055365600,12.46136572265625,-9.522937103271484,-1.2801497001647948,0.07870937957763671
1789635390065404400,12.471404296875,-9.196876764678954,-1.1180921752929687,-0.6985083343505859
1789635390075444500,12.481444580078126,-9.484180963897705,-0.7327753456115722,-0.830638338470459
1789635390085484500,12.491484619140625,-10.075548773956298,-0.6171054779052734,-0.27144261322021485
1789635390095523300,12.5015234375,-9.818172095489501,-1.226429800415039,0.5430348640441894
1789635390105563400,12.5115634765625,-8.196549383544921,-2.10674782333374,1.121084927368164
1789635390115603500,12.521603515625,-6.948721405792236,-2.142660848236084,1.2107178520202635
1789635390125642500,12.531642578125,-7.199663667297363,-1.849520782470703,1.4037503608703612
1789635390135682300,12.541682373046875,-7.447912451934814,-1.7305588874816893,0.9970353538513183
1789635390145722400,12.551722412109376,-7.700949639892578,-1.4887445198059082,0.20919337005615232
1789635390155762400,12.561762451171875,-7.639298947143554,-1.1939584403991699,-0.673518854522705
1789635390165801000,12.571801025390625,-7.090128941345214,-0.6100725105285644,-1.2885294059753418
1789635390175841000,12.581841064453124,-8.010250566864013,-0.1384147834777832,-0.6717232032775878
1789635390185881000,12.591881103515625,-8.482656481933594,-0.7682394577026367,0.8152256652832031
1789635390195920000,12.601919921875,-6.857442467498779,-2.037315975189209,1.8929156875610351
1789635390205960000,12.6119599609375,-6.600514701843261,-3.4677018295288082,1.9354127670288084
1789635390216000000,12.622,-8.507645961761474,-4.676025479888915,1.6084546028137205
1789635390226039300,12.632039306640625,-9.49974327468872,-5.167734645843505,1.4740800346374512
1789635390236079000,12.6420791015625,-9.595960253906249,-5.030217687988281,1.7820342231750488
1789635390246119000,12.652118896484374,-9.94027638015747,-4.716876545715332,2.0600608909606932
1789635390256159000,12.662158935546875,-10.057741899108887,-4.777479775238037,2.1754314834594726
1789635390266198300,12.6721982421875,-8.845078758239746,-5.007323134613037,2.0786159538269042
1789635390276238000,12.682238037109375,-8.127716085815429,-5.086780702209472,1.8538602729797362
1789635390286278000,12.69227783203125,-8.981548252868652,-5.356128388977051,1.2322656669616698
1789635390296317200,12.702317138671875,-9.23099413833618,-5.438877983856201,0.7052420265197753
1789635390306357200,12.712357177734376,-7.3937436393737785,-5.080795198059081,0.8441057228088379
1789635390316397300,12.722397216796875,-5.858910737609863,-4.987720608520507,0.7668927192687988
1789635390326436000,12.73243603515625,-7.732972087097168,-5.001337630462646,0.5424363136291503
1789635390336476200,12.74247607421875,-10.31751277923584,-4.60928710861206,0.8756792572021483
1789635390346516200,12.75251611328125,-9.892541984558106,-4.1015667190551754,1.7600374954223632
1789635390356555000,12.762554931640626,-7.883357878875732,-4.62903927230835,2.5909751091003415
1789635390366595000,12.772594970703125,-7.135918048095703,-6.4469865203857415,2.277185054016113
1789635390376635100,12.78263525390625,-7.0269818725585935,-7.731774986267089,1.9131167640686033
1789635390386675200,12.79267529296875,-7.451054841613769,-8.34454097366333,1.933168202972412
