time,seconds_elapsed,z,y,x
1788862321157797400,0.05779736328125,0.24438509494662283,-0.29946634617745876,0.9141486885890364
1788862321167839200,0.067839111328125,0.848296160236001,0.01707826831191778,0.8051222044199705
1788862321177880300,0.07788037109375,0.9062211104601621,-0.29188159013688564,1.0256509152218698
1788862321187922200,0.087922119140625,0.4255009560316801,-0.708885059197247,1.2036688102915882
1788862321197963300,0.09796337890625,0.1198188040792942,-0.8731494464635848,1.0677516888484357
1788862321208005400,0.10800537109375,-0.4367945034623146,-1.2256433262124657,0.9695262924179434
1788862321218046500,0.11804638671875,-1.4805693966567515,-1.5399550670832394,1.2401143346354364
1788862321228088300,0.12808837890625,-2.22219148106873,-1.5303347135618328,0.9614533144690096
1788862321238129400,0.13812939453125,-2.643113877138495,-1.0353399500653147,0.6373736282996832
1788862321248171300,0.148171142578125,-2.7211674231559035,-0.6372001714289188,0.29304040478318927
1788862321258212400,0.15821240234375,-2.429009938687086,-0.4737725272476673,0.23672427799515425
1788862321268254200,0.168254150390625,-1.7546026108920574,-0.5239160298153758,0.3517338551618159
1788862321278295300,0.17829541015625,-0.7398305248200893,-0.40651773088127374,0.4510915435578674
1788862321288337200,0.188337158203125,-0.11768646822571754,-0.334078517614305,0.2736974064096808
1788862321298378200,0.198378173828125,-0.6657792001813649,-0.5209031117349863,-0.03507803538292646
1788862321308420400,0.20842041015625,-0.8632131588608026,-0.8328527996495365,-0.45695875509083267
1788862321318461000,0.2184609375,-0.8392419161647557,-1.1419754474446178,-0.712172994826734
1788862321328502800,0.228502685546875,-0.5774918449193239,-1.5523925238519907,-0.7548435311652719
1788862321338543900,0.2385439453125,-0.6632201633483171,-1.88951201659739,-0.6324930166512728
1788862321348586000,0.2485859375,-1.547535146948695,-1.9280799399226902,-0.46177550772279496
1788862321358627000,0.258626953125,-2.2120582095891237,-1.6468477540940045,-0.39953466706089674
1788862321368669000,0.2686689453125,-2.3661416868418454,-1.4351125906005502,-0.352912945411168
1788862321378710000,0.2787099609375,-3.0042800159037113,-1.6342629978090524,-0.175948395319283
1788862321388752000,0.288751953125,-2.9401439360797403,-2.1953855994686484,0.405897114764899
1788862321398793000,0.29879296875,-3.018879619142413,-3.185070590557158,1.7550601454012096
1788862321408834800,0.308834716796875,-2.2074346414417025,-4.220524814651906,1.9395853765383362
1788862321418876000,0.3188759765625,-2.1383535064309833,-4.592926633180678,1.3524194020837546
1788862321428917800,0.328917724609375,-0.03388356490135193,-3.815430979093909,-1.8956006888613104
1788862321438958800,0.338958740234375,4.154183041477203,-1.9813348525092005,-1.1462263828873633
1788862321449001000,0.3490009765625,4.76852080823481,-1.366883396244049,1.770659134940803
1788862321459042000,0.3590419921875,1.7330016044586896,-1.1396218700557947,3.634719607156515
1788862321469084000,0.369083984375,-3.0381197416633365,-1.7979726738020776,2.9871418340981006
1788862321479125000,0.379125,-5.483312168866395,-3.361725380580127,0.12131254976838826
1788862321489166800,0.389166748046875,-4.789043956303596,-5.383752308961749,-2.3767329312220213
1788862321499208000,0.3992080078125,-3.9060119982510804,-7.266115038326382,-4.356911014911532
1788862321509250000,0.40925,-3.199108175998926,-8.226649338254331,-5.0021495313674205
1788862321519292000,0.4192919921875,-1.9524498265475034,-8.375955518102645,-3.634371232110262
1788862321529333000,0.4293330078125,-0.9183142838358879,-7.887551238912343,-2.0961217999011277
1788862321539375000,0.439375,0.20972879210710524,-7.038803827777505,-1.0623404774546623
1788862321549416200,0.449416259765625,0.9192349058121442,-6.651845076107978,-0.7898965782374143
1788862321559458000,0.4594580078125,1.5887065307706594,-7.159528056263923,-1.4121534475564956
1788862321569499100,0.4694990234375,2.3453820996686816,-7.960594263291359,-2.0609540404081343
1788862321579541000,0.479541015625,2.170425053474307,-7.686036148399114,-2.5475802040100097
1788862321589582000,0.48958203125,1.3939011670291424,-7.011133146041631,-1.36298346619606
1788862321599624000,0.4996240234375,0.47490357710421083,-5.528023417252302,0.3078828768670559
1788862321609665000,0.5096650390625,0.4977005153238773,-3.3788211845487353,2.1776561737716196
1788862321619707000,0.519706787109375,1.226158436127752,-1.555140945777297,3.1702041530758143
1788862321629748000,0.529748046875,2.204869028737396,-0.7350371530637144,3.69006389323771
1788862321639790000,0.5397900390625,2.6052479646027087,0.06411905562393366,4.496200243136286
1788862321649831200,0.5498310546875,2.0833862369686362,1.5473846325621008,5.417091683983802
1788862321659873000,0.559873046875,0.7004063499916344,3.0840143546149132,5.96606061425209
1788862321669914000,0.5699140625,-0.3362461439769715,3.6122862415522334,5.874192477893829
1788862321679956000,0.5799560546875,-1.2655273005723953,3.7316798059567806,5.499556032180786
1788862321689997000,0.5899970703125,-2.3790286409437655,4.229490503656864,4.909352589726447
1788862321700039000,0.600038818359375,-3.3982045149326323,4.786630757682025,4.469408682322502
1788862321710080000,0.610080078125,-5.0735313445359465,5.42839809089601,4.428577490240335
1788862321720121900,0.620121826171875,-9.223264420866967,6.885760799488425,5.763195862695574
1788862321730163000,0.630162841796875,-22.34666697951555,12.307964127397536,13.13199269233942
1788862321740205000,0.640205078125,-33.8814465940237,14.280769928753376,17.496657390117644
1788862321750246100,0.65024609375,-6.8824927376031875,0.7607868036091328,6.763878048616648
1788862321760288000,0.6602880859375,4.986985279983282,-0.8316127364605664,2.3996108257234097
1788862321770329000,0.6703291015625,5.384996756064892,7.187609656888246,4.90837877625823
1788862321780371000,0.680370849609375,-3.924675489927828,10.001007035452126,6.579734948664903
1788862321790412000,0.690412109375,-4.212846827369928,2.8717206804558635,-0.527673628783226
1788862321800454000,0.700453857421875,-1.0955889593228698,0.7241817047894,-3.97581969397068
1788862321810495000,0.710494873046875,0.7127762214168906,0.89557579780519,-1.9195587798148392
1788862321820537000,0.720537109375,1.815372429153323,0.7638625577926635,2.6182231815099715
1788862321830578200,0.730578125,0.08612930044531822,-2.816553796768188,3.5186411586493254
1788862321840620000,0.7406201171875,-0.03596855448186397,-2.021487122416496,-3.937805312874913
1788862321850661000,0.7506611328125,3.9620331606805324,2.064266525956988,-3.0212580387115477
1788862321860703000,0.760702880859375,8.0755872546494,5.929508122402429,6.55409781858325
1788862321870744000,0.770744140625,5.51562453892827,1.4957786562263964,10.583886418628692
1788862321880786000,0.780785888671875,-7.9828657163321965,-2.1906272990256546,4.571375018846989
1788862321890827000,0.790826904296875,-9.177219293528795,-0.9926198754966259,0.24669337188899515
1788862321900868900,0.800868896484375,-0.2885606290206313,-2.236237542077899,-0.09803250420689583
1788862321910910000,0.810909912109375,2.0973834904000164,-3.5869618306815623,0.930938203087449
1788862321920952000,0.8209521484375,1.964313867342472,-4.300630909284949,1.2865075447589158
1788862321930993200,0.8309931640625,0.4960004334077239,-4.861321257007122,0.2807330041348934
1788862321941035000,0.841034912109375,-0.5432964375898242,-5.114465996992588,-1.4636626855194568
1788862321951076000,0.851076171875,0.02046294231414795,-1.6672580894380806,-0.18731266989856957
1788862321961118000,0.861117919921875,0.3602434709623456,0.884080005800724,0.48773880101889366
1788862321971159000,0.871158935546875,2.064110166351497,1.5872382117837667,-0.172186704698205
1788862321981201000,0.881200927734375,3.1133167292058466,1.6205775868058203,-1.735432630997896
1788862321991242000,0.891241943359375,2.7317148283943533,1.8171598970919847,-2.9282921702444553
1788862322001283800,0.901283935546875,1.5019570526003836,1.390800278404355,-2.9601597191482782
1788862322011325000,0.911324951171875,0.7197767478287219,0.810067259606719,-1.3415914263382553
1788862322021367000,0.921366943359375,4.035424560105801,-0.33442192422449585,0.7519327582851052
1788862322031408000,0.931408203125,3.9877860260963436,-1.9604285503417251,0.007238426820933818
1788862322041450000,0.941449951171875,-1.4120681073606014,-2.884673977792263,-1.3035992570742965
1788862322051491000,0.951490966796875,-7.603716761630773,-1.5203940420448778,-0.14589315653443335
1788862322061533000,0.961532958984375,-3.6745620804622767,-0.8176941012233495,0.14219985497444868
1788862322071574000,0.971573974609375,0.007166530628502368,-1.4753238972187042,-0.764760675676167
1788862322081616000,0.981615966796875,0.39420477727502584,-1.2134925774306058,-0.505877392038703
1788862322091657000,0.991656982421875,0.3877499020472169,-0.00044072950482368465,-0.12595628392100333
1788862322101698800,1.00169873046875,-0.5025169756948947,1.556712725138664,-0.5283332617357372
1788862322111740000,1.011739990234375,0.3595087269470095,3.112507166388631,1.529819749777019
1788862322121782000,1.021781982421875,1.6504057388365267,2.2849767308056355,1.7134078461945057
1788862322131823000,1.031822998046875,0.988535236531496,2.3274206187814475,1.0473317088931797
1788862322141865000,1.041864990234375,1.2757146403267978,2.74129777251482,1.7004606863379477
1788862322151906000,1.051906005859375,2.216080012451112,2.2476637759774922,1.1978250526994465
1788862322161948000,1.061947998046875,-0.08534282624274492,2.7501094400018453,-1.0391881499260662
1788862322171989000,1.071989013671875,-1.211140169085562,5.317147793197631,-2.7084201697856187
1788862322182030800,1.08203076171875,-0.8827633702442049,7.583227515831589,-3.258059546661377
1788862322192072000,1.092072021484375,-0.9291901903763413,7.073136305490136,-3.289825388756394
1788862322202113800,1.10211376953125,0.13977759626358746,4.533839945700764,-3.1390982361942528
1788862322212155000,1.11215478515625,1.5354609705343842,1.8857360051900147,-2.3275994824796915
1788862322222197000,1.122197021484375,-0.5620104904100298,0.6043149699151515,-1.1376333265870808
1788862322232238000,1.132238037109375,-1.1268129496261476,-0.6698334440082311,-0.758044811424613
1788862322242280000,1.142280029296875,0.9468488889247179,-0.7305757897406816,3.041481911572814
1788862322252321000,1.152321044921875,-1.5657105628475545,-0.3388374025791883,5.628237357151508
1788862322262363000,1.16236279296875,-3.9591125970587133,-0.4336906922280788,2.10870655618608
1788862322272404000,1.172404052734375,-0.3072194445222616,-1.7300258035182952,-1.2162310624837875
1788862322282445800,1.18244580078125,1.2772905113413928,-0.9566127425700426,-3.1355361597985025
1788862322292487000,1.19248681640625,-0.15744973881542682,-0.8829466178566217,-4.296681879398227
1788862322302529000,1.202529052734375,0.025321780522167683,-0.5144762935578823,-3.654544836089015
1788862322312570000,1.212570068359375,0.6997101113557815,0.06912672771811484,-1.3118424770236015
1788862322322612200,1.2226123046875,1.050957205913961,-2.3155875576466323,0.4068570458382368
1788862322332653300,1.2326533203125,0.5067427766963839,-3.442034304308891,1.3848176968634127
1788862322342695200,1.242695068359375,-0.3885261471167207,-4.514382965558767,0.1227548575311899
1788862322352736300,1.252736328125,0.16911299634128807,-6.349573024860024,-1.7167711851477623
1788862322362778000,1.262778076171875,-0.5252408486783504,-0.3230471282511949,-3.0400358044177294
1788862322372819200,1.272819091796875,-0.09036474605798721,2.1101398038595915,-3.805046947723627
1788862322382861000,1.282861083984375,0.06132452953457832,1.649903634533286,-2.139114553931355
1788862322392902100,1.292902099609375,-0.5859980997189879,0.2733089916139841,-3.458397994610667
1788862322402944000,1.302944091796875,-2.550296477231383,-0.1975403416633606,-5.1579912504643195
1788862322412985000,1.312985107421875,-5.104570041400194,-2.1999720504760742,-6.883109408196806
1788862322423027200,1.323027099609375,1.9025600064799189,-0.3483171785861254,-5.081379719948768
1788862322433068300,1.333068359375,-1.3101459022387862,2.876943091279268,-7.816931057766079
1788862322443110100,1.343110107421875,-2.6221450311288237,0.6678676968932151,-7.668470681092143
1788862322453151200,1.353151123046875,0.6219818517699838,1.1914403200984,-4.043865056192875
1788862322463193000,1.363193115234375,-0.25073183362483975,4.142373361217976,-3.7532211911574005
1788862322473234200,1.373234130859375,-1.7318170708492397,6.967768636089563,-0.9342623790740966
1788862322483276000,1.383276123046875,-0.17318945199996233,4.500571297827363,6.3776318291306495
1788862322493317000,1.393317138671875,1.7965122458606957,10.024836823850869,10.76117775298953
1788862322503359000,1.40335888671875,3.437642206829786,9.148181999614835,16.17056660751104
1788862322513400000,1.413400146484375,-2.4555706133544444,1.926776456108689,21.18870339708328
1788862322523442200,1.423442138671875,-2.043117647205293,-2.183778456044197,20.933919657719134
1788862322533483300,1.433483154296875,-3.313072993353009,-23.29107665859461,19.5664119920969
1788862322543525000,1.443525146484375,4.04210038460791,-25.085907234978674,5.593802588108182
1788862322553567200,1.453567138671875,3.9165281315684317,-11.217240436023474,1.9765286212712525
1788862322563608000,1.463608154296875,4.423599701827764,-7.304158645516633,4.554631681577861
1788862322573649200,1.473649169921875,2.1013331048086283,-6.62216948429048,2.2385654005035756
1788862322583691000,1.48369091796875,1.649174735736847,-3.9483331366300582,3.402772261239588
1788862322593733000,1.493733154296875,0.3425719129323959,-4.214249095383286,-3.1567507972627875
1788862322603774000,1.50377392578125,-2.3024197407767177,-6.426005107155442,-9.78085387996435
1788862322613816300,1.51381640625,-1.6810788172587752,-6.738370682394504,-13.071966970443725
1788862322623857200,1.523857177734375,-1.6429916631877421,-4.843741176652908,-12.64552318060398
1788862322633899300,1.533899169921875,-1.1637620395779609,-3.125028209787607,-8.933214137810468
1788862322643940000,1.543940185546875,-1.1280872073456645,-1.9207295771598816,-6.220809282302856
1788862322653982200,1.553982177734375,-0.9074117815494537,-1.253672027605772,-5.04374001738429
1788862322664023000,1.56402294921875,-0.7141805352568626,-0.09665361706912518,-3.12007117190212
1788862322674065200,1.574065185546875,0.1970651253670454,1.5307868412435053,-0.5176484938532113
1788862322684106000,1.58410595703125,0.39640988610386846,2.6871207766473293,0.9071632136158645
1788862322694148400,1.5941484375,-0.8717603301927447,2.032140033856034,1.901691553082317
1788862322704189200,1.604189208984375,-0.5247673859477043,1.7131418887346983,2.466186115393042
1788862322714231300,1.614231201171875,0.7053785123810171,2.542258716726303,1.9250309276156126
1788862322724272000,1.624272216796875,1.0088593548968434,3.2860470392614602,1.5540015664838254
1788862322734314200,1.634314208984375,1.2606088411316274,3.7367274447351693,0.8681818871840834
1788862322744355300,1.644355224609375,1.2682348059654236,4.067106815570592,0.6776037857487798
1788862322754397200,1.654397216796875,1.5361933764621614,4.107793046224117,1.117707632954791
1788862322764438300,1.664438232421875,-0.18662264180779456,3.0904613387972115,1.8946438265278935
1788862322774480100,1.674480224609375,-2.052427911864221,0.7341127316951751,1.5233341871500015
1788862322784521200,1.684521240234375,-1.2660785047143697,-1.5702654496729374,0.6907726985972374
1788862322794563300,1.694563232421875,0.1306628541767597,-1.6089800879925489,0.4207094474388286
1788862322804604400,1.7046044921875,0.6239215876609087,-0.7120540446221828,0.6921138840731232
1788862322814646300,1.714646240234375,0.8156433061733841,0.39608839906454085,1.00533147303164
1788862322824687400,1.724687255859375,1.8855998115897177,4.453999516266584,2.733852424944937
1788862322834729200,1.734729248046875,2.547553900524974,6.747220928326248,3.8088925172358747
1788862322844770300,1.744770263671875,1.4287462704390286,4.086905156496167,2.3007149826854465
1788862322854812200,1.754812255859375,0.0726490566253662,3.4154747986853122,2.254269019461423
1788862322864853200,1.764853271484375,-0.6167945122599602,4.328779145404696,3.9166725084751843
1788862322874895000,1.77489501953125,0.07798135756403207,4.7644455216199155,3.405829018461704
1788862322884936200,1.784936279296875,0.9190051887094974,3.3243945978343485,0.2199932887509465
1788862322894978300,1.794978271484375,-0.01663052454441786,7.178001870587468,-5.472714787006378
1788862322905019400,1.805019287109375,2.276176169234514,7.1105006982445715,-6.687443043711781
1788862322915061200,1.815061279296875,2.7900243940219283,-3.85118150691092,-3.646122460180521
1788862322925102300,1.825102294921875,1.3777347528651356,-11.706395241320132,-6.659649612379074
1788862322935144200,1.835144287109375,0.3129217478170991,-10.895822370278834,-3.3139076906114813
1788862322945185300,1.845185302734375,-1.1065899535477162,-6.216201496246457,1.7774261448577044
1788862322955227100,1.85522705078125,-1.1390496231257914,-2.9721967784225938,1.7549056854918599
1788862322965268200,1.865268310546875,-1.2190098795473574,0.20450375093519688,1.122209912810102
1788862322975310000,1.87531005859375,-0.8714189694091677,0.7931096950650215,-0.20221118301860988
1788862322985351200,1.88535107421875,-0.28679128126055,-1.5863246040701866,-0.6596189970511943
1788862322995393300,1.895393310546875,-0.17314795094579458,-2.1814573196202516,0.1127235851213336
1788862323005434400,1.905434326171875,-0.7926324329420924,-0.8144628642171621,-0.048503261080011725
1788862323015476200,1.915476318359375,-1.4233485030487179,-0.5287789596766234,-0.5050166835561395
1788862323025517300,1.925517333984375,-0.8274021330282092,-0.441336823067069,-0.9435008936710655
1788862323035559200,1.93555908203125,0.18879618645459412,-0.4454769916117191,-0.7108083554100245
1788862323045600300,1.945600341796875,0.7413657715633512,-0.5121171632111072,-0.345520241343975
1788862323055642000,1.95564208984375,0.3946607043489814,0.2608358790099621,-0.3051518444679677
1788862323065683200,1.96568310546875,0.3260404648482799,0.6119032330870628,-0.6162313254192471
1788862323075725000,1.97572509765625,0.6067214465349913,1.2019517772406338,-1.8928195337101816
1788862323085766100,1.98576611328125,0.7870227763667702,1.3808838645458221,-2.0015686622425912
1788862323095808300,1.995808349609375,0.2567895262286067,0.2865367219775915,-0.8500145084612071
1788862323105849300,2.005849365234375,0.03453384550362825,-0.14684066651761532,1.2039075874835252
1788862323115891200,2.01589111328125,-0.32048516880869865,0.08330021449923515,1.5184348708011208
1788862323125933000,2.02593310546875,-0.8227019925132394,-0.01629354767501354,-0.029288784456998108
1788862323135974100,2.03597412109375,-0.9643208327293395,-0.29518355429172516,-0.5142288946680724
1788862323146016000,2.04601611328125,-0.7251879592224955,-0.6968962229788302,-0.16315291889309883
1788862323156057000,2.05605712890625,-0.5175950101003051,-1.3164309738576412,0.32777342612072824
1788862323166099000,2.066098876953125,-0.3466378471970558,-1.6275632079094648,0.4937656600929796
1788862323176140000,2.07614013671875,-0.5754284826487303,-1.2585440175563096,0.4561407167062163
1788862323186182100,2.08618212890625,-0.5246703553140163,-0.7120195578306913,-0.04286503599733114
1788862323196223200,2.09622314453125,-0.5732596141770482,-0.824897748991847,-0.24037732060998676
1788862323206265000,2.10626513671875,0.05640957722514867,-0.3311731515616178,1.1984529753394424
1788862323216306200,2.11630615234375,0.07590893520414829,-0.5591366885393858,1.18943087997213
1788862323226348300,2.126348388671875,-0.7915510674461722,-0.5200087932437658,-0.2997114069797098
1788862323236389000,2.13638916015625,0.9439666114866733,-0.33556232643127437,-0.34666517359539867
1788862323246431200,2.14643115234375,0.17921821077018976,0.2902548657178879,-0.10606529627591371
1788862323256472000,2.15647216796875,0.13253098613619804,0.45743981660604477,0.05477905341386795
1788862323266514200,2.16651416015625,0.5026610603407025,-0.6840589532375335,0.1216955577366054
1788862323276555300,2.17655517578125,0.4096750258684158,-1.3789549423098564,0.34349779560565946
1788862323286597400,2.186597412109375,0.3149167210265994,-2.2234382662594316,-0.13672843782603739
1788862323296638200,2.19663818359375,-0.2877563269004226,-2.295902613967657,-1.1320166557490825
1788862323306680300,2.206680419921875,-1.0258043522179126,-1.7940373801797627,-0.9907716172814368
1788862323316721200,2.21672119140625,-0.9345023253098129,-1.6046201392173767,-0.9473021856501698
1788862323326763300,2.22676318359375,-0.6075497140526771,-1.1257505810916424,-0.4979422151252627
1788862323336804400,2.236804443359375,-0.36709757464081044,-0.9154816907584666,-0.8510363988548517
1788862323346846500,2.246846435546875,-0.28688597380667924,-0.4002648079663515,-0.9615766485877334
1788862323356887300,2.25688720703125,-0.6447782054677605,0.819332516080141,-0.8383585574589669
1788862323366929400,2.266929443359375,-0.19669015457481145,1.5426578963011501,-0.14188026763126252
1788862323376970500,2.276970458984375,0.3611050562277436,0.4313502665817737,-0.027604484631866214
1788862323387012600,2.2870126953125,0.703735713610053,-0.16193945145010946,-0.20826003472879528
1788862323397053400,2.297053466796875,0.7288043961539864,-0.7409376092791556,-0.25017434587255116
1788862323407095600,2.307095458984375,0.5871408400133252,-1.29187111761868,-0.12254106865003704
1788862323417136400,2.317136474609375,0.8178720881387591,-0.47992695822417736,0.477043365611881
1788862323427178500,2.327178466796875,1.2511071455538272,0.9725292736262082,0.6755163119502365
1788862323437219300,2.33721923828125,-0.8238476554170251,2.5672166323721406,0.26493673845753074
1788862323447261400,2.347261474609375,-2.6153286291122435,3.6952749058842658,-0.3371811598047614
1788862323457302300,2.35730224609375,-2.1260297391697764,4.252812342533469,-0.5294292402788996
1788862323467344600,2.3673447265625,0.44876229689270253,4.2242280530840155,-0.8278172897003591
1788862323477385500,2.377385498046875,4.187875175459682,2.2387357886344192,-1.240128655421734
1788862323487427600,2.387427490234375,2.2154376228943464,0.2973246579736471,-0.17824790443331
1788862323497468400,2.397468505859375,0.25821517511755226,-0.22015140192210672,0.3592907002821564
1788862323507510500,2.407510498046875,0.6491448762446641,-0.434548185840249,-0.07275193247795105
1788862323517551400,2.41755126953125,1.223439970949292,-0.634603725194931,-0.12673778968751429
1788862323527593500,2.427593505859375,0.0055716626524925225,0.043024318212270735,0.4269510087095201
1788862323537634300,2.43763427734375,-0.48825113445520396,0.06313187121748924,0.21486030977666376
1788862323547676400,2.447676513671875,-0.17786854972690344,-0.2372761397242546,-0.14215674648508428
1788862323557718500,2.457718505859375,0.07776917611807584,0.19997019915878772,0.011705196971446275
1788862323567759600,2.467759521484375,0.6320867739379405,0.41119945895671844,-0.01443009189069271
1788862323577801500,2.477801513671875,0.9428992745161056,0.09156360045373439,0.053948593939095735
1788862323587842600,2.487842529296875,0.5582642896190285,-0.1948684921056032,0.30866862041726706
1788862323597884400,2.497884521484375,0.40858547706604004,-0.42972003503143785,0.2977431756466627
1788862323607925500,2.507925537109375,0.551568006850779,-0.37169220895469185,0.3665425711065531
1788862323617967400,2.51796728515625,0.8202627826675772,-0.11857143436670303,0.24974296871796248
1788862323628008400,2.528008544921875,0.8974541588976979,0.0650549482345581,-0.27168577432632446
1788862323638050300,2.53805029296875,1.0076070167481899,0.15368424880206585,-0.5041603589877486
1788862323648091600,2.548091552734375,1.1917562541797757,0.3740355572104454,-0.3022143297113478
1788862323658133500,2.558133544921875,1.486338919968903,0.24569559302330016,-0.41229280715137717
1788862323668174600,2.568174560546875,1.6561507122293113,0.2060305221110582,-0.711486766128242
1788862323678216400,2.578216552734375,1.5244088306441903,0.9625275195717811,-0.5500690004646778
1788862323688257500,2.588257568359375,0.5889128181219101,1.0965180568665265,-0.5548163411222398
1788862323698299400,2.59829931640625,-0.6492705484509468,0.19606033223867414,-0.6897841990165412
1788862323708340500,2.608340576171875,-1.4084218598127365,-0.22043021886348724,-0.23316095949038862
1788862323718382300,2.61838232421875,-1.5025897975459694,-0.8033055103868245,0.5569203276641667
1788862323728423400,2.62842333984375,-0.5564236301884055,-1.2940560604423283,1.129930497124791
1788862323738465500,2.638465576171875,0.6103206400707364,-1.346331022080779,1.303771398770809
1788862323748506600,2.648506591796875,0.9589066987261176,-1.1552011319816111,1.1892366725742816
1788862323758548500,2.658548583984375,0.7362512050285935,-1.021840124762058,0.8744766764793545
1788862323768589600,2.668589599609375,0.6123918933868407,-0.9464134201169013,0.5196167251862586
1788862323778631400,2.67863134765625,0.5436334144592285,-0.9085399087965488,0.17528452458307145
1788862323788672500,2.688672607421875,0.3855626211360097,-0.7514215938925742,-0.27006138799488544
1788862323798714400,2.69871435546875,0.16099574085921048,-0.5536906980931758,-0.7511285292301326
1788862323808755500,2.70875537109375,-0.18898527928590775,-0.43976329014003274,-0.6894363354269415
1788862323818797300,2.71879736328125,-0.5051987621247768,-0.42601241268515583,-0.5975627922412008
1788862323828838400,2.72883837890625,-0.5374973959222435,-0.27982348807454105,-0.592723681646958
1788862323838880500,2.738880615234375,-0.27504297579973935,0.04597206210196018,-0.3954091115634888
1788862323848921600,2.748921630859375,0.04887187519669532,0.35341596302986145,-0.17306925968639553
1788862323858963500,2.75896337890625,0.16316197898238896,0.5199959337621927,-0.0102532445974648
1788862323869004500,2.769004638671875,0.07387041511386633,0.535803159224987,0.2599286279719323
1788862323879046400,2.77904638671875,-0.017160393637418746,0.41997839321792124,0.4767734626293182
1788862323889087500,2.78908740234375,-0.05459112962633371,0.31307810742259023,0.6452738069649785
1788862323899129300,2.79912939453125,-0.20617139188647268,0.21471359478235244,0.5927539306547492
1788862323909170400,2.80917041015625,-0.4476870688766241,0.07189268530011177,0.3888762757286429
1788862323919212300,2.81921240234375,-0.7652581038042903,-0.12821253841519356,0.04082213199287653
1788862323929253400,2.82925341796875,-1.0887132283344865,-0.16350129393935203,-0.2706549699738622
1788862323939295500,2.83929541015625,-1.1546692170619963,-0.04489537278115749,-0.4253392626639455
1788862323949336600,2.849336669921875,-0.8677680456861853,0.11316811401844024,-0.48156091610156
1788862323959378400,2.85937841796875,-0.4978364166632294,0.16374036339223383,-0.4165264261331409
1788862323969419500,2.86941943359375,-0.33517888007164,0.11814940956234932,-0.29339111791700123
1788862323979461400,2.87946142578125,-0.4621311892926693,0.13167056991457937,-0.4413515091795474
1788862323989502500,2.88950244140625,-0.8178203579515219,0.33149989929795265,-0.4043946743126958
1788862323999544300,2.89954443359375,-0.9145046624198555,0.4734183069825172,-0.11118958048708737
1788862324009585400,2.90958544921875,-0.5594105370447039,0.449513115260005,0.06807298088148236
1788862324019627300,2.919627197265625,-0.3465916699677706,0.4324368927747011,0.18849245426766573
1788862324029668400,2.92966845703125,-0.41205724482983347,0.6498766976505518,0.2622338361743837
1788862324039710500,2.93971044921875,-0.4228010494232177,0.8539730368286371,0.14851196073070166
1788862324049752600,2.949752685546875,-0.6247466403082013,0.9368360289543867,0.22017726701572535
1788862324059793400,2.95979345703125,-0.6619105420544743,1.0316828888624905,0.34905455294996496
1788862324069835500,2.96983544921875,-0.4787798340156674,0.7407441325336694,0.4371329416364431
1788862324079876400,2.97987646484375,-0.2888625345766544,0.2655067934304476,0.2982587970186025
1788862324089918500,2.98991845703125,-0.04640811543166637,-0.10785539456307887,-0.09273308262452483
1788862324099959300,2.999959228515625,0.11549831053167581,-0.20612287656962872,-0.5097758607819676
1788862324110001400,3.01000146484375,0.17207359971255062,-0.21330431250631807,-0.7021427453301846
1788862324120042200,3.020042236328125,0.09871434899121523,-0.24089374569952487,-0.7326268039863556
1788862324130084600,3.030084716796875,-0.07161591418534517,-0.24764789613485336,-0.7015302394550293
1788862324140125400,3.04012548828125,-0.10912439158558845,-0.3913438348859548,-0.8354712385196238
1788862324150167600,3.05016748046875,-0.14062895239591597,-0.4723100534796715,-0.9638520461738109
1788862324160208400,3.06020849609375,-0.2969865120604634,-0.3333487420350313,-1.192837692740932
1788862324170250500,3.07025048828125,-0.48085313315838574,0.05651157629489898,-0.848983777173981
1788862324180291300,3.080291259765625,-0.48038814599514007,0.3236129454404115,-0.946282633344084
1788862324190333400,3.09033349609375,-0.4768620176956057,0.4345417560994625,-0.5063462516594678
1788862324200374300,3.100374267578125,-0.6555278552800416,0.6459457879424095,0.8675639014162123
1788862324210416400,3.11041650390625,0.2057224790751934,0.19687574027478694,0.8929507099986076
1788862324220457500,3.12045751953125,-0.019381284557282923,-0.20905659193396567,1.1328597555097193
1788862324230499600,3.13049951171875,-0.527213025534153,-0.3292752089858055,2.1129273887515065
1788862324240540400,3.14054052734375,-0.1598056542918086,-0.4521609994202852,2.6469118081167338
1788862324250582500,3.15058251953125,0.2399772153764963,-0.8233136946707963,2.0623338043287394
1788862324260623400,3.160623291015625,-0.06503712031692266,-0.9971522582292556,0.9294252412412315
1788862324270665500,3.17066552734375,-0.18240502411276102,-0.6214724409431219,0.2891196511428803
1788862324280706300,3.180706298828125,-0.34642888062149285,-0.23771511566340922,-0.45754700330756604
1788862324290748400,3.19074853515625,-1.2376266094729305,0.3469423831015825,-0.6502668660119175
1788862324300789200,3.200789306640625,-1.7651228358626365,1.0195312632977962,-0.716957744885236
1788862324310831600,3.21083154296875,-1.8681264064803718,1.5755314073771238,-0.44627990549243984
1788862324320872200,3.2208720703125,-2.0666025676891207,1.3322136494010686,0.4157568300001323
1788862324330914000,3.2309140625,-1.9175909868732093,0.5715466727793216,1.350088182657212
1788862324340955100,3.240955078125,-1.6671657349795101,0.03018646394908428,1.1601679606087505
1788862324350997000,3.2509970703125,-1.5500935992598532,0.4494108239293098,0.8251497509915381
1788862324361038000,3.2610380859375,-0.669119450519979,0.844843973955512,-0.25304120654575524
1788862324371080000,3.271079833984375,-1.3201155075892805,2.74174551628232,-0.6635231648828834
1788862324381121000,3.28112109375,-1.2348831559836864,3.6207512875586745,0.6763096542850137
1788862324391163000,3.291162841796875,0.2673101895906031,1.3437959506452082,1.2687439245313406
1788862324401204000,3.301203857421875,1.198597352246195,-1.9574381363540887,0.23351079584136603
1788862324411246000,3.31124609375,1.3275897889927029,-3.194984958589077,-0.06877184986583888
1788862324421287200,3.321287109375,1.3729343668460845,-2.917882419911027,-0.7211503012042492
1788862324431329000,3.3313291015625,0.4572855028271675,-1.911726186493039,-1.871593205808103
1788862324441370000,3.3413701171875,-1.042334923519194,-0.7297709030985832,-2.2168593262605367
1788862324451412000,3.351411865234375,-1.7569561882808804,-0.1774924098908901,-1.2630205784484743
1788862324461453000,3.361453125,-1.2193228910192846,-0.4533838192135095,-0.7519841231461614
1788862324471495000,3.371494873046875,-1.0729089254811406,0.2002881790667772,-0.48048327693268655
1788862324481536000,3.381535888671875,-1.0668275597408414,1.4496417589515447,0.02023468651622534
1788862324491577900,3.391577880859375,-1.0474071122169495,2.054425515422225,0.9320986251689493
1788862324501619000,3.401618896484375,-1.2531237460732458,1.737881777715683,1.5255650149419904
1788862324511661000,3.4116611328125,-1.7417992434203624,1.1329939763486385,1.5648881405487656
1788862324521702100,3.4217021484375,-2.27947550304085,0.9408131158918142,1.3818955258063972
1788862324531744000,3.431743896484375,-2.5603613596498964,1.0673100825607775,1.3090434939548372
1788862324541785000,3.44178515625,-2.5445737156704067,0.9616787937879562,1.3448363996088504
1788862324551827000,3.451826904296875,-2.164995721901953,0.510948119431734,1.2135690767329186
1788862324561868000,3.461867919921875,-1.8499859157644212,0.08678104235231876,1.0541445307131856
1788862324571910000,3.471909912109375,-1.7717714800968765,-0.09620002808272839,0.8093555311407894
1788862324581951000,3.481950927734375,-1.9578629376374184,-0.03823942202329635,0.6448636917941272
1788862324591993000,3.4919931640625,-2.0108888637736437,-0.03794073133766651,0.5871610060185194
1788862324602034200,3.5020341796875,-1.92519912378937,-0.22133915040194987,0.4585998002961278
1788862324612076000,3.512075927734375,-1.871885759013891,-0.5298983190953731,0.024318814024701714
1788862324622117000,3.5221171875,-2.073529152081907,-0.6129296535253524,-0.33846433148309585
1788862324632159000,3.532158935546875,-2.129545638336241,-0.4365618637502193,-0.3957811597462743
1788862324642200000,3.542199951171875,-1.9309946583256123,-0.25999533653259277,-0.3003930325683206
1788862324652242000,3.552241943359375,-1.8362275856554506,-0.21654607090651987,-0.2807213867623359
1788862324662283000,3.562282958984375,-2.361666002732515,-0.19844342798292636,-0.1907915980555117
1788862324672324900,3.572324951171875,-3.3365839250609275,-0.08544307174682617,0.05981872808150947
1788862324682366000,3.582365966796875,-4.272904990230501,0.138732178863883,0.3775840434722602
1788862324692408000,3.592407958984375,-5.291615877056121,0.08795300874114036,0.4534983855038881
1788862324702449200,3.60244921875,-5.464799191576242,-0.30908114674091336,0.4414437905728817
1788862324712491000,3.612490966796875,-4.461305163104832,-0.5643786808460951,0.6656902067236602
1788862324722532000,3.622531982421875,-3.027023762631416,-0.6347253057479858,0.9191219469569623
1788862324732574000,3.632573974609375,-1.4007364198766648,-0.5297153637439013,1.0504279213428496
1788862324742615000,3.642614990234375,-0.3096136461824179,-0.24954466966688632,1.1036669057078659
1788862324752657000,3.652656982421875,-0.705612028875947,-0.4894570031136274,0.23443755529746413
1788862324762698000,3.662697998046875,-1.3152967091307044,-1.030137997508049,-0.746956285046786
1788862324772739800,3.67273974609375,-0.771500797586143,-1.3852677787184715,-1.1582029441460966
1788862324782781000,3.682781005859375,0.04509440248459577,-1.5372522378653286,-1.6630404717430471
1788862324792823000,3.692822998046875,0.7694149312227964,-1.427016670167446,-2.0262889697402713
1788862324802864000,3.702864013671875,0.8598284848585724,-1.0614864909738302,-1.656161672014743
1788862324812906000,3.712906005859375,0.2796136447161436,-0.6506757390737533,-0.4514541663251817
1788862324822947000,3.722947021484375,-0.5435568420916795,-0.4044242657333612,1.1379571517139673
1788862324832989000,3.732989013671875,-1.3723247105151415,-0.5533557670503855,2.2014375929839907
1788862324843030000,3.743030029296875,-1.7713485785096883,-1.202296645155549,2.0770298536792398
1788862324853072000,3.75307177734375,-2.0632249079495666,-1.885629037684202,0.9346934639677404
1788862324863113000,3.763113037109375,-2.0828858862310646,-1.9487310982853172,-0.0408840913131833
1788862324873154800,3.77315478515625,-1.8510569059967994,-1.5437041904836892,-0.632513913308829
1788862324883196000,3.78319580078125,-1.7437533000975847,-1.1569833392232656,-1.0298463210850954
1788862324893238000,3.793238037109375,-1.80310623729825,-1.1219535268962382,-1.2855002674125133
1788862324903279000,3.803279052734375,-1.627175085374713,-1.1018354524970053,-1.0969982415989041
1788862324913321000,3.813321044921875,-1.2893582580149172,-1.0542775825083255,-0.6138071670122445
1788862324923362000,3.823362060546875,-1.059455861929059,-1.3094687336295843,-0.08725771995335817
1788862324933404000,3.83340380859375,-0.6983733097940683,-1.5246382554858922,0.1033230118304491
1788862324943445000,3.843445068359375,-0.46466742977201936,-0.9450736959457396,-0.051881286145746705
1788862324953486800,3.85348681640625,-0.43849137050807474,-0.4672890104472637,-0.5247117102377117
1788862324963528000,3.86352783203125,-0.9985691392898559,-0.1778548134624958,-0.666433864697814
1788862324973569800,3.87356982421875,-1.4103069429069757,0.13038169914782047,-0.5423498043894768
1788862324983611000,3.88361083984375,-1.2385557070165871,0.2337029574126005,-0.5854330131821334
1788862324993653000,3.893653076171875,-0.9524217206209897,0.24753099175691604,-0.35066418010368944
1788862325003694000,3.903694091796875,-0.7495709975898266,0.23385902475714682,0.3024257805049419
1788862325013736000,3.91373583984375,-0.8692179522335529,0.23776947619915006,1.1438207830503582
1788862325023777000,3.923777099609375,-0.9646838208228349,0.18866613033413887,1.800489186667651
1788862325033819000,3.93381884765625,-0.8577899647682905,0.48808220762908455,2.141625221578032
1788862325043860000,3.94385986328125,-0.5990320610761642,0.4678939906030893,2.324058887263387
1788862325053901800,3.95390185546875,-0.14660393515229225,0.40816169869601726,1.80524178802222
1788862325063943000,3.96394287109375,0.25110768119990823,0.5802531263262033,1.3638669710323215
1788862325073984800,3.97398486328125,0.7947428492248058,0.8885492601692676,1.0836416241586209
1788862325084025900,3.98402587890625,1.2048901687800884,1.008764954611659,0.7772755815953016
1788862325094068000,3.99406787109375,1.458250012820959,0.8458405837774277,0.4386322402834892
1788862325104109000,4.004109130859375,1.5195336258232592,0.580000028347969,0.12399316715449094
1788862325114151000,4.01415087890625,1.741210629877448,0.16489304055869577,-0.11102964068502187
1788862325124192000,4.02419189453125,1.6795429859936237,-0.10574673184603452,-0.031625849102437494
1788862325134233900,4.03423388671875,1.3121838378071784,-0.37401042276918883,0.12444617161899804
1788862325144275000,4.04427490234375,0.5714268457919359,-0.7029825571551919,0.3038277562573552
1788862325154316800,4.05431689453125,0.406755923551321,-0.8707567061081528,0.463399894054234
1788862325164358000,4.06435791015625,0.836332166197896,-0.8516305653557181,0.46098406508415934
1788862325174400000,4.07439990234375,1.361523330515623,-0.6879638517215848,0.7239908583924174
1788862325184441000,4.084441162109375,1.5572826339811086,-0.29067133756428953,1.2921794529154895
1788862325194483000,4.09448291015625,1.3445651814520359,-0.10365297443717718,1.4178604270264505
1788862325204524000,4.10452392578125,1.4783189873814582,-0.8752730144888162,1.010201124894619
1788862325214566000,4.11456591796875,1.4241121808975934,-0.33393238714188334,0.7356529468744992
1788862325224607000,4.12460693359375,1.8067606681525705,0.5029825473800301,0.3520616258114576
1788862325234648800,4.13464892578125,2.4940286465644834,0.5625123024523258,0.05876695400625467
1788862325244690000,4.14468994140625,2.5698691927075386,0.5186529947206377,0.061539925850927824
1788862325254731800,4.154731689453125,2.5786370210528373,0.45989597758650774,-0.15543986029773948
1788862325264772900,4.16477294921875,1.897943744856119,0.2919739445954561,-0.3293105725601315
1788862325274815000,4.17481494140625,1.2445195838570593,0.12084785486608743,-0.3807911689504981
1788862325284856000,4.18485595703125,0.6115875912666321,0.1754617808461189,-0.4560828490391373
1788862325294898000,4.19489794921875,0.005362403815984726,0.3617126667320728,-0.5127510772004723
1788862325304939000,4.20493896484375,0.06504325779676437,0.37631431579738855,-0.3076967066451907
1788862325314980900,4.21498095703125,1.352342245194316,0.1621259139329195,0.07490268077105283
1788862325325022000,4.22502197265625,2.813767965441942,0.53331718762815,0.8778571857631206
1788862325335063800,4.235063720703125,3.3929426488816734,1.4446917353287339,1.5456407115042208
1788862325345105000,4.24510498046875,2.2139070523262023,2.4585975599601864,1.8779001969978213
1788862325355147000,4.25514697265625,0.7392980253785848,2.1830577405542133,1.6360846602782606
1788862325365187800,4.265187744140625,-0.6944716261804104,1.011894484809041,0.8522980893537402
1788862325375230000,4.27522998046875,-1.4414356561422348,-0.3474722521945834,-0.2711135273963213
1788862325385270800,4.285270751953125,-1.025147349613905,-1.7343544803723692,-1.1935752863004803
1788862325395313200,4.295313232421875,-0.06080781218409538,-2.176132032944262,-1.855045098850131
1788862325405354000,4.30535400390625,0.34994624109268185,-2.596190797922015,-1.536007498501241
1788862325415396000,4.31539599609375,0.013982932645082474,-2.9782033253610134,-1.0767822597831487
1788862325425437000,4.32543701171875,-0.993885949909687,-2.748734059995413,-0.1616249786734581
1788862325435479000,4.33547900390625,-2.083907045972347,-2.0235715274751187,1.1660624254748224
1788862325445520000,4.345519775390625,-2.244059029483795,-0.8717720206305384,1.6158970277741551
1788862325455562000,4.35556201171875,-1.6252888332366942,0.454117686446011,1.0134399606853723
1788862325465602800,4.365602783203125,-1.3799632425695656,1.4790208520404993,0.8620563900411129
1788862325475645000,4.37564501953125,-1.7818775713086128,1.8022877605222165,1.0284025520175695
1788862325485685800,4.385685791015625,-0.9986299295663833,0.7674127976201475,0.5644207664221524
1788862325495728000,4.39572802734375,0.8688707462310791,0.15068404407277702,-0.40475861225426196
1788862325505769000,4.40576904296875,2.245830715331435,0.23704773779585955,-0.6715428782746196
1788862325515811000,4.41581103515625,2.1370810022771356,0.9047855246990919,0.37680999035984275
1788862325525852000,4.425851806640625,1.9464818580538032,0.977673358516395,1.1892536237090825
1788862325535894000,4.43589404296875,1.7130734996736048,0.705723964817822,1.4401567222476004
1788862325545934800,4.445934814453125,1.7598083628416061,0.6606190409392118,1.8064567167699337
1788862325555977000,4.45597705078125,2.0510171682834626,0.6127930215336382,2.326798102968931
1788862325566017800,4.466017822265625,2.0352736557066438,0.6462178828820586,2.6188722930684682
1788862325576060000,4.476059814453125,1.501855930313468,0.32637130423784255,2.1900220266088843
1788862325586100700,4.486100830078125,1.2565373539090157,-0.4782037876933813,1.0458832636505364
1788862325596143000,4.49614306640625,2.279333756482601,-0.9947279536917805,-0.26376550272107124
1788862325606184000,4.506183837890625,2.997798252668977,-0.7899598527319729,-1.0804574411645531
1788862325616226000,4.51622607421875,3.1970424756407736,-0.4525552594348788,-0.6772241387814283
1788862325626267000,4.526266845703125,1.6665958261370657,-0.43633653056174515,-0.24558424160331485
1788862325636309000,4.53630908203125,-0.7088765836298465,-0.35279973082765936,-0.4470703982830047
1788862325646349800,4.546349853515625,-2.3123171576738355,-0.3726107851043343,-1.0781044482976199
1788862325656392000,4.556391845703125,-2.9431086311042307,-1.0334805859342218,-1.4059686214417217
1788862325666432800,4.566432861328125,-2.3141017030030486,-1.6075107460923492,-1.516061565798521
1788862325676475100,4.57647509765625,-1.7836872510790824,-1.6529339421398936,-1.4755717344999313
1788862325686516000,4.586515869140625,-1.8210370307862758,-1.4008200065068899,-1.5263406754896043
1788862325696558000,4.59655810546875,-1.5792711784273386,-0.8403171441808343,-1.4002809311941264
1788862325706599000,4.606598876953125,-1.1387608693122864,-0.10662336855009198,-0.9140911131829023
1788862325716641000,4.61664111328125,-0.7602373530328274,0.2992754997804761,-0.32980157094746826
1788862325726681900,4.626681884765625,-1.0211942280739545,0.5743742974206805,0.19469985754042862
1788862325736724000,4.636723876953125,-0.9533657234728335,0.49814022191539403,0.545790300232172
1788862325746764800,4.646764892578125,0.7435749720454216,-0.28518282315060495,0.9662178985223173
1788862325756807000,4.656806884765625,1.7772253615885971,-0.19911971980929374,0.881310248826444
1788862325766847700,4.66684765625,1.5952578521102665,0.33048721512407064,0.42604339234530925
1788862325776890000,4.67689013671875,1.374367614519596,0.3736326754979789,0.33224545696824787
1788862325786931000,4.686930908203125,0.9168307672798633,0.04125613949596882,0.07734510548710823
1788862325796973000,4.69697314453125,1.3698515983998774,-0.7961530082836746,-0.5961594282492995
1788862325807014000,4.707013916015625,1.978366942614317,-1.0020748093232512,-0.18380963021367788
1788862325817056000,4.717055908203125,2.0056231983304023,-0.49402065776735543,0.44145781909823417
1788862325827096800,4.727096923828125,0.7391010415017605,0.133412299015373,0.7954626879319548
1788862325837139000,4.737138916015625,-0.22114333556890486,0.6303424144886434,0.8487088326901197
1788862325847179800,4.7471796875,0.08600538180470466,1.4781041755869984,1.1263543922036885
1788862325857222000,4.757221923828125,0.8699486045956611,1.3903700702935455,0.9167086022049188
1788862325867262700,4.7672626953125,-0.0917985782533884,-0.09117518565803766,-0.22275047850459812
1788862325877305000,4.77730517578125,-1.7133470559179782,-2.065887989678979,-1.3179472236394882
1788862325887346000,4.787345947265625,-1.5561948387444018,-3.000015344196558,-0.7030462700411677
1788862325897388000,4.797387939453125,-1.1509142484426498,-2.519660808210075,0.3381526351854205
1788862325907428900,4.807428955078125,-0.13975100051760672,-1.175861569629237,0.551651885741949
1788862325917471000,4.817470947265625,1.7671441125571727,0.0361151964109391,0.2965332153350115
1788862325927511800,4.82751171875,1.727926200890541,0.627534006004408,-0.22873861300349235
1788862325937554000,4.837553955078125,-0.11754559845030307,0.7845685881476849,-0.6709627402991056
1788862325947595000,4.847594970703125,-0.5489081399917602,0.6130717654097825,-0.3732897072792053
1788862325957636900,4.857636962890625,-0.3909492826104164,0.17911679622232912,-0.024143092131614682
1788862325967678000,4.867677978515625,-0.35908933249115943,-0.3550068854831159,-0.16421119577437637
1788862325977720000,4.877719970703125,0.5875578963816166,-0.47154703321792185,-0.37005642444640396
1788862325987761000,4.887760986328125,0.6783873373419046,0.038901173867657776,-0.09201339004784823
1788862325997802000,4.897802001953125,0.08915303218066692,0.41844650747552514,0.19965572638213633
1788862326007844000,4.907843994140625,0.5158586878269911,0.5625980079744011,0.09117635470181704
1788862326017885000,4.917885009765625,0.9921604412913322,0.5266199550118297,-0.062189621931314464
1788862326027927000,4.927927001953125,0.8083247998535633,0.38826632713675496,0.009177870450913906
1788862326037968000,4.9379677734375,0.7802081279158591,0.2849808708377182,0.4881120182454586
1788862326048010000,4.948010009765625,1.071377185869217,0.22722134030833838,1.0387594031199812
1788862326058050800,4.95805078125,0.6407423740804195,0.32163331593051553,1.2012906829833985
1788862326068093000,4.968093017578125,-0.1093441718161106,0.39454774549379945,1.0336913060754538
1788862326078133800,4.9781337890625,-0.7104699903011321,0.2814258087046444,0.8717717283695936
1788862326088176000,4.988176025390625,-0.5593640675544739,0.4333896634548902,0.8611857446864247
1788862326098217000,4.998217041015625,-0.804307965427637,0.5572725021027028,0.6531631719753146
1788862326108259000,5.008259033203125,-0.6488111142456531,0.6189106276310979,0.37934097014218565
1788862326118300000,5.0182998046875,-0.13105214575529098,0.6981960535310209,0.13919950411468743
1788862326128342000,5.028342041015625,-0.7373287711322307,0.6436867569692433,-0.3948667483150959
1788862326138382800,5.0383828125,-0.618490210261941,0.6033132455267012,-0.68350599552989
1788862326148425000,5.048425048828125,-0.11052490603327751,0.7108417462229728,-0.5175155151233076
1788862326158465800,5.0584658203125,-0.4471721050918102,0.8400295594111085,-0.44148762971460814
1788862326168508200,5.068508056640625,-0.37682606471180913,0.9536208672776818,-0.3619558278381824
1788862326178549000,5.078549072265625,0.12491817304491996,1.0003031234756112,-0.09356821827441453
1788862326188591000,5.088591064453125,0.1371288353204727,0.8542376791141927,-0.09308423414975404
1788862326198632000,5.0986318359375,0.2787397844910621,0.6332239612743258,-0.34381285290420055
1788862326208674000,5.108674072265625,0.7584323494374752,0.46817397658824916,-0.608207447309047
1788862326218715000,5.11871484375,0.9035901774346828,0.31317630710005756,-0.9414230644837022
1788862326228757000,5.128757080078125,0.7336240713953971,0.17982450610026715,-1.3316614223457872
1788862326238797800,5.1387978515625,0.6794844849288463,0.14439794954061508,-1.463198429008573
1788862326248840000,5.14883984375,1.0720692597866057,0.1480894975349307,-1.3190351650066674
1788862326258880800,5.158880859375,0.8714578401148318,0.2927007975652814,-1.0572134898297487
1788862326268923100,5.168923095703125,0.5072954421430826,0.4534066155672073,-0.8288619764477014
1788862326278964000,5.1789638671875,0.9323474853634833,0.5946937396109104,-0.46180429542586204
1788862326289006000,5.189006103515625,1.3311422207772732,0.7738885695055127,-0.041760874147713185
1788862326299047000,5.199046875,0.8231868534207344,0.917450360482931,0.08449863050356507
1788862326309089000,5.209089111328125,0.09902560689747333,0.9050491440713405,-0.10570479240044951
1788862326319129900,5.2191298828125,0.020657003581523895,0.7970879510462283,-0.1384749892324209
1788862326329172700,5.2291728515625,0.1597381420135498,0.7410606511369348,-0.055252223883569235
1788862326339213800,5.2392138671875,-0.06221008019745349,0.7896715373098849,-0.030603228056430815
1788862326349255700,5.249255615234375,-0.2968061870574951,0.9685811205223203,0.006796089880913496
1788862326359296800,5.259296875,-0.3599392273187637,1.1244655097171663,0.06766878399476409
1788862326369338600,5.269338623046875,-0.5039128139674663,1.2914631213396788,0.05717369346544146
1788862326379379700,5.279379638671875,-0.7736784338861703,1.30024497821033,-0.2401331365905702
1788862326389421800,5.289421875,-1.0734323648333548,1.2599079993858933,-0.5136798824831843
1788862326399462700,5.299462646484375,-0.7437947522759437,1.2309607218429446,-0.4697011861555278
1788862326409504800,5.3095048828125,-0.5052110370844602,1.2504945666134357,-0.20551585058718919
1788862326419545900,5.3195458984375,-0.5762146645903587,1.226470716947317,0.18902444225251674
1788862326429588000,5.329587890625,-0.2643722364425659,1.2289458748891948,0.769663645286858
1788862326439628800,5.33962890625,-0.2475578797638416,1.2597381957769394,1.5097905227050183
1788862326449671000,5.3496708984375,-0.7198276012331247,1.077357721583545,1.9338960788555442
1788862326459711700,5.359711669921875,-1.6335001967430114,0.7167287584349513,1.8667042647227643
1788862326469753900,5.36975390625,-2.10641230776906,0.27498510813266036,1.3763690174698828
1788862326479794700,5.379794677734375,-1.6634411614984272,0.1239186406135559,0.9186407393112778
1788862326489836800,5.3898369140625,-1.127707560378313,0.37278029645234345,0.5383300473541021
1788862326499878000,5.3998779296875,-0.9523381339907646,0.8612547182694077,0.1707163398846984
1788862326509920000,5.409919921875,-0.8566250126421451,1.324691437202692,-0.14278218490704894
1788862326519960800,5.4199609375,-0.6360106693834066,1.7501242964342236,-0.2193755952440202
1788862326530003000,5.4300029296875,-0.7533557768255472,1.89441732429564,-0.3554194118067622
1788862326540043800,5.440043701171875,-0.8503490011125803,1.6516092694073914,-0.6782612267442047
1788862326550086000,5.4500859375,-0.25442601196765896,1.3554443028628826,-0.7383766727499663
1788862326560126700,5.460126708984375,0.08112170141637325,1.2040420275181531,-0.49386853594556446
1788862326570167800,5.470167724609375,0.15667174018025398,1.0306810183435677,-0.27336189084500073
1788862326580209700,5.480209716796875,0.33899814609885215,0.8536568104863166,-0.07767872135564684
1788862326590250800,5.490250732421875,0.47901510407626624,0.6474860031217337,-0.019796587359905242
1788862326600292900,5.50029296875,0.36612580699920655,0.3933125046104193,-0.3112058838099241
1788862326610334000,5.510333984375,-0.1769534807085991,0.18942074809372425,-0.5714449659705162
1788862326620375800,5.520375732421875,-0.6022334874659776,0.06868775177896022,-0.49629517857059835
1788862326630417000,5.5304169921875,-0.15420973398089408,0.1263882455974817,-0.36632512896358965
1788862326640458800,5.540458740234375,0.6985656174957752,0.46540392735302444,-0.25387575767375525
1788862326650499800,5.550499755859375,0.745291712835431,0.9514818094223737,-0.1644900127157569
1788862326660541700,5.560541748046875,0.03380056279301643,1.132407700893283,-0.36528731034845113
1788862326670582800,5.570582763671875,-0.4660673596978187,0.7622177131950855,-0.6552333293128758
1788862326680624600,5.580624755859375,-0.4196867167949676,0.050261868250370025,-0.6213119896844029
1788862326690665700,5.590665771484375,0.14816051694452761,-0.6366618267685175,-0.494470008970052
1788862326700707800,5.600707763671875,0.6138719028115273,-0.9154349290072917,-0.4079184645246714
1788862326710749000,5.6107490234375,0.18040566698908805,-0.8455220193475484,-0.4320915134031325
1788862326720790800,5.620790771484375,-0.8444201955854892,-0.6270850201278925,-0.7023295000739396
1788862326730832000,5.630831787109375,-1.0630021562337875,-0.410532519480586,-0.8252548918664455
1788862326740873700,5.640873779296875,-0.3324339652776718,-0.24994740524888037,-0.8076118292786181
1788862326750914800,5.650914794921875,0.21202070243656634,-0.037089667466282845,-0.9972891824819147
1788862326760956700,5.660956787109375,-0.15779694481790066,0.16822773793935775,-1.2376109735123813
1788862326770997800,5.670997802734375,-0.8412088323235511,0.1855319239616394,-1.310817225629091
1788862326781039600,5.68103955078125,-0.7599018374681472,0.04384147981405258,-1.1980799042433499
1788862326791080700,5.691080810546875,-0.34097616817355153,-0.1416524502247572,-1.0718532789483666
1788862326801122800,5.701122802734375,-0.2703694310307503,-0.2784282343238592,-0.9590702917899936
1788862326811164000,5.711163818359375,-0.4907978963285684,-0.5665080940902233,-0.9840800106883049
1788862326821205800,5.721205810546875,-0.8130284474998712,-0.8996808950364589,-1.0693678918734193
1788862326831246800,5.731246826171875,-0.6842132670164108,-1.0133645573616028,-1.0510409386746584
1788862326841288700,5.741288818359375,-0.05182137265205383,-0.7721586769729852,-1.046855250487849
1788862326851329800,5.751329833984375,0.17361118454337118,-0.26504969731271266,-1.0204715398225932
1788862326861371600,5.76137158203125,0.039730537363886834,0.1256394730567932,-0.9916384632438421
1788862326871412700,5.771412841796875,-0.1794283463895321,0.20254910973608492,-0.7602508701015264
1788862326881454600,5.78145458984375,-0.261606278860569,-0.062196051672101016,-0.4081587030213326
1788862326891495700,5.79149560546875,-0.1065554178804159,-0.381145681476593,0.021040669136866925
1788862326901537800,5.801537841796875,-0.08765548709928989,-0.5350415272027254,0.16983363876603544
1788862326911579000,5.811578857421875,0.022363222977519033,-0.4716372687846422,0.031418928353488446
1788862326921620700,5.821620849609375,0.13526070336103438,-0.06824702227413654,-0.34451413304135203
1788862326931661800,5.831661865234375,0.03367021441161632,0.3110591688156128,-0.7178493599627167
1788862326941703700,5.84170361328125,-0.08996902473866938,0.5488567020654678,-0.9911223304152488
1788862326951744800,5.851744873046875,0.006387655210494995,0.6626724663376807,-0.8788852136366069
1788862326961786600,5.86178662109375,0.2049982564538717,0.5601221924453973,-0.6322112771004438
1788862326971827700,5.87182763671875,0.06656593731939792,0.3232797679632902,-0.40381548618525265
1788862326981868800,5.881868896484375,-0.13495382936894892,0.14590601601600647,-0.4310455845467746
1788862326991910700,5.89191064453125,-0.4967693719536066,0.024046646019816396,-0.4862606912903487
1788862327001951700,5.90195166015625,-0.7946160079747437,-0.04393734140396118,-0.7045718721732497
1788862327011993900,5.911993896484375,-0.7425602420449257,-0.10347148039042948,-0.9796241272579878
1788862327022035000,5.922034912109375,-0.7190782441705464,-0.14704291109144688,-1.2066085900705308
1788862327032076800,5.932076904296875,-0.6059276658087969,-0.1112485441327095,-1.4447639237821102
1788862327042118000,5.942117919921875,-0.21317922482192514,0.13691314674317837,-1.494345408552885
1788862327052159700,5.95215966796875,0.15224983208477497,0.2566910342901945,-1.319965577724576
1788862327062200800,5.962200927734375,0.14309914190173148,0.15308628290891646,-1.0620563998162746
1788862327072242700,5.97224267578125,-0.053316579645872116,-0.05640285522341728,-0.6131101977240294
1788862327082283800,5.98228369140625,-0.19170505963861942,-0.2736088513433933,-0.10731588085889816
1788862327092326000,5.992325927734375,-0.18164426887333393,-0.56455579097867,0.21261362682841717
1788862327102367000,6.002366943359375,-0.24464988336265087,-0.5467331340402365,0.269371213773638
1788862327112408800,6.012408935546875,-0.32017946386039253,-0.37966684109568594,0.17271094776801765
1788862327122450000,6.022449951171875,-0.4772533551007509,-0.1637684204429388,0.06017996260933578
1788862327132491800,6.03249169921875,-0.6543558888912201,-0.0506681109637022,0.0008013795107603073
1788862327142532900,6.042532958984375,-0.6346785439968109,-0.081603347453475,-0.10934833653457462
1788862327152574700,6.05257470703125,-0.4325754244625568,-0.0979465794891119,-0.1450542945574969
1788862327162615800,6.06261572265625,-0.0732896926164627,-0.06496259377598762,-0.11509031425267457
1788862327172657700,6.07265771484375,0.22008827355802058,0.00015665186643600462,0.011524141316115856
1788862327182698800,6.08269873046875,0.417565486857295,0.14667173969149588,0.17872743157856166
1788862327192740900,6.092740966796875,0.6090262163460254,0.1695680466324091,0.22582089892588555
1788862327202782000,6.102781982421875,0.6479588813304901,0.07121931608319282,0.2980818330164999
1788862327212823800,6.11282373046875,0.5681026698052882,-0.1390554194688797,0.33591851945780216
1788862327222865000,6.122864990234375,0.4608984326273203,-0.4163683860272169,0.23635412950851023
1788862327232906800,6.13290673828125,0.12131108846366405,-0.6356622943371534,0.10736359245814382
1788862327242947800,6.14294775390625,-0.30398411586284635,-0.739010440608859,-0.06933174877092242
1788862327252989700,6.15298974609375,-0.7257587448477745,-0.5765893431216478,-0.1438047328878194
1788862327263030800,6.16303076171875,-1.0108820928961038,-0.30655893478691576,-0.12545359509587287
1788862327273072600,6.17307275390625,-0.9987783981263637,-0.00815992558002472,-0.11253441922478377
1788862327283113700,6.18311376953125,-0.8218155650675296,0.19844284346103666,-0.19221753920540213
1788862327293155800,6.19315576171875,-0.571202973908186,0.2867547486424446,-0.23477650492824612
1788862327303197000,6.203197021484375,-0.3314490458935499,0.2059890210568905,-0.3251194044806063
1788862327313238800,6.21323876953125,-0.21596037997305392,0.11483575496971607,-0.40866402219496667
1788862327323278800,6.22327880859375,-0.29294658901989457,-0.11567980457842349,-0.4907861328255385
1788862327333321200,6.2333212890625,-0.4333721277981996,-0.4778548281252384,-0.48076399357020855
1788862327343362000,6.243362060546875,-0.6031722296208143,-0.6088111122906208,-0.23012071501165626
1788862327353404200,6.253404052734375,-0.8615046013772487,-0.40078853957951066,0.20038835150562226
1788862327363445000,6.263445068359375,-1.0632827267408371,-0.07244038231074809,0.4064980032674968
1788862327373486000,6.273486083984375,-1.1108341669887303,0.14203589658439159,0.46748234106227754
1788862327383528000,6.28352783203125,-1.0786416239142418,0.24139409643709658,0.3732433839194476
1788862327393569000,6.293569091796875,-1.0372095433294772,0.36582010205090043,0.2012918762166053
1788862327403611000,6.30361083984375,-1.0055541758716107,0.4098538895666599,0.0806258076582104
1788862327413652000,6.31365185546875,-0.8931810116231441,0.2787538130164146,-0.1287785017348826
1788862327423693800,6.32369384765625,-0.8301169449448585,0.14234978483915328,-0.36597003191560507
1788862327433735000,6.33373486328125,-0.7755617634147405,0.04806465046703815,-0.5247163133475929
1788862327443777000,6.343777099609375,-0.650624301147461,0.060035658767819404,-0.607827946472168
1788862327453818000,6.353818115234375,-0.38546588276326654,0.122141109547019,-0.6864984553441404
1788862327463860000,6.36385986328125,-0.11275076538920402,0.18933365433216093,-0.6435564085878431
1788862327473901000,6.373901123046875,0.1996218241125345,0.2165320423811674,-0.48629247466810044
1788862327483943000,6.38394287109375,0.6139455525696277,0.1518348215430975,-0.38622612654604016
1788862327493984000,6.39398388671875,0.829438899552822,0.12107026544511318,-0.38891090865060685
1788862327504025900,6.40402587890625,0.7087175936758517,0.31059973461031914,-0.32763401765003797
1788862327514067000,6.41406689453125,0.46686698564290996,0.6872527808427811,-0.08181435985565184
1788862327524108800,6.42410888671875,0.06846621798276901,0.9204115483760833,0.04263130030669272
1788862327534150000,6.43414990234375,-0.505427894705534,0.771233963343501,0.015782456347718833
1788862327544192000,6.44419189453125,-1.0647130518049002,0.40288112794458864,-0.04760623917505145
1788862327554233000,6.454233154296875,-1.416985105496645,0.0659831689953804,-0.037724969695135946
1788862327564275000,6.46427490234375,-1.8395979388713835,-0.07713409308493137,0.0009554010286927223
1788862327574316000,6.47431591796875,-1.7464555447936057,-0.025457097339630124,-0.05717705446630716
1788862327584358000,6.48435791015625,-0.7179857727587222,0.2333282788813114,-0.14407288230471313
1788862327594399000,6.49439892578125,-0.22781273033022878,0.13321136961579322,-0.31691549362838267
1788862327604440800,6.50444091796875,-0.06813888572454452,-0.3883879076898098,-0.4241100861951709
1788862327614482000,6.51448193359375,0.27461247542798517,-0.6831465145677328,0.035782384259998794
1788862327624523800,6.524523681640625,0.2858089922249317,-0.5608236187130212,0.8778403076935559
1788862327634564900,6.53456494140625,-0.23546119925677775,-0.46472529743909835,1.3292539228126405
1788862327644607000,6.54460693359375,-0.7988473619341849,-0.7136772619098425,1.1514167911373079
1788862327654648000,6.55464794921875,-1.0160253010034561,-0.9384650914609431,0.6898387787479907
1788862327664690000,6.56468994140625,-0.9691215110093354,-0.8146142553865909,0.2600610952451825
1788862327674731000,6.57473095703125,-0.8755956705719232,-0.30686522425711155,-0.03482464514374733
1788862327684772000,6.584772216796875,-0.7103776358425616,0.3380500515937805,-0.043320086288452145
1788862327694814000,6.59481396484375,-0.4132546379208564,0.6834937205702066,0.0977555869616568
1788862327704855000,6.60485498046875,-0.26068916401565073,0.7699708115398883,0.24689035576581952
1788862327714897000,6.61489697265625,-0.25574936952590943,0.710181236487627,0.37058556288704275
1788862327724938000,6.62493798828125,-0.45743104877769947,0.5979577098429203,0.45849707057401534
1788862327734979800,6.634979736328125,-0.62841363838315,0.6824214151635766,0.5312589399240911
1788862327745021000,6.64502099609375,-0.6515846706122159,0.7819698768913745,0.5870239356353879
1788862327755063000,6.65506298828125,-0.6835697084158658,0.8964552109882234,0.5928197624325752
1788862327765104000,6.665104248046875,-0.5955927342772483,0.858963976983726,0.4846102937348187
1788862327775146000,6.67514599609375,-0.4759399344146251,0.7600842082977295,0.40936069922223683
1788862327785187000,6.68518701171875,-0.33527357261776924,0.7254770052969455,0.2672143280006945
1788862327795229000,6.69522900390625,-0.2050204682856798,0.6400292573750018,0.04213131489530206
1788862327805270000,6.70527001953125,-0.03536708145737648,0.4652604272291064,-0.22990400352105497
1788862327815312000,6.715311767578125,0.2619435479909181,0.315193492141366,-0.45937896797508
1788862327825353000,6.72535302734375,0.5881716443657875,0.33761166017651556,-0.6669025051228702
1788862327835394800,6.735394775390625,0.7689993361592292,0.06937514952123165,-0.5381133358635009
1788862327845436200,6.745436279296875,0.979359411907196,-0.17873071951419114,-0.21775573895722627
1788862327855478000,6.75547802734375,0.9895148952186107,-0.08626374047994613,0.14631313551217318
1788862327865519000,6.76551904296875,0.839883136677742,0.10438713393062353,0.5296288545042276
1788862327875561000,6.77556103515625,0.33245033189058304,0.058280339533090586,0.8450991177603602
1788862327885602000,6.78560205078125,-0.21918226462900636,-0.2087076323658228,0.8902604480013251
1788862327895644000,6.795643798828125,-0.5677671542406082,-0.5767354735940694,0.7254507018119096
1788862327905685000,6.80568505859375,-0.6277531286478042,-0.795576085178554,0.5607219119042158
1788862327915726800,6.815726806640625,-0.5970598842203617,-0.8311717146947979,0.3346443348035216
1788862327925768000,6.825767822265625,-0.4446668442726135,-0.6996656876921653,0.20553777015805244
1788862327935810000,6.83581005859375,-0.14094459421634672,-0.37993162951171394,0.3307254077941179
1788862327945851100,6.84585107421875,0.11299626458287239,-0.010141162525117396,0.6377841087967157
1788862327955893000,6.85589306640625,0.3852373347043991,0.1294511402994394,0.8325342352196574
1788862327965934000,6.86593408203125,0.43682256051301954,0.23082886328101157,0.9423471935912966
1788862327975976000,6.875975830078125,0.39747020881175993,0.3109545393973589,1.029332526344061
1788862327986017000,6.88601708984375,0.5633885007649659,0.02278700134754181,0.9196274122610688
1788862327996058000,6.89605810546875,0.9096382254272699,-0.343948169721663,0.6695858989879488
1788862328006100000,6.906099853515625,1.1118319458544255,-0.4409235660910606,0.34788375560492274
1788862328016141000,6.91614111328125,0.5988876841694116,-0.15860855346173047,0.24651713853925464
1788862328026183000,6.926182861328125,0.29247020367980003,-0.023090952730178832,0.40657998246252536
1788862328036224000,6.93622412109375,0.49889293997883793,-0.046142888624221085,0.47429772016555066
1788862328046266000,6.94626611328125,0.7115384963154793,0.09878200739994644,0.30297289299368857
1788862328056307200,6.95630712890625,0.9388801020026206,0.33251141442805526,0.30113252582401034
1788862328066349000,6.96634912109375,1.1250503238677978,0.517556870047003,0.47697629172503947
1788862328076390100,6.97639013671875,0.9623533320486545,0.6706938602298498,0.3051198418945074
1788862328086432000,6.986431884765625,0.7950561529576778,0.31440278015509243,-0.03707739250659942
1788862328096473000,6.99647314453125,0.7161439442843198,0.08664587166532874,-0.0727805740505457
1788862328106515000,7.006514892578125,0.7309744336694478,0.12452172107324004,0.11769728188067674
1788862328116556000,7.01655615234375,0.267104291754961,-0.08797741253003477,0.5676008577629923
1788862328126598000,7.026597900390625,0.05928454813957214,-0.7280664372682571,0.764398856626451
1788862328136639000,7.036638916015625,-0.07944821524620056,-1.2972889048837124,0.48914048451036213
1788862328146681000,7.04668115234375,-0.1190519113600254,-1.610163014166802,0.20977789194583893
1788862328156722200,7.05672216796875,-0.3951011415928602,-1.4743753643222153,0.2255491693124175
1788862328166764000,7.066763916015625,-0.445807246479392,-1.366064481076598,0.3483206857174635
1788862328176805000,7.07680517578125,-0.35420389853715895,-1.0391874192737043,0.4148942218214273
1788862328186847000,7.086846923828125,-0.45885611314475533,-1.012661815919727,0.1762251664340496
1788862328196888000,7.09688818359375,0.3111386637926101,-1.3035681312836707,-0.17469255003929138
1788862328206930000,7.106929931640625,1.899193452656269,-1.2234716812618076,-0.1195508007928729
1788862328216971000,7.116970947265625,2.2830945703208445,-1.2921163245514034,-0.08348433889448642
1788862328227012900,7.127012939453125,1.4359902502179145,-1.5639596275269985,-0.1893266400694847
1788862328237054000,7.137053955078125,0.9169079241693019,-1.4603740192376076,0.001600420933961868
1788862328247096000,7.147095947265625,0.1617605877518654,-0.6604067133627831,0.23070202203094958
1788862328257137200,7.15713720703125,-0.3568547053068876,0.5661239170782267,0.08282616724669933
1788862328267179000,7.167178955078125,-0.5111971257567406,1.6440128229290245,0.022896014679968355
1788862328277220000,7.17722021484375,0.3086164518386125,1.8119775260180233,0.2996495937898755
1788862328287261000,7.187260986328125,1.5766788238465785,1.3544149598151445,0.4785276128202676
1788862328297303000,7.197302978515625,1.3985679897964,0.7504124168500304,0.6315513518869876
1788862328307344000,7.20734375,0.006035773032903671,-0.17595909937638787,0.5989011281728744
1788862328317386000,7.217385986328125,0.2089548851251602,-1.2017182607457042,0.582323795120418
1788862328327427300,7.22742724609375,0.2579109314739704,-1.5314135948397218,0.2973825256407261
1788862328337469400,7.237469482421875,0.1377560273081064,-0.8424592707760632,0.42950756132453677
1788862328347510300,7.24751025390625,0.5644172592908143,-0.010333872085623443,1.0986088916659356
1788862328357552400,7.257552490234375,1.1544979521483183,0.3475453174307942,0.8638537948518991
1788862328367593200,7.26759326171875,0.7987567610412836,0.5291389886280522,-0.23988866031020878
1788862328377635300,7.27763525390625,-0.12030980246663092,0.4695688284801319,-0.6968196506112814
1788862328387676200,7.28767626953125,-0.32400515962839127,0.28971264859996737,-0.327452085211873
1788862328397718500,7.297718505859375,0.5788578725755215,0.2286513731114566,0.5734601051852106
1788862328407759400,7.30775927734375,0.8372422667801379,0.17715364292319863,0.9618886371463536
1788862328417801500,7.317801513671875,0.7394160988003015,0.25378186884522436,0.41557431304007764
1788862328427842300,7.32784228515625,0.6753057379394769,0.41882206278964873,-0.17226532289236782
1788862328437884400,7.337884521484375,0.4610100763082504,0.48791605728194115,-0.6777382257834077
1788862328447925200,7.34792529296875,0.7325590725123882,0.4750350945293903,-0.729927847225964
1788862328457967400,7.35796728515625,0.9069745591759681,0.47327466072812674,-0.44211248361468314
1788862328468008200,7.36800830078125,1.1933926232099532,0.4121373973939568,0.08803542632758617
1788862328478050300,7.37805029296875,1.191764729747176,0.3774219117131084,0.4454191239446401
1788862328488091100,7.388091064453125,0.8565367498368024,0.3214173350922763,0.3146913878381252
1788862328498133500,7.398133544921875,0.769139621412754,0.3260436797186732,0.15307137760072945
1788862328508174300,7.40817431640625,0.8497089496433734,0.2950665037833154,0.18487609040141104
1788862328518216400,7.418216552734375,0.8865420120000839,0.2461827920183539,0.31157091773003337
1788862328528257300,7.42825732421875,0.7910872493267059,0.3091121264010668,0.2570961079597473
1788862328538299400,7.43829931640625,0.7857844667434692,0.5246585187457502,0.0750543642014265
1788862328548340200,7.44834033203125,0.9174117820382117,0.8046873201340436,-0.014752747973799704
1788862328558381300,7.45838134765625,0.9192191237211227,1.0743303365863859,0.17604688725769518
1788862328568423200,7.468423095703125,0.7295616442620754,1.127394256645441,0.57045858528167
1788862328578464300,7.47846435546875,0.3737497260063886,0.9808980196513235,0.9017787440985441
1788862328588506000,7.488506103515625,0.04117079930007458,0.8145753846809267,0.8392217501595616
1788862328598547200,7.498547119140625,0.012569558715820313,0.6854469004645943,0.5117351781561971
1788862328608589300,7.50858935546875,0.6342319692730903,0.6607733547180891,0.22123510550558564
1788862328618630400,7.51863037109375,0.9053834905922412,0.7383394094794988,-0.010451835909485816
1788862328628672300,7.52867236328125,0.3717769646286964,0.8472989658921957,-0.1710188299626112
1788862328638713300,7.53871337890625,-0.1707049417078495,0.8281956214934587,-0.147010031735152
1788862328648755200,7.548755126953125,-0.24619945089221,0.599260024613142,-0.042188744170963764
1788862328658796300,7.55879638671875,-0.29786592524349687,0.3147811119481921,0.0990085096322
1788862328668838100,7.568838134765625,-0.45844577877819537,0.2113777283579111,0.20809227694645524
1788862328678879200,7.578879150390625,-0.7406161222398281,0.3455786935329437,0.2759897551305592
1788862328688921000,7.588921142578125,-0.8160615315854549,0.5124310514658689,0.32079028923511504
1788862328698962200,7.598962158203125,-0.9012275399565696,0.6904390096634626,0.3752443484783172
1788862328709004300,7.60900439453125,-0.40229251440167424,0.8881512007623911,0.43344387786015864
1788862328719045400,7.61904541015625,0.5761304934382439,1.0035641710981726,0.3436301898136735
1788862328729087200,7.629087158203125,0.6216928056955338,1.113680788591504,0.1068213753402233
1788862328739128300,7.63912841796875,0.04789104746580124,1.145577855850756,-0.12066212303563952
1788862328749170200,7.649170166015625,-0.18650690647363663,1.08095749964118,-0.08803075015246868
1788862328759211300,7.659211181640625,-0.11711948199272156,0.9886194076836109,0.17690452700033782
1788862328769253400,7.66925341796875,-0.0006646013885736465,0.9621738838285208,0.5646998756244779
1788862328779294200,7.679294189453125,0.06056231299042701,0.8229387238785624,0.7204558161340654
1788862328789336300,7.68933642578125,-0.21940905912220476,0.5262570399835705,0.5523666098825634
1788862328799377200,7.699377197265625,-0.9394961880743503,0.11684417218267917,0.0983779566437006
1788862328809418200,7.709418212890625,-1.5325152724713087,-0.31833179016709323,-0.43975642200782894
1788862328819460400,7.71946044921875,-1.8242302738696337,-0.5000158065289259,-1.0217832800082862
1788862328829501400,7.72950146484375,-1.603071156209707,-0.184258835285902,-1.2249462838590144
1788862328839543300,7.739543212890625,-0.7190887655645608,0.5729512788802384,-0.9517246782675385
1788862328849584400,7.74958447265625,-0.0031657705545425413,1.212630407643318,-0.6090726858362555
1788862328859626200,7.759626220703125,-0.18273323315382003,1.5543898351490497,-0.08125409562438726
1788862328869667300,7.769667236328125,-0.6708025813013315,1.6064643057793377,0.7975826026953756
1788862328879709200,7.779709228515625,-0.9786790284276008,1.197695873361826,1.3937619046889245
1788862328889750300,7.789750244140625,-0.6851561008244752,0.2469178282946348,1.5749625214479863
1788862328899792100,7.799792236328125,-0.1420867499887943,-0.7341542327493429,1.4037418853029608
1788862328909833200,7.809833251953125,-0.17211773111522197,-1.0109984127521514,0.9763299810834228
1788862328919875300,7.819875244140625,-0.4558984323829412,-0.7580904041320085,0.2856779131911695
1788862328929916400,7.82991650390625,-0.5121440512180329,-0.2011830820798874,-0.2218834864117205
1788862328939958300,7.839958251953125,-0.4017757970511913,0.4504191241890192,-0.5721766412459314
1788862328949999400,7.849999267578125,-0.3126864777565002,1.0626555347532034,-0.8326669216886162
1788862328960041200,7.860041259765625,-0.18479484185874462,1.3486778774678707,-0.903727832339704
1788862328970082300,7.870082275390625,-0.295913037610054,1.2224573896527289,-0.8254787637501955
1788862328980124200,7.880124267578125,-0.439967872801423,0.5816752680838108,-0.4535510655391961
1788862328990165200,7.890165283203125,-0.3105044575423002,-0.4219663521647453,-0.3047929480277002
1788862329000207400,7.900207275390625,-0.12741583507955073,-1.2857815685719252,-0.27673881993219257
1788862329010248400,7.91024853515625,-0.08039514070749282,-1.8507991318434476,-0.2893922575391829
1788862329020290300,7.920290283203125,-0.1965986768990755,-2.111419906798005,-0.39854426778405905
1788862329030331400,7.930331298828125,-0.4373702575236559,-1.9636258850783108,-0.5709399390578269
1788862329040373200,7.940373291015625,-0.6683218704015016,-1.5852970145881176,-0.7941033092122525
1788862329050414300,7.950414306640625,-0.9938871189534664,-1.1438801120221613,-0.8550746413949877
1788862329060455400,7.960455322265625,-1.3063292665600776,-0.7372861010342836,-0.7095976644460111
1788862329070497300,7.970497314453125,-1.2049515435785054,-0.4336544518709182,-0.5608878430556505
1788862329080538400,7.980538330078125,-0.894645238956809,-0.2663888369619846,-0.49040780103243886
1788862329090580200,7.990580322265625,-0.5789087259799242,-0.2270025829911232,-0.5185403281264007
1788862329100621300,8.000621337890625,-0.2754401584237814,-0.2611258018672466,-0.41850525192543864
1788862329110663400,8.010663330078126,-0.04511456848978996,-0.27178981922268863,-0.30895890860073266
1788862329120704500,8.02070458984375,0.0759954444438219,-0.26668752764761444,-0.33708310625776644
1788862329130746400,8.030746337890625,0.0018868366599082945,-0.32558219968676566,-0.23839710657820104
1788862329140787500,8.040787353515626,-0.22074819877147672,-0.5013970317542553,0.13958835730180144
1788862329150829300,8.050829345703125,-0.51847150067389,-0.7065203758925199,0.4459765386316925
1788862329160870400,8.060870361328124,-0.8587041570037602,-0.853148860964179,0.6856419846452773
1788862329170912300,8.070912353515626,-1.0152741903752087,-0.868749750199914,0.7836608256530017
1788862329180953300,8.080953369140625,-0.9027186552971601,-0.6944710416585207,0.7676629729889333
1788862329190995200,8.0909951171875,-0.5836445223301648,-0.3085007165044546,0.519951363968104
1788862329201036300,8.101036376953125,-0.3473842816501856,-0.05515782359838486,0.1611443555496633
1788862329211078400,8.111078369140625,-0.21562720249593256,0.03536591241359711,0.0207744924813509
1788862329221119500,8.121119384765626,-0.11181260775625705,-0.23104805898964403,0.03633030046634376
1788862329231161300,8.131161376953125,-0.06904489465355873,-0.6701210287779569,-0.17272300353199244
1788862329241202400,8.141202392578125,-0.03217500741779804,-0.9490560435801744,-0.6446607896331698
1788862329251244300,8.151244384765626,0.10200666853487492,-1.072425233617425,-1.0196475831538439
1788862329261285400,8.161285400390625,0.12129355280697345,-1.2147668351501226,-0.9806257055159657
1788862329271326200,8.171326171875,0.31931554050743577,-1.1140981372207404,-0.7239940732628106
1788862329281368300,8.181368408203125,0.5824345620185136,-0.9663970544815063,-0.45251916520819063
1788862329291409200,8.1914091796875,0.6039215866833925,-0.8153717957556247,-0.3597013999748975
1788862329301451300,8.201451171875,0.4785276128202676,-0.4914706810235977,-0.36293088341541585
1788862329311492000,8.2114921875,0.2344265955120325,-0.22822949443757531,-0.29908158464357254
1788862329321534500,8.221534423828125,-0.008963058656454085,-0.17262100446224213,-0.3503449580866843
1788862329331574800,8.23157470703125,-0.2789794384658337,-0.22640227901041507,-0.30528555385023354
1788862329341616600,8.24161669921875,-0.54969198384583,-0.44223464868962764,-0.25528854708112775
1788862329351657700,8.25165771484375,-0.6317652868986129,-0.8080097425550222,-0.16712649869918822
1788862329361699600,8.261699462890626,-0.5577221455663443,-1.0548960066676139,-0.36700850811786945
1788862329371740700,8.27174072265625,-0.5557622436702251,-1.0547650737643242,-0.6245546979326755
1788862329381782800,8.28178271484375,-0.7310024907201528,-0.9569780687510967,-0.6803817990947514
1788862329391824000,8.291823974609375,-0.8990431816548109,-0.8626292214930057,-0.6781985367715359
1788862329401865700,8.30186572265625,-1.1088783567458391,-0.6309510479062795,-0.42085970609709616
1788862329411906800,8.31190673828125,-1.2405921812802552,-0.44872050357758997,-0.058666489306464786
1788862329421948700,8.32194873046875,-1.1595090583086014,-0.2670820799231529,0.2452745180670172
1788862329431989800,8.33198974609375,-0.9261158974975346,-0.25234745212793347,0.441581153216958
1788862329442031600,8.342031494140626,-0.5219301166951656,-0.35913317163288594,0.28624409570656717
1788862329452072700,8.35207275390625,-0.22064356935322282,-0.38008360520303247,0.10535276409238577
1788862329462114600,8.362114501953124,-0.10087503415644168,-0.44603228740692136,-0.1402057585477829
1788862329472155600,8.37215576171875,-0.09369944343864917,-0.5307137271314859,-0.5046254192162305
1788862329482197800,8.38219775390625,-0.3164122202813625,-0.5527174691468477,-0.8173850352741777
1788862329492238800,8.39223876953125,-0.5555781192749738,-0.414473366060853,-1.1313197595261038
1788862329502279700,8.40227978515625,-0.537917959421873,-0.18191431798636912,-1.1768396208811551
1788862329512321800,8.41232177734375,-0.36707039437294003,0.04330313515365124,-0.9431023228075355
1788862329522362600,8.422362548828126,-0.2053214970588684,0.13402736217379568,-0.2968726033572107
1788862329532404700,8.43240478515625,-0.0034141923576593396,0.07503449045717715,0.38680882180482146
1788862329542445600,8.442445556640624,-0.0211316353559494,0.09575169979333877,0.9265466901302337
1788862329552487700,8.45248779296875,-0.3878407952010631,0.2481593527883291,1.249965135911852
1788862329562528500,8.462528564453125,-0.83395608471632,0.2790449049174785,1.2306493178062141
1788862329572571000,8.47257080078125,-1.0289929191261529,-0.025282909816503524,0.8973549363069235
1788862329582611700,8.48261181640625,-0.8789315369963645,-0.3806804020524025,0.5516304045625031
1788862329592653800,8.49265380859375,-0.688250559708476,-0.47762160389125347,0.3182312524020672
1788862329602694700,8.502694580078124,-0.7675093898624181,-0.29337387452125546,0.21607582304626702
1788862329612736800,8.51273681640625,-0.9118635002613067,-0.030324411115050316,0.07580766678676008
1788862329622777600,8.522777587890625,-0.9850964942544698,0.09174246415197848,-0.058356327378749843
1788862329632819700,8.53281982421875,-0.9357423884987831,-0.07756897737085819,-0.14696969972476362
1788862329642860500,8.542860595703125,-0.4656716383785009,-0.2545703888744116,-0.08996931699961423
1788862329652902700,8.552902587890625,-0.06786182234883308,-0.19365093300938604,0.15382804118692875
1788862329662943500,8.562943603515626,-0.04414309310913086,0.0041249709755182265,0.38394481067582964
1788862329672984600,8.572984619140625,-0.1750491083920002,0.22514175755530594,0.4322594903811812
1788862329683026700,8.583026611328124,-0.14962357523441314,0.30075521694421764,0.4002440574392676
1788862329693067800,8.59306787109375,0.34761166066527366,0.12207447405159473,0.4285486531645059
1788862329703109600,8.603109619140625,0.6765151137292384,-0.12228519419282674,0.41396497814729805
1788862329713150700,8.613150634765624,0.8038543764412402,-0.26041356194466353,0.5533049136459827
1788862329723192600,8.623192626953125,1.556517494827509,-0.36451457241028545,0.6754226423174142
1788862329733233700,8.633233642578125,1.5523422549694776,-0.22095102786719797,0.6677949239179491
1788862329743275500,8.643275634765626,0.964941010454297,-0.07897504477649926,0.6043892041951417
1788862329753316600,8.653316650390625,0.8244014899075031,-0.13744506166279316,0.494306781232357
1788862329763358700,8.663358642578125,0.49027533375918864,-0.4518342516839504,0.4853413844883442
1788862329773399600,8.673399658203126,0.2573053667962551,-0.8606360018491744,0.43848464850634333
1788862329783441700,8.683441650390625,-0.1584481022030115,-1.2026914896920322,0.08636573954969644
1788862329793482800,8.693482666015624,-0.29582009862959385,-1.2361042222112417,-0.605280307815969
1788862329803524600,8.703524658203126,-0.2853255926221609,-1.1526476481065153,-1.061889518816769
1788862329813565700,8.713565673828125,0.3422802365094423,-1.2138947284907102,-1.1448121321752667
1788862329823607800,8.72360791015625,0.8664917421400546,-1.0388935508936643,-0.8741977864727377
1788862329833648600,8.733648681640625,0.9941466466724872,-0.7879200174674391,-0.21798720962554216
1788862329843690800,8.743690673828125,1.1037059225440025,-0.6275590673804283,0.5432382776618003
1788862329853731600,8.753731689453126,0.5733136824518442,-0.5518748808428645,0.9103025345548987
1788862329863773700,8.763773681640625,0.06050736793279647,-0.46567046933472156,0.9198664817139506
1788862329873814500,8.773814453125,-0.06971124960780144,-0.5551698307350278,0.9003604017332195
1788862329883857000,8.78385693359375,0.13455810804963111,-0.630435499599576,0.7433905553892255
1788862329893897700,8.793897705078125,0.40154315733909607,-0.4826055297836661,0.3070803283125162
1788862329903938800,8.803938720703124,-0.40138475190699097,-0.5444100979201495,-0.24054332482665775
1788862329913980700,8.813980712890626,0.5396048895955086,-0.6143902275972067,0.19065496606379748
1788862329924021800,8.824021728515625,0.5818085390746593,-0.5174314901016652,0.8536483349189162
1788862329934063600,8.834063720703124,-0.4904898532927036,-0.6629029140926898,0.4886351653367281
1788862329944104700,8.844104736328125,0.9498784658789634,-0.8326863570414483,0.059681730763614174
1788862329954146600,8.854146484375,2.052870102673769,-0.8787779538698494,-0.25494068349152804
1788862329964187600,8.864187744140626,2.0020663826316594,-0.4878256025195121,-0.2182926223129034
1788862329974229500,8.8742294921875,1.5850713891386985,-0.2935777265302837,-0.1272170976370573
1788862329984270600,8.8842705078125,1.9068518584549425,-0.4479100639775395,-0.21792788065373897
1788862329994312700,8.894312744140626,1.8580594782352446,-0.8492420627839863,-0.12419161233603954
1788862330004353800,8.904353759765625,1.5499638354003429,-1.1385761603951454,-0.19177344869971275
1788862330014395600,8.914395751953125,1.695214017856121,-0.896120572206378,-0.4316162240415811
1788862330024436700,8.924436767578126,1.4177046519428491,-0.4830327422197908,-0.5813341995611786
1788862330034478600,8.934478515625,0.9206593856573104,-0.3869238995518535,-0.32149580715596676
1788862330044519700,8.944519775390624,1.107908634930849,-0.4349327281784266,0.3979971552953124
1788862330054561500,8.9545615234375,1.1902835512787102,-0.25673644433449955,0.8591720667764544
1788862330064602600,8.9646025390625,0.1858323682129383,-0.18452172400578856,0.551409601418674
1788862330074644700,8.974644775390624,0.6389139896094799,-0.017817651969753205,0.04933861592561006
1788862330084685800,8.984685791015625,1.1119921048521995,0.1421757434464991,0.03574702068567276
1788862330094727000,8.994726806640625,0.9414210186570883,0.06616471784105524,0.2472194415897131
1788862330104768800,9.004768798828126,1.01152331340909,0.06887096285875886,0.29406068774163724
1788862330114809900,9.014809814453125,0.47037587054669855,0.32417335580214857,0.585848754376173
1788862330124851700,9.024851806640624,0.6984826153874397,0.4959397161964327,0.48704117414355275
1788862330134892800,9.034892822265626,1.293413086363673,0.5709982451163232,0.46670010464340445
1788862330144934700,9.0449345703125,0.7674480150640011,0.44161052544191476,0.17594488818794488
1788862330154975700,9.054975830078124,0.768404877397418,0.42776575915850695,0.11612345669269561
1788862330165017600,9.065017578125,1.931514006024599,0.53575913742017,0.2993587941497564
1788862330175058700,9.07505859375,1.9706775571554898,0.427093084061332,0.36101240950822827
1788862330185100800,9.085100830078124,1.081888058489561,-0.01627308940887451,0.24228227744847536
1788862330195142000,9.095141845703125,0.6282803673923015,-0.38077483887020497,0.11659516585767268
1788862330205183700,9.105183837890625,1.1516297032356262,-0.24804975493401288,-0.15459493390619755
1788862330215224800,9.115224853515626,1.118083991986513,-0.0331576617795974,-0.42165480199754235
1788862330225266700,9.1252666015625,1.0914356390357016,-0.022674115557596086,-0.21504268060624598
1788862330235307800,9.135307861328124,1.3527543331265448,0.21728505270555615,0.15386924998015164
1788862330245349600,9.145349609375,1.532455066716671,0.41455899851769207,0.03923486280143261
1788862330255390700,9.155390625,1.4138409622520207,0.39732451673075553,-0.23204817594289778
1788862330265431600,9.165431640625,1.2401345006406306,0.3233744605094194,-0.5647936913877726
1788862330275473700,9.1754736328125,1.2070318569839,0.3655079673618078,-0.6008616145908833
1788862330285514500,9.185514404296875,0.786836606144905,0.2797469157069921,-0.580233252581954
1788862330295556900,9.195556884765624,0.7519061625391245,0.08973185498192905,-0.47319794223010536
1788862330305597700,9.20559765625,1.1847276707172394,0.09319909270107746,-0.30945640979409217
1788862330315639800,9.215639892578125,0.8530278649330139,0.20534458567351102,-0.18376023811399936
1788862330325680600,9.2256806640625,0.3224783884525299,0.19549246922284363,-0.27605682901740075
1788862330335722800,9.23572265625,0.5102957930028438,0.1584459102459252,-0.31652386396229265
1788862330345763600,9.245763671875,1.0315051942080258,0.20418153324350713,-0.34297786338478325
1788862330355805700,9.2558056640625,0.8160480875819921,0.17676906405240297,-0.2925787786208093
1788862330365846500,9.265846435546875,0.6441817008793354,0.15141411191299556,-0.19888781074956058
1788862330375888600,9.275888671875,0.768824564114213,0.18614216481447218,-0.03822261701896786
1788862330385929500,9.285929443359375,0.8467553605347872,0.11735825918465852,-0.006965747359395026
1788862330395971800,9.295971923828125,0.6238754104316234,-0.1535261356309056,-0.07795666151419281
1788862330406012700,9.3060126953125,0.31767478756308554,-0.48187020124644037,-0.1356644618563354
1788862330416054800,9.3160546875,0.35706630223095415,-0.6124898008033632,-0.10001359502151608
1788862330426095600,9.326095703125,0.6380033045053481,-0.5389522709056734,0.007243395256996154
1788862330436137700,9.3361376953125,0.7031926927745342,-0.36419834606796503,0.11251958698183298
1788862330446178600,9.346178466796875,0.5051730431616306,-0.18097382226586342,0.2587729551307857
1788862330456219600,9.3562197265625,0.7581599622368812,0.07531126157194376,0.28221140612438317
1788862330466261500,9.366261474609376,1.0843711074769495,0.324619199873507,0.12337678882181644
1788862330476302600,9.376302490234375,0.7813795097827911,0.5020902747154236,-0.20577552443668246
1788862330486344400,9.386344482421874,0.2831213605761528,0.6591673808261752,-0.3823120949074626
1788862330496385500,9.396385498046875,0.11773790615200996,0.7294532154515385,-0.3055843906663358
1788862330506427600,9.406427734375,0.08668985693752765,0.6376338866710662,-0.17663462401777505
1788862330516468700,9.41646875,-0.17391045975089073,0.3347247065633535,-0.02153276350274682
1788862330526510600,9.426510498046875,-0.40720191375315185,-0.2466977558031678,-0.12226795079708098
1788862330536551700,9.4365517578125,-0.4626578435152769,-1.0004141826346515,-0.3815804196320474
1788862330546593800,9.44659375,-0.42919221176505085,-1.3682552691191434,-0.6058730130121112
1788862330556634600,9.456634521484375,-0.28608488655686376,-1.2924778513401747,-0.400401878349483
1788862330566676700,9.4666767578125,-0.20701310340762138,-0.9660948566645383,-0.12152940738946198
1788862330576717600,9.476717529296875,-0.6605833851039409,-0.7407359492272139,0.10107669420838356
1788862330586759700,9.486759765625,-1.4415198272943497,-0.6849164468497038,0.1904161888718605
1788862330596800800,9.49680078125,-1.757038898128271,-0.795805510020256,0.1992510911040008
1788862330606843000,9.5068427734375,-1.3337410050988197,-0.6984159798920154,0.09919482598453759
1788862330616883700,9.5168837890625,-0.6417629492998123,-0.31360826877653597,0.03334931189417839
1788862330626924800,9.5269248046875,-0.06425532228946686,0.04635550846159458,0.03752893566638231
1788862330636966700,9.536966552734375,0.19340777190327643,0.1626876394689083,0.13984481628090142
1788862330647007700,9.5470078125,0.2558499072909355,0.11536533180177211,0.08776260073557496
1788862330657049600,9.557049560546876,0.25240941144824025,0.08943477173149585,-0.10233005527034401
1788862330667090700,9.567090576171875,-0.05540332279205322,0.06446984182298184,-0.11980696751102804
1788862330677132500,9.577132568359374,-0.45053953569829464,-0.0029319617986679077,0.08654898716211318
1788862330687173600,9.587173583984375,-0.6058645374447107,-0.13135375905036925,0.5346957825049757
1788862330697215700,9.5972158203125,-0.4410819715231657,-0.344472193595767,0.8457413611866533
1788862330707256800,9.6072568359375,-0.17798165471255778,-0.62250178399086,0.8498558107681572
1788862330717298700,9.617298583984375,0.013996376648545264,-0.834797211715579,0.6364999142050742
1788862330727339800,9.62733984375,0.12566811462938784,-0.9431161321371793,0.29434184277057646
1788862330737381600,9.637381591796874,-0.13677753766477108,-1.024175289711356,-0.1293193306133151
1788862330747422700,9.647422607421875,-0.5944312892824412,-1.0831500412493944,-0.5158705243952572
1788862330757464600,9.657464599609375,-0.9555039045453071,-1.0540022726982832,-0.7203381811037659
1788862330767505700,9.667505615234376,-0.9874521174699068,-0.9392933589786291,-0.8173461645685136
1788862330777547500,9.677547607421875,-0.7901853320509195,-0.8329711653321981,-0.8862370377041399
1788862330787588600,9.687588623046874,-0.5382938069969415,-0.777144064170122,-0.9047450465582311
1788862330797629700,9.697629638671875,-0.34656478196084495,-0.7721411413162946,-0.8432876844242214
1788862330807671800,9.707671875,-0.3282692468136549,-0.7748375407934188,-0.6639348874889314
1788862330817713000,9.717712890625,-0.28043489797115323,-0.8247486959099769,-0.45090208540037274
1788862330827754800,9.727754638671875,-0.3271750218361616,-0.8734902227252721,-0.23261896156817674
1788862330837795800,9.7377958984375,-0.5132295083671808,-0.9385703054010868,-0.08704641529023646
1788862330847837700,9.747837646484374,-0.5533791479259729,-0.9581956278473138,0.0903106777831912
1788862330857878800,9.757878662109375,-0.5969891570717096,-0.9567343231230974,0.13851970515698195
1788862330867920600,9.767920654296875,-0.6268447816312313,-0.961908510890603,0.12245689749792217
1788862330877961700,9.777961669921876,-0.6629711570233107,-0.963980640989542,-0.1277740008674562
1788862330888003600,9.788003662109375,-0.7217541853815317,-0.9085042529612779,-0.45515813540965316
1788862330898044700,9.798044677734374,-0.8275526474148035,-0.8889484886199236,-0.6463717582695185
1788862330908086800,9.808086669921876,-0.8596984287381172,-0.8511416127949952,-0.6364043448761105
1788862330918127900,9.8181279296875,-0.6691787794917822,-0.7038409275501966,-0.5976258475400507
1788862330928169700,9.828169677734374,-0.3303244257777929,-0.5523918904542923,-0.5086033098712563
1788862330938210800,9.8382109375,-0.13754384586215018,-0.41825580720901484,-0.339877340086177
1788862330948252700,9.848252685546875,0.03290682882368565,-0.3187883017629385,-0.15912497855126856
1788862330958293800,9.858293701171876,0.3403770332366228,-0.18362872068881989,-0.05739997650198638
1788862330968334600,9.86833447265625,0.5627285755515098,0.003592471534013748,0.005284443208947777
1788862330978376700,9.878376708984375,0.5640168617963791,0.08764028953015804,0.09748897191472351
1788862330988417500,9.88841748046875,0.41007776145040986,0.0704582685828209,0.17067483883053064
1788862330998459600,9.898459716796875,0.29833354275524615,-0.06759703393280506,0.16568404480591414
1788862331008500500,9.90850048828125,0.12945464743077753,-0.19247779757678507,0.04807677929624915
1788862331018542800,9.91854296875,-0.060977323532104485,-0.3310252675235271,-0.04871069328561425
1788862331028583700,9.928583740234375,-0.35761925993859767,-0.6116460434556007,-0.05299596938937902
1788862331038625800,9.938625732421874,-0.6371054788827896,-0.9179302529543638,-0.07329144618213176
1788862331048666600,9.94866650390625,-0.9426052600055932,-1.0795704291969537,-0.19193959904685615
1788862331058708700,9.958708740234375,-1.2413082205951214,-1.1301555380523205,-0.34432957025468347
1788862331068749600,9.96874951171875,-1.5016864189654588,-0.9999357514679431,-0.5030551742248237
1788862331078791700,9.978791748046875,-1.7396897039204835,-0.9224977070003747,-0.5897982226543128
1788862331088832500,9.98883251953125,-1.6922867322325705,-0.8103349706321954,-0.6539297724336385
1788862331098874600,9.99887451171875,-1.6064783343046902,-0.7150514728724956,-0.667071578079462
1788862331108915500,10.00891552734375,-1.3388666775494813,-0.8085627002626657,-0.7548262877695262
1788862331118956800,10.018956787109374,-0.6934358533918857,-0.9520049565136433,-0.7783119389057159
1788862331128998700,10.02899853515625,0.07522095293998718,-0.9846908360630273,-0.6729463153317571
1788862331139039700,10.039039794921875,0.75435764734447,-0.7636457001715898,-0.283715819337964
1788862331149081600,10.04908154296875,1.187799917769432,-0.22498364438414573,0.33876740608289835
1788862331159122700,10.059122802734375,1.057624554848671,0.41380818015038967,1.0928788235813378
1788862331169164500,10.06916455078125,0.43921325504183767,0.6888222221165895,1.4650101546056569
1788862331179205600,10.07920556640625,-0.3932078751921654,0.505437247055769,1.3121420444920657
1788862331189247500,10.08924755859375,-1.0877847153127194,0.09872399360239505,0.6810314221099019
1788862331199288600,10.09928857421875,-1.2728127814054488,-0.3212234199553728,-0.03767009770274162
1788862331209330700,10.10933056640625,-0.9195850344240665,-0.6812357125103473,-0.7190067863695323
1788862331219371800,10.119371826171875,-0.48826516298055644,-0.8196130865871906,-1.0229431175678967
1788862331229413600,10.12941357421875,-0.059659811192750926,-0.7447849323570728,-0.9708283149272203
1788862331239454700,10.139454833984376,0.04071311866044998,-0.6044827276974916,-0.7605680462919175
1788862331249496600,10.14949658203125,-0.003800561326742172,-0.36660745303630826,-0.47797348606884477
1788862331259537700,10.15953759765625,0.16048165385723112,-0.020366496202349663,-0.16174071400761603
1788862331269579800,10.169579833984375,0.18695348119735716,0.18139526254832744,0.1755379148222506
1788862331279620600,10.17962060546875,-0.0940250221312046,0.06407002885043621,0.39923429587483406
1788862331289661700,10.18966162109375,-0.614758037996292,-0.08720423620045184,0.478893377392739
1788862331299703600,10.19970361328125,-1.1104758550703524,-0.32262451892495153,0.25619667490199205
1788862331309744600,10.20974462890625,-1.3382862473130226,-0.8108873438179492,-0.05040975228846073
1788862331319786800,10.219786865234376,-1.1441992609739302,-1.3676672400981187,-0.2260547807469964
1788862331329828900,10.229828857421875,-1.0432996768981218,-1.5921657313138247,-0.03745265555977821
1788862331339870700,10.23987060546875,-0.04706102638244629,-1.3368147134557367,0.47106911350786684
1788862331349911800,10.249911865234376,0.3973404449522495,-0.729801005975902,1.2875194982804357
1788862331359953700,10.25995361328125,0.5242945077389478,-0.188675190423429,1.551648865877837
1788862331369994800,10.269994873046874,0.10713584811687468,0.29080256272852417,1.4864511481717229
1788862331380036900,10.280036865234376,0.0009609539866447448,0.43781215607225893,1.3175798516318202
1788862331390078000,10.290077880859375,0.20541911221444606,0.3262625831663608,0.7892822457313537
1788862331400119800,10.300119873046874,0.35029987683594227,0.2854071334257722,0.24732845492213962
1788862331410161000,10.310160888671875,0.8206395070254803,0.3039452451571822,0.08023790431916714
1788862331420202800,10.32020263671875,1.0490870281279085,-0.02580897951722145,0.3288654591411352
1788862331430243800,10.330243896484374,0.9367746541559696,-0.41451837424635884,0.4906237088054418
1788862331440284700,10.34028466796875,0.7217921793043613,-0.5341960162892937,0.45837154449820516
1788862331450326800,10.350326904296875,0.6127601421773433,-0.3255608646377921,0.3241971750691533
1788862331460367600,10.36036767578125,0.11817454400360583,-0.21499504207223652,0.08110095088928937
1788862331470409700,10.37040966796875,-0.10629998181462287,-0.195762226074934,-0.2037932645782828
1788862331480450600,10.380450439453124,-0.008130114963650703,-0.20117752912193534,-0.24609248338639736
1788862331490493000,10.390492919921876,0.15282324805855751,-0.5484618575289845,-0.15376345151811838
1788862331500533800,10.40053369140625,0.39024785634279247,-0.9382587552338838,0.03029313919395208
1788862331510575900,10.410575927734374,0.5675976428925991,-1.182434299083054,0.2542752053201198
1788862331520616700,10.42061669921875,0.9186930540204048,-1.2524182281523941,0.5901598955735564
1788862331530658800,10.430658935546875,0.9332979179561137,-1.196799655174464,0.8454635671585797
1788862331540699600,10.44069970703125,1.0446949306488036,-0.9003649317778647,0.8541358261749148
1788862331550741800,10.45074169921875,0.8370178103744983,-0.3498421961963177,0.6579962912201881
1788862331560782600,10.460782470703125,0.9734370361208915,0.058027095424383876,0.5376429418727755
1788862331570824700,10.47082470703125,1.0827157414853572,0.12668372141271828,0.3786462658762932
1788862331580865500,10.480865478515625,1.3211398822009564,-0.04709945869669318,0.32199469658881424
1788862331590908000,10.490907958984375,1.2171686355948448,-0.24141543148607014,0.3173538850456476
1788862331600948700,10.50094873046875,1.12595983992815,-0.545292287582159,0.4101175089389085
1788862331610989800,10.51098974609375,1.1321440815210342,-0.5931823121346533,0.5506640437483787
1788862331621031700,10.52103173828125,0.8420388534069061,-0.5271760545246302,0.49340515621751546
1788862331631072800,10.53107275390625,1.1628653829991817,-0.5449534840818494,0.553388208015263
1788862331641114600,10.541114501953125,1.590337346842885,-0.6734696085534989,0.5505339876279235
1788862331651155700,10.55115576171875,1.4402882396727799,-0.7613229563124477,0.1482622237533331
1788862331661197600,10.561197509765625,1.2447539771348237,-0.7433242852199822,0.33876667543053623
1788862331671238700,10.57123876953125,0.9326081821262836,-0.7564839187834411,0.5088602072417736
1788862331681280500,10.581280517578126,0.9919365694075822,-0.8041504367783665,0.25224253044873474
1788862331691321600,10.591321533203125,1.2232540929883717,-0.8429814680192619,0.04503331994712353
1788862331701363700,10.60136376953125,1.2158546303868294,-0.6680067400377243,0.12549305032342672
1788862331711404800,10.61140478515625,1.2602946606159209,-0.28043424038402737,-0.006500467935204505
1788862331721446700,10.62144677734375,0.8107669323086738,-0.12996632327996194,-0.38653848043084144
1788862331731487700,10.63148779296875,0.5701549261599779,-0.1290446053251624,-0.5237064787179231
1788862331741529600,10.641529541015625,0.7049041728675365,-0.14913774621253834,-0.4043447707563638
1788862331751570700,10.65157080078125,1.036975150051713,-0.06401073641125113,-0.34866672267615795
1788862331761611800,10.66161181640625,1.8805688316851854,0.24111299620708448,-0.2227455100685358
1788862331771653600,10.671653564453125,1.7880431082010269,0.248406075824704,0.23799159451723098
1788862331781694700,10.68169482421875,1.0104419479131699,-0.2006688124148175,0.4109805555090308
1788862331791736800,10.69173681640625,0.7765472673207521,-0.3383526147369295,-0.14399901335090398
1788862331801778000,10.70177783203125,0.9890110373497009,-0.08695873700678348,-0.8935694264188409
1788862331811819800,10.71181982421875,0.7573205888032912,0.13154548223018644,-0.792347770781815
1788862331821860900,10.72186083984375,0.508452795484662,0.23279976149518042,-0.09177052120268345
1788862331831902700,10.73190283203125,1.1826584632277488,0.3431949036689475,0.6041401978701353
1788862331841943800,10.74194384765625,2.216499991428852,0.502718781877309,0.5142930459454655
1788862331851985700,10.751985595703125,1.9792612611055374,0.5876248972032219,0.084831661850214
1788862331862026800,10.76202685546875,1.4856266800463198,0.5469700846012682,-0.12858195624947547
1788862331872068600,10.772068603515624,1.3646388321876526,0.5211631509106606,0.003435819667577743
1788862331882109700,10.782109619140625,1.5071680652469395,0.46954563026763496,0.044939211922883984
1788862331892150500,10.792150634765624,1.5216682997643947,0.2802840913236141,0.27005495825409886
1788862331902193000,10.80219287109375,1.4356991583168506,0.15842939750254154,0.4858548869684338
1788862331912233700,10.812233642578125,1.1462824969887733,0.2184026585586369,0.36998072886168953
1788862331922275800,10.82227587890625,1.4357570259839296,0.503670091252774,-0.10205401480793952
1788862331932316700,10.832316650390625,1.2189034965634344,0.8124846960119902,-0.44453678815215825
1788862331942358800,10.84235888671875,0.8075836260974407,1.0449746243730187,-0.5144552507698535
1788862331952399600,10.852399658203124,0.5258417371809482,1.115999294666946,-0.27604133918732404
1788862331962441700,10.862441650390625,0.7358154439598321,1.0368804575055837,-0.0636500498726964
1788862331972482600,10.872482666015625,0.8349713992387056,0.8084440423190593,0.11004822843223809
1788862331982524700,10.882524658203126,0.9087620271146297,0.6050730948060751,0.37735681058764453
1788862331992565500,10.8925654296875,1.0769091010332106,0.460729213540256,0.5772331939831375
1788862332002607900,10.90260791015625,0.8899357460916042,0.4826435237064957,0.5739085796050727
1788862332012648700,10.912648681640626,0.463170469212532,0.44421208624243735,0.4029937945388257
1788862332022690800,10.92269091796875,0.04527706557512283,0.3152589585930109,0.2614604406490922
1788862332032731600,10.932731689453124,-0.25304186413288116,0.08896072447896003,0.1879414693213999
1788862332042772700,10.942772705078125,0.045017537856101984,-0.12615063744932412,0.3564849952116608
1788862332052814800,10.95281494140625,0.3984159652292728,-0.28129852906316516,0.6156511874437331
1788862332062855700,10.962855712890626,0.37940965146422384,-0.4168918253794312,0.7513260245636105
1788862332072897800,10.972897705078125,0.3606330548018217,-0.3774123401671648,0.6119328975729644
1788862332082938600,10.982938720703125,0.3925608094602823,-0.11634937440305948,0.3285110927455127
1788862332092980700,10.992980712890626,0.39501638591885563,0.16065934851169586,0.07218085459172725
1788862332103021600,11.003021484375,0.1956178491681814,0.3113563981965184,-0.018259148659557103
1788862332113064000,11.01306396484375,-0.07945756759643555,0.3116378454864025,-0.013859598526358603
1788862332123104800,11.023104736328126,0.007403554254770278,0.16712211478501557,-0.034978666661679744
1788862332133147000,11.03314697265625,0.39895840154290196,-0.02140051542520523,-0.08762538422197103
1788862332143187700,11.043187744140624,0.46099370969533915,-0.17804770568609238,0.05572013365626335
1788862332153229800,11.053229736328126,0.010063128852844237,-0.3337248818710446,0.19433540814220904
1788862332163270700,11.063270751953125,-0.4498433701276779,-0.49723406685590743,0.25127251637279985
1788862332173312800,11.073312744140624,-0.5918436108767986,-0.6714104840666055,0.045678778243809934
1788862332183353600,11.083353515625,-0.4312660954296589,-0.8150508932381868,-0.22650603164583444
1788862332193394700,11.093394775390625,-0.4028688529849052,-0.8193073816388845,-0.4598657285787165
1788862332203436500,11.1034365234375,-0.6427472841620445,-0.7626993592321872,-0.5282783166781068
1788862332213477600,11.1134775390625,-0.7182301029086112,-0.7971177616626024,-0.5249494645163416
1788862332223519700,11.123519775390625,-0.29962767421901226,-0.7648340331733227,-0.42403555965423584
1788862332233560800,11.133560791015626,0.3122387339890003,-0.675894936004281,-0.3836699392572045
1788862332243602700,11.143602783203125,0.41269700403809545,-0.6961521266132593,-0.46989714711904523
1788862332253643800,11.153643798828124,-0.012525719574093819,-0.9115630560100078,-0.47003918593823907
1788862332263685600,11.163685546875,-0.4750537992298603,-1.2992588897824286,-0.44233211771473285
1788862332273726700,11.173726806640625,-0.6337544148892164,-1.5110323394596576,-0.4373733262635767
1788862332283768600,11.1837685546875,-0.4753150805145502,-1.4867472085088491,-0.4720267795588821
1788862332293809700,11.1938095703125,-0.4214513883799314,-1.3935147980600595,-0.3575790740586817
1788862332303851800,11.203851806640625,-0.44590369259119034,-1.2174544667989016,-0.1081924444977194
1788862332313892900,11.213892822265626,-0.24283435837328432,-0.9994389078617095,0.16705979013852773
1788862332323934000,11.223933837890625,0.10117547840774059,-0.7838298255443572,0.34915151051841675
1788862332333975600,11.2339755859375,0.12096505150496958,-0.5891805291473865,0.26152174238227305
1788862332344016600,11.2440166015625,-0.1937321815520525,-0.4543167161494493,-0.038391178518906235
1788862332354058500,11.25405859375,-0.9415081124186515,-0.4181552694439888,-0.33104631031155585
1788862332364099600,11.264099609375,-1.643659771707654,-0.49934243731200695,-0.5931242252718657
1788862332374141700,11.2741416015625,-1.884088822504878,-0.6577572217673063,-0.6977927334271371
1788862332384182800,11.284182861328125,-1.7192051342964172,-0.6956564520508051,-0.6381892555315047
1788862332394224600,11.294224609375,-1.320571726924181,-0.5678057326853275,-0.5553378807783127
1788862332404265700,11.304265625,-1.0657599305093288,-0.3887900587499141,-0.41971608901992435
1788862332414307600,11.3143076171875,-1.022194929549098,-0.23532734374403952,-0.3231995423339307
1788862332424348700,11.3243486328125,-1.0500380452424287,-0.2783709511786699,-0.35246954902522265
1788862332434390500,11.334390625,-0.9978484237998724,-0.5612181709885596,-0.44251185819581146
1788862332444431600,11.344431640625,-0.9579425298690796,-0.8833779950112104,-0.6600905600856989
1788862332454473500,11.354473388671876,-1.0780769757688045,-1.0373866534620524,-0.7896305477123707
1788862332464514600,11.3645146484375,-1.2269868497759102,-1.1798369760662317,-0.6955225965380668
1788862332474555400,11.374555419921874,-1.2181167300999163,-1.3674603193491697,-0.5735818318687379
1788862332484597800,11.38459765625,-1.0375526576787233,-1.3371189570993185,-0.6397362657777965
1788862332494638600,11.394638671875,-0.9587433248579501,-1.1300620145499705,-0.7894586982768028
1788862332504680700,11.4046806640625,-1.0009276851147413,-1.0340759214788675,-0.8876974656455219
1788862332514721500,11.414721435546875,-0.8648352071046829,-0.9164730398833751,-0.6801727594539523
1788862332524763600,11.424763671875,-0.44409810447394843,-0.7947159612178802,-0.2771480583202094
1788862332534804500,11.434804443359376,-0.028426468539237974,-0.7308797411233187,0.1163354189429432
1788862332544846600,11.4448466796875,0.34220074153244495,-0.6739876410782337,0.4267310092832893
1788862332554887400,11.454887451171874,0.6658516808956861,-0.7532762818485498,0.5394865969780832
1788862332564929500,11.464929443359376,0.8419424072951078,-0.8074310658842325,0.43251974875256416
1788862332574970400,11.474970458984375,0.9126450060278176,-0.7301859136402606,0.23825404484570026
1788862332585012700,11.4850126953125,0.8498170861929655,-0.43668169073760504,0.07262436057552694
1788862332595053600,11.495053466796875,0.6150450382441282,0.04926818103790283,-0.032197219249606134
1788862332605094700,11.5050947265625,0.2800987978845835,0.5133049116909504,-0.1292600016415119
1788862332615136500,11.515136474609376,-0.132001409304142,0.664673284766078,-0.20921353606134652
1788862332625177600,11.525177490234375,-0.7178840659499168,0.6163461839705705,-0.15255480638071894
1788862332635219500,11.535219482421875,-1.2538409544318914,0.33504970073401924,-0.12017419338822365
1788862332645260500,11.545260498046876,-1.6604086619347334,-0.20996844608187673,-0.3110958475641906
1788862332655302400,11.555302490234375,-2.098178147909045,-0.6503969221323728,-0.4962544081687927
1788862332665343500,11.565343505859374,-2.4522896919876334,-0.897884659269452,-0.5562054573930799
1788862332675385600,11.575385498046876,-2.6491800453096626,-0.8683481836616992,-0.5420112200848758
1788862332685426700,11.5854267578125,-2.870490554139018,-0.7660451625287532,-0.45904330627992745
1788862332695468500,11.595468505859374,-2.8182015639752147,-0.9754922150850296,-0.5727070948608219
1788862332705509600,11.605509521484375,-2.017216605490446,-1.4953104541927575,-0.9382862277626991
1788862332715551500,11.615551513671875,-0.5439005409628153,-2.038662129101157,-1.117518028666824
1788862332725592600,11.625592529296876,0.9341238473862409,-2.0286358251273633,-0.5390288432732224
1788862332735633700,11.635633544921875,2.0090695393919944,-1.2938824574410914,0.5613245539724826
1788862332745675500,11.645675537109375,2.291168571183085,-0.2927998740255833,1.3616767675116657
1788862332755716600,11.655716552734376,1.4745008903980255,0.41510932587683197,1.820094781500101
1788862332765758500,11.665758544921875,0.41343350161910053,0.36944355324506756,1.5104226831287144
1788862332775799600,11.675799560546874,-0.26879239097237584,0.1705348458379507,0.8301064235508442
1788862332785841700,11.685841552734376,-0.4392950881063938,0.4999117616325617,0.452789944973588
1788862332795882800,11.6958828125,-0.4928115742385387,0.9314876536637544,0.5160841671459376
1788862332805924600,11.705924560546874,-0.6124310563534497,0.845619634503126,0.7777053513146936
1788862332815965700,11.715965576171875,-0.42348494003415105,0.4462748639911413,0.7117680672876536
1788862332826007600,11.726007568359375,0.09577449614703655,0.12423311339020729,0.2839727167084813
1788862332836048600,11.736048583984376,0.2810714423090219,0.01921674164533615,-0.04618687389642
1788862332846090500,11.746090576171875,0.13664660476148127,0.10914192724227904,-0.11378975304812192
1788862332856131600,11.756131591796875,-0.041024668827652926,0.11942366728186607,0.02689735927581787
1788862332866172700,11.766172607421876,-0.21779402514100074,0.011961071428656577,0.2069226486451924
1788862332876214500,11.776214599609375,-0.8934791177868843,-0.19006956739127634,0.3149579298198223
1788862332886255600,11.786255615234374,-1.6063824727147817,-0.37818040193021296,0.44236996550709007
1788862332896297700,11.796297607421875,-1.6211328826010227,-0.5170855992734432,0.44515097452774643
1788862332906338800,11.8063388671875,-1.2693781307816505,-0.5941942656561732,0.44030075801759955
1788862332916380700,11.816380615234374,-0.6274620367467403,-0.5729477717489003,0.6406617100596428
1788862332926421800,11.826421875,0.1295224519699812,-0.55541737575531,1.0793082711294293
1788862332936463600,11.836463623046875,0.5858569376826286,-0.5700061653390527,1.493894157654047
1788862332946504700,11.846504638671876,0.6218249076426029,-0.6536033169582486,1.6949691031843424
1788862332956546600,11.856546630859375,0.30161797125339507,-0.8099526933163403,1.3833093381270765
1788862332966587600,11.866587646484374,-0.25159984863102436,-0.9539087443083524,0.6121598381966352
1788862332976629500,11.87662939453125,-0.22366320943534373,-1.2995987892612815,-0.162136143065989
1788862332986670600,11.886670654296875,0.3596721008151769,-1.5726000301003455,-0.47170361201912164
1788862332996711400,11.89671142578125,0.6293751768916845,-1.4223328962653874,-0.45798342196345326
1788862333006753800,11.90675390625,1.0528174468278884,-0.8358300618946551,-0.3010936551183462
1788862333016794600,11.916794677734375,1.068398462319374,-0.2162970645815134,0.08489420569241046
1788862333026836700,11.926836669921874,0.8569219497621059,0.050832653875648975,0.5415104309558868
1788862333036877600,11.936877685546875,1.3084347144067288,-0.15935177304446696,0.7442749370083213
1788862333046919700,11.946919677734375,1.702951918631792,-0.4080553157120943,0.5424196547552943
1788862333056960500,11.95696044921875,1.4674141470074653,-0.570445725800097,0.27887860843986273
1788862333067002600,11.967002685546875,1.1394219635695217,-0.7629819755658507,0.3611503566741943
1788862333077043500,11.97704345703125,1.1258242308497428,-0.9172583450421691,0.4968626031950116
1788862333087085600,11.98708544921875,0.8661071267366409,-0.7396703658223152,0.3495774077802896
1788862333097126400,11.99712646484375,0.5209972197592259,-0.4586714042276144,0.04350158033519983
1788862333107168800,12.007168701171874,0.6106500181555747,-0.4036342843994498,-0.10256167206913232
1788862333117209600,12.017209716796875,0.8894073383033275,-0.3882213189512491,-0.030682138511538504
1788862333127250700,12.027250732421875,1.0906225690871476,-0.32960707128867506,0.15580051030367612
1788862333137292500,12.03729248046875,1.0412684633314608,-0.25148046003505586,0.27715397660434243
1788862333147333600,12.047333740234375,1.1805553534686564,-0.2014855721578002,0.4994166715919971
1788862333157375500,12.05737548828125,1.3965022894382475,-0.35398506815470754,0.7055760807797312
1788862333167416600,12.06741650390625,1.5626222414433955,-0.49259113642089064,0.5254711503028869
1788862333177458400,12.07745849609375,1.792548602926731,-0.49529959166198967,0.11361731909066437
1788862333187499500,12.08749951171875,1.3933692521095276,-0.3949546457942575,0.052175885178148744
1788862333197541600,12.097541748046876,0.9144307204008102,-0.5020418324638157,0.07369593532979488
1788862333207582700,12.107582763671875,1.2934183470606804,-0.7383939161457121,0.26752923916876314
1788862333217624600,12.11762451171875,1.5880834304362534,-0.9100398650307208,0.11209200921952724
1788862333227665700,12.127665771484375,1.6164403408706187,-0.7186744126100093,0.014125848247110842
1788862333237707500,12.13770751953125,1.559152519506216,-0.4896386432908475,0.12850012318491935
1788862333247748600,12.14774853515625,1.3505764045655726,-0.31834384593106807,0.2927636336684227
1788862333257789700,12.157789794921875,1.2056868721157312,-0.18751717949472366,0.22782062137573955
1788862333267831600,12.16783154296875,1.4369897826492786,0.3154342786272988,-0.09255904123187064
1788862333277872600,12.17787255859375,1.2364940983116626,0.6178199097849428,-0.36045389884263274
1788862333287914500,12.18791455078125,1.0947931327700615,0.3681861735951155,-0.4757426582768559
1788862333297955600,12.19795556640625,1.2217799287825821,0.37347112826071677,-0.26913608984351156
1788862333307997700,12.207997802734376,1.9615338812351226,0.2216138208911754,-0.15759791511446236
1788862333318038800,12.218038818359375,1.2863678440272808,0.1510842954367399,-0.22711831832528112
1788862333328080600,12.22808056640625,0.6468763467907905,-0.0764436996679753,-0.2532142980903387
1788862333338121500,12.23812158203125,0.9288917919516563,-0.12187641246253623,-0.3775210612386465
1788862333348163300,12.248163330078125,1.2648410718739032,0.2503756040656939,-0.24281156201958654
1788862333358204400,12.258204345703126,1.3599363535851239,0.4030590783273801,-0.14074702581763265
1788862333368246300,12.268246337890625,1.141087266433239,0.21408771796897053,-0.23034137202501295
1788862333378287400,12.278287353515625,0.7838789253830909,0.035807445636019106,-0.33767800341099496
1788862333388328200,12.288328125,1.3237351593911646,0.20078794528245925,-0.2827335303023457
1788862333398370300,12.298370361328125,2.0149533367335795,0.39386297810003157,-0.24518384410887956
1788862333408411400,12.308411376953124,2.283286293500662,0.5097342866625637,-0.4732385665014386
1788862333418453200,12.318453369140625,2.3054840967833994,0.6138344203453511,-0.4233329643428325
1788862333428494300,12.328494384765625,2.114547683429718,0.7679656822625547,-0.24807605841904878
1788862333438536400,12.338536376953124,1.8463994355797766,0.8431744333080947,-0.32792993185669184
1788862333448577300,12.348577392578125,1.5717583185791968,0.8205674647025764,-0.29062545259594913
1788862333458619400,12.358619384765625,1.4460381815016268,0.7423812322162091,0.10004910472631454
1788862333468660500,12.368660400390626,1.1602607534587384,0.6760597711771726,0.46958208982050414
1788862333478702300,12.378702392578125,0.9086006990730762,0.42314255633726716,0.6210521697044372
1788862333488743400,12.388743408203124,0.9227344383656978,0.16106559122502803,0.46327816737070676
1788862333498785300,12.398785400390626,0.6011737492799759,-0.00594429535716772,0.1839591216869652
1788862333508826400,12.408826416015625,-0.07626958521008491,-0.016217852090299127,-0.00543020835518837
1788862333518867200,12.4188671875,-0.2616623929619789,0.018679858289659023,-0.07461611891463399
1788862333528909300,12.428909423828125,0.09641805474758147,-0.044211189909279344,-0.057804977106302974
1788862333538950100,12.4389501953125,0.3800298291891813,0.022577157989144322,-0.09040040189325808
1788862333548992500,12.448992431640624,0.09007482320070266,0.24543548078238964,-0.058414487306773656
1788862333559033300,12.459033447265625,-0.14568740482926368,0.404103947737813,0.17018939340114592
1788862333569075500,12.469075439453125,0.11737082640528679,0.4765957679748535,0.4961236213959753
1788862333579116300,12.4791162109375,0.2679202843129635,0.5228758731126785,0.7506563086085021
1788862333589158400,12.489158447265625,0.2855599858999252,0.438695953169465,0.9173837249875069
1788862333599199200,12.49919921875,0.4510276114761829,0.1776058071374893,0.9489294945910572
1788862333609241300,12.509241455078126,0.502884055441618,-0.13318126673847436,0.981602806919813
1788862333619282200,12.5192822265625,0.25738953794836994,-0.3885319923356175,1.0858191143281757
1788862333629324300,12.52932421875,-0.0006447276443243027,-0.5496195031315088,1.162454464110732
1788862333639365000,12.539365234375,0.04441548030972481,-0.6042836979940533,1.1735457669675349
