time,seconds_elapsed,z,y,x
1789635441456067800,0.04906787109375,-0.5878243446350098,-0.5991526246070862,1.2162749767303467
1789635441466108000,0.05910791015625,-0.5213760733604431,-0.5543183088302612,1.2786935567855835
1789635441476148000,0.06914794921875,-0.46684300899505615,-0.5763192772865295,1.2579963207244873
1789635441486188000,0.07918798828125,-0.46896713972091675,-0.6432413458824158,1.1725003719329834
1789635441496226800,0.089226806640625,-0.467053085565567,-0.7314914464950562,1.0364437103271484
1789635441506267000,0.099266845703125,-0.4530608355998993,-0.7621415257453918,0.8319747447967529
1789635441516307000,0.109306884765625,-0.40112364292144775,-0.5692510604858398,0.49578094482421875
1789635441526347000,0.119346923828125,-0.204060897231102,-0.05067528039216995,0.07321690768003464
1789635441536387000,0.129386962890625,0.08447066694498062,0.45909518003463745,-0.342702180147171
1789635441546427100,0.13942724609375,0.30246424674987793,0.6184152960777283,-0.6835647225379944
1789635441556467000,0.149467041015625,0.42977476119995117,0.4132942259311676,-0.7988227605819702
1789635441566506800,0.1595068359375,0.5253816843032837,0.03239748626947403,-0.6538434624671936
1789635441576546800,0.169546875,0.7754873037338257,-0.3960301876068115,-0.3699932396411896
1789635441586587000,0.1795869140625,1.1640942096710205,-1.1477023363113403,-0.07601702958345413
1789635441596626000,0.1896259765625,1.4352284669876099,-2.181558609008789,0.15061014890670776
1789635441606665700,0.199665771484375,1.4924267530441284,-3.4270453453063965,0.40987715125083923
1789635441616705800,0.209705810546875,1.4467650651931763,-4.692234992980957,0.658496618270874
1789635441626745900,0.219745849609375,1.5653204917907715,-5.628650665283203,0.8366261720657349
1789635441636786000,0.229785888671875,1.8849890232086182,-6.036116600036621,0.9206441044807434
1789635441646825700,0.23982568359375,2.5144290924072266,-5.968394756317139,1.0553752183914185
1789635441656865800,0.24986572265625,3.1678171157836914,-5.661674499511719,1.252117395401001
1789635441666905900,0.25990576171875,3.5056848526000977,-5.58212423324585,1.3420536518096924
1789635441676946000,0.26994580078125,3.617380380630493,-5.73599100112915,1.408240795135498
1789635441686984700,0.279984619140625,3.6808125972747803,-5.942431926727295,1.6036208868026733
1789635441697024800,0.290024658203125,3.7393932342529297,-6.095813751220703,1.9588743448257446
1789635441707064800,0.30006494140625,3.768582344055176,-6.28858757019043,2.356607437133789
1789635441717105000,0.31010498046875,3.6762192249298096,-6.682045936584473,2.611448049545288
1789635441727145000,0.32014501953125,3.4391062259674072,-7.059300899505615,2.6689562797546387
1789635441737185000,0.33018505859375,3.359877347946167,-7.04985237121582,2.6743178367614746
1789635441747224800,0.340224853515625,3.5910074710845947,-6.822169780731201,2.834988832473755
1789635441757265000,0.350264892578125,3.874237537384033,-6.560269832611084,3.095400810241699
1789635441767305000,0.360304931640625,3.9511115550994873,-6.489553451538086,3.3088345527648926
1789635441777345000,0.370344970703125,3.8057820796966553,-6.622640609741211,3.465214967727661
1789635441787383800,0.3803837890625,3.5639240741729736,-6.630928993225098,3.594661235809326
1789635441797423900,0.390423828125,3.3348562717437744,-6.241451263427734,3.7748730182647705
1789635441807464000,0.4004638671875,3.1045875549316406,-5.620969772338867,4.044957637786865
1789635441817504000,0.41050390625,2.9103291034698486,-5.053288459777832,4.309837341308594
1789635441827544000,0.4205439453125,2.7457468509674072,-4.415499210357666,4.463310718536377
1789635441837584000,0.430583984375,2.4174246788024902,-3.945474863052368,4.533788681030273
1789635441847624000,0.4406240234375,1.9312032461166382,-3.705207586288452,4.492711067199707
1789635441857663700,0.450663818359375,1.6042232513427734,-3.5343847274780273,4.259801864624023
1789635441867703800,0.460703857421875,1.537827730178833,-3.087827444076538,3.8389065265655518
1789635441877743000,0.4707431640625,1.5653077363967896,-2.2405283451080322,3.3321046829223633
1789635441887783000,0.480782958984375,1.663957118988037,-1.095094919204712,2.9056975841522217
1789635441897823000,0.490822998046875,1.6418824195861816,-0.06906066834926605,2.6133267879486084
1789635441907862800,0.50086279296875,1.59934663772583,0.36728549003601074,2.401240110397339
1789635441917902800,0.51090283203125,1.644266963005066,-0.028789915144443512,2.324051856994629
1789635441927943000,0.52094287109375,1.7746119499206543,-1.088448405265808,2.498095750808716
1789635441937982700,0.530982666015625,1.801697850227356,-2.877546548843384,1.7868523597717285
1789635441948022800,0.541022705078125,1.5850528478622437,-3.093146324157715,-0.26248836517333984
1789635441958062800,0.551062744140625,1.6505918502807617,-1.2591826915740967,-2.2693984508514404
1789635441968103000,0.56110302734375,2.047316312789917,1.5934810638427734,-2.249384880065918
1789635441978141700,0.5711416015625,2.305271625518799,2.1690609455108643,-1.6553722620010376
1789635441988181800,0.581181640625,2.6587631702423096,1.1061407327651978,-1.319637417793274
1789635441998221800,0.591221923828125,3.430783271789551,-0.2094903439283371,-0.8045182228088379
1789635442008262000,0.601261962890625,4.023961544036865,-1.688180923461914,-0.35713300108909607
1789635442018302000,0.611302001953125,4.275437355041504,-1.8419122695922852,0.04649350047111511
1789635442028342000,0.621342041015625,4.233743190765381,-1.085425615310669,0.21224118769168854
1789635442038381800,0.6313818359375,3.7717230319976807,-0.23945386707782745,0.40148961544036865
1789635442048422000,0.641421875,3.2265429496765137,0.8203316330909729,0.8405066132545471
1789635442058462000,0.6514619140625,2.7264151573181152,1.2173843383789062,0.2812314033508301
1789635442068502000,0.661501953125,2.9838733673095703,1.0104314088821411,-0.48301488161087036
1789635442078540800,0.671540771484375,4.537018775939941,0.5569046139717102,-0.5860156416893005
1789635442088580900,0.681580810546875,3.82132625579834,-2.2408716678619385,0.9302079677581787
1789635442098621000,0.691620849609375,2.7795183658599854,-2.8409407138824463,1.3749215602874756
1789635442108661000,0.701660888671875,2.793806314468384,-1.9890838861465454,0.905518651008606
1789635442118701000,0.711701171875,2.5842812061309814,-1.4999992847442627,0.10494478046894073
1789635442128740900,0.721740966796875,2.2757935523986816,-1.193560004234314,-0.33490797877311707
1789635442138781000,0.731781005859375,1.3122498989105225,-1.3851062059402466,-0.5517062544822693
1789635442148821000,0.741821044921875,0.30779320001602173,-1.7945424318313599,-0.5681079030036926
1789635442158860800,0.75186083984375,-0.5898721218109131,-1.162939429283142,-0.11478009819984436
1789635442168899800,0.76189990234375,-0.3906303644180298,-0.7309315204620361,0.09548605978488922
1789635442178940000,0.77193994140625,0.2654936611652374,-0.3632839620113373,0.1746326982975006
1789635442188980000,0.78197998046875,0.5488726496696472,-0.45037996768951416,0.07133401185274124
1789635442199020000,0.79202001953125,0.32818934321403503,-0.7008275985717773,0.1014912873506546
1789635442209059800,0.802059814453125,0.3175942301750183,-0.6849924921989441,0.23371349275112152
1789635442219099600,0.812099609375,0.8032698631286621,-0.532630443572998,0.03486073017120361
1789635442229139500,0.822139404296875,1.3139853477478027,-0.3966825008392334,-0.2902427911758423
1789635442239179300,0.83217919921875,1.4051920175552368,-0.5924867391586304,-0.4731862246990204
1789635442249219300,0.84221923828125,0.9633229970932007,-1.0306670665740967,-0.017182474955916405
1789635442259259400,0.85225927734375,0.48224806785583496,-1.6888595819473267,0.6999982595443726
1789635442269298400,0.86229833984375,0.48932570219039917,-1.9310951232910156,1.0007071495056152
1789635442279338200,0.872338134765625,0.6934114694595337,-1.622107982635498,1.0616264343261719
1789635442289378300,0.88237841796875,0.7678287029266357,-1.067947506904602,0.8040793538093567
1789635442299418400,0.89241845703125,0.6971458792686462,-0.5734885334968567,0.18330828845500946
1789635442309458400,0.90245849609375,0.5905802845954895,-0.10337299108505249,-0.5062930583953857
1789635442319498500,0.91249853515625,0.42401885986328125,0.17236603796482086,-0.7981446981430054
1789635442329538600,0.92253857421875,0.22166629135608673,0.2753629982471466,-0.5780211091041565
1789635442339578400,0.932578369140625,0.10061970353126526,0.3062182366847992,-0.32632163166999817
1789635442349618400,0.942618408203125,0.2566322088241577,0.5013155341148376,-0.48949405550956726
1789635442359658500,0.952658447265625,0.3419477045536041,0.7013226747512817,-0.6619709134101868
1789635442369697500,0.962697509765625,0.2561646103858948,0.8492215871810913,-0.4289368987083435
1789635442379737300,0.9727373046875,0.12198302149772644,1.15481436252594,-0.5576333999633789
1789635442389777400,0.98277734375,-0.08113094419240952,0.6079172492027283,-0.12545832991600037
1789635442399817500,0.9928173828125,-0.14609813690185547,-0.12846530973911285,0.021938767284154892
1789635442409857500,1.002857421875,-0.10541301965713501,-0.4916480481624603,0.0721723735332489
1789635442419897600,1.012897705078125,-0.11501847952604294,-1.049774408340454,0.22900152206420898
1789635442429937400,1.0229375,-0.07753155380487442,-1.2977077960968018,0.30555489659309387
1789635442439977500,1.0329775390625,0.3691837787628174,-1.107419729232788,0.25026586651802063
1789635442450017500,1.043017578125,0.7035683989524841,-0.3913714587688446,0.08871478587388992
1789635442460056600,1.053056640625,0.7110713124275208,0.04310006648302078,-0.043851904571056366
1789635442470096600,1.0630966796875,0.6057174205780029,-0.18197140097618103,-0.07991616427898407
1789635442480136400,1.073136474609375,0.4330108165740967,-0.4611571431159973,-0.049144670367240906
1789635442490176500,1.083176513671875,0.25268474221229553,-0.29611891508102417,-0.07477466017007828
1789635442500216600,1.093216552734375,0.14698737859725952,0.0446428582072258,-0.14194601774215698
1789635442510256600,1.103256591796875,0.1836753636598587,0.33248263597488403,-0.18322262167930603
1789635442520296400,1.11329638671875,0.14246973395347595,0.4416917860507965,-0.14720553159713745
1789635442530336300,1.123336181640625,-0.1624893695116043,0.5186831951141357,-0.08149416744709015
1789635442540376300,1.133376220703125,-0.09464758634567261,0.6934363842010498,-0.25261160731315613
1789635442550415600,1.14341552734375,-0.08804081380367279,0.6215299963951111,-0.28354793787002563
1789635442560455700,1.15345556640625,-0.10896463692188263,0.5318166017532349,-0.29707732796669006
1789635442570495500,1.16349560546875,-0.09009214490652084,0.5809417963027954,-0.34867605566978455
1789635442580535300,1.173535400390625,-0.0034339253325015306,0.43469497561454773,-0.306361585855484
1789635442590575400,1.183575439453125,0.12572059035301208,0.3286556303501129,-0.25288692116737366
1789635442600615400,1.193615478515625,0.1594489961862564,0.26871320605278015,-0.17574875056743622
1789635442610655500,1.203655517578125,0.11204180866479874,0.2341107428073883,-0.09765128046274185
1789635442620695600,1.213695556640625,0.1621399223804474,0.3285268545150757,-0.049319375306367874
1789635442630735400,1.2237353515625,0.4488896429538727,0.21060048043727875,0.025650477036833763
1789635442640774400,1.2337744140625,0.6308690905570984,0.119746632874012,0.11475888639688492
1789635442650814500,1.243814453125,0.5759616494178772,0.06037624925374985,0.16174156963825226
1789635442660854500,1.2538544921875,0.36216747760772705,0.09112870693206787,0.07138166576623917
1789635442670894300,1.263894287109375,0.2331000417470932,0.23744811117649078,-0.09842707961797714
1789635442680934400,1.273934326171875,-0.20039424300193787,0.5250113010406494,-0.22155770659446716
1789635442690974500,1.283974365234375,-0.45811179280281067,0.49787500500679016,-0.2771453261375427
1789635442701014500,1.2940146484375,-0.6506615877151489,-0.20444342494010925,-0.3574337065219879
1789635442711054600,1.3040546875,-0.7044259905815125,-0.006443257909268141,-0.343754380941391
1789635442721094400,1.314094482421875,-0.29163578152656555,0.5046902298927307,-0.06735596060752869
1789635442731134500,1.324134521484375,-0.1571941077709198,0.5666419863700867,-0.03187599778175354
1789635442741173500,1.334173583984375,-0.03143706172704697,0.31870073080062866,-0.14850567281246185
1789635442751213600,1.344213623046875,0.12146193534135818,0.003336395137012005,-0.262240469455719
1789635442761253600,1.354253662109375,0.2887926697731018,-0.3015801012516022,-0.21944639086723328
1789635442771293400,1.36429345703125,0.4801349341869354,-0.5026999115943909,-0.18324097990989685
1789635442781333500,1.37433349609375,0.5766023397445679,-0.31010445952415466,-0.207209050655365
1789635442791373600,1.38437353515625,0.4875880479812622,-0.16732147336006165,-0.28679972887039185
1789635442801413600,1.39441357421875,0.24082158505916595,-0.008720023557543755,-0.3435988426208496
1789635442811453700,1.40445361328125,0.15921780467033386,-0.4050857424736023,-0.2714708745479584
1789635442821493500,1.414493408203125,0.05456807091832161,-1.5433763265609741,-0.24304963648319244
1789635442831532500,1.424532470703125,0.20198309421539307,-1.629091739654541,-0.11712978035211563
1789635442841572600,1.434572509765625,0.46309107542037964,-1.3147928714752197,-0.23381994664669037
1789635442851612700,1.44461279296875,0.8887789845466614,-1.0869823694229126,-0.5297410488128662
1789635442861652500,1.454652587890625,0.8819687962532043,-0.5963448882102966,-0.7593196630477905
1789635442871692500,1.464692626953125,0.9282470941543579,-0.48795264959335327,-0.7015916705131531
1789635442881732400,1.474732421875,0.5883363485336304,-0.1870853155851364,-0.42139026522636414
1789635442891772400,1.4847724609375,0.3859689235687256,-0.18882834911346436,-0.30905091762542725
1789635442901812500,1.4948125,0.30386772751808167,-0.3788129985332489,-0.4043707251548767
1789635442911852300,1.504852294921875,-0.0715612918138504,-0.5251704454421997,-0.4595692455768585
1789635442921891300,1.514891357421875,-0.14399310946464539,-0.4907855689525604,-0.6399123072624207
1789635442931931400,1.524931396484375,-0.030210092663764954,-0.4821092486381531,-0.6518099904060364
1789635442941971500,1.534971435546875,0.06745320558547974,-0.8271963596343994,-0.4501307010650635
1789635442952011500,1.545011474609375,0.17472265660762787,-1.1363475322723389,-0.2366652637720108
1789635442962051300,1.55505126953125,0.3799807131290436,-1.3184746503829956,-0.17468397319316864
1789635442972091400,1.56509130859375,0.44892409443855286,-1.390224814414978,-0.37108784914016724
1789635442982131500,1.57513134765625,0.3033602833747864,-1.165035367012024,-0.6398689150810242
1789635442992171500,1.585171630859375,0.17777733504772186,-1.0914764404296875,-0.8523169755935669
1789635443002211600,1.595211669921875,-0.17833596467971802,-1.275054931640625,-0.7056626081466675
1789635443012251400,1.60525146484375,-0.05228482931852341,-0.8674958944320679,-0.6919673085212708
1789635443022290400,1.61529052734375,0.03753660246729851,-0.9860987663269043,-0.7001389265060425
1789635443032330500,1.62533056640625,0.23109541833400726,-0.9449923634529114,-0.7043097019195557
1789635443042370600,1.63537060546875,0.3804238438606262,-0.7335389852523804,-0.770222544670105
1789635443052410400,1.645410400390625,0.48480990529060364,-0.8624327778816223,-0.9128507971763611
1789635443062450400,1.655450439453125,0.5546016097068787,-1.162911295890808,-0.9547556042671204
1789635443072490500,1.665490478515625,0.733823835849762,-0.9236690998077393,-1.0137683153152466
1789635443082530600,1.675530517578125,0.8039193749427795,-0.5834252238273621,-1.259430170059204
1789635443092570600,1.685570556640625,0.8790522217750549,-1.3609780073165894,-2.0601699352264404
1789635443102610700,1.695610595703125,0.7049042582511902,-1.0670245885849,-0.9071978330612183
1789635443112649500,1.7056494140625,0.8488129377365112,-0.4516763985157013,-0.7263936996459961
1789635443122689500,1.715689453125,0.8044397234916687,-0.11447146534919739,-0.8265866637229919
1789635443132729600,1.7257294921875,0.9386638402938843,-0.4654196500778198,-0.8352975845336914
1789635443142769700,1.735769775390625,1.0724761486053467,-1.248713731765747,-0.5090379118919373
1789635443152809500,1.7458095703125,1.0923925638198853,-1.4636260271072388,-0.24632082879543304
1789635443162849500,1.755849609375,0.9713537693023682,-1.3920499086380005,-0.3891306221485138
1789635443172889300,1.765889404296875,0.8316347599029541,-1.5379924774169922,-0.3708999454975128
1789635443182929400,1.775929443359375,0.6999894380569458,-1.1741104125976562,-0.5427074432373047
1789635443192969500,1.785969482421875,0.7579677700996399,-0.402119904756546,-0.4737691283226013
1789635443203009300,1.79600927734375,0.659038782119751,-0.2820115387439728,-0.42527809739112854
1789635443213048600,1.806048583984375,0.4188283383846283,-0.5525426268577576,-0.29456189274787903
1789635443223088400,1.81608837890625,0.23453310132026672,-0.6727304458618164,-0.13909032940864563
1789635443233128400,1.82612841796875,0.1739800125360489,-0.7350822687149048,0.004434076137840748
1789635443243168500,1.83616845703125,0.11018121242523193,-0.7856309413909912,0.08623091131448746
1789635443253208600,1.84620849609375,0.044357459992170334,-0.8699588775634766,0.08834865689277649
1789635443263248400,1.856248291015625,-0.011561838909983635,-0.8072889447212219,-0.012809748761355877
1789635443273288400,1.866288330078125,0.022253649309277534,-0.739434003829956,-0.2114432156085968
1789635443283328500,1.87632861328125,0.16014954447746277,-0.6449133157730103,-0.3677937686443329
1789635443293368600,1.88636865234375,0.3641551434993744,-0.5999830961227417,-0.42606186866760254
1789635443303408600,1.89640869140625,0.48371458053588867,-0.574765145778656,-0.41725558042526245
1789635443313447400,1.906447509765625,0.43559154868125916,-0.4428824782371521,-0.33919966220855713
1789635443323487500,1.916487548828125,0.3676980137825012,-0.29572540521621704,-0.21865428984165192
1789635443333527600,1.926527587890625,0.3473501205444336,-0.35597944259643555,-0.09019991755485535
1789635443343567600,1.936567626953125,0.34102556109428406,-0.659698486328125,-0.03168289735913277
1789635443353607400,1.946607421875,0.33618444204330444,-0.9875568151473999,-0.02069070003926754
1789635443363647500,1.9566474609375,0.3008778989315033,-1.1141455173492432,-0.04079781100153923
1789635443373687600,1.9666875,0.2420923411846161,-1.1240977048873901,-0.07434431463479996
1789635443383727600,1.9767275390625,0.1778045892715454,-1.0167205333709717,-0.13018684089183807
1789635443393767700,1.986767578125,0.16447813808918,-0.8559587597846985,-0.1668950468301773
1789635443403807500,1.996807373046875,0.220883309841156,-0.8432229161262512,-0.15769699215888977
1789635443413846500,2.006846435546875,0.3379633128643036,-0.7773194909095764,-0.11393192410469055
1789635443423886600,2.016886474609375,0.41967055201530457,-0.6817069053649902,-0.05303825065493584
1789635443433926700,2.0269267578125,0.4912478029727936,-0.5991158485412598,-0.028131306171417236
1789635443443966700,2.036966796875,0.5004363059997559,-0.5414354801177979,-0.010486679151654243
1789635443454006500,2.047006591796875,0.5082798600196838,-0.25181353092193604,-0.17972177267074585
1789635443464046600,2.057046630859375,0.6306055188179016,-0.17671766877174377,-0.45726609230041504
1789635443474086400,2.06708642578125,0.4716651141643524,-0.48270633816719055,-0.461082398891449
1789635443484126500,2.07712646484375,0.4407886862754822,-0.5955929160118103,-0.2781497836112976
1789635443494166500,2.08716650390625,0.4837031364440918,-0.4300934076309204,-0.16384825110435486
1789635443504205600,2.09720556640625,0.4627087116241455,-0.22460967302322388,-0.11451499164104462
1789635443514245600,2.10724560546875,0.3710043430328369,-0.07057056576013565,-0.031933028250932693
1789635443524285400,2.117285400390625,0.23107752203941345,-0.1758575737476349,0.12040574848651886
1789635443534325500,2.127325439453125,0.16568121314048767,-0.19321127235889435,0.26418182253837585
1789635443544365300,2.137365234375,0.21064308285713196,-0.18851464986801147,0.36872392892837524
1789635443554405400,2.1474052734375,0.12585388123989105,-0.25824737548828125,0.3577660620212555
1789635443564445400,2.157445556640625,0.03492799401283264,-0.15516455471515656,0.3870012164115906
1789635443574485500,2.167485595703125,-0.12977653741836548,-0.07625722140073776,0.43837040662765503
1789635443584525600,2.177525634765625,-0.34786489605903625,0.23944030702114105,0.5832278728485107
1789635443594565600,2.187565673828125,-0.691615104675293,0.7446547746658325,0.8190438747406006
1789635443604604400,2.1976044921875,-1.1371181011199951,1.3329821825027466,1.0739209651947021
1789635443614644500,2.20764453125,-1.1376464366912842,1.4242953062057495,1.0117720365524292
1789635443624684500,2.2176845703125,-0.7639239430427551,0.9555038809776306,0.6417297124862671
1789635443634724600,2.227724609375,-0.35827362537384033,0.20236541330814362,0.21214666962623596
1789635443644764400,2.237764404296875,-0.07794607430696487,-0.3217430114746094,-0.038308244198560715
1789635443654804500,2.247804443359375,-0.11245105415582657,-0.43488287925720215,-0.055459801107645035
1789635443664844500,2.257844482421875,-0.2568388879299164,-0.4127858281135559,-0.042338717728853226
1789635443674884600,2.267884521484375,-0.25884371995925903,-0.38284552097320557,0.03602772578597069
1789635443684924700,2.277924560546875,-0.1624249815940857,-0.2639520466327667,0.18597069382667542
1789635443694964500,2.287964599609375,-0.13907279074192047,-0.20095603168010712,0.26206544041633606
1789635443705003500,2.29800341796875,-0.14233355224132538,-0.18215259909629822,0.21121755242347717
1789635443715043600,2.308043701171875,-0.14890596270561218,-0.20153002440929413,0.07066229730844498
1789635443725083600,2.318083740234375,-0.15506161749362946,-0.3476058840751648,-0.057451482862234116
1789635443735123700,2.328123779296875,-0.16237491369247437,-0.4808345139026642,-0.1367628127336502
1789635443745163500,2.33816357421875,-0.14341750741004944,-0.5906711220741272,-0.13621902465820312
1789635443755203600,2.34820361328125,-0.11343563348054886,-0.5804679989814758,-0.06656137853860855
1789635443765243600,2.35824365234375,-0.13034892082214355,-0.4494965970516205,-0.018670015037059784
1789635443775283500,2.368283447265625,-0.17744745314121246,-0.4495575726032257,0.05258312448859215
1789635443785323500,2.378323486328125,-0.20034106075763702,-0.3853664994239807,0.06615369766950607
1789635443795363300,2.38836328125,-0.13490372896194458,-0.31871291995048523,0.015263082459568977
1789635443805402600,2.398402587890625,-0.06726982444524765,-0.237919881939888,-0.07859805971384048
1789635443815442700,2.408442626953125,-0.016624754294753075,-0.18051758408546448,-0.23361986875534058
1789635443825482500,2.418482421875,-0.030152566730976105,-0.256098210811615,-0.36104974150657654
1789635443835522300,2.428522216796875,-0.0785139799118042,-0.42638099193573,-0.393108606338501
1789635443845562400,2.438562255859375,-0.07723461091518402,-0.5049947500228882,-0.2474616914987564
1789635443855602400,2.4486025390625,-0.014476423151791096,-0.4220058023929596,-0.1301393210887909
1789635443865642500,2.458642578125,-0.024015333503484726,-0.22989016771316528,-0.137864887714386
1789635443875682600,2.4686826171875,-0.007249095477163792,-0.1016126498579979,-0.2261933833360672
1789635443885722600,2.47872265625,0.00597570464015007,-0.08680040389299393,-0.3529418408870697
1789635443895762400,2.488762451171875,0.007496902719140053,-0.16877463459968567,-0.4519648253917694
1789635443905801500,2.498801513671875,0.018140513449907303,-0.3072282671928406,-0.46616610884666443
1789635443915841500,2.508841552734375,0.003388198558241129,-0.37764301896095276,-0.4144805669784546
1789635443925881600,2.518881591796875,0.007591594010591507,-0.332016259431839,-0.3178311884403229
1789635443935921400,2.52892138671875,0.007454707287251949,-0.20293179154396057,-0.2631314694881439
1789635443945961500,2.53896142578125,0.023676959797739983,-0.15037579834461212,-0.23681281507015228
1789635443956001500,2.54900146484375,0.02823975309729576,-0.1580318659543991,-0.20617607235908508
1789635443966041600,2.55904150390625,0.0218425951898098,-0.19159448146820068,-0.15648572146892548
1789635443976081700,2.56908154296875,-0.011117486283183098,-0.20780541002750397,-0.12277570366859436
1789635443986121500,2.57912158203125,-0.04389633238315582,-0.17960642278194427,-0.10370191931724548
1789635443996161500,2.58916162109375,-0.06909622251987457,-0.23700019717216492,-0.08577458560466766
1789635444006200600,2.59920068359375,-0.10132750123739243,-0.3662930130958557,-0.0805777981877327
1789635444016240600,2.60924072265625,-0.12696602940559387,-0.4321537911891937,-0.055115580558776855
1789635444026280400,2.619280517578125,-0.14871327579021454,-0.3878258168697357,-0.00933758169412613
1789635444036320500,2.629320556640625,-0.18957282602787018,-0.295003741979599,0.03752579912543297
1789635444046360600,2.639360595703125,-0.21464437246322632,-0.22816671431064606,0.06096407026052475
1789635444056400600,2.649400634765625,-0.23282791674137115,-0.20851126313209534,0.05141371488571167
1789635444066440700,2.659440673828125,-0.22040776908397675,-0.19878484308719635,0.05671016499400139
1789635444076480500,2.66948046875,-0.1600693315267563,-0.17154976725578308,0.10836297273635864
1789635444086520300,2.679520263671875,-0.11143478751182556,-0.12597006559371948,0.23193655908107758
1789635444096560400,2.689560302734375,-0.04420967772603035,-0.10783819109201431,0.39305806159973145
1789635444106599700,2.699599609375,-0.06173776835203171,-0.12350399047136307,0.5106515884399414
1789635444116639500,2.709639404296875,-0.13418586552143097,-0.10084794461727142,0.5311717391014099
1789635444126679300,2.71967919921875,-0.17897655069828033,-0.028428055346012115,0.4603438973426819
1789635444136719400,2.72971923828125,-0.17262811958789825,-0.043164126574993134,0.3697996139526367
1789635444146759400,2.739759521484375,-0.16220451891422272,-0.10988378524780273,0.35939931869506836
1789635444156799500,2.749799560546875,-0.1368190050125122,-0.1659979373216629,0.43378567695617676
1789635444166839600,2.759839599609375,-0.12691305577754974,-0.1479460746049881,0.5089484453201294
1789635444176879400,2.76987939453125,-0.12386560440063477,-0.06647225469350815,0.5288369655609131
1789635444186918400,2.77991845703125,-0.1075262799859047,-0.04735046252608299,0.49805331230163574
1789635444196958500,2.78995849609375,-0.08605853468179703,-0.1809934824705124,0.460448682308197
1789635444206998500,2.79999853515625,-0.11589604616165161,-0.3278946578502655,0.44318345189094543
1789635444217038600,2.81003857421875,-0.16149094700813293,-0.37304481863975525,0.4452287554740906
1789635444227078700,2.82007861328125,-0.21103782951831818,-0.38496020436286926,0.45548707246780396
1789635444237118700,2.83011865234375,-0.2956256866455078,-0.3561250865459442,0.4878431558609009
1789635444247158800,2.84015869140625,-0.3849686086177826,-0.2887023985385895,0.539183497428894
1789635444257198800,2.85019873046875,-0.4337739646434784,-0.13717706501483917,0.6114577054977417
1789635444267238700,2.86023876953125,-0.40272021293640137,-0.05462368577718735,0.6417471766471863
1789635444277278700,2.87027880859375,-0.3033328950405121,-0.09957145154476166,0.6029286980628967
1789635444287317800,2.88031787109375,-0.18342325091362,-0.18552112579345703,0.5323600172996521
1789635444297357800,2.89035791015625,-0.10172253102064133,-0.20794786512851715,0.4812643527984619
1789635444307398000,2.90039794921875,-0.11181455850601196,-0.19293338060379028,0.5213772058486938
1789635444317437700,2.910437744140625,-0.19094933569431305,-0.1677875518798828,0.6661564707756042
1789635444327477800,2.920477783203125,-0.2736227214336395,-0.10568995028734207,0.8124802112579346
1789635444337517800,2.930517822265625,-0.2950102984905243,-0.05586300790309906,0.8671514391899109
1789635444347558000,2.940557861328125,-0.27637654542922974,-0.06214103102684021,0.8300412893295288
1789635444357598000,2.950597900390625,-0.2305784523487091,-0.09545930474996567,0.6971988081932068
1789635444367637800,2.9606376953125,-0.1591438204050064,-0.10729716718196869,0.5192406177520752
1789635444377677600,2.970677490234375,-0.1537381410598755,-0.10690461844205856,0.37699660658836365
1789635444387716900,2.980716796875,-0.18913684785366058,-0.10688691586256027,0.3392047882080078
1789635444397757000,2.9907568359375,-0.2953711450099945,-0.15105144679546356,0.39888039231300354
1789635444407796700,3.000796630859375,-0.4444786608219147,-0.07772612571716309,0.4868207573890686
1789635444417836500,3.01083642578125,-0.5886856317520142,0.10315284132957458,0.5274614095687866
1789635444427876600,3.020876708984375,-0.6927201151847839,0.25922247767448425,0.5031431317329407
1789635444437916700,3.030916748046875,-0.719109058380127,0.4005468487739563,0.47272026538848877
1789635444447956700,3.040956787109375,-0.6810197234153748,0.5308008790016174,0.45860058069229126
1789635444457996800,3.050996826171875,-0.6011165976524353,0.6012412309646606,0.4673434793949127
1789635444468036600,3.06103662109375,-0.5020455121994019,0.70224529504776,0.504425048828125
1789635444478075600,3.07107568359375,-0.39258694648742676,0.8661130666732788,0.5915690064430237
1789635444488115700,3.08111572265625,-0.2800469994544983,0.9600223302841187,0.6792318224906921
1789635444498155800,3.09115576171875,-0.2042078822851181,1.0677237510681152,0.7334018349647522
1789635444508195600,3.101195556640625,-0.15829208493232727,1.3180886507034302,0.7091051936149597
1789635444518235600,3.111235595703125,-0.07879406213760376,1.5641905069351196,0.5844945311546326
1789635444528275700,3.121275634765625,0.02700382098555565,1.5547919273376465,0.4107832908630371
1789635444538315800,3.131315673828125,0.13149453699588776,1.3074369430541992,0.2741045355796814
1789635444548355800,3.14135595703125,0.18115898966789246,1.0866010189056396,0.20232567191123962
1789635444558395600,3.151395751953125,0.144881933927536,1.0110183954238892,0.22063517570495605
1789635444568435700,3.161435791015625,0.07394327223300934,1.0162392854690552,0.31408825516700745
1789635444578474800,3.171474853515625,0.028896434232592583,0.9408808946609497,0.4029294550418854
1789635444588514800,3.181514892578125,0.06308472156524658,0.7323296070098877,0.4428275525569916
1789635444598554600,3.1915546875,0.11490291357040405,0.5384560227394104,0.43798699975013733
1789635444608594700,3.2015947265625,0.13920378684997559,0.32529589533805847,0.4058626890182495
1789635444618634800,3.211634765625,0.11263742297887802,0.07553986459970474,0.41919180750846863
1789635444628674800,3.2216748046875,0.03773698955774307,-0.033910058438777924,0.47740912437438965
1789635444638715000,3.23171484375,-0.03329963609576225,0.04570886865258217,0.5772742033004761
1789635444648755000,3.2417548828125,-0.04846836254000664,0.2197621911764145,0.6774300932884216
1789635444658794800,3.251794677734375,-0.02970266528427601,0.2956971526145935,0.7439140677452087
1789635444668833800,3.261833740234375,0.009067859500646591,0.12803494930267334,0.7485335469245911
1789635444678873900,3.271873779296875,0.029238108545541763,-0.11246819794178009,0.7232159376144409
1789635444688914000,3.281913818359375,0.03743372857570648,-0.13556423783302307,0.6566243171691895
1789635444698953700,3.29195361328125,0.03087542951107025,0.03267855942249298,0.5862529277801514
1789635444708993800,3.301993896484375,0.01112729124724865,0.2275409996509552,0.5570849180221558
1789635444719033600,3.31203369140625,0.03497376665472984,0.35990914702415466,0.5894598960876465
1789635444729073700,3.32207373046875,0.10105011612176895,0.392259806394577,0.6542400121688843
1789635444739113700,3.33211376953125,0.1673567146062851,0.30553314089775085,0.7004472017288208
1789635444749153500,3.342153564453125,0.179221048951149,0.22756855189800262,0.7109412550926208
1789635444759192800,3.35219287109375,0.07612955570220947,0.16305960714817047,0.7116965055465698
1789635444769232600,3.362232666015625,-0.08742617815732956,0.265737920999527,0.7714552879333496
1789635444779272700,3.372272705078125,-0.2052859663963318,0.48510488867759705,0.866621196269989
1789635444789312800,3.382312744140625,-0.2719045877456665,0.6401458978652954,0.9608882665634155
1789635444799352600,3.3923525390625,-0.30102548003196716,0.6142471432685852,1.0070749521255493
1789635444809392600,3.402392578125,-0.3060314655303955,0.3622526228427887,0.9713493585586548
1789635444819432700,3.4124326171875,-0.3052234649658203,0.0706748515367508,0.8509129285812378
1789635444829472800,3.42247265625,-0.3350977301597595,-0.13928161561489105,0.6950696110725403
1789635444839512800,3.432512939453125,-0.3902163505554199,-0.2659972012042999,0.5420989394187927
1789635444849552600,3.442552734375,-0.44422420859336853,-0.34027212858200073,0.4233572781085968
1789635444859591700,3.452591796875,-0.4712587296962738,-0.31538647413253784,0.3573417663574219
1789635444869631700,3.4626318359375,-0.4592267870903015,-0.1303858608007431,0.3790312111377716
1789635444879671800,3.472671875,-0.41346144676208496,0.05560584366321564,0.45172539353370667
1789635444889711600,3.482711669921875,-0.3514043688774109,0.04633696377277374,0.5474274158477783
1789635444899751700,3.492751708984375,-0.29417967796325684,-0.11857395619153976,0.6354470252990723
1789635444909791700,3.502791748046875,-0.2689429223537445,-0.3514026403427124,0.6594793796539307
1789635444919831800,3.512831787109375,-0.27855774760246277,-0.48356813192367554,0.6208938956260681
1789635444929872000,3.522871826171875,-0.3265148401260376,-0.536024808883667,0.6004083752632141
1789635444939912000,3.532911865234375,-0.3539571166038513,-0.44030362367630005,0.628965437412262
1789635444949950700,3.54295068359375,-0.32067254185676575,-0.26971060037612915,0.6757293939590454
1789635444959990800,3.55299072265625,-0.27043893933296204,-0.15138795971870422,0.6794564723968506
1789635444970030800,3.56303076171875,-0.2613387405872345,-0.18601331114768982,0.6161108613014221
1789635444980071000,3.57307080078125,-0.30317914485931396,-0.32362788915634155,0.4990815222263336
1789635444990110700,3.58311083984375,-0.3501113951206207,-0.34988635778427124,0.4037325978279114
1789635445000150800,3.59315087890625,-0.3671780228614807,-0.2201203554868698,0.3831506073474884
1789635445010190800,3.60319091796875,-0.3102341890335083,-0.19471381604671478,0.4087715148925781
1789635445020230700,3.613230712890625,-0.204681396484375,-0.2221483737230301,0.4631063938140869
1789635445030270700,3.623270751953125,-0.09813792258501053,-0.10049188137054443,0.47832491993904114
1789635445040309800,3.633309814453125,-0.018037764355540276,0.0805993378162384,0.4576720893383026
1789635445050349800,3.643349853515625,-0.0013398814480751753,0.062224213033914566,0.41480085253715515
1789635445060389600,3.6533896484375,-0.10113305598497391,-0.1976206749677658,0.4048920273780823
1789635445070429700,3.6634296875,-0.2684382200241089,-0.25854477286338806,0.4534894824028015
1789635445080469500,3.673469482421875,-0.3617255687713623,-0.07229099422693253,0.5426081418991089
1789635445090509600,3.683509521484375,-0.33384594321250916,0.0022970670834183693,0.5607539415359497
1789635445100549600,3.693549560546875,-0.26717954874038696,-0.2048627734184265,0.46661972999572754
1789635445110589700,3.703589599609375,-0.23578359186649323,-0.36888498067855835,0.3354904055595398
1789635445120629800,3.713629638671875,-0.28696075081825256,-0.2464730441570282,0.26227158308029175
1789635445130668500,3.72366845703125,-0.34083276987075806,0.07628901302814484,0.24688652157783508
1789635445140708600,3.73370849609375,-0.39379212260246277,0.15461339056491852,0.2814823091030121
1789635445150748700,3.743748779296875,-0.45861566066741943,-0.05576743185520172,0.3503573536872864
1789635445160788700,3.753788818359375,-0.5099941492080688,-0.16463346779346466,0.4150538146495819
1789635445170828800,3.763828857421875,-0.4836899936199188,-0.06225261092185974,0.45057108998298645
1789635445180868600,3.77386865234375,-0.401713103055954,-0.009002705104649067,0.45532482862472534
1789635445190908700,3.78390869140625,-0.3158714175224304,-0.19742123782634735,0.45716965198516846
1789635445200948700,3.79394873046875,-0.26192188262939453,-0.4922238290309906,0.43137213587760925
1789635445210988800,3.80398876953125,-0.24464964866638184,-0.6698877215385437,0.3409992456436157
1789635445221027600,3.814027587890625,-0.2833608090877533,-0.617038369178772,0.24430304765701294
1789635445231067600,3.824067626953125,-0.38788989186286926,-0.46820372343063354,0.17712722718715668
1789635445241107700,3.834107666015625,-0.46927395462989807,-0.340297669172287,0.1641397923231125
1789635445251147800,3.844147705078125,-0.4512048065662384,-0.2654059827327728,0.12711364030838013
1789635445261187800,3.854187744140625,-0.40017303824424744,-0.15161415934562683,0.05178319662809372
1789635445271228000,3.864227783203125,-0.34865811467170715,-0.012785067781805992,-0.082579605281353
1789635445281267700,3.874267822265625,-0.3317877948284149,-0.11349649727344513,-0.2560190260410309
1789635445291307800,3.884307861328125,-0.3411766290664673,-0.47474443912506104,-0.4538806676864624
1789635445301347800,3.894347900390625,-0.34276705980300903,-0.7172263264656067,-0.6106122136116028
1789635445311388000,3.904387939453125,-0.32084041833877563,-0.6052698493003845,-0.6700635552406311
1789635445321426700,3.9144267578125,-0.3111981749534607,-0.25233787298202515,-0.6778469085693359
1789635445331466800,3.924466796875,-0.325774222612381,0.09754464775323868,-0.6469444036483765
1789635445341506800,3.9345068359375,-0.34158140420913696,0.30337077379226685,-0.5959248542785645
1789635445351547000,3.944546875,-0.3442429006099701,0.3365136682987213,-0.5893632173538208
1789635445361586700,3.954586669921875,-0.3412465751171112,0.21421147882938385,-0.6204979419708252
1789635445371626500,3.96462646484375,-0.29561948776245117,0.05683448538184166,-0.6729093790054321
1789635445381666600,3.97466650390625,-0.18393076956272125,0.026239559054374695,-0.7629066705703735
1789635445391706600,3.98470654296875,-0.052102234214544296,0.16784195601940155,-0.8862103223800659
1789635445401746700,3.99474658203125,0.07300134748220444,0.28449746966362,-0.9664287567138672
1789635445411785700,4.00478564453125,0.1471768468618393,0.346366286277771,-0.9893156886100769
1789635445421825500,4.014825439453125,0.16950851678848267,0.47470030188560486,-0.9594392776489258
1789635445431865600,4.024865478515625,0.2023991346359253,0.5951310396194458,-0.9246147274971008
1789635445441905700,4.03490576171875,0.2912975549697876,0.7164736986160278,-0.9098328351974487
1789635445451945700,4.04494580078125,0.36660975217819214,0.8618532419204712,-0.8888465762138367
1789635445461985800,4.05498583984375,0.37856414914131165,0.9579838514328003,-0.8600255846977234
1789635445472025600,4.065025634765625,0.394057959318161,0.9161335229873657,-0.8133916854858398
1789635445482065700,4.075065673828125,0.46247804164886475,0.7372881174087524,-0.738589346408844
1789635445492105700,4.085105712890625,0.5570226311683655,0.6041448712348938,-0.6597622036933899
1789635445502144800,4.095144775390625,0.6567867994308472,0.5816518068313599,-0.552992582321167
1789635445512184600,4.1051845703125,0.7438346147537231,0.599992036819458,-0.43966495990753174
1789635445522224600,4.115224609375,0.7835484743118286,0.5847233533859253,-0.3605046272277832
1789635445532264700,4.1252646484375,0.792293906211853,0.5583207607269287,-0.3247775435447693
1789635445542304800,4.1353046875,0.8088963031768799,0.5153128504753113,-0.3092862069606781
1789635445552344800,4.1453447265625,0.8178816437721252,0.4235033094882965,-0.30016064643859863
1789635445562385000,4.155385009765625,0.7892294526100159,0.302274614572525,-0.30401504039764404
1789635445572424700,4.1654248046875,0.774480938911438,0.26560553908348083,-0.3366740047931671
1789635445582464800,4.17546484375,0.7518032789230347,0.3243447542190552,-0.3762211501598358
1789635445592503800,4.18550390625,0.732391893863678,0.2752138078212738,-0.41473475098609924
1789635445602543900,4.1955439453125,0.6532169580459595,0.14961141347885132,-0.43985527753829956
1789635445612583700,4.205583740234375,0.5393850803375244,0.02234043926000595,-0.4616435170173645
1789635445622623700,4.215623779296875,0.42632269859313965,-0.08138861507177353,-0.4993101954460144
1789635445632663800,4.225663818359375,0.34463343024253845,-0.16142062842845917,-0.532421350479126
1789635445642704000,4.235703857421875,0.2852984666824341,-0.1849786937236786,-0.5502728223800659
1789635445652744000,4.245743896484375,0.2065468728542328,-0.10072331130504608,-0.599793553352356
1789635445662783700,4.25578369140625,0.1156044527888298,0.09059818089008331,-0.6710957288742065
1789635445672823600,4.265823486328125,0.07077255100011826,0.29933688044548035,-0.7049380540847778
1789635445682862800,4.27586279296875,0.06225762888789177,0.4487122595310211,-0.6727409362792969
1789635445692903000,4.28590283203125,0.07355517148971558,0.5157474875450134,-0.5540169477462769
1789635445702942700,4.295942626953125,0.0698067769408226,0.4448935389518738,-0.3768399953842163
1789635445712982500,4.305982421875,0.06401720643043518,0.18560989201068878,-0.2348296344280243
1789635445723022600,4.316022705078125,0.060963887721300125,-0.16612257063388824,-0.14364007115364075
1789635445733062700,4.326062744140625,0.03959953784942627,-0.4552267789840698,-0.08007257431745529
1789635445743102700,4.336102783203125,0.01559913344681263,-0.5769566893577576,-0.05410781502723694
1789635445753142800,4.346142822265625,-0.0036513246595859528,-0.5559297204017639,-0.06858740001916885
1789635445763182600,4.3561826171875,-0.02801418863236904,-0.360050767660141,-0.1264600157737732
1789635445773221600,4.3662216796875,-0.09287295490503311,-0.09546263515949249,-0.26041775941848755
1789635445783261700,4.37626171875,-0.17675188183784485,0.10371251404285431,-0.4314552843570709
1789635445793301800,4.3863017578125,-0.2480064332485199,0.14215417206287384,-0.5849899053573608
1789635445803341600,4.396341552734375,-0.2937563359737396,-0.03287196531891823,-0.691295862197876
1789635445813381600,4.406381591796875,-0.2855105698108673,-0.27636080980300903,-0.7082598209381104
1789635445823421700,4.416421630859375,-0.2631402611732483,-0.43280503153800964,-0.6071749925613403
1789635445833461800,4.426461669921875,-0.26031947135925293,-0.40802228450775146,-0.49156346917152405
1789635445843501800,4.436501708984375,-0.2644793391227722,-0.18631146848201752,-0.44397464394569397
1789635445853541600,4.446541748046875,-0.25490036606788635,0.01812157779932022,-0.4415202736854553
1789635445863580700,4.45658056640625,-0.2183050811290741,0.16737177968025208,-0.46395766735076904
1789635445873620700,4.466620849609375,-0.16261419653892517,0.2551303803920746,-0.5227668285369873
1789635445883660800,4.476660888671875,-0.11648930609226227,0.14836612343788147,-0.5962114334106445
1789635445893700900,4.486700927734375,-0.07232169806957245,-0.0678364634513855,-0.6693758964538574
1789635445903740700,4.49674072265625,-0.043490320444107056,-0.16788342595100403,-0.7231485843658447
1789635445913780700,4.50678076171875,-0.029500648379325867,-0.23344914615154266,-0.7472240328788757
1789635445923820800,4.51682080078125,-0.0214038398116827,-0.25300103425979614,-0.7286341190338135
1789635445933860900,4.52686083984375,-0.024415181949734688,-0.18300631642341614,-0.6961463093757629
1789635445943901000,4.53690087890625,-0.033598028123378754,-0.17183223366737366,-0.6517122387886047
1789635445953939700,4.546939697265625,-0.05305139720439911,-0.19999027252197266,-0.5961413383483887
1789635445963979800,4.556979736328125,-0.08413341641426086,-0.1821843832731247,-0.5593806505203247
1789635445974019800,4.567019775390625,-0.13424193859100342,-0.13619598746299744,-0.5504747033119202
1789635445984060000,4.577059814453125,-0.170060396194458,-0.049699701368808746,-0.6055030822753906
1789635445994099700,4.587099609375,-0.17307701706886292,-0.04340634122490883,-0.6674702763557434
1789635446004139800,4.597139892578125,-0.15169236063957214,-0.16002430021762848,-0.7071295380592346
1789635446014179600,4.6071796875,-0.12374229729175568,-0.23982194066047668,-0.7219550013542175
1789635446024219600,4.6172197265625,-0.12096968293190002,-0.23463010787963867,-0.7050859928131104
1789635446034259700,4.627259765625,-0.12894123792648315,-0.10826979577541351,-0.6326234340667725
1789635446044298800,4.637298828125,-0.13358765840530396,0.022961992770433426,-0.5699227452278137
1789635446054338800,4.6473388671875,-0.15528643131256104,-0.014706142246723175,-0.5355631709098816
1789635446064378600,4.657378662109375,-0.16052913665771484,-0.15827102959156036,-0.5326257348060608
1789635446074418700,4.667418701171875,-0.1366184502840042,-0.26552143692970276,-0.5684859156608582
1789635446084458800,4.677458740234375,-0.09173433482646942,-0.3196030557155609,-0.5935947299003601
1789635446094498600,4.68749853515625,-0.049606792628765106,-0.3665741980075836,-0.5685285329818726
1789635446104538600,4.69753857421875,0.0033030298072844744,-0.3750523626804352,-0.5158919095993042
1789635446114578700,4.70757861328125,0.07142597436904907,-0.3678467571735382,-0.49410775303840637
1789635446124618800,4.71761865234375,0.10466622561216354,-0.43984583020210266,-0.5283815860748291
1789635446134657500,4.727657470703125,0.08869151771068573,-0.5186354517936707,-0.6201171278953552
1789635446144697600,4.737697509765625,0.05325576290488243,-0.5681790709495544,-0.6873297095298767
1789635446154737700,4.747737548828125,0.027296269312500954,-0.5670990347862244,-0.7191279530525208
1789635446164777700,4.75777783203125,0.004205331206321716,-0.6074288487434387,-0.7472165822982788
1789635446174817800,4.76781787109375,-0.017024654895067215,-0.6707940101623535,-0.7933829426765442
1789635446184857900,4.77785791015625,-0.04432977735996246,-0.6025896668434143,-0.8231605291366577
1789635446194897700,4.787897705078125,-0.05946849659085274,-0.456913024187088,-0.8048920631408691
1789635446204937700,4.797937744140625,-0.06256388872861862,-0.3548279106616974,-0.74677973985672
1789635446214977000,4.80797705078125,-0.08927317708730698,-0.29753997921943665,-0.7132422924041748
1789635446225017000,4.81801708984375,-0.12538963556289673,-0.2801537811756134,-0.7238472700119019
1789635446235056000,4.82805615234375,-0.144276961684227,-0.23497620224952698,-0.7797410488128662
1789635446245096200,4.83809619140625,-0.12043420970439911,-0.2649082839488983,-0.912520170211792
1789635446255136000,4.848135986328125,-0.0633428543806076,-0.4028722643852234,-1.0151958465576172
1789635446265176000,4.858176025390625,-0.017537547275424004,-0.5252506136894226,-1.0083794593811035
1789635446275216100,4.868216064453125,-0.010688322596251965,-0.4456809461116791,-0.9163057804107666
1789635446285256200,4.878256103515625,-0.037683986127376556,-0.3337448239326477,-0.8442635536193848
1789635446295296300,4.888296142578125,-0.09290353953838348,-0.2972290813922882,-0.8411535620689392
1789635446305336000,4.898336181640625,-0.1274479329586029,-0.278643399477005,-0.8562315702438354
1789635446315376000,4.908376220703125,-0.11598045378923416,-0.21654659509658813,-0.8794201612472534
1789635446325415200,4.918415283203125,-0.06676524132490158,-0.2024259865283966,-0.875856876373291
1789635446335455200,4.928455322265625,-0.02506614290177822,-0.24107244610786438,-0.8517156839370728
1789635446345495000,4.9384951171875,-0.03566472604870796,-0.2865363359451294,-0.8394757509231567
1789635446355535000,4.94853515625,-0.0896592065691948,-0.1864425092935562,-0.8985491394996643
1789635446365575200,4.9585751953125,-0.08681255578994751,-0.12593655288219452,-0.9893049001693726
1789635446375615200,4.968615234375,-0.016290420666337013,-0.298970103263855,-1.0292705297470093
1789635446385655000,4.978655029296875,0.05557870864868164,-0.4346001148223877,-0.9919796586036682
1789635446395695000,4.988695068359375,0.02554081752896309,-0.32639122009277344,-0.9155346155166626
1789635446405735000,4.99873486328125,-0.0732954815030098,-0.20821475982666016,-0.8593218922615051
1789635446415774200,5.008774169921875,-0.1447015404701233,-0.10400648415088654,-0.8509469628334045
1789635446425814300,5.018814208984375,-0.12685410678386688,-0.08767997473478317,-0.9134731888771057
1789635446435854000,5.02885400390625,-0.08244296163320541,-0.32849496603012085,-1.0605868101119995
1789635446445894000,5.038893798828125,-0.04931759089231491,-0.42057549953460693,-1.1256258487701416
1789635446455934000,5.048933837890625,-0.031234845519065857,-0.28065383434295654,-1.0921368598937988
1789635446465974000,5.05897412109375,-0.0485730916261673,-0.17657294869422913,-1.0397239923477173
1789635446476014000,5.06901416015625,-0.1070212572813034,-0.06265489012002945,-1.044465184211731
1789635446486054100,5.07905419921875,-0.14642593264579773,-0.04665781185030937,-1.0675747394561768
1789635446496094000,5.089093994140625,-0.11157847940921783,-0.031053442507982254,-1.10218346118927
1789635446506133000,5.099133056640625,-0.058725111186504364,0.08013752102851868,-1.1118520498275757
1789635446516173000,5.109173095703125,-0.028546437621116638,0.24105983972549438,-1.1491302251815796
1789635446526213000,5.119213134765625,-0.03365517780184746,0.33889904618263245,-1.2318533658981323
1789635446536253200,5.129253173828125,-0.07079467177391052,0.253867506980896,-1.3064686059951782
1789635446546293000,5.13929296875,-0.06163313239812851,0.26552391052246094,-1.326744794845581
1789635446556333000,5.1493330078125,2.5543849915266037e-06,0.17323558032512665,-1.2578550577163696
1789635446566373000,5.159373046875,0.06907190382480621,-0.011300705373287201,-1.1115106344223022
1789635446576413200,5.1694130859375,0.08491355925798416,0.12095222622156143,-0.9211137294769287
1789635446586453200,5.179453369140625,0.10670381039381027,0.5935384035110474,-0.8041817545890808
1789635446596492000,5.189491943359375,0.1829373687505722,0.8026530146598816,-0.8782322406768799
1789635446606532000,5.199531982421875,0.3072369396686554,0.6574145555496216,-1.0069864988327026
1789635446616572200,5.209572265625,0.4118354022502899,0.22246845066547394,-1.0201493501663208
1789635446626612200,5.2196123046875,0.39418530464172363,-0.11892455816268921,-0.8593951463699341
1789635446636652000,5.229652099609375,0.28431904315948486,-0.08777927607297897,-0.5713391900062561
1789635446646692000,5.239692138671875,0.2767210602760315,0.03397219255566597,-0.2713777720928192
1789635446656732200,5.249732177734375,0.34254905581474304,0.0684511810541153,-0.05763976275920868
1789635446666772200,5.259772216796875,0.3979625105857849,0.14982140064239502,0.01212040800601244
1789635446676812300,5.269812255859375,0.38472113013267517,0.15074487030506134,0.0653703510761261
1789635446686851000,5.27985107421875,0.3467465937137604,0.09373458474874496,0.11272828280925751
1789635446696891100,5.28989111328125,0.3037462830543518,-0.0013043368235230446,0.15140400826931
1789635446706931200,5.29993115234375,0.25614041090011597,-0.11639443784952164,0.22560447454452515
1789635446716971300,5.30997119140625,0.176334410905838,-0.24129213392734528,0.38840073347091675
1789635446727011300,5.32001123046875,0.09833255410194397,-0.20209039747714996,0.6051863431930542
1789635446737051100,5.330051025390625,0.12389278411865234,0.14083842933177948,0.7474991679191589
1789635446747091000,5.340091064453125,0.2271597981452942,0.30599409341812134,0.7400204539299011
1789635446757131000,5.350131103515625,0.2542973756790161,0.19707776606082916,0.6782349944114685
1789635446767171000,5.360171142578125,0.11798375099897385,0.16884559392929077,0.7312244176864624
1789635446777210000,5.370210205078125,-0.13230371475219727,0.23042890429496765,0.8988261222839355
1789635446787250000,5.38025,-0.3827361762523651,0.30016273260116577,1.0663490295410156
1789635446797290000,5.3902900390625,-0.5307287573814392,0.22736267745494843,1.135646939277649
1789635446807330000,5.400330078125,-0.5145418047904968,0.1170596107840538,1.1734504699707031
1789635446817370000,5.4103701171875,-0.3800325095653534,0.08573321998119354,1.1915242671966553
1789635446827410000,5.420409912109375,-0.25993433594703674,0.13717563450336456,1.123990535736084
1789635446837450000,5.430449951171875,-0.25073543190956116,0.1191716194152832,1.0436739921569824
1789635446847490000,5.440489990234375,-0.37640252709388733,0.1035095751285553,1.0381096601486206
1789635446857530000,5.450530029296875,-0.5430245995521545,0.03678540140390396,1.087808609008789
1789635446867569200,5.460569091796875,-0.6340301632881165,0.019368592649698257,1.2109451293945312
1789635446877609000,5.47060888671875,-0.616881251335144,0.04666851833462715,1.352229118347168
1789635446887649000,5.48064892578125,-0.5127729773521423,0.08188936114311218,1.4298917055130005
1789635446897689000,5.490689208984375,-0.4167293310165405,0.1766377091407776,1.4145809412002563
1789635446907729200,5.500729248046875,-0.3752388656139374,0.3236788213253021,1.3701554536819458
1789635446917769200,5.510769287109375,-0.34204378724098206,0.35647085309028625,1.34872305393219
1789635446927809000,5.52080908203125,-0.2972813844680786,0.31937435269355774,1.3634461164474487
1789635446937849000,5.53084912109375,-0.23872677981853485,0.3220980763435364,1.3756911754608154
1789635446947889200,5.54088916015625,-0.16434414684772491,0.43028074502944946,1.3742703199386597
1789635446957928200,5.55092822265625,-0.07784709334373474,0.5286939740180969,1.3726388216018677
1789635446967968000,5.560968017578125,0.025069430470466614,0.540036141872406,1.3652485609054565
1789635446978008000,5.571008056640625,0.16359743475914001,0.4952768087387085,1.3483426570892334
1789635446988048100,5.581048095703125,0.31893113255500793,0.4570242464542389,1.3469793796539307
1789635446998088200,5.591088134765625,0.4219183921813965,0.6130635142326355,1.3841357231140137
1789635447008128300,5.601128173828125,0.46677666902542114,0.8518483638763428,1.400571346282959
1789635447018168300,5.611168212890625,0.48001426458358765,0.7596843838691711,1.3588993549346924
1789635447028208000,5.6212080078125,0.4769763946533203,0.4413791000843048,1.3026310205459595
1789635447038248000,5.631248046875,0.48457425832748413,0.31501954793930054,1.2892439365386963
1789635447048287200,5.641287353515625,0.5218489766120911,0.4013075828552246,1.3003677129745483
1789635447058327300,5.651327392578125,0.5731474161148071,0.4261772334575653,1.2813283205032349
1789635447068367000,5.6613671875,0.6129670143127441,0.2789084315299988,1.169911503791809
1789635447078407200,5.6714072265625,0.6285914778709412,0.01639626920223236,1.0377624034881592
1789635447088447000,5.681447021484375,0.6205074191093445,-0.07644125819206238,1.00595223903656
1789635447098487000,5.691487060546875,0.5158800482749939,-0.07583848387002945,1.031204342842102
1789635447108527000,5.701527099609375,0.4175132215023041,-0.13060373067855835,1.0392135381698608
1789635447118567000,5.71156689453125,0.4049522876739502,0.10417895764112473,1.1179143190383911
1789635447128607000,5.72160693359375,0.47672581672668457,0.38988739252090454,1.2114861011505127
1789635447138646000,5.73164599609375,0.6009821891784668,0.2692820429801941,1.2121288776397705
1789635447148686000,5.74168603515625,0.6376065611839294,-0.0116921067237854,1.191380500793457
1789635447158726100,5.75172607421875,0.5167631506919861,-0.041717514395713806,1.2407783269882202
1789635447168766000,5.761765869140625,0.2947556674480438,-0.01376364380121231,1.3393062353134155
1789635447178806000,5.771805908203125,0.11126823723316193,-0.10613206773996353,1.4358762502670288
1789635447188846000,5.78184619140625,0.030223455280065536,-0.18578454852104187,1.4716161489486694
1789635447198886100,5.79188623046875,0.022687828168272972,-0.13859666883945465,1.433915615081787
1789635447208926200,5.80192626953125,0.03567606583237648,-0.0428464338183403,1.330281138420105
1789635447218966000,5.811966064453125,0.016580570489168167,0.019619744271039963,1.2328203916549683
1789635447229004800,5.8220048828125,-0.04554777964949608,0.1348573863506317,1.15535569190979
1789635447239044900,5.832044921875,-0.08358726650476456,0.2977360188961029,1.1565402746200562
1789635447249085000,5.8420849609375,-0.09507161378860474,0.3711601793766022,1.213638424873352
1789635447259125000,5.852125,-0.06298098713159561,0.3509675860404968,1.2781124114990234
1789635447269165000,5.8621650390625,-0.01159688737243414,0.17923788726329803,1.2945057153701782
1789635447279205000,5.872205078125,0.008537122048437595,-0.1405934989452362,1.272841453552246
1789635447289245000,5.882244873046875,-0.051784273236989975,-0.40363284945487976,1.2632099390029907
1789635447299285000,5.892284912109375,-0.14468999207019806,-0.4053365886211395,1.2616223096847534
1789635447309325000,5.902324951171875,-0.22890101373195648,-0.23504555225372314,1.2704185247421265
1789635447319364000,5.912364013671875,-0.27567240595817566,0.02638973668217659,1.2446805238723755
1789635447329404000,5.92240380859375,-0.33268243074417114,0.27301254868507385,1.1491042375564575
1789635447339444000,5.93244384765625,-0.3794867694377899,0.37098428606987,1.0123356580734253
1789635447349484000,5.942484130859375,-0.39686310291290283,0.35100045800209045,0.8963047862052917
1789635447359524000,5.952524169921875,-0.3459671139717102,0.4777531921863556,0.7850562930107117
1789635447369564200,5.962564208984375,-0.24350441992282867,0.49308180809020996,0.6412953734397888
1789635447379604000,5.97260400390625,-0.11133408546447754,0.3130417466163635,0.5437947511672974
1789635447389644000,5.98264404296875,-0.0614248551428318,0.2360849231481552,0.48725026845932007
1789635447399683800,5.992683837890625,-0.08165889978408813,0.22925975918769836,0.38129156827926636
1789635447409723100,6.00272314453125,-0.11049534380435944,0.24749895930290222,0.2733086347579956
1789635447419763200,6.01276318359375,-0.08979842066764832,0.2606883943080902,0.161514550447464
1789635447429803000,6.022802978515625,-0.06641373783349991,-0.04934190586209297,0.08379871398210526
1789635447439842800,6.0328427734375,-0.15856988728046417,-0.3070181608200073,0.05974030867218971
1789635447449883000,6.0428828125,-0.2884562313556671,-0.00875186175107956,0.021236060187220573
1789635447459923000,6.0529228515625,-0.27057546377182007,0.33010342717170715,0.05361463129520416
1789635447469963000,6.062962890625,-0.1452585607767105,0.5256250500679016,0.17365822196006775
1789635447480002800,6.0730029296875,-0.005778040736913681,0.2529636323451996,0.3535175919532776
1789635447490043000,6.08304296875,0.06350462883710861,-0.13844169676303864,0.4535762667655945
1789635447500082000,6.09308203125,0.03247663751244545,-0.26303964853286743,0.42531272768974304
1789635447510122000,6.1031220703125,0.013758078217506409,-0.2547774612903595,0.3134794235229492
1789635447520161800,6.113161865234375,0.01953139528632164,-0.3455449342727661,0.23746393620967865
1789635447530201900,6.123201904296875,-0.003162996843457222,-0.4011208415031433,0.16265681385993958
1789635447540242000,6.133241943359375,-0.06975897401571274,-0.3239569365978241,0.055515632033348083
1789635447550282000,6.143281982421875,-0.14946231245994568,-0.19149024784564972,-0.06596551835536957
1789635447560322000,6.153322021484375,-0.16877633333206177,-0.1272324174642563,-0.1294303834438324
1789635447570362000,6.163362060546875,-0.15282772481441498,-0.03383642062544823,-0.1639566719532013
1789635447580402000,6.17340185546875,-0.11003407835960388,-0.01053057610988617,-0.22090871632099152
1789635447590441000,6.18344091796875,-0.0820692777633667,-0.028989478945732117,-0.2727354168891907
1789635447600481000,6.19348095703125,-0.0926726832985878,-0.014605071395635605,-0.3622967302799225
1789635447610521000,6.20352099609375,-0.11987554281949997,0.16932880878448486,-0.531669020652771
1789635447620561000,6.213560791015625,-0.0711248517036438,0.2456323653459549,-0.6663415431976318
1789635447630601000,6.22360107421875,-0.06304242461919785,0.2114802449941635,-0.7233896255493164
1789635447640641000,6.23364111328125,-0.1858842670917511,0.05944409221410751,-0.7185183763504028
1789635447650681000,6.24368115234375,-0.2978738844394684,-0.007549857720732689,-0.6784108877182007
1789635447660721200,6.25372119140625,-0.3126133680343628,-0.025117766112089157,-0.5964550971984863
1789635447670761000,6.263760986328125,-0.24690760672092438,-0.09544013440608978,-0.48149895668029785
1789635447680800000,6.273800048828125,-0.178662970662117,-0.09670915454626083,-0.36921706795692444
1789635447690840000,6.283840087890625,-0.18749721348285675,0.05753234773874283,-0.33705246448516846
1789635447700880100,6.293880126953125,-0.22557543218135834,0.21141408383846283,-0.37914809584617615
1789635447710920200,6.303920166015625,-0.2152911126613617,0.31551116704940796,-0.41782891750335693
1789635447720960000,6.3139599609375,-0.11847398430109024,0.16271741688251495,-0.38281700015068054
1789635447731000000,6.324,-0.03519374132156372,-0.1732265055179596,-0.2921563386917114
1789635447741039900,6.334039794921875,-0.05220199376344681,-0.28542962670326233,-0.3240511119365692
1789635447751080000,6.344079833984375,-0.10725831985473633,-0.2108778953552246,-0.5301874876022339
1789635447761120000,6.3541201171875,-0.14516781270503998,-0.04120686650276184,-0.7805280089378357
1789635447771159000,6.364158935546875,-0.16402459144592285,0.1459347903728485,-0.9532856941223145
1789635447781199000,6.37419921875,-0.15191127359867096,0.3512767553329468,-1.0101383924484253
1789635447791239000,6.384239013671875,-0.08342994749546051,0.5453218817710876,-0.9680507183074951
1789635447801279000,6.394279052734375,0.047112200409173965,0.6569509506225586,-0.9052934050559998
1789635447811318800,6.40431884765625,0.17552636563777924,0.5423458218574524,-0.8164404630661011
1789635447821358800,6.41435888671875,0.23872506618499756,0.3296487033367157,-0.7034730315208435
1789635447831399000,6.42439892578125,0.2567940950393677,0.23945915699005127,-0.5949806571006775
1789635447841439000,6.43443896484375,0.2760390341281891,0.2289484590291977,-0.5086798071861267
1789635447851479000,6.44447900390625,0.2834836542606354,0.13076037168502808,-0.47969260811805725
1789635447861517800,6.454517822265625,0.31033584475517273,-0.045805204659700394,-0.5262572765350342
1789635447871558000,6.464557861328125,0.3563659191131592,-0.19692201912403107,-0.6093833446502686
1789635447881598000,6.474597900390625,0.3994247317314148,-0.30839982628822327,-0.7274388670921326
1789635447891638000,6.484637939453125,0.42325469851493835,-0.33421650528907776,-0.8400543928146362
1789635447901678000,6.494677978515625,0.4327408969402313,-0.23861953616142273,-0.9088101983070374
1789635447911718000,6.5047177734375,0.3849959969520569,-0.08219504356384277,-0.9406149983406067
1789635447921758000,6.514758056640625,0.272867351770401,0.08111398667097092,-0.947769820690155
1789635447931798000,6.524798095703125,0.16846635937690735,0.2645711898803711,-0.9635751843452454
1789635447941838000,6.534838134765625,0.11794840544462204,0.3856261968612671,-0.947850227355957
1789635447951876900,6.544876953125,0.1240539699792862,0.41961053013801575,-0.9147417545318604
1789635447961917000,6.5549169921875,0.13439467549324036,0.30589625239372253,-0.8905521035194397
1789635447971957000,6.56495703125,0.12612609565258026,0.07701458036899567,-0.896657407283783
1789635447981997000,6.5749970703125,0.12986715137958527,-0.15890058875083923,-0.9490649104118347
1789635447992037000,6.585037109375,0.13172738254070282,-0.28588756918907166,-1.0270270109176636
1789635448002077000,6.595076904296875,0.11287824809551239,-0.3332518935203552,-1.0957304239273071
1789635448012117000,6.605116943359375,0.10091985762119293,-0.4220326244831085,-1.1442209482192993
1789635448022157000,6.615156982421875,0.12523609399795532,-0.5661874413490295,-1.1748669147491455
1789635448032197000,6.625197021484375,0.1634918451309204,-0.60679692029953,-1.1685831546783447
1789635448042236200,6.635236083984375,0.15563026070594788,-0.5356879830360413,-1.1716755628585815
1789635448052276000,6.64527587890625,0.16472148895263672,-0.3951289653778076,-1.1376248598098755
1789635448062316000,6.65531591796875,0.18181751668453217,-0.3927610516548157,-1.0575692653656006
1789635448072356000,6.665356201171875,0.13791051506996155,-0.5072141289710999,-1.0162348747253418
1789635448082396000,6.67539599609375,0.04791337251663208,-0.46442776918411255,-1.0600659847259521
1789635448092436000,6.68543603515625,-0.007734441198408604,-0.26224377751350403,-1.1481660604476929
1789635448102475800,6.695475830078125,0.0032110761385411024,-0.3199659287929535,-1.225817322731018
1789635448112515800,6.705515869140625,0.09003651887178421,-0.6210640072822571,-1.2798781394958496
1789635448122556000,6.715555908203125,0.16207166016101837,-0.6399976015090942,-1.2415984869003296
1789635448132595000,6.725594970703125,0.1633118838071823,-0.5970267057418823,-1.1393154859542847
1789635448142634800,6.735634765625,0.1597215235233307,-0.7148457765579224,-1.1214457750320435
1789635448152674800,6.7456748046875,0.22073480486869812,-0.8416985273361206,-1.1606208086013794
1789635448162715000,6.75571484375,0.2374216467142105,-0.8635099530220032,-1.1888842582702637
1789635448172755000,6.7657548828125,0.2719002366065979,-0.6842315196990967,-1.2235122919082642
1789635448182795000,6.775794921875,0.2967374324798584,-0.4800628125667572,-1.1440855264663696
1789635448192835000,6.7858349609375,0.2953778803348541,-0.5425256490707397,-1.1122612953186035
1789635448202875000,6.795875,0.2544635236263275,-0.681521475315094,-1.2041956186294556
1789635448212915000,6.8059150390625,0.1985376477241516,-0.83340984582901,-1.3183424472808838
1789635448222954200,6.815954345703125,0.15965579450130463,-0.9008989334106445,-1.35479736328125
1789635448232994300,6.825994384765625,0.1638800948858261,-0.8072928190231323,-1.331937551498413
1789635448243034000,6.8360341796875,0.1920047402381897,-0.7055317759513855,-1.292895793914795
1789635448253074200,6.84607421875,0.20459669828414917,-0.653347909450531,-1.2401634454727173
1789635448263114200,6.8561142578125,0.17683839797973633,-0.5328608751296997,-1.1770448684692383
1789635448273154300,6.866154296875,0.17243114113807678,-0.3220016658306122,-1.113907814025879
1789635448283194400,6.8761943359375,0.19544044137001038,-0.10827591270208359,-1.1683987379074097
1789635448293234200,6.886234130859375,0.2466849982738495,-0.03006526455283165,-1.315443515777588
1789635448303273200,6.896273193359375,0.328621506690979,-0.32430368661880493,-1.4613592624664307
1789635448313313300,6.906313232421875,0.3123634457588196,-0.5179562568664551,-1.5199003219604492
1789635448323353300,6.916353271484375,0.20364917814731598,-0.4822353720664978,-1.4993101358413696
1789635448333393400,6.926393310546875,0.08280692249536514,-0.247172012925148,-1.4759057760238647
1789635448343433200,6.93643310546875,0.0049520814791321754,-0.13953591883182526,-1.4805965423583984
1789635448353473300,6.946473388671875,-0.09097764641046524,-0.1196887195110321,-1.5043703317642212
1789635448363513300,6.956513427734375,-0.12841027975082397,-0.011929415166378021,-1.5272352695465088
1789635448373553200,6.96655322265625,-0.07891090214252472,0.15227524936199188,-1.483054757118225
1789635448383593200,6.97659326171875,-0.020234497264027596,0.3155423700809479,-1.4308055639266968
1789635448393632300,6.98663232421875,-0.06612316519021988,0.2480754554271698,-1.3359365463256836
1789635448403672300,6.99667236328125,-0.15241460502147675,0.1882360726594925,-1.189354658126831
1789635448413712400,7.00671240234375,-0.25714340806007385,0.40304261445999146,-1.084091067314148
1789635448423752200,7.016752197265625,-0.3038155436515808,0.6149221062660217,-1.0752125978469849
1789635448433792000,7.0267919921875,-0.33474788069725037,0.36013883352279663,-1.0265063047409058
1789635448443832000,7.03683203125,-0.3395695388317108,0.06155787408351898,-0.8377314805984497
1789635448453872000,7.0468720703125,-0.31693026423454285,-0.06421550363302231,-0.5988730788230896
1789635448463912200,7.056912109375,-0.3096771836280823,-0.09672056883573532,-0.44176122546195984
1789635448473952300,7.0669521484375,-0.35754725337028503,-0.08234722167253494,-0.21251899003982544
1789635448483991000,7.076990966796875,-0.3600291609764099,0.08084433525800705,0.12759116291999817
1789635448494031000,7.087031005859375,-0.2623811662197113,0.31662890315055847,0.32690533995628357
1789635448504071200,7.0970712890625,-0.1322135627269745,0.33625906705856323,0.28246062994003296
1789635448514111200,7.107111328125,-0.047890160232782364,0.15336354076862335,0.2161327451467514
1789635448524151300,7.1171513671875,-0.017614204436540604,0.1503256857395172,0.21261753141880035
1789635448534191000,7.127191162109375,-0.057815417647361755,0.21992127597332,0.3133601248264313
1789635448544231200,7.137231201171875,-0.1641465574502945,0.2761666774749756,0.44877636432647705
1789635448554271200,7.147271240234375,-0.2262147217988968,0.3462679982185364,0.6022042632102966
1789635448564311300,7.157311279296875,-0.23389014601707458,0.3422253429889679,0.8140157461166382
1789635448574350000,7.16735009765625,-0.18688908219337463,0.3091672360897064,1.0217393636703491
1789635448584390100,7.17739013671875,-0.1672130823135376,0.2788296043872833,1.157559871673584
1789635448594430200,7.18743017578125,-0.19448652863502502,0.2723786234855652,1.2461318969726562
1789635448604470300,7.19747021484375,-0.20985186100006104,0.42229193449020386,1.2752641439437866
1789635448614510300,7.20751025390625,-0.1725444346666336,0.5182299017906189,1.2349929809570312
1789635448624550400,7.21755029296875,-0.13848364353179932,0.32426583766937256,1.2113059759140015
1789635448634590200,7.227590087890625,-0.1374913454055786,0.15219420194625854,1.3148483037948608
1789635448644630300,7.23763037109375,-0.17153264582157135,0.2786089777946472,1.5387221574783325
1789635448654670300,7.24767041015625,-0.18358665704727173,0.604753315448761,1.6947098970413208
1789635448664709400,7.25770947265625,-0.10078111290931702,0.7204073071479797,1.6417958736419678
1789635448674749200,7.267749267578125,0.07652070373296738,0.5308128595352173,1.5432019233703613
1789635448684789200,7.277789306640625,0.23975850641727448,0.3949572741985321,1.5830159187316895
1789635448694829300,7.287829345703125,0.26582926511764526,0.574989378452301,1.7345929145812988
1789635448704869400,7.297869384765625,0.22274796664714813,0.8672911524772644,1.8330576419830322
1789635448714909400,7.307909423828125,0.2099916934967041,0.8142601251602173,1.8097707033157349
1789635448724949200,7.31794921875,0.2733539938926697,0.5473315715789795,1.7660865783691406
1789635448734989000,7.327989013671875,0.36460641026496887,0.47670087218284607,1.7902277708053589
1789635448745029000,7.338029052734375,0.4191030263900757,0.5904453992843628,1.7850345373153687
1789635448755068400,7.348068359375,0.3844374716281891,0.6707820296287537,1.668619990348816
1789635448765108200,7.358108154296875,0.31809109449386597,0.48675787448883057,1.5406739711761475
1789635448775148000,7.36814794921875,0.33046576380729675,0.28460901975631714,1.5598682165145874
1789635448785188000,7.37818798828125,0.41677263379096985,0.3377280533313751,1.6646214723587036
1789635448795228200,7.388228271484375,0.4330078065395355,0.6418357491493225,1.7384997606277466
1789635448805268200,7.398268310546875,0.40279194712638855,0.6901785135269165,1.6705585718154907
1789635448815308300,7.408308349609375,0.37591585516929626,0.31158673763275146,1.5466712713241577
1789635448825348000,7.41834814453125,0.3973274528980255,0.0054938094690442085,1.528542160987854
1789635448835388200,7.42838818359375,0.4041145145893097,0.01611289754509926,1.6134940385818481
1789635448845427200,7.43842724609375,0.38139277696609497,0.10734663903713226,1.6697766780853271
1789635448855467300,7.44846728515625,0.2861536145210266,-0.02316955290734768,1.6110416650772095
1789635448865507000,7.458507080078125,0.17089587450027466,-0.26122087240219116,1.5294926166534424
1789635448875547100,7.468547119140625,0.1013500913977623,-0.3172095715999603,1.5358083248138428
1789635448885587200,7.478587158203125,0.1096927672624588,-0.20655573904514313,1.5831199884414673
1789635448895627300,7.488627197265625,0.13407427072525024,0.04135845601558685,1.657538890838623
1789635448905667300,7.498667236328125,0.09977084398269653,0.29411253333091736,1.7208789587020874
1789635448915707100,7.50870703125,0.0438242182135582,0.3086400628089905,1.670174479484558
1789635448925747200,7.518747314453125,0.021916862577199936,0.024536728858947754,1.5260385274887085
1789635448935786200,7.5287861328125,0.012680222280323505,-0.2597770094871521,1.414826512336731
1789635448945826300,7.538826416015625,-0.005086097866296768,-0.16529765725135803,1.4320154190063477
1789635448955866400,7.548866455078125,-0.012427634559571743,0.09952732920646667,1.4752278327941895
1789635448965906200,7.55890625,-0.008181074634194374,0.18845801055431366,1.4781603813171387
1789635448975946200,7.5689462890625,-0.02994363009929657,0.2717384994029999,1.446088194847107
1789635448985986300,7.578986328125,-0.01680605113506317,0.14656662940979004,1.351878046989441
1789635448996026400,7.5890263671875,0.027274323627352715,-0.20093514025211334,1.2045273780822754
1789635449006066400,7.59906640625,0.01930401474237442,-0.16196510195732117,1.15536630153656
1789635449016106200,7.609106201171875,-0.051557332277297974,0.3788028061389923,1.1740667819976807
1789635449026145300,7.619145263671875,-0.14410188794136047,0.6885461211204529,1.136608600616455
1789635449036185300,7.629185302734375,-0.16358476877212524,0.48624733090400696,1.0508321523666382
1789635449046225400,7.639225341796875,-0.10446944832801819,0.20441195368766785,1.0021839141845703
1789635449056265200,7.64926513671875,-0.05627422407269478,0.22100290656089783,1.0196079015731812
1789635449066305300,7.65930517578125,-0.053122106939554214,0.4717392325401306,1.0358582735061646
1789635449076345000,7.669344970703125,-0.04481437802314758,0.5419148802757263,0.9962676167488098
1789635449086385200,7.67938525390625,0.0010815276764333248,0.2978232502937317,0.9141960740089417
1789635449096425200,7.68942529296875,0.09433451294898987,-0.005447933450341225,0.8736720681190491
1789635449106465300,7.69946533203125,0.1323222517967224,-0.0885395035147667,0.8896035552024841
1789635449116504300,7.70950439453125,0.07927873730659485,0.07997334003448486,0.8779615759849548
1789635449126544100,7.719544189453125,0.015183274634182453,0.1930752694606781,0.8030235171318054
1789635449136584200,7.729584228515625,-0.03986320272088051,0.1610129475593567,0.7075307965278625
1789635449146624300,7.739624267578125,-0.06366151571273804,0.07663068920373917,0.6003425717353821
1789635449156664000,7.7496640625,-0.06652148067951202,-0.03575364127755165,0.4687408208847046
1789635449166704000,7.7597041015625,-0.12908442318439484,-0.1245996356010437,0.30549120903015137
1789635449176744200,7.769744140625,-0.22729754447937012,-0.0074362605810165405,0.11021200567483902
1789635449186784300,7.7797841796875,-0.2812158465385437,0.11929772794246674,-0.09378410130739212
1789635449196824300,7.78982421875,-0.24344554543495178,-0.0122965257614851,-0.22641751170158386
1789635449206863000,7.799863037109375,-0.24630072712898254,-0.06133250892162323,-0.3040928542613983
1789635449216903400,7.8099033203125,-0.25881677865982056,0.2475566267967224,-0.42428505420684814
1789635449226943500,7.819943603515625,-0.20522354543209076,0.3973076641559601,-0.5596691370010376
1789635449236983600,7.829983642578125,-0.19748705625534058,0.39118266105651855,-0.6490927338600159
1789635449247023600,7.840023681640625,-0.24080267548561096,0.23883706331253052,-0.6553851962089539
1789635449257063400,7.8500634765625,-0.23505717515945435,-0.08167145401239395,-0.6170894503593445
1789635449267103500,7.860103515625,-0.25441816449165344,-0.19197946786880493,-0.593708872795105
1789635449277143600,7.8701435546875,-0.23540450632572174,-0.08692015707492828,-0.6605955362319946
1789635449287183600,7.88018359375,-0.24130879342556,-0.0894329845905304,-0.7334235310554504
1789635449297222400,7.890222412109375,-0.3053314685821533,0.02997596189379692,-0.7644525766372681
1789635449307262500,7.900262451171875,-0.28761622309684753,0.12093501538038254,-0.7196062803268433
1789635449317302500,7.910302490234375,-0.21592339873313904,0.02683594822883606,-0.5970452427864075
1789635449327342600,7.920342529296875,-0.16464723646640778,-0.04091513901948929,-0.47403717041015625
1789635449337382700,7.930382568359375,-0.14543280005455017,0.0992283895611763,-0.4771224558353424
1789635449347422500,7.94042236328125,-0.19199073314666748,0.3922939598560333,-0.5688598155975342
1789635449357462500,7.950462646484375,-0.19268634915351868,0.5985099673271179,-0.662479817867279
1789635449367502300,7.96050244140625,-0.12797904014587402,0.4930141866207123,-0.6667140126228333
1789635449377541600,7.970541748046875,-0.03249938786029816,0.22454437613487244,-0.6094869375228882
1789635449387581700,7.980581787109375,0.007069933228194714,-0.00487948814406991,-0.6189923882484436
1789635449397621500,7.99062158203125,0.011249498464167118,-0.14059630036354065,-0.7074282765388489
1789635449407661300,8.000661376953126,0.04338952898979187,-0.23827503621578217,-0.7375081777572632
1789635449417701400,8.010701416015625,0.09294962137937546,-0.35838016867637634,-0.6842654943466187
1789635449427741400,8.020741455078126,0.09997642040252686,-0.3729308843612671,-0.6582628488540649
1789635449437781500,8.030781494140625,0.10464440286159515,-0.2554926574230194,-0.67738938331604
1789635449447821300,8.0408212890625,0.09621717780828476,-0.02719689905643463,-0.708648681640625
1789635449457861400,8.050861328125,0.10256881266832352,0.2382134646177292,-0.7381218671798706
1789635449467900400,8.060900390625,0.13695509731769562,0.3734689950942993,-0.7772247195243835
1789635449477940500,8.0709404296875,0.20577703416347504,0.2960676848888397,-0.8238005042076111
1789635449487980300,8.080980224609375,0.26376453042030334,0.07029996812343597,-0.8810113072395325
1789635449498020400,8.091020263671876,0.29825088381767273,-0.13575707376003265,-0.9555792808532715
1789635449508060400,8.101060302734375,0.3010585606098175,-0.2748679518699646,-1.0336828231811523
1789635449518100500,8.1111005859375,0.2550910711288452,-0.24205675721168518,-1.099286675453186
1789635449528140500,8.121140625,0.18661686778068542,-0.039831873029470444,-1.1759990453720093
1789635449538180600,8.1311806640625,0.13229690492153168,0.10671282559633255,-1.2500687837600708
1789635449548220400,8.141220458984375,0.07448466122150421,0.11552974581718445,-1.2697480916976929
1789635449558259500,8.151259521484375,0.002687168773263693,0.07739434391260147,-1.25680673122406
1789635449568299500,8.161299560546874,-0.0033297324553132057,-0.025200599804520607,-1.233582615852356
1789635449578339600,8.171339599609375,0.10821276903152466,-0.26119980216026306,-1.179258942604065
1789635449588379400,8.18137939453125,0.22946883738040924,-0.3695666193962097,-1.0988643169403076
1789635449598419500,8.19141943359375,0.2617833614349365,-0.45151767134666443,-1.0597107410430908
1789635449608459500,8.20145947265625,0.24459999799728394,-0.43055981397628784,-1.1050763130187988
1789635449618499600,8.21149951171875,0.24376536905765533,-0.3255351483821869,-1.1743988990783691
1789635449628539600,8.22153955078125,0.26303327083587646,-0.41027334332466125,-1.1977589130401611
1789635449638579500,8.231579345703125,0.2207190990447998,-0.6103944182395935,-1.23954439163208
1789635449648618500,8.241618408203125,0.12139367312192917,-0.6811771392822266,-1.363802194595337
1789635449658658600,8.251658447265624,0.10197390615940094,-0.5660009980201721,-1.4188404083251953
1789635449668698600,8.26169873046875,0.10413825511932373,-0.5404999256134033,-1.3858132362365723
1789635449678738700,8.27173876953125,0.12751227617263794,-0.6607744097709656,-1.3248018026351929
1789635449688778500,8.281778564453125,0.16891667246818542,-0.7851722240447998,-1.2349637746810913
1789635449698818600,8.291818603515624,0.17550507187843323,-0.7824930548667908,-1.1755907535552979
1789635449708858400,8.3018583984375,0.1845787912607193,-0.7987135052680969,-1.2112661600112915
1789635449718898400,8.3118984375,0.21453136205673218,-0.8322645425796509,-1.301866888999939
1789635449728938500,8.3219384765625,0.25479990243911743,-0.8827512264251709,-1.3901472091674805
1789635449738977500,8.3319775390625,0.29272863268852234,-1.041374921798706,-1.471387505531311
1789635449749017600,8.342017578125,0.28977635502815247,-1.071026086807251,-1.512243628501892
1789635449759057400,8.352057373046875,0.2627095878124237,-0.9090180397033691,-1.4952768087387085
1789635449769097500,8.362097412109375,0.23622915148735046,-0.7861648797988892,-1.4484233856201172
1789635449779137300,8.37213720703125,0.2083176225423813,-0.7703579664230347,-1.423403024673462
1789635449789177300,8.38217724609375,0.1768348217010498,-0.8222583532333374,-1.4451913833618164
1789635449799217400,8.392217529296875,0.13935935497283936,-0.8224160075187683,-1.4549072980880737
1789635449809257500,8.402257568359374,0.12934519350528717,-0.6264702081680298,-1.423852801322937
1789635449819296300,8.412296142578125,0.14953221380710602,-0.3035281002521515,-1.4262275695800781
1789635449829336300,8.42233642578125,0.15388955175876617,-0.23102058470249176,-1.5539697408676147
1789635449839376400,8.43237646484375,0.11792809516191483,-0.47279083728790283,-1.6680307388305664
1789635449849416400,8.44241650390625,0.013027328066527843,-0.6799305081367493,-1.7014365196228027
1789635449859456500,8.45245654296875,-0.12697957456111908,-0.7823352217674255,-1.6222871541976929
1789635449869496600,8.46249658203125,-0.23207302391529083,-0.549776554107666,-1.5610356330871582
1789635449879536400,8.472536376953125,-0.27450066804885864,-0.2618722915649414,-1.5275517702102661
1789635449889576400,8.482576416015625,-0.304343044757843,-0.23955827951431274,-1.4852980375289917
1789635449899616500,8.492616455078124,-0.35655778646469116,-0.3914759159088135,-1.4431610107421875
1789635449909656600,8.502656494140625,-0.34272536635398865,-0.34302452206611633,-1.3851429224014282
1789635449919695400,8.5126953125,-0.2649592161178589,0.04065948724746704,-1.3657162189483643
1789635449929735400,8.5227353515625,-0.17611896991729736,0.3289383053779602,-1.3857018947601318
1789635449939775500,8.532775390625,-0.12826064229011536,0.4335416853427887,-1.366418480873108
1789635449949815600,8.542815673828125,-0.1608438491821289,0.31754130125045776,-1.2318050861358643
1789635449959855600,8.552855712890626,-0.24221113324165344,0.15477584302425385,-1.0333484411239624
1789635449969895400,8.5628955078125,-0.3173057436943054,0.08592738211154938,-0.803148627281189
1789635449979935500,8.572935546875,-0.3668980598449707,0.2627197206020355,-0.5878803133964539
1789635449989975600,8.5829755859375,-0.32609888911247253,0.4681073725223541,-0.49388250708580017
1789635450000015600,8.593015625,-0.2645084857940674,0.3655112087726593,-0.3958246409893036
1789635450010054700,8.6030546875,-0.18512998521327972,0.21415270864963531,-0.2932676076889038
1789635450020094500,8.613094482421875,-0.10719895362854004,0.23620687425136566,-0.21233811974525452
1789635450030134500,8.623134521484374,-0.05107086896896362,0.28237998485565186,-0.16835680603981018
1789635450040174600,8.633174560546875,-0.024370547384023666,0.4227503836154938,-0.11854662746191025
1789635450050214700,8.643214599609376,0.0004662522114813328,0.3219963610172272,-0.021526096388697624
1789635450060254500,8.65325439453125,0.007462908513844013,0.03635528311133385,0.046581052243709564
1789635450070294300,8.663294189453126,-0.04009852930903435,0.023148411884903908,0.0927269384264946
1789635450080334300,8.673334228515625,-0.1344681680202484,0.2068391591310501,0.22858969867229462
1789635450090374400,8.68337451171875,-0.18098437786102295,0.19470618665218353,0.4193091094493866
1789635450100413400,8.693413330078124,-0.1355345994234085,0.22144140303134918,0.5859572291374207
1789635450110453200,8.703453369140625,-0.021664394065737724,0.39225295186042786,0.7561041116714478
1789635450120493300,8.713493408203124,0.07799935340881348,0.5066812634468079,0.9097785949707031
1789635450130533400,8.723533447265625,0.10160576552152634,0.6058682799339294,1.055565595626831
1789635450140573400,8.733573486328124,0.13998724520206451,0.7565808296203613,1.189237117767334
1789635450150613500,8.743613525390625,0.21496926248073578,0.876583456993103,1.3026518821716309
1789635450160653600,8.753653564453124,0.24030178785324097,0.7527565360069275,1.405914068222046
1789635450170693400,8.763693359375,0.16628892719745636,0.6834142208099365,1.5892186164855957
1789635450180733400,8.7737333984375,0.0459638349711895,0.776397705078125,1.77876877784729
1789635450190772500,8.7837724609375,-0.012762531638145447,0.7411913871765137,1.8042891025543213
1789635450200812500,8.7938125,-0.003966376651078463,0.6055256724357605,1.7280635833740234
1789635450210852400,8.803852294921874,0.03494548425078392,0.5729299187660217,1.7367751598358154
1789635450220892400,8.813892333984375,0.09311185777187347,0.6489573121070862,1.8169828653335571
1789635450230932500,8.823932373046874,0.17165100574493408,0.6333752870559692,1.8279564380645752
1789635450240972300,8.83397216796875,0.260342001914978,0.5563073754310608,1.8399182558059692
1789635450251012400,8.844012451171874,0.32273945212364197,0.5640407204627991,1.9640228748321533
1789635450261052400,8.854052490234375,0.3934447765350342,0.6267911791801453,2.0997393131256104
1789635450271091500,8.864091552734376,0.4659937620162964,0.7236802577972412,2.0980148315429688
1789635450281131500,8.874131591796875,0.49118486046791077,0.8008413314819336,2.028411626815796
1789635450291171300,8.88417138671875,0.44888758659362793,0.8374693989753723,2.050677537918091
1789635450301211400,8.89421142578125,0.37580299377441406,0.714360773563385,2.0914881229400635
1789635450311251500,8.90425146484375,0.3421279788017273,0.5066154599189758,2.070916175842285
1789635450321291500,8.91429150390625,0.30290573835372925,0.5276155471801758,2.0325233936309814
1789635450331331600,8.92433154296875,0.25640472769737244,0.7571999430656433,2.0013976097106934
1789635450341371400,8.934371337890624,0.23325864970684052,0.6923738121986389,1.916838526725769
1789635450351411500,8.944411376953125,0.15005365014076233,0.28474459052085876,1.806551456451416
1789635450361450500,8.954450439453124,-0.012786670587956905,-0.012469234876334667,1.8084663152694702
1789635450371490600,8.964490478515625,-0.12486979365348816,0.0858742743730545,1.9471592903137207
1789635450381530400,8.9745302734375,-0.11574819684028625,0.2884657084941864,2.0812597274780273
1789635450391570400,8.9845703125,-0.047178443521261215,0.32261115312576294,2.083768606185913
1789635450401610500,8.994610595703126,0.004727363120764494,0.2528661787509918,1.997543215751648
1789635450411650300,9.004650390625,0.08057089895009995,0.2596043348312378,1.9033817052841187
1789635450421690400,9.0146904296875,0.22428253293037415,0.21239690482616425,1.8302315473556519
1789635450431730400,9.02473046875,0.3278384208679199,0.27049097418785095,1.794942021369934
1789635450441770200,9.034770263671875,0.3531552255153656,0.3695507049560547,1.7616420984268188
1789635450451809300,9.044809326171874,0.2949323058128357,0.15247789025306702,1.6877497434616089
1789635450461849300,9.054849365234375,0.1899648904800415,-0.21590200066566467,1.666081428527832
1789635450471889400,9.064889404296874,0.09018559008836746,-0.16565878689289093,1.7430561780929565
1789635450481929200,9.07492919921875,0.02164994180202484,-0.022212140262126923,1.8060857057571411
1789635450491969300,9.08496923828125,-0.041387882083654404,0.009899724274873734,1.7861882448196411
1789635450502009300,9.09500927734375,-0.10149569064378738,0.09745247662067413,1.6982839107513428
1789635450512049400,9.10504931640625,-0.1346709281206131,0.23550286889076233,1.6191624402999878
1789635450522089500,9.11508935546875,-0.07739831507205963,0.42877352237701416,1.6340471506118774
1789635450532129300,9.12512939453125,0.07148180902004242,0.6269689202308655,1.5946029424667358
1789635450542168300,9.135168212890624,0.27226898074150085,0.3110501170158386,1.4105303287506104
1789635450552208400,9.14520849609375,0.4251367747783661,-0.14860136806964874,1.2456806898117065
1789635450562248400,9.15524853515625,0.42583584785461426,-0.10534683614969254,1.1965248584747314
1789635450572288300,9.165288330078125,0.30410879850387573,0.36678168177604675,1.245771050453186
1789635450582328300,9.175328369140624,0.24431604146957397,0.5194393992424011,1.2354563474655151
1789635450592368400,9.185368408203125,0.2801774740219116,0.07904576510190964,1.1316561698913574
1789635450602408400,9.195408447265624,0.21157659590244293,-0.34972184896469116,0.9886585474014282
1789635450612448500,9.205448486328125,0.009884882718324661,-0.09648758172988892,0.7763938903808594
1789635450622488600,9.215488525390626,-0.136816143989563,0.31620118021965027,0.4457142651081085
1789635450632527400,9.22552734375,-0.1770237535238266,0.48092809319496155,0.12122893333435059
1789635450642567400,9.2355673828125,-0.1576644331216812,0.5441997647285461,-0.12506580352783203
1789635450652607500,9.245607421875,-0.09406324476003647,0.5553900599479675,-0.319987952709198
1789635450662647600,9.2556474609375,-0.021459350362420082,0.36074310541152954,-0.525393009185791
1789635450672687400,9.265687255859374,0.01470093335956335,0.15869653224945068,-0.76398104429245
1789635450682727400,9.2757275390625,-0.016177088022232056,0.05600477010011673,-0.9738732576370239
1789635450692767500,9.285767578125,-0.06686295568943024,0.09676298499107361,-1.1411314010620117
1789635450702807600,9.2958076171875,-0.09331133961677551,0.08604376018047333,-1.2448385953903198
1789635450712847400,9.305847412109374,-0.12406753748655319,0.06912202388048172,-1.25818932056427
1789635450722886400,9.315886474609375,-0.15022829174995422,0.1420939564704895,-1.2209622859954834
1789635450732926500,9.325926513671876,-0.16953140497207642,0.347299724817276,-1.195468544960022
1789635450742966500,9.335966552734375,-0.1571146845817566,0.5823156833648682,-1.1592735052108765
1789635450753006300,9.34600634765625,-0.04696406051516533,0.6979253888130188,-1.0746722221374512
1789635450763046400,9.35604638671875,0.08328235894441605,0.5383426547050476,-0.8797999024391174
1789635450773086200,9.366086181640625,0.14641369879245758,0.30775684118270874,-0.6312187314033508
1789635450783126300,9.376126220703124,0.13489605486392975,0.26698464155197144,-0.5005677938461304
1789635450793166300,9.386166259765625,0.1338328868150711,0.16044582426548004,-0.47044530510902405
1789635450803205400,9.396205322265626,0.19387172162532806,-0.19379214942455292,-0.4211542010307312
1789635450813245200,9.4062451171875,0.17084819078445435,-0.4089815616607666,-0.3699999153614044
1789635450823285200,9.41628515625,0.12505407631397247,-0.35537558794021606,-0.4330979287624359
1789635450833325300,9.4263251953125,0.11008714884519577,-0.18581025302410126,-0.5502766966819763
1789635450843365400,9.436365478515626,0.09623578190803528,-0.003516353666782379,-0.605659008026123
1789635450853405400,9.446405517578125,0.07200201600790024,0.11515345424413681,-0.6159993410110474
1789635450863445200,9.4564453125,0.0996890440583229,0.11491750180721283,-0.6475293040275574
1789635450873485300,9.4664853515625,0.15031255781650543,0.06873734295368195,-0.6620288491249084
1789635450883525400,9.476525390625,0.15902669727802277,0.08130533248186111,-0.6845058798789978
1789635450893564400,9.486564453125,0.14105618000030518,0.027768857777118683,-0.7574561834335327
1789635450903604500,9.4966044921875,0.1244867816567421,-0.05226286128163338,-0.8333908915519714
1789635450913644300,9.506644287109374,0.10743951052427292,-0.11888501793146133,-0.8969327807426453
1789635450923684400,9.516684326171875,0.06989026814699173,-0.10381658375263214,-0.9463549256324768
1789635450933724400,9.526724365234376,0.043137241154909134,0.05763714015483856,-0.9874680042266846
1789635450943764500,9.536764404296875,0.047474730759859085,0.16422563791275024,-1.0336096286773682
1789635450953804500,9.546804443359376,0.0954107940196991,0.13789574801921844,-1.0726085901260376
1789635450963844400,9.55684423828125,0.12872134149074554,-0.006844652816653252,-1.1493557691574097
1789635450973884400,9.566884521484376,0.16167430579662323,-0.20896843075752258,-1.2298083305358887
1789635450983923500,9.57692333984375,0.20952358841896057,-0.4509999454021454,-1.25039803981781
1789635450993963500,9.586963623046875,0.239350363612175,-0.6768224239349365,-1.2222845554351807
1789635451004003300,9.59700341796875,0.19328086078166962,-0.7252957224845886,-1.2253069877624512
1789635451014043400,9.60704345703125,0.09602624177932739,-0.5457664132118225,-1.2833290100097656
1789635451024083500,9.61708349609375,0.029490094631910324,-0.1720234751701355,-1.3148525953292847
1789635451034123500,9.62712353515625,0.06544138491153717,0.084259033203125,-1.2759039402008057
1789635451044163600,9.63716357421875,0.22632268071174622,-0.009218980558216572,-1.2223893404006958
1789635451054203400,9.647203369140625,0.37351226806640625,-0.4056205451488495,-1.1878230571746826
1789635451064243200,9.6572431640625,0.3822937607765198,-0.6163939833641052,-1.2065798044204712
1789635451074282500,9.667282470703125,0.3355610966682434,-0.6376148462295532,-1.277238130569458
1789635451084322600,9.677322509765625,0.27226200699806213,-0.6857270002365112,-1.345837116241455
1789635451094362600,9.687362548828125,0.1638651341199875,-0.5821060538291931,-1.3977950811386108
1789635451104402200,9.697402099609375,0.08548324555158615,-0.43453818559646606,-1.418343186378479
1789635451114442200,9.707442138671874,0.08584091067314148,-0.4158928692340851,-1.4232999086380005
1789635451124482300,9.717482421875,0.15161779522895813,-0.41567209362983704,-1.3516077995300293
1789635451134522400,9.7275224609375,0.2299589365720749,-0.5576981902122498,-1.2880815267562866
1789635451144562400,9.7375625,0.2621203362941742,-0.7312090396881104,-1.3072459697723389
1789635451154602200,9.747602294921874,0.2140050083398819,-0.6932728290557861,-1.3574620485305786
1789635451164641300,9.757641357421875,0.1872229278087616,-0.6194020509719849,-1.4178725481033325
1789635451174681300,9.767681396484376,0.1721297800540924,-0.7308117747306824,-1.4795727729797363
1789635451184721400,9.777721435546875,0.1361779123544693,-0.8082727193832397,-1.5255335569381714
1789635451194761200,9.78776123046875,0.10581903904676437,-0.8845327496528625,-1.5888861417770386
1789635451204801300,9.79780126953125,0.1031673327088356,-0.8369817733764648,-1.6313585042953491
1789635451214841300,9.80784130859375,0.1177656501531601,-0.725985586643219,-1.6759973764419556
1789635451224881200,9.817881103515624,0.1049577072262764,-0.7032134532928467,-1.7698005437850952
1789635451234921200,9.827921142578125,0.031489789485931396,-0.6978028416633606,-1.8229178190231323
1789635451244961300,9.837961181640624,-0.06000577658414841,-0.5641198754310608,-1.8105552196502686
1789635451255000000,9.848,-0.09913656860589981,-0.4510491192340851,-1.7984274625778198
1789635451265040100,9.8580400390625,-0.10065110772848129,-0.4260673224925995,-1.8015004396438599
1789635451275080200,9.868080078125,-0.07065942883491516,-0.4838421940803528,-1.7775239944458008
1789635451285120300,9.878120361328126,-0.026891442015767097,-0.5415363907814026,-1.7240186929702759
1789635451295160300,9.888160400390625,0.016991933807730675,-0.42350801825523376,-1.637974500656128
1789635451305200400,9.898200439453126,0.01314100343734026,-0.19196480512619019,-1.6007664203643799
1789635451315240200,9.908240234375,-0.009378666058182716,-0.2460779845714569,-1.6059825420379639
1789635451325280300,9.9182802734375,-0.09691596776247025,-0.3829687237739563,-1.5709227323532104
1789635451335319300,9.9283193359375,-0.2115684151649475,-0.38766321539878845,-1.5165578126907349
1789635451345359400,9.938359375,-0.26410728693008423,-0.30547353625297546,-1.4868414402008057
1789635451355399200,9.948399169921874,-0.2451860010623932,-0.24908579885959625,-1.4460808038711548
1789635451365439200,9.958439208984375,-0.20195119082927704,-0.15994153916835785,-1.369232416152954
1789635451375479300,9.968479248046876,-0.13602666556835175,-0.08432208746671677,-1.2369437217712402
1789635451385519400,9.978519287109375,-0.09841936826705933,-0.008341572247445583,-1.050228238105774
1789635451395559400,9.988559326171876,-0.10656507313251495,-0.049959491938352585,-0.8936904668807983
1789635451405599200,9.99859912109375,-0.17787520587444305,0.050046999007463455,-0.758403480052948
1789635451415639000,10.00863916015625,-0.2872534990310669,0.044240787625312805,-0.6203001141548157
1789635451425678300,10.01867822265625,-0.3831169009208679,-0.10721664130687714,-0.5655643939971924
1789635451435718400,10.028718505859375,-0.44719547033309937,-0.3374461233615875,-0.490866482257843
1789635451445758500,10.038758544921874,-0.4764212667942047,-0.519014298915863,-0.3690524101257324
1789635451455798300,10.04879833984375,-0.44224175810813904,-0.38935670256614685,-0.24122606217861176
1789635451465838000,10.058838134765624,-0.3952992856502533,-0.18442194163799286,-0.11838562786579132
1789635451475878100,10.068878173828125,-0.3581913709640503,-0.04677741602063179,0.012731007300317287
1789635451485918200,10.078918212890626,-0.31412482261657715,0.24725687503814697,0.11485923826694489
1789635451495958300,10.088958251953125,-0.20575419068336487,0.5367534160614014,0.1259227693080902
1789635451505998000,10.098998046875,-0.09200312197208405,0.5954646468162537,0.006416347809135914
1789635451516037000,10.109037109375,-0.025602558627724648,0.3277839422225952,-0.03318391740322113
1789635451526077200,10.1190771484375,-0.06643813848495483,0.14920273423194885,0.1910768747329712
1789635451536117200,10.1291171875,-0.1449940949678421,0.3863990902900696,0.5918397903442383
1789635451546157000,10.139156982421875,-0.21653752028942108,0.604473888874054,0.9451075792312622
1789635451556197000,10.149197021484374,-0.25579097867012024,0.6751229763031006,1.1517771482467651
1789635451566237200,10.1592373046875,-0.18214499950408936,0.7204153537750244,1.200644850730896
1789635451576277200,10.16927734375,-0.06021004170179367,0.7117220163345337,1.2526803016662598
1789635451586317300,10.1793173828125,-0.024057870730757713,0.6572615504264832,1.4005625247955322
1789635451596357400,10.189357421875,-0.0854320377111435,0.5364857316017151,1.6350889205932617
1789635451606396200,10.199396240234375,-0.19418488442897797,0.5453972220420837,1.911049723625183
1789635451616436200,10.209436279296876,-0.28035855293273926,0.8519144058227539,2.139421224594116
1789635451626476300,10.219476318359375,-0.23063334822654724,1.0354366302490234,2.155379056930542
1789635451636516400,10.229516357421875,-0.11096274107694626,0.9339383244514465,2.0527071952819824
1789635451646556200,10.23955615234375,-0.04285798594355583,0.6826680302619934,2.082291603088379
1789635451656596200,10.24959619140625,-0.12502513825893402,0.5471823215484619,2.301022529602051
1789635451666636300,10.25963623046875,-0.26005539298057556,0.5959336161613464,2.538114547729492
1789635451676676400,10.26967626953125,-0.249164879322052,0.6193338632583618,2.5946712493896484
1789635451686716400,10.27971630859375,-0.03487095236778259,0.5721461176872253,2.459195613861084
1789635451696755200,10.289755126953125,0.1783016473054886,0.716254711151123,2.3726890087127686
1789635451706795300,10.299795166015626,0.23555268347263336,1.08730947971344,2.452610492706299
1789635451716835300,10.30983544921875,0.17300036549568176,1.2263264656066895,2.4724795818328857
1789635451726875400,10.31987548828125,0.15970666706562042,0.7448404431343079,2.380070447921753
1789635451736915200,10.329915283203125,0.1432599425315857,0.27357399463653564,2.327857732772827
1789635451746955300,10.339955322265626,0.08781667053699493,0.3308221101760864,2.399981737136841
1789635451756995300,10.349995361328125,0.06752734631299973,0.7590674757957458,2.4873719215393066
1789635451767035100,10.36003515625,0.1137787252664566,0.9167247414588928,2.3530259132385254
1789635451777075200,10.3700751953125,0.1313723921775818,0.24866650998592377,1.9667552709579468
1789635451787114200,10.3801142578125,-0.0162559375166893,-0.3839111924171448,1.6826725006103516
1789635451797154300,10.390154296875,-0.19026519358158112,-0.2585691213607788,1.7534315586090088
1789635451807194000,10.400194091796875,-0.26199743151664734,0.022195681929588318,1.9819667339324951
1789635451817234200,10.410234130859376,-0.3025456368923187,0.09279926866292953,2.170881748199463
1789635451827274200,10.420274169921875,-0.3037690818309784,0.34218353033065796,2.265448570251465
1789635451837314000,10.43031396484375,-0.26474106311798096,0.6604761481285095,2.1843717098236084
1789635451847354000,10.44035400390625,-0.14116452634334564,0.6971425414085388,1.9386581182479858
1789635451857394200,10.450394287109376,0.031296323984861374,0.2938616871833801,1.6602940559387207
1789635451867434200,10.460434326171875,0.16832341253757477,-0.18938274681568146,1.4803324937820435
1789635451877473000,10.47047314453125,0.22134634852409363,-0.4481125473976135,1.4986375570297241
1789635451887513000,10.48051318359375,0.2220563441514969,-0.3281688392162323,1.6360963582992554
1789635451897553200,10.49055322265625,0.23280851542949677,-0.17616015672683716,1.7028504610061646
1789635451907593200,10.50059326171875,0.16348376870155334,-0.015279398299753666,1.669449806213379
1789635451917633300,10.51063330078125,0.03252081573009491,0.32852667570114136,1.5812941789627075
1789635451927673300,10.52067333984375,-0.023771485313773155,0.438947468996048,1.495713472366333
1789635451937713200,10.530713134765625,-0.017918508499860764,0.23645484447479248,1.4505960941314697
1789635451947753200,10.540753173828126,0.05857360363006592,0.1042717695236206,1.385133981704712
1789635451957793300,10.550793212890625,0.15574942529201508,-0.0801665186882019,1.3108844757080078
1789635451967832300,10.560832275390625,0.11464779078960419,-0.1300850808620453,1.1984519958496094
1789635451977872100,10.5708720703125,-0.06137305870652199,0.07649566978216171,1.017343521118164
1789635451987912200,10.580912109375,-0.2206849455833435,0.3232543170452118,0.777208685874939
1789635451997952300,10.5909521484375,-0.2403128743171692,0.4208117723464966,0.5600088834762573
1789635452007992300,10.600992431640625,-0.16910633444786072,0.44798585772514343,0.3399396538734436
1789635452018032400,10.611032470703124,-0.0705544501543045,0.43136265873908997,0.06166078895330429
1789635452028072200,10.621072265625,-0.028986234217882156,0.3859917223453522,-0.19526048004627228
1789635452038112300,10.6311123046875,-0.016216235235333443,0.30405426025390625,-0.3437235653400421
1789635452048151300,10.6411513671875,0.002742008538916707,0.2591395080089569,-0.3489345908164978
1789635452058191400,10.65119140625,-0.04552605003118515,0.45006775856018066,-0.3036094903945923
1789635452068231400,10.6612314453125,-0.00803886167705059,0.6570680737495422,-0.29864296317100525
1789635452078271200,10.671271240234375,0.015427912585437298,0.553649365901947,-0.2722092270851135
1789635452088311300,10.681311279296875,-0.0009076504502445459,0.12468358874320984,-0.2559700608253479
1789635452098351400,10.691351318359375,-0.0633077546954155,-0.3070579767227173,-0.30313974618911743
1789635452108391200,10.70139111328125,-0.11088699102401733,-0.49229946732521057,-0.4388248920440674
1789635452118431200,10.71143115234375,-0.16326972842216492,-0.4885191321372986,-0.6264317631721497
1789635452128471000,10.721470947265624,-0.21229799091815948,-0.3235917091369629,-0.7547838687896729
1789635452138510300,10.73151025390625,-0.24276401102542877,-0.1471729874610901,-0.784278392791748
1789635452148550100,10.741550048828126,-0.2731243073940277,0.07820606976747513,-0.7408398389816284
1789635452158590200,10.751590087890625,-0.25905391573905945,0.3973350524902344,-0.6943000555038452
1789635452168630000,10.761630126953126,-0.1646595001220703,0.7028449177742004,-0.6640257835388184
1789635452178670000,10.771670166015625,-0.05697981268167496,0.8894805908203125,-0.6289582848548889
1789635452188710100,10.781710205078125,0.020938683301210403,0.9061341285705566,-0.5839378237724304
1789635452198750200,10.791750244140625,0.08050882816314697,0.6931588649749756,-0.5482602715492249
1789635452208790300,10.801790283203125,0.13944938778877258,0.3401355445384979,-0.5111962556838989
1789635452218830600,10.81183056640625,0.1471569836139679,-0.022294290363788605,-0.505017101764679
1789635452228869600,10.82186962890625,0.07750599086284637,-0.225749671459198,-0.6089240312576294
1789635452238909400,10.831909423828124,0.024967003613710403,-0.24734020233154297,-0.7891011238098145
1789635452248949500,10.841949462890625,0.07094275206327438,-0.17064781486988068,-0.952543318271637
1789635452258989600,10.851989501953126,0.12486959248781204,-0.1337856650352478,-1.067677617073059
1789635452269029600,10.862029541015625,0.1430797576904297,-0.07764782011508942,-1.1287380456924438
1789635452279069700,10.872069580078126,0.1709377020597458,0.06345029920339584,-1.1473878622055054
1789635452289109800,10.88210986328125,0.22196386754512787,0.15931957960128784,-1.117815613746643
1789635452299149600,10.892149658203126,0.2178080528974533,0.20031413435935974,-1.066006064414978
1789635452309189600,10.902189697265625,0.20384323596954346,0.09280391782522202,-1.0135244131088257
1789635452319228700,10.912228759765625,0.16798244416713715,-0.0024942164309322834,-1.0363739728927612
1789635452329268700,10.922268798828124,0.13329902291297913,0.03395140916109085,-1.1633740663528442
1789635452339308500,10.93230859375,0.09654048830270767,-0.013947965577244759,-1.3438262939453125
1789635452349348600,10.9423486328125,0.09491383284330368,-0.07765530794858932,-1.4828555583953857
1789635452359388700,10.952388671875,0.09419483691453934,-0.18106330931186676,-1.5626808404922485
1789635452369428700,10.9624287109375,0.0204795990139246,-0.30684682726860046,-1.5568666458129883
1789635452379468800,10.97246875,-0.008991463109850883,-0.37686383724212646,-1.485693335533142
1789635452389508600,10.982508544921876,0.009497266262769699,-0.35520699620246887,-1.4009805917739868
1789635452399548400,10.99254833984375,0.011273466050624847,-0.25831708312034607,-1.3322967290878296
1789635452409587700,11.002587646484375,-0.04058413952589035,-0.22010764479637146,-1.2597887516021729
1789635452419627800,11.012627685546875,-0.04181236773729324,-0.2672145664691925,-1.1663169860839844
1789635452429667600,11.02266748046875,-0.019973380491137505,-0.34592562913894653,-1.1060248613357544
1789635452439707400,11.032707275390624,-0.0013860398903489113,-0.5367658734321594,-1.1610496044158936
1789635452449747500,11.04274755859375,-0.01308370940387249,-0.7583680748939514,-1.298251986503601
1789635452459787500,11.05278759765625,-0.039208028465509415,-0.8889532089233398,-1.4207518100738525
1789635452469827600,11.06282763671875,-0.0754946619272232,-0.9093362092971802,-1.4907300472259521
1789635452479867600,11.07286767578125,-0.07712244242429733,-0.8954237699508667,-1.4996689558029175
1789635452489906400,11.082906494140625,-0.08666215091943741,-0.8277922868728638,-1.46759033203125
1789635452499946500,11.092946533203126,-0.05840824916958809,-0.8496618866920471,-1.4547269344329834
1789635452509986600,11.102986572265625,-0.02430194430053234,-0.9294486045837402,-1.4455922842025757
1789635452520026600,11.113026611328126,0.0247677993029356,-0.9249756932258606,-1.4363517761230469
1789635452530066400,11.12306640625,0.08092561364173889,-0.8286211490631104,-1.4394428730010986
1789635452540106500,11.1331064453125,0.1180143877863884,-0.76722651720047,-1.4755862951278687
1789635452550146600,11.143146484375,0.12119899690151215,-0.659099280834198,-1.5625046491622925
1789635452560186600,11.1531865234375,0.12661895155906677,-0.6533814668655396,-1.7075384855270386
1789635452570226700,11.163226806640624,0.13387233018875122,-0.7258556485176086,-1.8571628332138062
1789635452580265500,11.173265380859375,0.12131617963314056,-0.7960147857666016,-1.9680359363555908
1789635452590305500,11.183305419921876,0.12545686960220337,-0.8038218021392822,-1.976784110069275
1789635452600345600,11.193345703125,0.12727470695972443,-0.649878978729248,-1.9183701276779175
1789635452610385700,11.2033857421875,0.1294017732143402,-0.5299544334411621,-1.8431811332702637
1789635452620425700,11.21342578125,0.11551185697317123,-0.4302820563316345,-1.7899364233016968
1789635452630465500,11.223465576171876,0.10307569801807404,-0.30138346552848816,-1.7322074174880981
1789635452640505600,11.233505615234375,0.14810919761657715,-0.2904531955718994,-1.701300859451294
1789635452650545700,11.243545654296875,0.22507242858409882,-0.39216065406799316,-1.7106921672821045
1789635452660585700,11.253585693359375,0.25204628705978394,-0.49346810579299927,-1.6914918422698975
1789635452670624500,11.26362451171875,0.20848096907138824,-0.5870009660720825,-1.6703490018844604
1789635452680664600,11.27366455078125,0.11364239454269409,-0.5289809107780457,-1.638593316078186
1789635452690704600,11.28370458984375,0.0009134502615779638,-0.584908127784729,-1.6170082092285156
1789635452700744700,11.29374462890625,-0.1304922103881836,-0.7693715691566467,-1.5996248722076416
1789635452710784800,11.30378466796875,-0.2717798352241516,-0.8777254819869995,-1.5094810724258423
1789635452720824800,11.313824951171876,-0.36697474122047424,-0.782282292842865,-1.4027094841003418
1789635452730864600,11.32386474609375,-0.3277796506881714,-0.5941539406776428,-1.360033392906189
1789635452740904400,11.333904541015626,-0.2746383547782898,-0.5276015400886536,-1.2625094652175903
1789635452750944500,11.343944580078125,-0.21353986859321594,-0.4001988470554352,-1.1057912111282349
1789635452760983800,11.35398388671875,-0.14061784744262695,-0.20679330825805664,-0.9488152265548706
1789635452771023600,11.364023681640624,-0.08154147863388062,0.05796617269515991,-0.8370495438575745
1789635452781063700,11.374063720703125,-0.06966566294431686,0.0677877813577652,-0.7143071293830872
1789635452791103500,11.384103515625,-0.10265664011240005,0.024520739912986755,-0.5817378759384155
1789635452801143600,11.3941435546875,-0.13190706074237823,0.11288869380950928,-0.4212770462036133
1789635452811183600,11.40418359375,-0.07440035045146942,0.1721714586019516,-0.2612572908401489
1789635452821223400,11.414223388671875,-0.03419388458132744,0.18567821383476257,-0.11266104131937027
1789635452831263500,11.424263427734376,-0.02860923483967781,0.26366114616394043,0.031310513615608215
1789635452841303600,11.434303466796875,0.01081113051623106,0.3193647563457489,0.21317288279533386
1789635452851342600,11.444342529296875,0.06617079675197601,0.4859185814857483,0.3849385380744934
1789635452861382400,11.45438232421875,0.04738238453865051,0.41401004791259766,0.502932071685791
1789635452871422500,11.46442236328125,-0.059121955186128616,0.19955818355083466,0.6151305437088013
1789635452881462500,11.474462646484374,-0.14041298627853394,0.2590915858745575,0.7904291152954102
1789635452891502600,11.484502685546875,-0.22122207283973694,0.37135446071624756,0.9617260694503784
1789635452901542700,11.494542724609374,-0.33686572313308716,0.35482847690582275,1.0818225145339966
1789635452911582700,11.504582763671875,-0.4560230076313019,0.36934056878089905,1.2818363904953003
1789635452921622500,11.51462255859375,-0.550657331943512,0.4242931604385376,1.5545392036437988
1789635452931662600,11.52466259765625,-0.6137444376945496,0.5197312831878662,1.805800199508667
1789635452941701600,11.53470166015625,-0.5913106203079224,0.7494092583656311,2.0075461864471436
1789635452951741700,11.54474169921875,-0.48531895875930786,0.8384645581245422,2.0815486907958984
1789635452961781500,11.554781494140625,-0.4122171103954315,0.8620216846466064,2.125276803970337
1789635452971821600,11.564821533203125,-0.36803579330444336,1.0243059396743774,2.2726597785949707
1789635452981861600,11.574861572265625,-0.32580873370170593,0.9590451121330261,2.414687395095825
1789635452991901700,11.584901611328124,-0.32164034247398376,0.8275483846664429,2.4782025814056396
1789635453001941800,11.594941650390625,-0.33544614911079407,0.8784273862838745,2.5254344940185547
1789635453011981600,11.604981689453124,-0.30608370900154114,0.9509300589561462,2.6049392223358154
1789635453022021600,11.615021728515625,-0.19939593970775604,1.0079630613327026,2.637943744659424
1789635453032060700,11.625060791015626,-0.05906732752919197,0.8779606819152832,2.51792311668396
1789635453042100700,11.635100830078125,0.04864015057682991,0.6615497469902039,2.352482557296753
1789635453052140800,11.645140869140626,0.09399138391017914,0.7343603372573853,2.3319294452667236
1789635453062180600,11.6551806640625,0.13743364810943604,0.8693851232528687,2.3427815437316895
1789635453072220700,11.665220703125,0.19754892587661743,0.7430607676506042,2.2022602558135986
1789635453082260700,11.6752607421875,0.2015463262796402,0.5145159959793091,2.0258073806762695
1789635453092300500,11.685300537109375,0.16542187333106995,0.32394978404045105,1.975764513015747
1789635453102340600,11.695340576171875,0.16860389709472656,0.25333818793296814,2.0534963607788086
1789635453112379600,11.705379638671875,0.18899758160114288,0.35150498151779175,2.138988971710205
1789635453122419700,11.715419677734374,0.21236270666122437,0.47630196809768677,2.110440254211426
1789635453132459500,11.72545947265625,0.2770775258541107,0.40671008825302124,1.9619829654693604
1789635453142499600,11.73549951171875,0.3055209815502167,0.23847311735153198,1.8195910453796387
1789635453152539400,11.745539306640625,0.2452635020017624,0.1785871386528015,1.7815126180648804
1789635453162579500,11.755579345703126,0.15654955804347992,0.14054961502552032,1.8184646368026733
1789635453172619500,11.76561962890625,0.1169387623667717,0.014508316293358803,1.8693861961364746
1789635453182659600,11.77565966796875,0.112448550760746,-0.08463823050260544,1.9071120023727417
1789635453192699600,11.78569970703125,0.11074332892894745,0.1320655792951584,1.9149501323699951
1789635453202738400,11.795738525390625,0.1651625782251358,0.4303424060344696,1.825693130493164
1789635453212778500,11.805778564453124,0.26123932003974915,0.42098674178123474,1.5799683332443237
1789635453222818300,11.815818359375,0.28726014494895935,0.10387615114450455,1.2884734869003296
1789635453232858400,11.8258583984375,0.136134535074234,-0.2639167606830597,1.2642171382904053
1789635453242898400,11.8358984375,-0.006905260495841503,-0.13941974937915802,1.461198091506958
1789635453252938500,11.8459384765625,-0.08705256134271622,0.14189954102039337,1.5323153734207153
1789635453262978600,11.855978515625,-0.1492242068052292,0.35691970586776733,1.442957878112793
1789635453273018400,11.866018310546876,-0.166253000497818,0.44970983266830444,1.2833714485168457
1789635453283058400,11.876058349609375,-0.1200784221291542,0.3929685056209564,1.1539843082427979
1789635453293097500,11.886097412109375,-0.1234731525182724,0.5185416340827942,1.0328140258789062
1789635453303137500,11.896137451171874,-0.18322157859802246,0.81291663646698,0.8613436818122864
1789635453313177600,11.906177490234375,-0.23205064237117767,0.8265102505683899,0.7100273966789246
1789635453323217400,11.916217529296874,-0.26707109808921814,0.5973917245864868,0.6238057017326355
1789635453333257500,11.926257568359375,-0.20043614506721497,0.14367109537124634,0.5989916920661926
1789635453343297500,11.936297607421874,-0.06610363721847534,-0.18354763090610504,0.6163595914840698
1789635453353337600,11.946337646484375,0.00675565842539072,-0.11881417781114578,0.635918140411377
1789635453363377700,11.956377685546874,0.11106877028942108,0.015589302405714989,0.6129723191261292
1789635453373417500,11.96641748046875,0.21826446056365967,-0.03242962062358856,0.5753375887870789
1789635453383456500,11.97645654296875,0.18759728968143463,0.042512908577919006,0.4832785129547119
1789635453393496600,11.98649658203125,0.06973855197429657,0.14784757792949677,0.35203686356544495
1789635453403536600,11.99653662109375,0.008658316917717457,0.07706838101148605,0.22286546230316162
1789635453413576400,12.006576416015625,0.020666778087615967,-0.30123814940452576,0.1262422502040863
1789635453423616500,12.016616455078125,-0.022114478051662445,-0.41400057077407837,0.03599963337182999
1789635453433656600,12.026656494140624,-0.02298053912818432,-0.18783828616142273,-0.05753857269883156
1789635453443696400,12.0366962890625,0.0370340421795845,-0.1105998083949089,-0.13402670621871948
1789635453453736400,12.046736328125,0.0384465828537941,-0.08831793814897537,-0.21308982372283936
1789635453463775500,12.056775390625,0.03244192153215408,0.11037241667509079,-0.35819074511528015
1789635453473815600,12.066815673828126,0.06269782781600952,0.23851387202739716,-0.5102897882461548
1789635453483855400,12.07685546875,0.08648965507745743,0.23647667467594147,-0.6359239816665649
1789635453493895400,12.0868955078125,0.07320927083492279,0.3248920142650604,-0.7334478497505188
1789635453503935500,12.096935546875,0.04257410019636154,0.4358512759208679,-0.7930862903594971
1789635453513975300,12.106975341796876,0.11557081341743469,0.2732653021812439,-0.816325306892395
1789635453524015400,12.117015380859375,0.1670587807893753,0.098599374294281,-0.7547758221626282
1789635453534055400,12.127055419921875,0.1187724769115448,0.18553267419338226,-0.7090035080909729
1789635453544095500,12.137095458984374,0.134347066283226,0.27306145429611206,-0.7162466049194336
1789635453554134300,12.14713427734375,0.18186931312084198,0.025915298610925674,-0.7058094143867493
1789635453564174300,12.15717431640625,0.146810382604599,-0.39320406317710876,-0.7126148343086243
1789635453574214400,12.16721435546875,0.015107469633221626,-0.5929923057556152,-0.8155785202980042
1789635453584254500,12.17725439453125,-0.06919357925653458,-0.5878059267997742,-0.9644263386726379
1789635453594294500,12.18729443359375,-0.04906301572918892,-0.37175002694129944,-1.0090364217758179
1789635453604334600,12.19733447265625,-0.020908460021018982,0.16096074879169464,-0.950471818447113
1789635453614374400,12.20737451171875,-0.04468356445431709,0.6953117847442627,-0.8820013999938965
1789635453624414500,12.21741455078125,-0.041509341448545456,0.888510525226593,-0.8852118253707886
1789635453634454500,12.22745458984375,0.043825794011354446,0.6437287330627441,-0.9338347911834717
1789635453644493600,12.23749365234375,0.1841525435447693,0.01888403855264187,-0.9408202171325684
1789635453654533400,12.247533447265624,0.27671709656715393,-0.5507797002792358,-0.9700372219085693
1789635453664573400,12.257573486328125,0.22116178274154663,-0.846767783164978,-1.121683955192566
1789635453674613500,12.267613525390624,0.08261402696371078,-0.8346648216247559,-1.2732923030853271
1789635453684653600,12.277653564453125,-0.02450329065322876,-0.40913718938827515,-1.2766802310943604
1789635453694693600,12.287693603515624,-0.03810325637459755,0.14478564262390137,-1.201982855796814
1789635453704733400,12.2977333984375,-0.0058335610665380955,0.4469988942146301,-1.1788890361785889
1789635453714773500,12.3077734375,0.07343516498804092,0.31043359637260437,-1.2423399686813354
1789635453724812500,12.3178125,0.18783420324325562,-0.07323805242776871,-1.3241907358169556
1789635453734852600,12.3278525390625,0.2777790129184723,-0.4245510995388031,-1.4176807403564453
1789635453744892400,12.337892333984374,0.2984814941883087,-0.5453455448150635,-1.567577838897705
1789635453754932500,12.347932373046875,0.21773816645145416,-0.3527028262615204,-1.72464120388031
1789635453764972500,12.35797265625,0.12492220848798752,-0.14077088236808777,-1.798258900642395
1789635453775012600,12.3680126953125,0.09326894581317902,-0.039120692759752274,-1.8044809103012085
1789635453785052400,12.378052490234374,0.12095391750335693,-0.00830125529319048,-1.758629322052002
1789635453795092500,12.388092529296875,0.2013012170791626,-0.15364353358745575,-1.6906801462173462
1789635453805132300,12.39813232421875,0.3205528259277344,-0.21164768934249878,-1.6167662143707275
1789635453815171600,12.408171630859375,0.36998429894447327,-0.17833207547664642,-1.573898434638977
1789635453825211600,12.418211669921876,0.32453933358192444,0.11809290945529938,-1.5992794036865234
1789635453835251500,12.42825146484375,0.23348665237426758,0.11429736763238907,-1.645119071006775
1789635453845291300,12.438291259765625,0.20494572818279266,-0.20342719554901123,-1.6659029722213745
1789635453855331300,12.448331298828125,0.21602633595466614,-0.43468838930130005,-1.6696001291275024
1789635453865371400,12.458371337890625,0.23743687570095062,-0.656505823135376,-1.66057550907135
