time,seconds_elapsed,z,y,x
1788861361431385000,0.046385009765625,-1.3015139752328395,-0.38890813217163084,0.8681069222517311
1788861361441391000,0.05639111328125,-1.7240630957216023,-0.5910556753695011,1.178698985012248
1788861361451396900,0.06639697265625,-1.9227473467230796,-0.7419219441413879,1.6337806211195884
1788861361461403000,0.07640283203125,-1.95903972633183,-0.7627405680254101,1.8272309169903396
1788861361471409000,0.086408935546875,-1.9476912338435648,-0.7888798024103045,2.0085000689409673
1788861361481415000,0.096414794921875,-0.626347353503108,-0.09815379249900578,0.8290865789838134
1788861361491421000,0.1064208984375,-0.3944833019554615,-0.3633762160301208,0.7607550932966173
1788861361501427000,0.116427001953125,-0.37417116628885266,-0.38263387420773504,0.9399732310015708
1788861361511433000,0.126432861328125,-0.5391752660065889,-0.7526838689133525,0.9616892421167343
1788861361521438700,0.136438720703125,-0.4419260211318731,-0.8374187923908233,1.0701263820905238
1788861361531445000,0.146445068359375,0.4707745144754648,-0.1821288375198841,0.7381941557899117
1788861361541451000,0.156450927734375,0.7781447656452656,-0.12208791805505752,0.4309142132520675
1788861361551457000,0.16645703125,0.7834750207573175,-0.10267506931573152,0.5105864465124905
1788861361561462800,0.176462890625,0.24585809010863302,-0.2913271711245179,0.2683820566058159
1788861361571468800,0.18646875,-0.18317162457108496,-0.1974243140682578,0.1659206300407648
1788861361581475000,0.19647509765625,0.10254442867338656,-0.24973580832481382,1.233942806393653
1788861361591480000,0.20647998046875,0.6642723027497529,-0.19833879856467246,1.1209984181284904
1788861361601486000,0.216486083984375,0.6652396864771842,-0.1993786630064249,1.1246009726651012
1788861361611491000,0.226490966796875,1.2040326751679182,-0.12239186943769455,0.2177776585280895
1788861361621496800,0.236496826171875,0.7724906854063271,-0.023848493099212643,-0.37481019484475253
1788861361631503000,0.246503173828125,0.4910948334485292,0.8309715159475803,-0.9202515355087816
1788861361641509000,0.256509033203125,0.33331133263409135,0.7906482733875513,-0.3321741452977061
1788861361651515000,0.266514892578125,0.3249024007290602,0.7820634003937244,-0.4071357166491449
1788861361661521000,0.27652099609375,-0.16549100645184517,0.24962241107821462,0.7306791039846837
1788861361671527000,0.28652685546875,-0.6442343078494072,-0.09224661428183317,1.295655020071566
1788861361681533200,0.296533203125,-0.31736557548344135,-0.22481647112369535,1.3987687730655074
1788861361691539000,0.3065390625,0.4178840512871742,-0.5442635290563106,1.2155658035080878
1788861361701545000,0.316544921875,0.40651100887954233,-0.5427341275319457,1.1217111695077269
1788861361711551000,0.326551025390625,0.8565496093183755,-0.9191367061346769,0.9762692638721316
1788861361721557000,0.336556884765625,0.6220078629940747,-1.0092086067259312,1.0774687076773495
1788861361731563000,0.34656298828125,0.22553134139478206,-0.824795165400207,0.6510869502231478
1788861361741569000,0.356569091796875,-0.06431552804410458,-0.8478966395244002,0.2790540380720049
1788861361751575000,0.366574951171875,-0.07078267823159694,-0.8441571607351303,0.09553981060832738
1788861361761581000,0.3765810546875,-0.7060545119464398,-0.9752031690105796,-0.13102379644364118
1788861361771587000,0.386587158203125,-0.7109416994661092,-0.9561740588918328,-0.29196824550703165
1788861361781593000,0.396593017578125,-0.2394628361135721,-0.3884837692797184,-0.4124511760508641
1788861361791599000,0.40659912109375,-0.9167074331611395,-0.8577829505056143,0.8240070106972008
1788861361801604900,0.41660498046875,-0.9133575382113456,-0.8303975154519081,0.6409142965812236
1788861361811611000,0.42661083984375,-1.3373586110740898,-1.3257345165148378,1.0087591824579982
1788861361821617200,0.4366171875,-1.1987088497966527,-1.220708207897842,0.43439299527853725
1788861361831623200,0.446623046875,-0.9418564874649047,-0.7836971390753984,0.15409275653772056
1788861361841629000,0.45662890625,-0.8200380340009927,-1.1310860969007015,-0.5594808258019387
1788861361851635000,0.466635009765625,-0.7979869457125663,-1.023176049540937,-0.8614214531384408
1788861361861641000,0.476640869140625,-0.45050271081924437,-1.6969161455988884,-1.5020460460580884
1788861361871647200,0.486647216796875,-0.04520400033891201,-2.2692757421962915,-1.7984306467026472
1788861361881652200,0.49665234375,1.1576859345346688,-3.447121982836723,0.859463743199408
1788861361891658000,0.506657958984375,2.358852698877454,-2.493487379294634,1.1309408432111143
1788861361901664000,0.5166640625,2.460845338886976,-2.3818569962374863,0.8011258282601833
1788861361911670000,0.526669921875,3.0899691713660955,-1.5470459021270275,1.2189338917016983
1788861361921676000,0.536676025390625,2.4555554157853123,-0.9927161754779517,0.46137832509875293
1788861361931682000,0.54668212890625,1.0684574990302325,0.0042528351388871665,-1.2057847795322536
1788861361941688000,0.55668798828125,-0.15971709922552108,0.4703948675081134,-0.9785890120565891
1788861361951694000,0.566694091796875,-0.044973698714375496,0.586337414675951,-1.2155839967519044
1788861361961699800,0.576699951171875,-0.7819967648983002,1.2830077199444174,-1.5282494317203759
1788861361971705900,0.586705810546875,-0.28665713348686694,1.9147928805872796,-1.851900371083617
1788861361981712100,0.596712158203125,2.155085445523262,1.8089492642380296,-2.28215173651278
1788861361991718100,0.60671826171875,2.313584985652566,2.0236741110667587,-2.535496382984519
1788861362001724000,0.616723876953125,3.2092531379163263,1.3577014341399072,-2.283185171213746
1788861362011730000,0.62672998046875,3.228576847067475,0.763233685304597,-1.6398627175122498
1788861362021736000,0.63673583984375,2.026112444129586,1.7497142543286084,-0.7865338238060474
1788861362031742200,0.6467421875,0.9075339466243981,2.0642679872617125,-0.42026188633441924
1788861362041748000,0.656748046875,1.182223578941822,2.234663716889918,-0.6759878749847412
1788861362051754000,0.66675390625,1.013793011906743,1.629456620440632,-1.4109300432413816
1788861362061760000,0.676760009765625,1.6336451581716536,1.9506094593778252,-1.8867869755476712
1788861362071766000,0.68676611328125,3.138224960491061,1.6973165430933237,-1.6136615238070486
1788861362081772000,0.69677197265625,3.901528715357184,1.1580948075965045,-0.932581294119358
1788861362091778000,0.706778076171875,4.278308602839708,1.4856117747381328,-1.1222329283595085
1788861362101784000,0.7167841796875,3.409090650606155,2.211657665964216,0.3696522275596857
1788861362111789800,0.726789794921875,3.118815326622128,2.206885044734925,2.2533529275298116
1788861362121796000,0.736796142578125,2.3733847898378966,1.863922525049746,3.986899890911579
1788861362131802000,0.746802001953125,1.5691329385116695,1.446105109257996,4.341988171067833
1788861362141808000,0.75680810546875,1.8573285336121916,1.720188592375815,4.325789900460839
1788861362151814000,0.76681396484375,1.4508222009077667,1.3407926771759986,2.7575352060884235
1788861362161820000,0.77681982421875,0.98192546300292,1.1863275071293116,1.6618711357027292
1788861362171826200,0.786826171875,1.0391904880136251,1.4184703756183386,1.7396780134826897
1788861362181832200,0.796832275390625,-0.6268202317118644,2.371299215735495,0.9133417561203241
1788861362191838000,0.806837890625,-0.610832388985157,2.5060633677512407,0.9705798931241035
1788861362201844000,0.816843994140625,-4.363306268906593,3.7776077366560696,4.622918743601441
1788861362211850000,0.82685009765625,-3.9123675047576425,4.346980572527647,3.1552737104475495
1788861362221856000,0.83685595703125,-1.609548827791214,3.5125644690841433,0.5322527732670307
1788861362231862000,0.846862060546875,-1.2288222485095261,3.529017883495986,0.46935237271785735
1788861362241868000,0.856867919921875,0.7221570670939982,2.323519227428734,-1.1652227597802878
1788861362251874000,0.8668740234375,0.8222154511053115,-0.17897446514219045,-0.7694950107216835
1788861362261879000,0.876879150390625,-0.3237287173071876,0.1176619183063507,-0.6653846479058265
1788861362271884800,0.886884765625,-1.8061328916430472,1.4217831534281373,-0.7347165428072213
1788861362281891000,0.89689111328125,-3.308490926259756,2.257638349764049,-0.45936464718878267
1788861362291897000,0.90689697265625,-3.1271722360789775,2.2904197986423966,-0.44036827029585834
1788861362301903000,0.916903076171875,-3.51137730512619,1.8199150410190224,-0.9966998382866382
1788861362311908900,0.926908935546875,-4.977846864759922,-0.8652464182540773,-1.6513427274256944
1788861362321915000,0.936914794921875,-5.679784004515409,-2.3809160621255634,-2.9598645355939865
1788861362331921200,0.946921142578125,0.8184323523700237,1.6378285813361406,-2.9376486121326684
1788861362341927200,0.95692724609375,0.8623696937739849,1.7791829253971576,-2.8563521386712787
1788861362351933000,0.966932861328125,1.1878852579653263,0.5629010095089674,-1.737051756632328
1788861362361939000,0.97693896484375,2.1660569213926792,0.8818915558457374,-3.6724779676645993
1788861362371945000,0.986945068359375,2.847293802946806,0.3206143481463194,-5.255156324186921
1788861362381951000,0.996950927734375,3.588114507848024,1.5797417185485363,-5.4548763479769224
1788861362391957000,1.00695703125,3.526543310075998,1.9037433710455893,-5.226705890250206
1788861362401963000,1.016962890625,-6.664266166263818,2.503630587646365,-3.1681846299469467
1788861362411969000,1.026968994140625,-6.722547674840689,2.8441514132678507,-2.8783991353064775
1788861362421975000,1.03697509765625,1.0562111809194088,-0.6122749890089034,3.765788704046607
1788861362431981000,1.04698095703125,3.8088673827946185,0.07464169174730777,5.737583282533287
1788861362441987000,1.056987060546875,-2.1590543491542338,2.3128140012800693,1.7479910837978123
1788861362451993000,1.0669931640625,-2.1732792738616467,2.453898296228051,1.9071335980057715
1788861362461998800,1.076998779296875,-2.1933576007723805,2.585997320687771,2.0623335120677946
1788861362472005000,1.087005126953125,-2.216547922223806,2.7249627237856386,2.232930317226052
1788861362482011100,1.09701123046875,-2.0322890869379044,1.9601123239994047,2.343699553409219
1788861362492017200,1.10701708984375,-1.4743255338311194,1.1120780295699835,2.2561808444321154
1788861362502023000,1.11702294921875,-0.465889665043354,2.1488515195697544,1.361405841615796
1788861362512029000,1.12702880859375,-0.3942951589722186,2.2516934698849913,1.5191846662551163
1788861362522035200,1.13703515625,-0.3021884646177292,3.2774060521662234,0.6611340047240257
1788861362532041000,1.147041015625,-0.45080666220188137,3.63159592217803,0.9597370120704174
1788861362542047000,1.157046875,-0.35085217695645987,3.713448275956511,1.110712001913786
1788861362552053000,1.167052978515625,-0.29778927981071174,0.4962842187851667,1.955772248968482
1788861362562059000,1.17705908203125,-0.13906710990667343,0.5524573569059371,2.0883599337279795
1788861362572065000,1.18706494140625,0.7416938344739377,-2.5588001016825435,-0.5447638797938823
1788861362582071000,1.197071044921875,1.8819502030409871,-3.6726100696116686,-1.424862707003951
1788861362592077000,1.2070771484375,1.4347583703354,-4.395560186779499,-0.7807739451050758
1788861362602083600,1.21708349609375,1.9929460875868796,-4.991335876408219,0.44607700333148237
1788861362612089600,1.227089599609375,2.0388404082775113,-4.868431965795159,0.7804895752057432
1788861362622095600,1.237095703125,1.399275407413393,-6.464774690532684,-1.4690052155911921
1788861362632102000,1.247101806640625,1.400581229314953,-6.374538539290428,-1.1819210888639091
1788861362642107600,1.257107666015625,-2.0133390334047374,-2.231157462334633,-1.7080448578566312
1788861362652113700,1.26711376953125,-2.04781398832798,-2.1644483171522615,-1.4681344241060317
1788861362662119700,1.27711962890625,-2.7025416331410406,-1.4931138209313153,-1.1510774761803448
1788861362672125700,1.287125732421875,-1.9641035855926572,-1.4318424828886984,-0.6756872846029699
1788861362682131700,1.297131591796875,-1.0447357010506093,-1.3780425036400556,-1.4279234097488223
1788861362692137700,1.3071376953125,-0.6360450100444257,-1.5513579201072454,-1.4989781829200683
1788861362702143700,1.317143798828125,-0.6876280438959598,-1.5353724154680966,-1.4487750591196118
1788861362712149500,1.3271494140625,-0.2756162456430495,-1.71492877215147,-1.201882511396706
1788861362722155500,1.337155517578125,0.4944410751365125,-0.8725643400520086,-0.8438996788427233
1788861362732161800,1.347161865234375,1.1038918005049227,1.6420266175478695,-1.2042178224764764
1788861362742167800,1.357167724609375,1.4862499265111981,2.086016000950336,-1.0649867541797458
1788861362752173600,1.367173583984375,1.6123042639791965,2.046062176224589,-1.1648222161553798
1788861362762179600,1.3771796875,1.0770889876447618,3.747582016226649,-0.1999742908120155
1788861362772185900,1.387185791015625,0.9910708924889564,6.38408202818334,0.9963312972351908
1788861362782191900,1.39719189453125,-2.206131742149591,1.6718144375681876,-0.03166355076432228
1788861362792197600,1.40719775390625,-1.1754875486850738,1.9041040210515259,-0.9561509702771902
1788861362802203600,1.41720361328125,-1.0958873577475547,1.8786644593685864,-0.9831538357540964
1788861362812209700,1.427209716796875,-0.9163748402059078,1.603149482142925,-0.33669352241829037
1788861362822215700,1.437215576171875,-0.65996963711977,2.313836330065131,0.9773574244350194
1788861362832221700,1.4472216796875,1.9360968037702142,1.1971990297555923,0.9173032070972025
1788861362842227700,1.457227783203125,1.3129434240028262,0.7991600811451673,0.6258567935071885
1788861362852233700,1.467233642578125,1.2445964484855532,0.8287976790398359,0.6865455093562602
1788861362862239500,1.477239501953125,0.2896623066522181,3.5317882249921557,0.45303968195095656
1788861362872245800,1.487245849609375,0.24326062096133827,3.557103283512592,0.5265250432699918
1788861362882251800,1.497251708984375,-1.8659972854971885,4.404425045758486,0.4865916768103838
1788861362892257800,1.5072578125,-2.761197527988255,5.425274990439415,1.069839162646979
1788861362902263600,1.517263671875,-1.4402002691283822,4.929491706913709,-0.3379461528278887
1788861362912269600,1.52726953125,-1.4338707738459109,4.916420043894648,-0.3963797832265496
1788861362922275800,1.53727587890625,0.35240678598731756,0.2541062784940004,-0.8173447032637894
1788861362932281900,1.54728173828125,3.151156630517542,2.374974981638789,-3.433783777835965
1788861362942287600,1.55728759765625,-2.4258839156210423,-0.09273732040822505,-2.7618255967587233
1788861362952293600,1.567293701171875,-2.470553078430891,-0.09384966556429862,-2.808134343469143
1788861362962299600,1.577299560546875,-2.8805601127326486,0.9762889184206723,-2.5384850434064865
1788861362972305700,1.5873056640625,-2.324740439786762,-0.7218202363550662,-0.03182005650028586
1788861362982311700,1.597311767578125,-0.10122866989970207,-0.11301672284901142,1.1730264192685484
1788861362992317700,1.607317626953125,-0.6730866005852818,-0.4598293420910835,0.554441078069061
1788861363002323700,1.61732373046875,-0.6613230975553392,-0.45986908957958217,0.5652009570144116
1788861363012329500,1.62732958984375,1.1531786862432956,-3.578080605089664,0.18179376034662126
1788861363022335700,1.637335693359375,3.2741257153213024,-2.20313197581172,0.3022087767533958
1788861363032341800,1.647341796875,0.06153875680714845,0.36861294763982294,2.455470367850363
1788861363042347800,1.65734765625,-1.6304883015759288,-0.4613233800411224,2.803653983184695
1788861363052353500,1.667353515625,-1.6278110451906918,-0.45842005981504913,2.8228520201295613
1788861363062359600,1.677359619140625,-0.4918400988578796,0.22642390632033346,1.9750015578344464
1788861363072365800,1.68736572265625,0.41142873766794796,0.04455751912891864,0.9051553809247911
1788861363082371600,1.69737158203125,2.404052023041248,-0.5956506019443273,-0.5923913078874349
1788861363092377600,1.707377685546875,0.8969909253001213,-1.0558043536841868,0.20659721608310935
1788861363102383600,1.717383544921875,0.8629835878886282,-1.0457558378785847,0.21876754634827375
1788861363112390000,1.727389892578125,-0.7350326230190694,-1.155037465852499,0.9984805842235683
1788861363122395600,1.737395751953125,-0.7060448673352598,-1.0310714789658784,1.6770155133426188
1788861363132401700,1.747401611328125,1.7320378739930689,0.16013678594231603,-0.03166559659093618
1788861363142407700,1.75740771484375,0.6822624252095818,-1.6992326058477163,-0.16413316210210321
1788861363152413700,1.76741357421875,0.6933449602380395,-1.6943904265135525,-0.12532163927927611
1788861363162419700,1.777419677734375,-0.7400842073202133,-3.088108638191223,-0.08731310340240597
1788861363172425700,1.78742578125,-0.8191521910771727,-4.017603072211146,0.3149763422593474
1788861363182431700,1.797431640625,-0.2553529175542295,-5.528582220178842,1.2780745013259351
1788861363192437800,1.807437744140625,-1.0990341313406824,-5.932727084448933,0.8567951085120439
1788861363202443500,1.817443603515625,-1.1436600395306944,-5.911227784824371,0.944604909390211
1788861363212449800,1.82744970703125,-1.3821592913091183,-5.885765426787733,0.2472352236807346
1788861363222455800,1.837455810546875,-1.2111724639199672,-5.945811606949567,-0.22218225016258655
1788861363232461600,1.847461669921875,0.13627572562247514,-4.505504078054428,-1.079798246603459
1788861363242467600,1.857467529296875,0.004750117136538028,-4.7943736268937585,-2.348735794010758
1788861363252473600,1.8674736328125,0.08680734583735465,-4.80207294922471,-2.251676226489246
1788861363262480000,1.87747998046875,-0.5190449166476726,-4.083815373787283,-2.7396520511344074
1788861363272485600,1.887485595703125,-1.113457208968699,-3.4342233382970093,-3.0559754240885377
1788861363282491600,1.89749169921875,-0.8994847879424691,-0.48497547378540035,-2.556873517534137
1788861363292497700,1.90749755859375,-0.34984921045899386,0.277483062428236,-1.3332619894102216
1788861363302503700,1.917503662109375,-0.3494724861010909,0.2713385683238506,-1.407038881021738
1788861363312509700,1.927509765625,-0.22720906534865498,1.1803852575987577,-0.7241201838605106
1788861363322515700,1.937515625,1.6396023130103945,3.9781028364717956,1.1078508403290062
1788861363332521700,1.947521728515625,2.4008345222994683,3.980448522815108,2.317233717418462
1788861363342527700,1.95752783203125,2.201268227766454,4.600386009275913,3.08768544434309
1788861363352533500,1.967533447265625,2.2241151426076886,4.595422833910584,3.0932629522144794
1788861363362539800,1.977539794921875,1.6165809183850883,4.315840168854594,3.4499525300875304
1788861363372545800,1.9875458984375,0.22876009418293833,0.20311960310041904,0.9973882589422166
1788861363382551600,1.997551513671875,-1.1116738326832651,-0.7279390114963055,-0.20722214304842054
1788861363392557600,2.0075576171875,-1.1272152468167245,-0.7243833648413419,-0.2095942059420049
1788861363402563600,2.0175634765625,-1.3821899787083267,-1.4900029954344034,-0.8379614479001611
1788861363412569900,2.02756982421875,-0.501643699991703,-1.4713894803792238,-0.8690619579542428
1788861363422575600,2.03757568359375,0.7821218525826931,0.0684668025046587,0.4583506478406489
1788861363432581600,2.04758154296875,0.9801695592463016,0.6572697305113077,0.8694799641706049
1788861363442587600,2.057587646484375,0.8884697651922703,0.9356476959526538,0.8730028045345097
1788861363452594000,2.067593994140625,0.8883401474632322,0.9355699545413255,0.8719669586807489
1788861363462599700,2.077599609375,0.5766518869638443,0.8907587529122829,0.5358640225667506
1788861363472605700,2.087605712890625,-0.14372925649881363,0.21404197913110254,0.23490678024441003
1788861363482611700,2.09761181640625,-0.19791560471653938,-0.18376549881100654,0.3160772892385721
1788861363492617700,2.10761767578125,-0.3305821999311447,-0.4673404483735561,0.350268239588663
1788861363502623700,2.117623779296875,-0.32940263475775716,-0.4676274486213922,0.3502753269165754
1788861363512629800,2.127629638671875,-0.31006665064692496,-0.5723340237647294,0.20458076169416306
1788861363522635800,2.1376357421875,0.250694131962955,-0.0642225890636444,-0.38033845674693584
1788861363532641500,2.1476416015625,0.2728451734945178,0.2848831095516681,-0.4887555037807673
1788861363542647600,2.1576474609375,0.19555384402126072,0.4054173684239387,-0.34169286507554353
1788861363552653800,2.16765380859375,0.2055064982369542,0.40483693818747996,-0.32299262158498165
1788861363562659800,2.177659912109375,0.03162234197109937,0.32891572802364827,-0.06333784211836754
1788861363572665600,2.18766552734375,-0.18133184192329643,0.09734218385517597,0.24206644274070857
1788861363582671600,2.197671630859375,-0.7770201455295086,-0.10592238067388533,0.5144583925750106
1788861363592677600,2.207677734375,-0.772987236751616,-0.10538520505726337,0.5311721384234727
1788861363602684000,2.217683837890625,-1.016767936064303,-0.09702654203474521,0.6847776229009032
1788861363612689200,2.227689208984375,-1.1715711058937013,-0.18160101425349712,1.0299259621925652
1788861363622695200,2.237695068359375,-1.160386864056438,-0.4835720367282629,1.4659630714163183
1788861363632701200,2.247701171875,-0.7265580785319209,-0.3042617637604475,1.0870480716012418
1788861363642707200,2.257707275390625,-0.31151743397712706,0.12443360439836978,0.4011617568060756
1788861363652713000,2.267712890625,-0.2861410006582737,0.11607961755096911,0.38265338262580334
1788861363662719200,2.27771923828125,-0.20391689095795154,0.2790595179647207,0.29192016858160497
1788861363672725200,2.287725341796875,-0.3382017350241542,0.25115502747297286,0.537353384341672
1788861363682731300,2.297731201171875,-2.195992333190143,-0.2508610129624605,1.825352263636887
1788861363692737000,2.307737060546875,-2.5288614750146863,-0.8086240750610828,2.587228031526506
1788861363702743000,2.317742919921875,-2.500873690153658,-0.8204267410576344,2.5495643635645506
1788861363712749300,2.327749267578125,-2.2739529402270913,-0.9919792395055294,2.2816809041306376
1788861363722755000,2.337755126953125,-2.854878266726434,-1.3647148200333117,1.6412513953916728
1788861363732761000,2.347760986328125,-3.263120921704173,-1.3471499372482298,1.688598983630538
1788861363742767000,2.35776708984375,-2.7298680314838886,-1.0271621965676545,1.5568135551646352
1788861363752773000,2.367773193359375,-2.653071499790251,-1.0623854856401682,1.4723722078062593
1788861363762779100,2.377779052734375,-1.2479045501202344,-0.5224801517933607,1.1857391858473418
1788861363772785200,2.38778515625,-0.0633314854428172,0.4015057479381561,1.449117442816496
1788861363782791200,2.397791259765625,-0.8315235968723893,0.309999430629611,2.1603635320566594
1788861363792797200,2.407797119140625,-2.100837430246174,-0.021076105776429176,2.79195068590939
1788861363802803000,2.417802978515625,-1.9730241202816365,-0.08111234906613826,2.728968452295661
1788861363812809200,2.427809326171875,-3.0470979978889225,-0.5034972189038992,3.046352440218627
1788861363822815200,2.437815185546875,-4.072788368338347,-1.0038707528293132,3.6967543307870625
1788861363832821200,2.4478212890625,-3.6015742934018373,-1.0093898085117339,3.919869550950825
1788861363842827000,2.457826904296875,-2.606827342748642,-0.8204711647212505,3.932524157601595
1788861363852833000,2.4678330078125,-2.458960548053682,-0.9120873721450566,3.8448119718790053
1788861363862840000,2.477840087890625,-1.4396005496695636,-0.7174351531386375,3.660654843401909
1788861363872846000,2.48784619140625,-0.3138224960491061,-0.5420365006566047,3.0584219404578206
1788861363882852000,2.49785205078125,1.429099906182289,0.41405309482216834,1.1030056653201579
1788861363892858000,2.507858154296875,1.5101508804500101,0.8296160096853971,0.35616102395430205
1788861363902864100,2.517864013671875,1.6354261963695287,0.7424988672465086,0.31106179916411636
1788861363912870100,2.5278701171875,0.5588946964770555,1.0100736991226673,0.28920652570873495
1788861363922876200,2.537876220703125,-1.719419653829932,1.0292477706700562,1.0577581181004643
1788861363932882200,2.547882080078125,-2.0902304037749766,0.8535001586198806,1.2408023168995976
1788861363942888200,2.55788818359375,-2.218935694143176,0.70721011172235,1.1355769785791634
1788861363952894200,2.567894287109375,-2.1017717884868383,0.6095856037944555,1.0894763216614722
1788861363962900200,2.577900146484375,-1.7877748126536606,0.6257137317746877,0.3230643716469407
1788861363972906200,2.58790625,0.03323942177891731,1.3612386683553457,-1.4535665311798454
1788861363982912000,2.597912109375,0.5325070402890444,1.6559738943576812,-1.5463038515880703
1788861363992918300,2.607918212890625,0.8209230001419782,1.8920359821170567,-1.1491937082603574
1788861364002924300,2.61792431640625,0.9230372207045554,1.801536211502552,-1.1663187383234501
1788861364012930000,2.627929931640625,-0.22994623522758484,3.2405162911862133,-0.4882742230698466
1788861364022936000,2.63793603515625,-0.35878713467419143,3.5930157238930462,-0.12611907326728106
1788861364032942000,2.647942138671875,-0.27809505684673785,3.591155190718174,0.13191723815202713
1788861364042948400,2.6579482421875,-0.09672960491478443,3.2454970022082326,0.35421821932345626
1788861364052954000,2.6679541015625,-0.021297639572620392,3.1786329587250948,0.3628866789475083
1788861364062960000,2.677960205078125,0.13008476202785968,1.6667647529631853,0.7056777875885367
1788861364072966100,2.687966064453125,0.15312895300686358,1.2240958045095205,0.9809981190249323
1788861364082972200,2.69797216796875,0.25143092180490495,1.025354270362854,1.2902101986691354
1788861364092978200,2.707978271484375,0.16958675133287907,1.1404349400043488,1.566364350581169
1788861364102984200,2.717984130859375,0.21020400840342043,1.0916688632696867,1.5492685466125606
1788861364112990200,2.727990234375,-0.5149082552343607,2.232121338930726,1.3616983948215842
1788861364122996000,2.737995849609375,-0.25416999137997626,2.6953917613863942,1.0016048537239433
1788861364133002000,2.748001953125,0.15031155749857425,2.993586187931895,0.5427610155388712
1788861364143008300,2.75800830078125,0.18723697431385516,3.1799493020206686,0.12393091557323932
1788861364153014300,2.76801416015625,0.21110943281054495,3.151993958124518,0.11909691954553127
1788861364163020000,2.77802001953125,-0.3120978642135858,3.3932419240891933,0.20060586671382188
1788861364173026000,2.788026123046875,-0.6447177074521779,3.228989519521594,0.5011936181366443
1788861364183032000,2.798031982421875,-0.8148311130076646,2.8182945029556747,0.9129664930671453
1788861364193038300,2.808038330078125,-0.8530915778189897,2.67727158280611,1.06466658231467
1788861364203044000,2.818044189453125,-0.843092746374011,2.666024212604761,1.0641340828731656
1788861364213050000,2.828050048828125,-1.3377262753427028,2.333395017015934,1.3164847498714922
1788861364223056100,2.83805615234375,-2.090885652813315,1.7700947790563106,1.333475339899957
1788861364233062100,2.848062255859375,-2.5432670169860123,1.5425544359266756,1.4288178743705153
1788861364243068200,2.858068115234375,-2.3610890796273947,1.747001488238573,1.853215253074467
1788861364253074200,2.86807421875,-2.3592758927255866,1.7396499564319847,1.8416861433222889
1788861364263080200,2.878080078125,-0.8926578645318746,1.4465373631954193,0.18836451703906057
1788861364273086000,2.8880859375,0.8617413327425718,1.5133903007626532,-0.5425587709650397
1788861364283092200,2.89809228515625,0.4778004675894975,1.692850795856118,-0.06849953573048115
1788861364293098200,2.90809814453125,-0.5211415966659784,1.4406266778469086,0.7502300460204482
1788861364303104300,2.918104248046875,-0.4968260705769062,1.4186533309698104,0.7641895977899432
1788861364313110000,2.928110107421875,-2.670216988119483,0.7729951277971268,1.3820780427664519
1788861364323116000,2.938115966796875,-2.662465643340349,1.222533962020278,1.1182809758633374
1788861364333123300,2.948123291015625,-2.355250874993205,2.004161893606186,2.095703866750002
1788861364343129000,2.958129150390625,-1.8631945030361412,2.27260298692286,2.983059825481474
1788861364353135000,2.968135009765625,-1.8489339224934578,2.2556138581991196,2.98317000785768
1788861364363141000,2.97814111328125,-0.9510925178438424,1.8247440686106682,2.799662867721915
1788861364373147100,2.988147216796875,0.05280570751428604,1.790243833115697,0.6601067075029016
1788861364383153200,2.998153076171875,0.06707797849476337,1.7759318146467207,0.6666290950089693
1788861364393159200,3.0081591796875,-0.2789215707987547,1.9696973139464855,0.43753538495749233
1788861364403165200,3.018165283203125,-0.1966898623138666,1.990821350517869,0.2256368475958705
1788861364413171000,3.0281708984375,-0.5698515592992306,2.0502543672174216,0.2867603016003966
1788861364423177200,3.03817724609375,-1.0242156217217444,1.451351485478878,0.7198115268811583
1788861364433183200,3.048183349609375,-1.5089040952593087,0.5869108306497335,0.765484313775599
1788861364443189200,3.058189208984375,-1.6483476372629402,0.07276829909086227,0.19928776985257862
1788861364453195000,3.068195068359375,-1.6298048493564128,0.04535129985511303,0.19019231698811054
1788861364463201000,3.078200927734375,0.1564391004681587,0.6504594659745693,-0.9768532743051648
1788861364473207300,3.088207275390625,0.38951661945879457,1.0698691193938255,-0.5865086795896292
1788861364483213300,3.09821337890625,-0.0473304909735918,1.029330188256502,0.19511428356021643
1788861364493219000,3.108218994140625,-0.5969301203608512,0.6749772366374731,0.7563733710810542
1788861364503225000,3.11822509765625,-0.5680933174550533,0.648581981664896,0.7808852965250611
1788861364513231000,3.128231201171875,-1.8591864364385604,-0.052422261154651636,0.5739227542608976
1788861364523237000,3.138237060546875,-1.9178607437252997,0.009218494722247124,-0.04368512020856142
1788861364533243100,3.1482431640625,-1.4148217899829147,0.3566933772653341,-0.3289204041987657
1788861364543249200,3.158249267578125,-0.45960839281678195,0.6959650796085596,-0.24389029716700314
1788861364553255200,3.168255126953125,-0.4193605535805225,0.657522828489542,-0.2057832693517208
1788861364563261000,3.178260986328125,-0.02102174524068832,0.4233721273094415,0.2796522231608629
1788861364573267200,3.18826708984375,-0.1782943739235401,0.2916951276540756,0.35193756104037166
1788861364583273200,3.198273193359375,-0.24761691647469997,0.3575876957565546,0.2738977512873709
1788861364593279200,3.208279296875,-0.2472667878627777,0.5924351470291614,-0.07073197095766663
1788861364603285000,3.218284912109375,-0.20047347250580785,0.5393991378903389,-0.03407748003825545
1788861364613291300,3.228291259765625,-0.5422247167050838,0.6017863282203674,-0.9432396123863757
1788861364623297300,3.23829736328125,-0.8813128791749477,0.3676642686128616,-1.2141454883813858
1788861364633303000,3.248302978515625,-0.771211751511693,0.23429273999929426,-1.171328383179009
1788861364643310300,3.258310302734375,-0.6657067194670439,0.39136429315209387,-0.6547407965555787
1788861364653316400,3.26831640625,-0.6215595347046852,0.3336398339360952,-0.6238105285018682
1788861364663322000,3.278322021484375,0.11048282045722008,1.0923036540418862,-0.10055734650939703
1788861364673328000,3.288328125,-0.3064338471025228,1.1054717631727455,0.3613493863776326
1788861364683334400,3.29833447265625,-0.5257897147327661,1.0563684173077343,0.5920185290522874
1788861364693340400,3.30834033203125,-0.7356278124332427,0.9308867651611566,0.6798346135407686
1788861364703346200,3.31834619140625,-0.6903834800839423,0.8580936238899827,0.6966489702194929
1788861364713352200,3.328352294921875,-1.2044243048340082,0.49180181267410517,0.680455083526671
1788861364723358200,3.338358154296875,-0.039762686067819596,0.30491029079705473,0.12780936444178223
1788861364733364200,3.3483642578125,0.0019546411991119383,0.25005203466713427,-0.5737209480784833
1788861364743370200,3.358370361328125,-0.5632680892556905,0.08191869701296091,-0.4823341654963791
1788861364753376300,3.368376220703125,-0.5287818822860717,0.015550620353221892,-0.47972851304262876
1788861364763382300,3.37838232421875,-0.10619009169936179,0.26978607818484307,0.2173820833392441
1788861364773388300,3.38838818359375,0.5936369240343571,0.8141670961409807,-0.16211013184189796
1788861364783394300,3.398394287109375,0.6364110668778419,1.3798188656628132,-0.026774755809456107
1788861364793400300,3.408400390625,0.29319267273545263,1.274388360159099,0.48050768072158095
1788861364803406300,3.41840625,0.31359599381685255,1.229578035312891,0.4773183831609785
1788861364813412000,3.428412109375,0.7356202136486768,0.580468230381608,-0.03490764725208282
1788861364823418400,3.43841845703125,0.3907388547301292,0.28631080426722766,-0.5053726573869586
1788861364833424400,3.44842431640625,0.3132230688512325,0.2602823367804289,-0.9220007172636687
1788861364843430400,3.458430419921875,0.2224626014739275,0.19150486089140176,-1.0101932338491082
1788861364853436200,3.468436279296875,0.24558394934237002,0.13309797236919402,-1.0211080110952258
1788861364863442200,3.478442138671875,-0.5082546425640583,-0.037865035752952095,-0.9902845644168555
1788861364873448400,3.488448486328125,-0.733961925047636,-0.01218143618106842,-0.6890992854923009
1788861364883454200,3.4984541015625,-0.4401367996275425,0.06159194829910993,-0.13611965827792882
1788861364893460200,3.508460205078125,0.2986269727438688,0.12822072172164917,0.22193799307793377
1788861364903466200,3.51846630859375,0.30986265250742434,0.08326572770774364,0.19314853644520044
1788861364913473300,3.528473388671875,1.2982950131863356,0.7552785615816712,-0.131711340316385
1788861364923479300,3.538479248046875,1.1116454833716154,1.2552274403542278,-0.8053200650796294
1788861364933485300,3.5484853515625,0.76767364051342,1.4217360994160175,-1.2402309467524288
1788861364943491300,3.5584912109375,1.230529052427411,1.5805717396318912,-1.0006367393441498
1788861364953497000,3.5684970703125,1.2157248665273188,1.5789087748557329,-1.0584035763971507
1788861364963503400,3.57850341796875,1.1506032827973365,1.8017586220815778,-0.6680243487596511
1788861364973509400,3.58850927734375,0.7929974668622016,1.516895094013214,-1.1716177215144037
1788861364983515100,3.59851513671875,0.3816378489077091,1.1447893358215688,-1.5707196231812237
1788861364993521200,3.608521240234375,0.015252514189481734,1.0093050528377294,-1.736137856657803
1788861365003527200,3.618527099609375,-0.024711831930279732,1.0316887340813874,-1.8342106928750872
1788861365013533400,3.628533447265625,0.010328501790761948,0.5545823862358927,-0.6440811631143093
1788861365023539200,3.638539306640625,0.7317758131802081,0.4212336539760232,0.1651011303514242
1788861365033545200,3.648545166015625,0.8015811708122491,0.6220367968276143,0.6778080761492252
1788861365043551200,3.65855126953125,0.17157003410458563,1.2828691882565617,0.4856073419481516
1788861365053557200,3.66855712890625,0.1230295828193426,1.3319716573387383,0.4125146332085132
1788861365063563300,3.678563232421875,0.3236597071915865,2.3830323236271735,-0.1634086472198367
1788861365073569300,3.6885693359375,0.5815267995238304,2.2260718296334145,-0.3407566802039742
1788861365083575300,3.6985751953125,0.45556467038393017,1.767397210535407,-0.6085434012651443
1788861365093581300,3.708581298828125,-0.06698679307997227,1.3294739953041075,-0.8574009654507041
1788861365103587000,3.718587158203125,-0.13046528577804564,1.4056325213551522,-0.9205494955420493
1788861365113593300,3.72859326171875,-0.5023176537305116,1.2572896335810422,-0.9806590963289141
1788861365123599400,3.738599365234375,-0.7798626754790544,1.207438391958177,-0.6465279717445374
1788861365133605000,3.748605224609375,-0.5684755947709084,1.128181315369904,-0.1299433077305555
1788861365143612400,3.7586123046875,0.055088850015401834,1.004516649517417,0.2960600448653102
1788861365153618400,3.768618408203125,-0.01542261005938053,0.7982315681234001,0.45521015785783525
1788861365163624200,3.778624267578125,-0.34191491032838817,0.672498863825202,0.21846739435791968
1788861365173630200,3.788630126953125,-0.386770535621047,0.8629518775761127,-0.16298691467642784
1788861365183636200,3.79863623046875,-0.2882745055556297,1.233761166216433,-0.4804384148776531
1788861365193642500,3.808642578125,-0.06736147161126137,1.5283756884485482,-0.6760220695152879
1788861365203648300,3.818648193359375,0.32180618827939034,1.6715514027178286,-0.9299670199677348
1788861365213654300,3.828654296875,0.49806058080792426,1.5819097102373838,-1.29586223308146
1788861365223660300,3.838660400390625,0.09536007012724876,1.502909238758683,-1.3706824962660669
1788861365233666300,3.848666259765625,-0.2006985134333372,1.6284867524951696,-1.0731085397064686
1788861365243672300,3.85867236328125,-0.0834457604497671,1.8568541940987109,-0.5372910596951842
1788861365253678300,3.86867822265625,0.09152326844334602,1.9652987867265939,-0.009994447530806064
1788861365263684400,3.878684326171875,0.047047582378983495,1.8914292483955621,0.26423428927659987
1788861365273690000,3.888690185546875,-0.43274902746379373,1.7903356030523776,0.32187399281859397
1788861365283696000,3.898696044921875,-1.0465887815713881,1.7897335455060004,0.30833851168006654
1788861365293702400,3.908702392578125,-1.1749100410580635,1.8955057040542362,0.2697533449590206
1788861365303708400,3.91870849609375,-1.3297282623261213,1.937062287801504,0.21187427970319986
1788861365313714200,3.928714111328125,-1.589889603075385,1.8240122472047804,0.22109102085977791
1788861365323720200,3.93872021484375,-1.3368378020703793,1.573718220475316,0.21204496009498833
1788861365333726200,3.948726318359375,-1.1550181766301393,1.2783476191788912,0.16508184112906454
1788861365343733200,3.958733154296875,-1.2789730576008558,1.106239240413904,0.15945289533138274
1788861365353739300,3.9687392578125,-1.4340899695545435,1.0985323192983865,0.17791443469524382
1788861365363745300,3.978745361328125,-1.1297522179484367,1.3000433181583881,0.26957009734660387
1788861365373751000,3.9887509765625,-0.5466349343627691,1.6941893509835004,0.4747290973201394
1788861365383757300,3.99875732421875,-0.43667643004059786,2.044769798326492,0.6793380621954799
1788861365393763300,4.008763427734375,-0.6531313155323266,2.0963906799703835,0.9941814257249235
1788861365403769300,4.018769287109375,-0.5078893163830042,1.879369977289438,1.2267439809307454
1788861365413775000,4.028775146484375,-0.42946752157509327,1.688885983878374,1.1455410309717058
1788861365423781000,4.038781005859375,-0.5615665460348129,1.634058415147662,1.0043100210294127
1788861365433787400,4.048787353515625,-1.0000555784553289,1.5894763460993766,0.9681851069420575
1788861365443793400,4.05879345703125,-1.1330647034972905,1.619364119362831,0.9222402251079678
1788861365453799200,4.068799072265625,-0.9352589888960122,1.5256360343515871,0.8015364548876881
1788861365463805200,4.07880517578125,-0.9827303496450185,1.1901742456853388,0.6089703945055603
1788861365473811500,4.0888115234375,-0.8808744877576827,0.7947276516556739,0.37148821081519123
1788861365483817200,4.098817138671875,-0.9772007725685834,0.5313450107723474,0.11929536472707986
1788861365493823200,4.1088232421875,-1.268543433523178,0.46697687575817104,-0.03250584680736065
1788861365503829200,4.118829345703125,-1.7298434326887129,0.6215799929708242,-0.017361761428415775
1788861365513835300,4.128835205078125,-2.270564759093523,0.7545856108814477,0.22268647335767744
1788861365523841300,4.13884130859375,-2.6626865926146506,0.8537667006015777,0.7296550216339528
1788861365533848300,4.148848388671875,-3.006900427535176,0.9921306306749582,1.2999524250045418
1788861365543854300,4.158854248046875,-3.254083044245839,1.103951421737671,1.8417733832143246
1788861365553860000,4.168860107421875,-3.0512136165142056,1.1363158142477274,2.2783161038726565
1788861365563866400,4.178866455078125,-2.767956062337756,1.0322428608328102,2.5859026281416413
1788861365573872400,4.188872314453125,-2.5215339086055755,0.766897979965806,2.720737507306039
1788861365583878400,4.19887841796875,-2.302818092444539,0.3831663736492395,2.5149916473552585
1788861365593884200,4.20888427734375,-2.0014786458715794,-0.05236380896568298,2.202706443876028
1788861365603890200,4.21889013671875,-1.7063967983886599,-0.4631880048692226,1.8589301235899327
1788861365613896200,4.228896240234375,-1.388423904661834,-0.8498194242805241,1.6184597178690134
1788861365623902200,4.238902099609375,-1.183810555872321,-1.1234387970179318,1.6260897743560372
1788861365633908000,4.248907958984375,-1.383103294160962,-1.229484511810541,1.686322417000681
1788861365643914200,4.258914306640625,-1.784320288285613,-1.292192020136118,1.6032377449482678
1788861365653920300,4.268920166015625,-1.778183977487683,-1.259871466767788,1.4126323171146213
1788861365663926000,4.278926025390625,-1.4494105805441737,-1.0691004731088876,1.1367347703121602
1788861365673932000,4.28893212890625,-1.0464619403213262,-0.9035650429934262,0.9488725037068128
1788861365683939300,4.298939208984375,-0.5291062919348478,-1.0069342320531607,0.9583853052005171
1788861365693945000,4.308945068359375,-0.3185743667513132,-1.252099663722515,0.7235850540705024
1788861365703951000,4.318951171875,-0.6201140120714903,-1.6385808610081671,0.11534078188240528
1788861365713957000,4.32895703125,-0.9537515079200267,-1.8415017266660927,-0.14822642178758977
1788861365723963100,4.338963134765625,-1.226118250247836,-1.6816203767895697,0.328766967202723
1788861365733969200,4.34896923828125,-1.007084746439755,-1.5262264014601707,1.0743700840748847
1788861365743975200,4.35897509765625,0.008217500986158848,-1.4889409191608427,1.3494184667021036
1788861365753981200,4.368981201171875,1.391503458237648,-1.3430202900975943,0.8940040184438228
1788861365763987000,4.378987060546875,2.6583652222841976,-1.3465759367525576,0.016739537876844405
1788861365773993200,4.3889931640625,3.3956241430506107,-1.5072744482308624,-0.8769263346537947
1788861365783999200,4.398999267578125,4.732949728637934,-2.2783237026572225,-1.624645859158039
1788861365794005200,4.409005126953125,5.270706360018253,-2.6597289118528367,-2.210109998130798
1788861365804011000,4.419010986328125,1.8413883294194935,-2.360767008066177,-1.8659280196532606
1788861365814017000,4.42901708984375,0.4808166005402803,-2.152166927728057,-1.416421918655932
1788861365824023300,4.439023193359375,-1.2221315186992288,-1.8705255765765905,-0.6174795719146728
1788861365834029300,4.449029296875,-2.707546894082427,-1.9467776261299847,-0.0977326444774866
1788861365844036000,4.4590361328125,-2.547182436864078,-1.3946078539937734,0.4337883073836565
1788861365854042000,4.4690419921875,-1.9377198749274014,0.2781991017431021,2.567202603846788
1788861365864048000,4.479048095703125,-1.0281363022968173,1.9699287846148013,2.7467183362588283
1788861365874054100,4.48905419921875,0.7496124986439943,2.5100451308637854,0.6843170196518301
1788861365884060200,4.49906005859375,1.7565718651384115,1.7153285851240156,-0.452855119164288
1788861365894066200,4.509066162109375,1.3897586603969334,0.4143009321033954,-0.6187780872926115
1788861365904072000,4.519072021484375,0.5137181686669587,-0.6237000538647175,-0.5480462624654173
1788861365914078200,4.529078125,-0.975269512245059,-1.742737985575199,-0.6773042182803154
1788861365924084200,4.539084228515625,-1.5763088214904069,-2.3040046718806027,-0.2542635148823261
1788861365934090200,4.54909033203125,-1.6274030489116906,-1.9749071575492618,0.2514388128504157
1788861365944096000,4.559095947265625,-1.7061252879709004,-0.7813239802032709,0.5284150948002934
1788861365954102000,4.56910205078125,-1.5420885719805955,0.5582470462232828,0.7713356701523065
1788861365964108300,4.5791083984375,-1.0558961236208677,2.0797943499565124,1.717351615384221
1788861365974114300,4.5891142578125,-0.11142565426528453,3.517832180353999,1.857479047998786
1788861365984121000,4.59912109375,0.35385084731578825,2.314348955762386,-0.37676205956488845
1788861365994127000,4.609127197265625,0.21304420026540755,1.0309826316386461,-0.15552403144985436
1788861366004133000,4.619133056640625,-0.43623745410144327,0.4864432082504034,0.5638315683573484
1788861366014139100,4.62913916015625,-1.005337318250537,0.19487550636827944,0.8819257503762841
1788861366024145200,4.639145263671875,-1.5992214950442314,-0.35729309672415255,1.0062488801375031
1788861366034151200,4.649151123046875,-2.0227660563111303,-1.0637491752088069,0.8212219830885529
1788861366044157000,4.659156982421875,-1.7750035938858986,-1.4726041168659925,0.19463643691539764
1788861366054163200,4.6691630859375,-1.090918337163329,-1.5125158560156822,-0.48772564927637574
1788861366064169200,4.679169189453125,-0.4023345999777317,-0.9629127194970846,-0.5291393174216151
1788861366074175200,4.68917529296875,-0.18970482573211192,-0.06245850200057029,0.2776201328113675
1788861366084181000,4.699180908203125,0.10228490095436572,0.5299105940550566,1.1781702118977904
1788861366094187300,4.709187255859375,-0.04871697689592838,0.5076116684854031,1.8362804848864673
1788861366104193300,4.719193359375,-0.42628187727630135,0.09073708650171756,1.8229145150959492
1788861366114200000,4.729199951171875,-0.6941553998380899,-0.22913433432281016,1.247524903152883
1788861366124206000,4.7392060546875,-1.024306222614646,-0.16423603795468805,1.297596217267215
1788861366134212400,4.74921240234375,-1.1351707358658314,0.036649522483348844,1.9064479538291692
1788861366144218000,4.759218017578125,-1.1199760893434285,0.3019394582927227,2.1058698714554307
1788861366154224000,4.76922412109375,-0.40067631137669085,0.6413771648526191,1.6949258485645056
1788861366164230100,4.779230224609375,0.5376058247327804,1.0563941362708806,1.3198521804779768
1788861366174236200,4.789236083984375,0.7937579298406839,1.5932050112336873,1.2308774274736642
1788861366184242200,4.7992421875,0.7176087561398744,1.8875094446033238,1.1344205020204186
1788861366194248200,4.809248291015625,0.5277759201139212,1.825758798611164,1.1273232372358442
1788861366204254200,4.819254150390625,0.11576865190565586,1.194952127611637,0.8662681625172496
1788861366214260200,4.82926025390625,-0.09222878636419772,0.7864882310986518,0.271192437851429
1788861366224266000,4.839265869140625,0.1804290478646755,0.9002560645759106,-0.2732709976911545
1788861366234272300,4.849272216796875,0.24493279195725917,1.3031161497324704,-0.6206131937652826
1788861366244279000,4.859279052734375,0.23614859699904917,1.4850304677188395,-0.905596548821032
1788861366254285000,4.86928515625,0.49302901638150215,1.3034168862447142,-1.1524006876081228
1788861366264291000,4.879291015625,0.5858779804706573,0.9723913264602422,-1.2664017453193663
1788861366274297300,4.88929736328125,0.5489239220827817,0.5766892963647842,-1.0906789754495023
1788861366284303000,4.89930322265625,0.7087602637737989,0.4267547554850578,-0.4928133278042078
1788861366294309000,4.90930908203125,0.7027385192662478,0.12879969065338373,0.572877629122138
1788861366304315100,4.919315185546875,0.5053735341697931,-0.2818997098267078,1.155887945201993
1788861366314321200,4.929321044921875,0.029174072036147115,-0.4205883418098092,1.0581424412429332
1788861366324327200,4.9393271484375,0.13770751199126244,-0.21347002446204422,0.40162469814270735
1788861366334333200,4.949333251953125,1.734576890951395,0.12067805125713348,-0.6100389005199074
1788861366344339200,4.959339111328125,2.3435224432766435,0.038326223523914814,-0.8244432832226156
1788861366354345000,4.969344970703125,1.478791281068325,-0.34840368782579895,-0.12331278367489576
1788861366364352300,4.979352294921875,-0.0577525162667036,-0.8150248820140957,0.7007999524191022
1788861366374358300,4.989358154296875,0.26191023024320603,-1.025301663392782,0.7227189387604593
1788861366384364000,4.999364013671875,2.5362767197072507,-0.7706880198985337,0.3748267075881362
1788861366394370000,5.0093701171875,2.697828048622608,-0.480166319938004,0.49663434739708895
1788861366404376000,5.0193759765625,1.0934183372855186,-0.41636926281005143,1.030169561690092
1788861366414382300,5.02938232421875,1.2349667426139115,-1.0353998635590076,1.2459599919237196
1788861366424388000,5.03938818359375,2.0001772078841924,-1.6745882861956953,0.8823490903548896
1788861366434394000,5.04939404296875,1.9112872105538843,-1.6383920604377984,0.25849077718853947
1788861366444400000,5.059400146484375,2.3395839347839353,-1.044410853010416,-0.7132628358900547
1788861366454406100,5.06940625,2.5489456471443175,-0.36523178076893087,-1.7030103708207607
1788861366464412200,5.079412109375,1.059278751796484,0.03413052539974451,-2.1693334588453173
1788861366474419200,5.089419189453125,0.2051034703940153,0.04932283383458853,-2.2723802840828893
1788861366484425000,5.099425048828125,0.7476397372663021,-0.01791238104850054,-1.889739687873423
1788861366494431200,5.10943115234375,0.7168278348952531,-0.127585054166615,-1.169397707377374
1788861366504437200,5.119437255859375,0.49911973447203634,-0.4729463055565953,-0.7468123465314507
1788861366514443300,5.129443359375,0.19541502007246017,-0.844963216421008,-0.349602834482491
1788861366524449000,5.139448974609375,0.2738888373285532,-1.1203843778833746,-0.28145021249353885
1788861366534455000,5.149455078125,0.4733277060896158,-1.034694053377211,-0.4948571085914969
1788861366544461300,5.15946142578125,0.05502221451997757,-0.5814668860301375,-0.4682733453094959
1788861366554467300,5.16946728515625,0.132167413520813,-0.1962050014063716,-1.0801002982899546
1788861366564473000,5.17947314453125,0.5438017567634582,0.255321207241714,-1.5333701357349752
1788861366574479000,5.18947900390625,0.5449655398458242,0.9109279729768633,-1.3996885182589291
1788861366584486100,5.199486083984375,0.5616273363113403,1.2592001433774829,-0.7687354245260357
1788861366594492200,5.2094921875,0.7749380785584449,1.42469670278728,-0.39794250249862667
1788861366604498200,5.219498291015625,1.0650842232048512,1.5849644216328858,-0.3704483463734388
1788861366614504700,5.229504638671875,1.3663234242737292,1.5954881537348031,-0.4899821960315108
1788861366624510700,5.2395107421875,1.9387328513622282,1.656791055959463,-0.7995537566378712
1788861366634516700,5.249516845703125,1.8998866956174372,1.7895760168567298,-1.1245523112177849
1788861366644522800,5.259522705078125,1.213548107010126,1.9068480590626595,-1.2353759079366922
1788861366654528800,5.26952880859375,1.3684206888139248,2.014385181456804,-1.0857964641049505
1788861366664534800,5.27953466796875,1.5806827987909315,2.1384876542046665,-0.7280261052578687
1788861366674540800,5.289540771484375,1.350596278309822,2.334642971250415,-0.31488544910550115
1788861366684546800,5.299546875,1.2474842788815497,2.401547931265831,0.24488632246702907
1788861366694553900,5.309553955078125,1.320485802206397,2.3220713667079806,0.583456014020741
1788861366704559900,5.319559814453125,1.330489894348383,2.1969778370961546,0.5820987541928887
1788861366714565600,5.329565673828125,1.261137541180849,2.104446268393099,0.45518853054791686
1788861366724571600,5.339571533203125,0.9227823691606521,2.113570070569217,0.08894961856305598
1788861366734577700,5.34957763671875,0.512677135181427,2.2060943327486515,-0.16711802313178778
1788861366744584000,5.359583984375,0.3803179984807968,2.1889137731060386,-0.14948825841695068
1788861366754589700,5.369589599609375,0.3422860817283392,1.9994585382208228,-0.0995323873758316
1788861366764595700,5.379595703125,0.21813655496835707,1.7007041397050022,0.07119535068571567
1788861366774601700,5.389601806640625,0.24580548313856124,1.317861883443594,0.3832660346314311
1788861366784608000,5.39960791015625,0.3044482262432575,0.8836275858581065,0.5177089918687939
1788861366794613800,5.40961376953125,0.3523766831099987,0.4728910682380199,0.39665743112415075
1788861366804620800,5.419620849609375,0.45611061382889745,0.16508184112906454,0.25616350328475235
1788861366814626800,5.429626708984375,0.39049452458024025,0.02877250549793243,0.15226795226335524
1788861366824632800,5.4396328125,0.28366730402112006,0.0854331348747015,0.14543518363386393
1788861366834638800,5.449638916015625,0.2522118430495262,0.4164993189305067,0.08792641299515962
1788861366844644900,5.459644775390625,-0.0692640903621912,0.8917764055222273,0.14962357523441314
1788861366854650600,5.469650634765625,-0.5262111550152302,1.182275601390004,0.5562967889383434
1788861366864656600,5.47965673828125,-0.8620470376908779,1.1492255647033451,1.2630799074202774
1788861366874663000,5.489662841796875,-0.7993085497051476,0.8788193087935448,1.769818007941544
1788861366884669000,5.4996689453125,-0.6374649598449468,0.46149756756424903,1.8023010583952068
1788861366894675700,5.50967578125,-0.3063438307315111,-0.06436112075150012,1.4662475874461234
1788861366904681700,5.519681640625,0.07248597501814365,-0.4500479527890682,1.1014338859587907
1788861366914687700,5.529687744140625,0.16934359022676942,-0.5909539685606956,0.7843032882750034
1788861366924693800,5.53969384765625,0.12351590503156185,-0.654441813609004,0.6936212929613887
1788861366934699800,5.54969970703125,-0.2073866128951311,-0.7240040101349353,0.6515121898978948
1788861366944705800,5.559705810546875,-0.8104021906495094,-0.8290624674558639,0.5724138110026716
1788861366954711600,5.569711669921875,-1.0865163028120994,-0.9235206203073263,0.5402329583659767
1788861366964717800,5.5797177734375,-0.9856634804874658,-0.9747264914095402,0.6261888019405305
1788861366974723800,5.589723876953125,-0.7453004806637763,-1.0226035103499889,0.9908774157434701
1788861366984729900,5.599729736328125,-0.6559241611212492,-1.1492846014142035,1.4504615509018302
1788861366994736600,5.609736572265625,-0.9912374812275171,-1.336815590238571,1.6295334850691259
1788861367004743000,5.619742919921875,-1.585232717180252,-1.5221873552024363,1.3577636857211588
1788861367014749000,5.6297490234375,-2.0300427693158385,-1.6452543474227188,0.9049111969053745
1788861367024754700,5.639754638671875,-2.230758233883977,-1.6140689355641602,0.6210062847360969
1788861367034760700,5.6497607421875,-2.2695319089144466,-1.5404431428611278,0.5199424500092864
1788861367044766700,5.6597666015625,-2.1485925763726232,-1.3955647163271903,0.5470880849577486
1788861367054772700,5.669772705078125,-1.8416303214818237,-1.2197294259935616,0.8680179287940263
1788861367064778800,5.67977880859375,-1.6683680965065955,-1.0910165368407965,1.7400480158388614
1788861367074784800,5.68978466796875,-1.803691928231716,-1.0890683253824711,2.7009084789812565
1788861367084790800,5.699790771484375,-2.0271710132718086,-1.1958739186316727,2.996512304511666
1788861367094797800,5.7097978515625,-2.1682003631621596,-1.4824550642728804,2.4797107828766105
1788861367104803800,5.719803955078125,-2.049647341234982,-1.7308680995613335,1.2001089258529245
1788861367114809900,5.729809814453125,-1.7344670008361338,-1.9333967510312795,-0.016086334665119648
1788861367124815600,5.739815673828125,-1.5126573103129863,-2.1659961311161515,-0.6204775846868753
1788861367134821600,5.749821533203125,-1.517372648397088,-2.383296819782257,-0.7265723993182182
1788861367144828000,5.759827880859375,-1.6722411385476588,-2.3230764520972964,-0.7161670328989624
1788861367154834000,5.769833984375,-1.8710043000042438,-1.9758137510001659,-0.5195680637389422
1788861367164839700,5.779839599609375,-1.881557842722535,-1.5966349856823683,-0.0012662205435335636
1788861367174845700,5.789845703125,-1.8891618879854677,-1.2789233732402323,0.682438220167905
1788861367184852700,5.799852783203125,-2.0931530132234095,-1.0714461594521998,1.2450634814754127
1788861367194858800,5.809858642578125,-1.943356419509649,-0.9572393500357865,1.4601117150396108
1788861367204864800,5.81986474609375,-1.1618097364664077,-0.9110469231814146,1.252769233547151
1788861367214870800,5.829870849609375,0.05311258150637149,-1.0072457822203635,0.7399991593852638
1788861367224876800,5.839876708984375,1.7155243999570606,-1.0706593929886816,0.15644699151366948
1788861367234882800,5.8498828125,2.976601735383272,-0.7686375171095132,-0.34174276863187547
1788861367244888800,5.859888916015625,3.2675100965738295,-0.2618868493676185,-0.37786651367545127
1788861367254894800,5.869894775390625,2.8774855275928974,0.06229834300279617,0.0050648821741342545
1788861367264900600,5.879900634765625,1.9175135377228258,0.15992869614958763,0.34589024370014665
1788861367274908000,5.889907958984375,0.43608255580067634,0.12357903339564799,0.5143719564005732
1788861367284913700,5.89991357421875,-0.732231155732274,-0.12789923468232153,0.558054446260631
1788861367294919700,5.909919677734375,-1.4418226096332072,-0.5572720637112856,0.6363818407833576
1788861367304925700,5.91992578125,-1.9451631766706703,-0.8897486990869045,0.8430614744529128
1788861367314932000,5.929931884765625,-1.8382120374709368,-0.9571680383652448,1.054395948190987
1788861367324937700,5.939937744140625,-0.9998433970093726,-0.8486065413594246,1.0988301332011818
1788861367334943700,5.94994384765625,-0.27365093691945075,-0.4840723874658346,1.0386229172587393
1788861367344949800,5.95994970703125,0.04750117136538028,0.036332711619138716,0.8812816072538494
1788861367354956800,5.969956787109375,0.4483271203458309,0.4964812026619911,0.5719961701124906
1788861367364962800,5.979962890625,1.0567027638286353,0.7716320227503776,0.28508009342849255
1788861367374968800,5.98996875,1.4867027848452328,0.7943056268513202,0.13470102365165948
1788861367384974600,5.999974609375,1.3100263675123451,0.6158890878528356,0.08751812445521354
1788861367394980600,6.009980712890625,0.6163683958023786,0.36266368384659287,0.19670973605811595
1788861367404987000,6.01998681640625,-0.038626375514268875,0.1448018541663885,0.44856998919099567
1788861367414993000,6.029992919921875,-0.47833588964045043,-0.1174047286748886,0.8283402906611561
1788861367424998700,6.03999853515625,-0.554828177690506,-0.48311494061052795,1.1564821117028594
1788861367435004700,6.050004638671875,-0.30311726990044113,-0.7881593791812658,1.181352641326189
1788861367445012000,6.060011962890625,0.053607087025046345,-0.8991519027262925,1.0788996903285384
1788861367455017700,6.070017822265625,0.08545008600950241,-0.7159019522219896,1.043662957252562
1788861367465023700,6.080023681640625,-0.14744623119533062,-0.48119537072479723,1.1257049883842467
1788861367475029800,6.09002978515625,0.10497487069070338,-0.27160686387121674,1.1084978329956532
1788861367485035800,6.100035888671875,0.5857371106952428,-0.022781740650534628,0.7450038358047604
1788861367495041800,6.110041748046875,0.8436065411150455,0.2588561033695936,0.16102175208330152
1788861367505047800,6.1200478515625,0.9278794000387192,0.6255898131340741,-0.32123131100088353
1788861367515053800,6.1300537109375,0.6180512343227863,0.9883025968194007,-0.44681466995626684
1788861367525059600,6.1400595703125,0.5227788424789905,1.2315446592107415,-0.24399171171486375
1788861367535067000,6.15006689453125,0.4760498245298862,1.3277087391972542,-0.02840659479498863
1788861367545073000,6.160072998046875,0.3454220416665077,1.1809227254763246,0.0987000282049179
1788861367555078700,6.17007861328125,0.41245267388820644,0.8662570566013454,0.1545081324055791
1788861367565084700,6.180084716796875,0.4383937553524971,0.6135641520366072,0.08581745801717043
1788861367575091000,6.190091064453125,0.3097287969946861,0.44735681400895116,0.03224076613038778
1788861367585097000,6.200096923828125,0.20111001684367655,0.2921352726370096,0.2456201896995306
1788861367595102700,6.210102783203125,0.42877720122337337,0.2844502710923552,0.06744008980542421
1788861367605108700,6.220108642578125,1.0331412709772587,0.2823910004749894,-0.5711369229346513
1788861367615115800,6.23011572265625,1.7175649658739567,0.323916020040214,-0.8660521816790103
1788861367625121800,6.240121826171875,0.7961831111609935,0.5854556634053587,-0.4140820286557078
1788861367635127800,6.2501279296875,-0.36094694305658337,0.5795277346611023,-0.03277560365945101
1788861367645134000,6.260134033203125,0.9489490760743617,0.2157213105201721,-0.438576710703969
1788861367655139800,6.270139892578125,2.200835973829031,-0.238907248057425,-0.7087257769823074
1788861367665145900,6.280145751953125,1.8070336398750542,-0.448233596843481,-0.5878706155925989
1788861367675152000,6.29015185546875,0.5866185697048902,-0.44431613113880153,-0.24425007039010524
1788861367685158000,6.300157958984375,0.5380044686615467,-0.43630818125009535,-0.4113362370789051
1788861367695164000,6.310163818359375,0.7101110938608646,-0.4823939328595996,-0.8353644902095199
1788861367705171000,6.3201708984375,0.8403525077551602,-0.32665567413717506,-0.908151494000852
1788861367715176700,6.3301767578125,1.6524305226624012,0.14897767854630947,-0.8115782486915588
1788861367725183000,6.340182861328125,1.7221803507149218,0.45022330935597416,-0.5520648504570126
1788861367735189000,6.35018896484375,0.8837561806738377,0.28968495687544343,-0.17527648740708826
1788861367745195000,6.360195068359375,0.803991154563427,-0.1584083547145128,-0.01973404351770878
1788861367755200800,6.37020068359375,1.796580634921789,-0.2446758945867419,-0.22272125241011378
1788861367765206800,6.380206787109375,1.4975480039864777,0.14065321005433798,-0.6028457741454243
1788861367775214000,6.390214111328125,0.9712146838963032,0.44304304246306414,-1.1091054434999823
1788861367785219800,6.4002197265625,1.9001754494309424,0.5968424420773982,-1.7744924294933675
1788861367795225900,6.410225830078125,2.0496552322804926,0.4192334200695157,-2.0260767882943154
1788861367805231900,6.42023193359375,0.7279016020953655,-0.11926467732787131,-1.7798562946140766
1788861367815238000,6.43023779296875,0.35713936746716496,-0.22762743689119813,-1.6096116638943552
1788861367825244000,6.440243896484375,0.6647194619953632,-0.038116087904572486,-1.3369973765462637
1788861367835250000,6.45025,0.8049789965569972,0.1080500403523445,-0.8078931304380297
1788861367845256000,6.460255859375,0.8198357894271612,0.2258475677371025,-0.5052230197831988
1788861367855263000,6.470262939453125,1.0294155284523963,0.45691199333965776,-0.5076847337216138
1788861367865269000,6.48026904296875,1.4161071536183356,0.7063394663676619,-0.26704876217544077
1788861367875275000,6.49027490234375,1.6738304535657167,0.8831047310277819,-0.06742109284400939
1788861367885280800,6.50028076171875,1.934863316452503,1.0330144297271966,-0.2886296026036143
1788861367895286800,6.510286865234375,1.955858173686266,1.2919058966711163,-0.8220999349668622
1788861367905293000,6.52029296875,1.8752432527482508,1.6824071432530878,-1.5288924057990312
1788861367915298800,6.530298828125,1.6526479648053645,1.9806845719069242,-1.909586836376786
1788861367925304800,6.540304931640625,1.69627901673913,2.1068182582214474,-1.7233166612684725
1788861367935312000,6.550311767578125,1.6538585096389053,2.083482098558545,-1.2685913643181324
1788861367945318000,6.56031787109375,1.8060685942351817,1.9093883911952376,-0.8401894261479377
1788861367955324000,6.570323974609375,2.1066034464269876,1.6096636863425373,-0.5449722618475557
1788861367965330000,6.580329833984375,2.0090742155671117,1.3033803536266089,-0.5517307961970568
1788861367975336000,6.5903359375,1.817524638751149,1.0037725531518458,-0.770260442136228
1788861367985341700,6.600341796875,1.496458455184102,0.8214268580108881,-1.095308681076765
1788861367995348000,6.610347900390625,0.9550070609390735,0.7218398178383708,-1.3726909134790302
1788861368005354000,6.62035400390625,0.2838233713656664,0.6519710395812988,-1.3330705584913491
1788861368015360800,6.63036083984375,-0.15309095908403395,0.5726385596692561,-1.1076049758091568
1788861368025366800,6.64036669921875,-0.07128010635972022,0.46130905925482507,-0.9010451691269874
1788861368035373000,6.650373046875,0.6063263097375631,0.3019914807409048,-0.7629080335468054
1788861368045378800,6.66037890625,0.7255319503545761,0.14707038362026215,-0.7418257902905344
1788861368055384800,6.670384765625,0.4048223251402378,-0.08771569285392761,-0.6982990755140781
1788861368065390800,6.680390869140625,-0.015910685837268828,-0.40195582979321476,-0.6251949685975909
1788861368075396900,6.69039697265625,-0.2561345694512129,-0.5373743540644645,-0.41053865696042774
1788861368085403000,6.70040283203125,-0.45470016250908374,-0.5856681371122598,-0.062253627078235146
1788861368095410000,6.710409912109375,-0.3709241471916437,-0.7645902875453233,0.34870062494575976
1788861368105416000,6.720416015625,-0.012259177592396735,-1.0387789846032858,0.7021350004151463
1788861368115422000,6.730421875,0.3173714207023382,-1.3698498448342085,0.8612170166075229
1788861368125428000,6.740427978515625,0.3593494447320699,-1.5882675548315048,0.6568108808279037
1788861368135434000,6.75043408203125,0.17195231142044065,-1.6207435910224914,0.2473626494526863
1788861368145439700,6.760439697265625,-0.07043897936046123,-1.3892512953966856,-0.051048342452943325
1788861368155445800,6.77044580078125,-0.3966226520717144,-0.8968360269993543,-0.12724310886114834
1788861368165453000,6.780453125,-0.7824842561542987,-0.3228039671450853,-0.028191198478639126
1788861368175458800,6.790458740234375,-1.0696072535872458,0.11915770982205867,0.21689006203860042
1788861368185464800,6.80046484375,-1.2296528541147709,0.22313480164706706,0.6101753863811492
1788861368195470800,6.810470947265625,-1.5671727443546055,-0.11552198366820811,1.0776409224390984
1788861368205477000,6.82047705078125,-2.2603157522797583,-0.762847243270278,1.389427528746426
1788861368215483000,6.83048291015625,-2.866825601890683,-1.4748065953463314,1.615693906417489
1788861368225489000,6.840489013671875,-3.1963930718213316,-2.100065569090843,1.7955220657795667
1788861368235495700,6.85049560546875,-3.3566575757965444,-2.591511700195074,1.765979452691972
1788861368245502000,6.860501953125,-3.5546781021922826,-2.8729747721701857,1.405578745341301
1788861368255508000,6.870508056640625,-3.541400395207107,-2.9339392362207173,1.0370473385050891
1788861368265514000,6.880513916015625,-2.9086513579681514,-2.682395501691103,0.9386749348193406
1788861368275519700,6.890519775390625,-2.2135803045898674,-2.037265706306696,1.0863540979877113
1788861368285525800,6.90052587890625,-2.100809665456414,-1.3737532820135354,1.0969798291593789
1788861368295532000,6.910531982421875,-2.1851842311888934,-0.86146485388875,0.7715124880239367
1788861368305538000,6.9205380859375,-1.700714076577127,-0.6037205111533404,0.537450049649179
1788861368315544800,6.930544921875,-1.1978440496608613,-0.5641133079081774,0.40052258211970326
1788861368325550800,6.94055078125,-1.0306006465837358,-0.7368295894384383,0.2400137479946017
1788861368335556900,6.950556884765625,-0.9191945738017558,-0.8011001092970371,0.010606441949307918
1788861368345563000,6.96056298828125,-0.8060495483979583,-0.6900994024455547,0.009783142867684363
1788861368355569000,6.97056884765625,-0.7996651080578565,-0.46025838115811346,0.2005763483583927
1788861368365575000,6.980574951171875,-0.9343316449180245,-0.2726286081343889,0.35557840176075695
1788861368375580700,6.99058056640625,-1.0180559300482273,-0.1648351728916168,0.45258653135597704
1788861368385588000,7.000587890625,-0.9062707948207854,-0.13513503115475178,0.5458458298116922
1788861368395594000,7.010593994140625,-0.6946855611920356,-0.2511556119948625,0.5773562358409166
1788861368405599700,7.020599853515625,-0.8789449809998273,-0.5708879166096449,0.2910176667839289
1788861368415605800,7.030605712890625,-1.1050859787255525,-1.0899439391732215,-0.1110109359845519
1788861368425612000,7.040612060546875,-1.033056515303254,-1.5782582019925118,-0.4281739746332168
1788861368435618000,7.0506181640625,-0.7807353666603565,-1.9280495447844266,-0.5994418109208345
1788861368445623800,7.060623779296875,-0.7158417464673519,-1.9493027606934308,-0.6902516703978181
1788861368455630800,7.070630859375,-0.6540858397781849,-1.7274439703315496,-0.49943508403152226
1788861368465636900,7.080636962890625,-0.40680619243383404,-1.38562492159307,-0.1236614509820938
1788861368475643000,7.090642822265625,0.00008475567400455475,-0.8469897538125515,0.3079503891453147
1788861368485649000,7.10064892578125,0.33416064293980596,-0.23319208528101443,0.6208703833967447
1788861368495655000,7.110655029296875,0.5193447763770819,0.10365502026379107,0.7497507380709052
1788861368505661000,7.120660888671875,0.5533955145388841,0.2039174754798412,0.6904115371346473
1788861368515667000,7.1306669921875,0.2871849567532539,0.19602584544718266,0.4879048052355647
1788861368525674000,7.140674072265625,-0.07909282593727111,0.07057400391697884,0.37272681269943714
1788861368535679700,7.1506796875,-0.3459387590169906,-0.14944061988294124,0.44548751300573347
1788861368545686000,7.16068603515625,-0.5579688138037919,-0.4328010499119758,0.7557675141423941
1788861368555692000,7.170692138671875,-0.8445610653609037,-0.6720832687616348,1.0971291745021938
1788861368565697800,7.18069775390625,-1.0747755961358547,-0.8454173899292945,1.3279489776939153
1788861368575703800,7.190703857421875,-1.0923632752746344,-0.9059715196132659,1.4845587585538624
1788861368585709800,7.200709716796875,-1.0366530784904957,-0.8670219034940004,1.365318631145358
1788861368595716900,7.210716796875,-0.6979372564643621,-0.6786129627913237,0.9708964117273687
1788861368605723000,7.220722900390625,0.08665127849280833,-0.4100356758743524,0.6132298055157065
1788861368615728600,7.230728759765625,0.7442991946667432,-0.26570377730727196,0.4657978951066732
1788861368625734700,7.240734619140625,0.7238748307973146,-0.30730420019626614,0.43105420624464746
1788861368635740400,7.250740478515625,0.1947948423475027,-0.3181353908121586,0.35199908196926116
1788861368645746400,7.260746337890625,-0.36921383614242076,-0.3584796761602163,0.2713482129350304
1788861368655752400,7.27075244140625,-0.4911696522504091,-0.6078057346403598,0.2629898421734571
1788861368665759500,7.280759521484375,-0.3354039209991693,-0.9959493121802806,0.15792203250229359
1788861368675765500,7.290765625,0.23121640129387377,-1.4138994144409893,0.07294687052816153
1788861368685771500,7.300771484375,0.7320575527310371,-1.5896324134439228,0.014470423901081084
1788861368695777500,7.310777587890625,0.7007026295244694,-1.4896189645528792,-0.046043666033446784
1788861368705783600,7.320783447265625,0.4687181664675474,-1.0162199467927218,-0.011593699420988559
1788861368715789600,7.33078955078125,0.05796586675643921,-0.24852760157883166,0.30206133110672234
1788861368725795600,7.340795654296875,-0.20742226873040198,0.46644086918532845,0.8610691325694322
1788861368735802400,7.35080224609375,-0.17053601488173006,0.6978349651336669,1.1873702941805124
1788861368745808600,7.36080859375,0.44949616412520405,0.3955950625896454,1.1368643880411982
1788861368755814700,7.370814697265625,1.2851415171027183,-0.15433832879662512,0.9756506205171346
1788861368765820400,7.3808203125,1.727838522607088,-0.4656526414170861,0.7088841824144124
1788861368775826400,7.390826416015625,1.845119332641363,-0.31463907312899825,0.2733919937223196
1788861368785832400,7.40083251953125,1.7883944058567285,0.15437953758984804,-0.03176905696541071
1788861368795838700,7.410838623046875,1.9123516249150037,0.8198328668177127,-0.18323446067422627
1788861368805845500,7.420845458984375,1.6620915004551409,1.3088757361724972,-0.1418713536724448
1788861368815851500,7.4308515625,1.0344669666230677,1.3507912163600324,-0.2335854685127735
1788861368825857300,7.440857177734375,0.7741735239267349,1.10114600892812,-0.7319839029729366
1788861368835863600,7.450863525390625,0.8321867369562387,0.7727379381656646,-1.3559385161206126
1788861368845869600,7.46086962890625,2.0928695201069116,0.22967501707077026,-1.7751365726158022
1788861368855875600,7.47087548828125,2.3471745360434055,-0.7098410447478294,-1.5916937298879026
1788861368865882600,7.480882568359375,0.8498796300351619,-1.4036936622470617,-1.0593857193022966
1788861368875888600,7.490888671875,0.03562193300127983,-1.5565139876961707,-0.5812685869790614
1788861368885894700,7.500894775390625,0.029278701454401014,-1.2980427919909356,-0.252533037827909
1788861368895900400,7.510900390625,0.4369979170799255,-0.8799351610809564,-0.16902692549303172
1788861368905906400,7.520906494140625,1.1578291423976421,-0.6222099614374339,-0.354829483089596
1788861368915912700,7.53091259765625,1.968250622269511,-0.45233343337774273,-0.6343573492184281
1788861368925918500,7.54091845703125,2.444124505710602,-0.10438479584306477,-0.813205119241029
1788861368935925500,7.550925537109375,2.7091362091004845,0.2911206887669861,-0.9190063577532768
1788861368945931500,7.560931640625,2.280495785999298,0.6893580825589597,-0.90013112302199
1788861368955937500,7.5709375,1.471163270407915,1.0023033573821187,-0.6736531484268605
1788861368965943600,7.580943603515625,1.1779811190664768,0.8699692089922726,-0.5167535908401012
1788861368975949600,7.590949462890625,1.8901473918914793,0.52584787466079,-0.6973626714468002
1788861368985955600,7.60095556640625,2.3887176757872104,0.3124817489646375,-0.9455560726352036
1788861368995961300,7.61096142578125,2.0121745196700096,-0.03951411813423037,-0.987274422815442
1788861369005968600,7.62096875,1.7939409340679644,-0.29722499699145555,-0.8993576544314622
1788861369015974400,7.630974365234375,1.9499024801522493,-0.24997253969013689,-0.9174335554786026
1788861369025980400,7.64098046875,1.9974580120533703,0.16676964808553457,-1.1867951246410609
1788861369035986400,7.650986328125,2.0468121178090573,0.520111084574461,-1.3429282278999686
1788861369045992700,7.66099267578125,1.7613082460105418,0.8220799150921404,-1.250309273174405
1788861369055998500,7.67099853515625,1.5887421866059301,1.1518249335467814,-1.0611065517455338
1788861369066004500,7.68100439453125,1.604021004280448,1.3149725917428732,-0.9474927397862076
1788861369076011500,7.691011474609375,1.7294120555341244,1.438947054196894,-0.7420134218171238
1788861369086017500,7.701017578125,1.9904940182596444,1.3874912999868392,-0.34928047066032886
1788861369096023600,7.7110234375,2.403854454642534,1.1361685147315264,-0.15797084008008241
1788861369106029600,7.721029541015625,2.869744119685888,1.0217743660494685,-0.4999301740720868
1788861369116035600,7.73103564453125,3.067458648872375,1.0656368886515497,-1.1406129269197582
1788861369126041300,7.741041259765625,2.7903648780226704,1.0701450137257575,-1.6516881798624992
1788861369136048600,7.751048583984375,2.3411796795427797,0.9109010849699377,-1.7632646407753227
1788861369146054400,7.761054443359375,1.9327274734675883,0.8532721950829029,-1.6145026508063076
1788861369156060400,7.771060302734375,1.1764239527523517,0.9922224006116389,-1.3364292212694882
1788861369166066400,7.78106640625,0.46818157537281513,1.0127531474649905,-0.7203957565099001
1788861369176072700,7.79107275390625,0.3480021212875843,0.8987403993159532,-0.03597352291792631
1788861369186078500,7.801078369140625,0.3408832291930914,0.6789487706169486,0.5285746692761778
1788861369196084500,7.81108447265625,0.447950103726983,0.27991291992366313,1.0448971752226353
1788861369206091500,7.821091552734375,0.8654583074390888,-0.26215105326175686,1.1607391846254467
1788861369216097500,7.83109765625,1.4468021516114473,-0.7128802663132547,0.717587128829956
1788861369226103600,7.841103515625,1.3933493783652782,-0.9268085559368133,0.06841974849253893
1788861369236109600,7.851109619140625,0.8602396960079669,-1.0341425569742917,-0.3466013145789504
1788861369246115300,7.861115234375,0.2472276248961687,-1.06193423474133,-0.479554617780447
1788861369256121600,7.87112158203125,-0.09060381551086902,-1.0002321040660143,-0.4428638865038752
1788861369266128600,7.881128662109375,-0.07612403925955295,-0.9723293671399355,-0.23741817854344843
1788861369276134400,7.891134521484375,0.11794190429151058,-1.0280758042812346,0.05776216087788343
1788861369286140400,7.901140380859375,0.10855506726503372,-1.0346335553616284,0.17352905921787024
1788861369296146700,7.911146728515625,0.08374737374484538,-1.0649281558603048,0.17781331240832804
1788861369306152700,7.921152587890625,0.16172200930714606,-1.2273989377081393,0.24488544568419454
1788861369316158500,7.931158447265625,0.01819324381649494,-1.3382710497438908,0.13718670298755167
1788861369326165500,7.94116552734375,-0.2357160508006811,-1.428406078699231,-0.10365765061229466
1788861369336171500,7.951171630859375,-0.3118044342249632,-1.5179378810644149,-0.25699732376039025
1788861369346177500,7.961177490234375,-0.5725748467832803,-1.4523907653987407,-0.4063683855384588
1788861369356183600,7.97118359375,-1.0174562105894087,-1.3432213656276464,-0.4390238699495792
1788861369366189600,7.981189453125,-1.3256389471858738,-1.2507055790156125,-0.3056654930785298
1788861369376195300,7.9911953125,-1.3736281943291424,-1.1951111175656317,0.13823621204048395
1788861369386201600,8.00120166015625,-1.4790268433898686,-1.0573135892033576,0.7983192464068531
1788861369396208600,8.011208740234375,-1.9975924520879982,-0.8705950858056545,1.403594293525815
1788861369406214400,8.02121435546875,-2.6456033558666703,-0.8200017936438322,1.695294389615953
1788861369416220400,8.031220458984375,-3.19462430858314,-0.7542062561750411,1.6516987012565134
1788861369426226700,8.041226806640625,-3.3265783716142177,-0.868516525965929,1.7413567603498696
1788861369436232400,8.051232421875,-3.215527395880222,-1.3575959279388188,2.1245470993965863
1788861369446238500,8.061238525390625,-3.239970640002191,-2.181428093525767,2.0943822627574202
1788861369456245500,8.07124560546875,-2.928834022036195,-2.9436364543706177,1.4829375870928168
1788861369466251500,8.08125146484375,-2.236250401559472,-3.237331815931201,0.7993357299730182
1788861369476257500,8.091257568359374,-1.7316314851492642,-2.994578706100583,0.23963936172425745
1788861369486263600,8.101263671875,-1.656106873087585,-2.21503050339818,0.026366321139037606
1788861369496269600,8.11126953125,-1.7092372825115918,-1.3794313276499508,0.630939065207541
1788861369506275300,8.121275390625,-1.598741018050909,-0.9746341369509697,1.625571157309413
1788861369516282600,8.13128271484375,-1.6898907770067453,-0.7376905901819467,2.0793881072431804
1788861369526288400,8.141288330078124,-1.7368118103966115,-0.7267506784945726,1.8893731926485895
1788861369536294400,8.15129443359375,-1.413633456981182,-0.789925219810009,1.2945765771850943
1788861369546300400,8.161300537109375,-0.8423778761029243,-0.6869295402377843,0.7003662371769547
1788861369556306700,8.171306640625,-0.4400304166436195,-0.5791898810088634,0.2379290506750345
1788861369566312400,8.1813125,-0.37331659528613087,-0.5566437026798725,-0.3359457727909088
1788861369576319500,8.191319580078124,-0.2805763522684574,-0.5863157873660325,-0.8881956244260072
1788861369586325500,8.201325439453125,-0.2579553551375866,-0.6238783330410719,-1.2778332399159669
1788861369596331500,8.21133154296875,-0.4608832350581884,-0.7315817519128323,-1.3375798526093363
1788861369606337500,8.221337646484375,-0.4708709605872631,-0.8573001354247332,-1.1463850805804132
1788861369616343600,8.231343505859375,-0.2384790857732296,-0.887502381464839,-0.8643544378504157
1788861369626349300,8.241349365234376,0.16804712067544458,-0.8375041325867175,-0.5337307368651032
1788861369636355000,8.25135498046875,0.34855215638577935,-0.7678636101275682,-0.12321633756309747
1788861369646362400,8.2613623046875,0.12961422190666197,-0.7686328409343958,0.40118513768166303
1788861369656368000,8.2713681640625,-0.29403672234416006,-0.9486907173991203,0.8517132752031087
1788861369666374100,8.2813740234375,-0.6029039340734481,-1.1176520303100348,0.9807219324320554
1788861369676380200,8.291380126953126,-0.6732230864465236,-1.18968733895123,0.9654179803162812
1788861369686386400,8.301386474609375,-0.536938885256648,-1.118628766387701,0.9394093865737319
1788861369696393200,8.311393310546874,-0.1387327633857727,-0.9160697197794914,0.8363271977618336
1788861369706399200,8.321399169921875,0.3468763321280479,-0.5592974320590496,0.653768444392085
1788861369716405200,8.3314052734375,0.5540186148732901,-0.07666121487617492,0.5444289487510919
1788861369726411300,8.341411376953126,0.5148270066916942,0.34790392161011696,0.520524926072359
1788861369736417300,8.351417236328125,0.19132512041032312,0.6080991646289825,0.48117695828527207
1788861369746423300,8.36142333984375,-0.40635201892554756,0.6131418349713087,0.5957067160457372
1788861369756429300,8.37142919921875,-0.8268699258476495,0.3334440191030502,0.9301678032368421
1788861369766436400,8.381436279296874,-0.9381237306773662,-0.08893559003770352,1.2638377400502563
1788861369776442400,8.3914423828125,-0.8938368451833725,-0.5525801065027713,1.3973375712186098
1788861369786448100,8.4014482421875,-0.7393319276481867,-0.9940841028302907,1.374746384704113
1788861369796454100,8.4114541015625,-0.38943186378479,-1.2852309489518403,1.126168806503713
1788861369806460400,8.42146044921875,0.113278588655591,-1.2319564548820257,0.7492460034191608
1788861369816466400,8.431466552734374,0.442646152099967,-0.8712795609384775,0.3936100262522697
1788861369826473200,8.44147314453125,0.774678550839424,-0.49189913556873793,0.30423253766596314
1788861369836479200,8.451479248046875,0.76312313760221,-0.32458442082107064,0.3040437370955944
1788861369846485500,8.461485595703126,0.2469844637900591,-0.35691257297396656,0.30356472140699625
1788861369856491300,8.4714912109375,-0.3524234448611736,-0.5479471860051155,0.3253025059625506
1788861369866497300,8.481497314453126,-0.1979407391577959,-0.7070318325459957,0.33128859463483096
1788861369876503300,8.49150341796875,0.5187275212615728,-0.6210258662194014,0.210005270960927
1788861369886510300,8.50151025390625,0.736200059363246,-0.4087088111847639,0.2380140986099839
1788861369896516400,8.511516357421876,0.34091420885324475,-0.23819646943956613,0.2527054717853665
1788861369906522400,8.5215224609375,0.3000298252791166,-0.1844908904761076,0.12124474522918462
1788861369916528000,8.531528076171876,0.8315735734939574,-0.09491934062242507,0.020366496202349663
1788861369926534100,8.5415341796875,1.016307040554285,-0.03739303432703018,0.033439912787079806
1788861369936540400,8.55154052734375,0.8810282170146703,-0.23842063358426094,0.015197276870906351
1788861369946547200,8.561547119140625,0.526860558834672,-0.4790498831287026,0.015166589471697807
1788861369956553200,8.57155322265625,0.7031839249461889,-0.5851236549720168,-0.01661561923623085
1788861369966559200,8.581559326171876,1.541065658673644,-0.5490270901963115,-0.19756079992949963
1788861369976565200,8.591565185546875,2.2923861302793025,-0.34333091460615395,-0.41750498884171244
1788861369986571300,8.6015712890625,2.039669844838977,-0.055148471248149866,-0.4526753786832094
1788861369996577300,8.611577392578125,1.7521709998309611,0.16726386134326457,-0.4682441192150116
1788861370006584000,8.621583984375,1.5886673678040504,0.18488573501259087,-0.4707178158521652
1788861370016590300,8.63159033203125,0.5339280130028724,0.1944979052275419,-0.31470366279780865
1788861370026596400,8.641596435546875,0.09031681526303291,0.1919555272683501,-0.3245797446459532
1788861370036602400,8.651602294921876,0.5478361268460751,0.005750526350736617,-0.5527016870558261
1788861370046608100,8.661608154296875,1.103018524801731,-0.2203010395258665,-0.8542185360223055
1788861370056614100,8.6716142578125,1.755256106364727,-0.25637159307748075,-1.22818585030213
1788861370066621200,8.68162109375,1.9250638069719075,0.009248597599565983,-1.449511848961562
1788861370076627200,8.691627197265625,1.8057909463375805,0.45084436386376614,-1.3921229053102433
1788861370086633200,8.70163330078125,1.4643307940393686,0.49521790472790594,-1.084830103290826
1788861370096639200,8.71163916015625,1.0336275931894778,0.24713220169767736,-0.694833299099654
1788861370106645200,8.721645263671874,1.312138245099783,-0.1318301443904638,-0.3672046882770955
1788861370116651300,8.7316513671875,1.6726152325570582,-0.5637964970439672,-0.18210501825287936
1788861370126658300,8.741658203125,1.6751216624200342,-0.7183341478049755,-0.21531638298109174
1788861370136664000,8.7516640625,1.8668214613616465,-0.5780125077925622,-0.32822657671570776
1788861370146670300,8.76167041015625,2.216518696129322,-0.1266372519224882,-0.7698311108082533
1788861370156676400,8.77167626953125,2.4994892500579358,0.4070940694645047,-1.527316827045381
1788861370166682400,8.781682373046875,2.382519405668974,0.6206412508159875,-1.8571112375997005
1788861370176688000,8.791688232421874,2.0388369011461736,0.6950777753800154,-1.6941963652461767
1788861370186695400,8.8016953125,2.3165853365123272,0.997463954526931,-1.4255914596699177
1788861370196701200,8.811701171875,2.209060781338811,1.2814856249436735,-1.2351602193593978
1788861370206707200,8.821707275390626,2.1245973682790993,1.5083581518143414,-0.9261224733687937
1788861370216713200,8.831713134765625,2.096984554210305,1.5790627963736652,-0.6168754685416817
1788861370226719500,8.841719482421874,2.1563561961114406,1.4105313993126154,-0.38696050523519515
1788861370236725200,8.851725341796875,2.27797415856719,1.143685173971951,-0.3591822714716196
1788861370246732300,8.861732177734375,2.0531027423858643,1.0376415050059555,-0.6105696463957428
1788861370256738300,8.87173828125,2.013163530707359,0.9966247272238135,-0.7578130484953522
1788861370266744300,8.881744384765625,2.0365724633455273,0.9867027604073285,-0.9405909975737333
1788861370276750300,8.891750244140624,1.9453513927191495,1.1001324479714036,-1.158304943215847
1788861370286756400,8.90175634765625,1.755979744464159,1.1138640362039207,-1.256342415858805
1788861370296762000,8.91176220703125,1.8319032927155494,1.0678066339060663,-1.2165797297909855
1788861370306769400,8.921769287109376,2.0037761091589927,1.0591457730665803,-0.984814462442696
1788861370316775400,8.931775390625,1.6688859829008578,1.108210540486872,-0.6605266864806413
1788861370326781200,8.94178125,1.3428250597864388,1.1156138024806976,-0.35378333503752946
1788861370336787200,8.951787109375,1.4262754964113236,0.8921873244106769,-0.07997662303447722
1788861370346793200,8.961793212890624,1.4607055892795324,0.5858084223657846,0.024887480758130548
1788861370356800300,8.97180029296875,1.1312333964169026,0.2198892438545823,-0.06118541332483291
1788861370366806300,8.98180615234375,0.852667799448967,-0.30263591612428425,-0.07435439923852681
1788861370376812300,8.991812255859376,0.7146727026879787,-0.758085727956891,-0.05007511350661516
1788861370386818000,9.001818115234375,0.48139936886429785,-0.9273445625096559,-0.16825024203211067
1788861370396824300,9.01182421875,0.3276701118767261,-0.8705302038758993,-0.4143021011471748
1788861370406830300,9.021830322265625,0.2327928568303585,-0.664458765232563,-0.4189999035745859
1788861370416837000,9.031837158203125,0.04779752396345138,-0.2847077529847622,-0.07309504682719707
1788861370426843100,9.041843017578126,-0.028559155008196828,0.08844459165036678,0.2562535196557641
1788861370436849400,9.051849365234375,0.0958551601678133,0.3114753484010696,0.4431453337937593
1788861370446855400,9.06185546875,0.16720774724185467,0.33368542664349077,0.5489814974889159
1788861370456861200,9.071861083984375,0.10539338836371898,0.08232932364046573,0.5110375512808562
1788861370466867200,9.0818671875,-0.010402151548862457,-0.25404022752046584,0.32913229338377714
1788861370476874200,9.091874267578126,-0.1386924313753843,-0.6224672971993684,0.21684359254837035
1788861370486880300,9.10188037109375,-0.34893677178919313,-1.0454618233680724,0.2653814134851098
1788861370496886300,9.11188623046875,-0.40588206332623955,-1.448272224164009,0.47501609756797547
1788861370506892300,9.121892333984375,-0.3535287757545709,-1.6558037984877825,0.6809358527809382
1788861370516898000,9.13189794921875,-0.6822405056387185,-1.7023223885565995,0.6237012229084968
1788861370526904300,9.141904296875,-1.2486509845733642,-1.7757938674807547,0.3958925842314958
1788861370536911400,9.151911376953125,-1.6646785943388938,-1.883066493719816,0.1474699043318629
1788861370546917000,9.161917236328126,-2.167985259106755,-1.9270400754809378,0.06758417445123195
1788861370556923100,9.171923095703125,-2.7351304820567366,-2.00398653703928,0.2673360546842217
1788861370566929400,9.181929443359374,-3.1175317165523766,-2.2517297102421523,0.743863141337037
1788861370576935200,9.19193505859375,-3.228987181434035,-2.563067695999145,1.1985817162856458
1788861370586941200,9.201941162109375,-3.242043062362075,-2.7452263441354035,1.4605018834009766
1788861370596948500,9.211948486328126,-3.1903809719249603,-2.6175065576732157,1.5378656935885548
1788861370606954200,9.221954345703125,-2.9198259551942347,-2.0401549980074165,1.444316472275555
1788861370616960300,9.231960205078124,-2.295182482999563,-1.1829466325193643,1.141549623247981
1788861370626967300,9.24196728515625,-1.55459441781044,-0.5017231949687003,0.813427968211472
1788861370636973000,9.25197314453125,-1.0374491973042488,-0.21207447845041752,0.7127128007918596
1788861370646980400,9.26198046875,-1.0929144794166088,-0.41655718659758567,0.8823799238845705
1788861370656986000,9.271986083984375,-1.4429597969695924,-1.042909800797701,1.3049156003698705
1788861370666992000,9.2819921875,-1.8965946683347223,-1.6446791778832672,1.4818474537685513
1788861370676998100,9.291998046875,-2.3515531895190476,-1.9263322194725274,1.1710264776229857
1788861370687004200,9.302004150390625,-2.418989479932189,-1.979377580961585,0.7432102303862571
1788861370697010200,9.31201025390625,-2.2812819679409264,-1.773448765659332,0.17178367685526608
1788861370707017200,9.322017333984375,-1.8950842637717722,-1.4313281036257743,-0.4639359006270766
1788861370717023200,9.332023193359374,-1.3304302731156348,-1.134514902305603,-0.8618404092028736
1788861370727029000,9.342029052734375,-0.6775707602620125,-1.0041039770632982,-0.9089417675957083
1788861370737035300,9.35203515625,-0.4065156850546598,-0.9417080189049243,-0.788401371243596
1788861370747041300,9.362041259765626,-0.33354572591185566,-0.9989853188753127,-0.5241688355326652
1788861370757048000,9.372048095703125,-0.08517010002434253,-1.2203203776240348,-0.06961801836639642
1788861370767054000,9.38205419921875,0.1681336299151182,-1.3786539135366678,0.3421826213538646
1788861370777060400,9.392060302734375,0.2800695717900991,-1.2650889091551303,0.38247809912413355
1788861370787066000,9.402066162109374,0.381203549143672,-0.9860311447560787,0.19624504115581512
1788861370797072100,9.412072021484375,0.30141514215767384,-0.7148527354300022,0.08901829988509416
1788861370807078100,9.422078125,-0.044993572458624835,-0.5779758290439844,0.12386778720915317
1788861370817085200,9.432085205078126,-0.27209143251776696,-0.5419570056796074,0.07991495597511529
1788861370827091200,9.44209130859375,0.02850420995056629,-0.5328922402143478,-0.007919979344308376
1788861370837097200,9.45209716796875,0.6019131694704294,-0.4802846856206655,-0.013378537011146545
1788861370847103200,9.462103271484375,1.012142322090268,-0.37798049544394013,0.22130933978557585
1788861370857109000,9.47210888671875,0.9210784878522157,-0.27141221808195115,0.5801031964614987
1788861370867115300,9.482115234375,0.37925241507589813,-0.1411591137498617,0.9744342304646968
1788861370877122000,9.4921220703125,-0.42604105425775046,0.05025485398769378,1.2353121950507164
1788861370887128000,9.502128173828124,-0.9282271905630827,0.16950959444344044,1.2404147788867355
1788861370897134300,9.51213427734375,-0.9326602045744657,0.10033552045226096,1.0504302594304085
1788861370907140400,9.522140380859375,-0.8166378701686858,-0.11067571268081665,0.8609019593089818
1788861370917146000,9.53214599609375,-0.7050088022857904,-0.27651334061324595,0.7996633544921875
1788861370927153200,9.542153076171875,-0.5239139839887619,-0.27333237248957154,0.7715636336892843
1788861370937159400,9.552159423828124,-0.5753770447224378,-0.13846329879462718,0.7182645897001028
1788861370947165200,9.562165283203125,-0.7360749716788529,-0.0936982743948698,0.7014516943261027
1788861370957171200,9.572171142578124,-0.42262744642198086,-0.3373994787305593,0.6275611132070422
1788861370967177200,9.58217724609375,0.08360650396943092,-0.6516542287170887,0.5001698280468583
1788861370977183000,9.592182861328125,0.3402028457134962,-0.8014952460944652,0.32360797700434923
1788861370987190300,9.602190185546876,0.46701603872478004,-0.6576835720092058,0.13866203623712062
1788861370997196300,9.6121962890625,0.15985621543526649,-0.2398720014363527,-0.027765958803892134
1788861371007202000,9.6222021484375,-0.06177168878018856,0.06868132203817368,-0.1332934949412942
1788861371017208000,9.6322080078125,0.1588449925661087,0.1896446199774742,-0.2710866393893957
1788861371027214300,9.64221435546875,0.36656069128513336,0.16372516582310198,-0.1575616747573018
1788861371037220400,9.652220458984376,0.2411456746339798,0.1071332177683711,0.22063100213259457
1788861371047227100,9.66222705078125,0.2994984948813915,0.027133213858306405,0.5575573103934526
1788861371057233200,9.672233154296874,0.1448112065166235,0.02857435257732868,0.8242267178624868
1788861371067239200,9.6822392578125,-0.16280746645629404,-0.01960574096292257,0.8835238332226872
1788861371077245200,9.6922451171875,-0.15622867258787154,-0.1727308945775032,0.5823483450397848
1788861371087251200,9.702251220703126,0.2740969271212816,-0.10078004934936761,0.009871113412082196
1788861371097258000,9.712258056640625,0.7375076348304748,0.11961918985396623,-0.5127189284965395
1788861371107264300,9.72226416015625,1.40908646120131,0.1887035397350788,-0.8566279352515935
1788861371117270300,9.732270263671875,2.0087930605381725,0.16037702443897722,-1.1394602497532964
1788861371127276300,9.7422763671875,1.806148089212179,0.1393093942299485,-1.2216136323049664
1788861371137282000,9.752281982421875,1.4462895259141921,0.04670651385635137,-1.0779621172174811
1788861371147288000,9.7622880859375,1.5159528447270392,-0.2149801367640495,-0.9383370811671018
1788861371157295000,9.772295166015626,1.2029103931397198,-0.3609299919217825,-0.7515881826311349
1788861371167301000,9.782301025390625,0.9060556907653808,-0.393706472364068,-0.5553571700006723
1788861371177307100,9.79230712890625,0.7482265972435473,-0.6344105407103896,-0.508331507192552
1788861371187313200,9.802313232421875,1.0409966606527565,-0.8850596644878387,-0.7439683552771806
1788861371197319200,9.812319091796875,1.593117917472124,-0.745802877227962,-0.9756281164243816
1788861371207326200,9.822326171875,1.746654282236099,-0.23929887772351502,-1.0387366067662835
1788861371217332200,9.832332275390625,1.1351625525593756,0.3532705632098019,-0.9373469010859727
1788861371227338000,9.842337890625,0.35874504909813404,0.9299225963041186,-0.7897589233323932
1788861371237344300,9.85234423828125,1.3087538633584976,1.3701755696572362,-0.8224518171444535
1788861371247350300,9.862350341796875,2.2833833241343497,1.3208267245985568,-0.7618550173625349
1788861371257356300,9.872356201171876,2.104535992503166,0.9209213975943624,-0.08685790698081254
1788861371267363000,9.882363037109375,1.9508593424856662,0.16952172327265141,0.22071780363321303
1788861371277369300,9.892369384765624,2.4578712915122507,-0.372535820171982,-0.8828399426117539
1788861371287375000,9.902375,2.2695704873591662,-0.3531551201365888,-2.178926924359798
1788861371297381000,9.912381103515624,1.5055658907473086,-0.2032644183985889,-2.7702807058930397
1788861371307387100,9.92238720703125,1.3670704432487486,0.16433277632743118,-2.929329112076759
1788861371317393400,9.932393310546875,1.3094096969187259,0.6356405208967626,-2.393862052938342
1788861371327400200,9.942400146484376,1.015855789655447,0.8073851809158921,-1.1978005027800798
1788861371337406200,9.95240625,1.4159505017518996,0.7192687983065843,-0.4599009460225701
1788861371347412200,9.962412109375,2.1461621343553063,0.8705855873249471,-0.4182338876381516
1788861371357418200,9.972418212890625,2.258387999087572,1.226084640239179,-0.682782357430458
1788861371367424300,9.98242431640625,2.289696160542965,1.3727628096714615,-1.043146239902079
1788861371377431000,9.99243115234375,2.152679553425312,1.3136419276610016,-1.367925891034305
1788861371387437000,10.00243701171875,1.9475451033711433,1.2416919592157005,-1.6857918172553181
1788861371397443300,10.012443359375,2.1075059482246634,1.2807374369248747,-2.0305749764963985
1788861371407449300,10.022449462890625,2.0164508818149565,1.4245181313499808,-2.0859113715320823
1788861371417455000,10.032455078125,1.7680436917454003,1.4957921002298593,-1.7172633525788783
1788861371427462100,10.042462158203126,1.8120774792611598,1.4990569472447037,-1.2426450221568346
1788861371437468400,10.052468505859375,1.908203273063898,1.4929542464554308,-0.8582885619401931
1788861371447474200,10.06247412109375,1.978843912476301,1.4383680852651595,-0.5023077168583869
1788861371457480200,10.072480224609375,1.8421207353472708,1.3007102576345204,-0.2902896447703242
1788861371467486200,10.082486328125,1.8436743945300578,1.0016016388535498,-0.26022826850563285
1788861371477492000,10.092491943359375,1.4625199452251194,0.6626435325041413,-0.4383873256117105
1788861371487499300,10.102499267578125,0.7393968095779418,0.23061142113804817,-0.7498366627886891
1788861371497505300,10.11250537109375,0.35378888799548147,-0.1345040397748351,-1.0468795812115073
1788861371507511000,10.122510986328125,0.3623217385411262,-0.2643140765145421,-1.1203677190095185
1788861371517517000,10.13251708984375,0.18128128077983854,-0.1614630661100149,-0.929414354521036
1788861371527523300,10.1425234375,-0.06451777261793613,-0.0753203216612339,-0.6178595111429691
1788861371537529300,10.152529296875,-0.12416764693856239,-0.06647182929515838,-0.19403350258618593
1788861371547536100,10.1625361328125,-0.1274035601198673,-0.12288286782503127,0.28842268185466524
1788861371557542100,10.172542236328125,0.13968144241273403,-0.29055940162241456,0.5860176812022924
1788861371567548200,10.182548095703124,0.2374368832439184,-0.5222387442529202,0.525991374784708
1788861371577554200,10.19255419921875,0.05807867948114872,-0.7338719086766242,0.26530688694417476
1788861371587560200,10.202560302734375,-0.32275019113123415,-0.9521779749929904,0.04058335480093956
1788861371597567000,10.21256689453125,-0.6587362959325314,-1.0555798972785473,0.021383272029459475
1788861371607573200,10.2225732421875,-0.9055635233342647,-1.0035042576044797,0.3071662530303001
1788861371617579300,10.232579345703124,-1.0560329017430543,-0.9296201062262057,0.8520037825822829
1788861371627584500,10.24258447265625,-1.0119073442906141,-0.9701859253704548,1.3792457419499755
1788861371637590500,10.252590576171874,-1.0046206944137812,-0.924834040993452,1.512786489650607
1788861371647597300,10.262597412109375,-1.150703236040473,-0.783403124564886,1.2964818262845277
1788861371657603600,10.272603515625,-1.3520476461619138,-0.5903600943207741,1.0784095687240363
1788861371667609300,10.282609375,-1.8959832584381102,-0.5339800354510545,0.9709440502613782
1788861371677615400,10.292615478515625,-2.5239807172358035,-0.8304600592941045,1.050727488811314
1788861371687621400,10.302621337890624,-2.8345599935799837,-1.5193892489165066,1.3714385753303766
1788861371697627400,10.31262744140625,-3.0654280198276043,-2.295347902694344,1.6967556943401694
1788861371707634400,10.322634521484375,-3.2948464317888018,-2.8294892661869526,1.7875997483476995
1788861371717640400,10.332640380859376,-3.4171529610306024,-3.1008541379958388,1.7584703922361133
1788861371727646500,10.342646484375,-3.5049347048580644,-3.043545858365297,1.582099095329642
1788861371737652200,10.35265234375,-3.091405926170945,-2.6220985616385937,1.190459200106561
1788861371747658500,10.362658447265625,-2.1370810022771356,-2.0742384693950413,0.956378641553223
1788861371757665300,10.372665283203125,-1.3765341449037194,-1.5435253267854452,0.9727350253313779
1788861371767671300,10.38267138671875,-1.2203896434679626,-1.1390198125094175,0.8036883722245692
1788861371777677300,10.39267724609375,-1.1086337343350052,-0.902754311132431,0.5886787171050906
1788861371787683600,10.40268359375,-0.7693284219831228,-0.7887439010709524,0.40460575978010893
1788861371797689300,10.412689453125,-0.5683949307501316,-0.7436684955477714,0.19550328287780283
1788861371807695400,10.4226953125,-0.7802636574953794,-0.7564350381404161,-0.017321721678972245
1788861371817702400,10.432702392578125,-1.302600601425767,-0.7725923922151327,-0.059740475213527676
1788861371827708400,10.44270849609375,-2.0064713395923377,-0.7425695943951607,0.08776888434588909
1788861371837714400,10.45271435546875,-2.565746559819579,-0.7875912239044904,0.3091384298861027
1788861371847720400,10.462720458984375,-2.745805020806193,-1.0124883590489626,0.3863917654365301
1788861371857726200,10.472726318359374,-2.3375357700824737,-1.3184779695153235,0.35622166810035705
1788861371867733500,10.4827333984375,-1.5880869375675917,-1.539137320959568,0.2982116699412465
1788861371877739500,10.492739501953125,-0.9249877702504395,-1.695385282769799,0.211991476342082
1788861371887745300,10.502745361328126,-0.25767361558675766,-1.7606518279284238,-0.0713616471633315
1788861371897751300,10.512751220703125,0.5747334861218929,-1.6638959195286034,-0.567359157961607
1788861371907757300,10.52275732421875,1.808419541275501,-1.3825859922885895,-0.95796971013695
1788861371917764400,10.532764404296875,2.7506758417129515,-0.9752285957127809,-0.9874635156467556
1788861371927770400,10.542770263671875,2.480951722848415,-0.5912555818557739,-0.7169038227409124
1788861371937776400,10.5527763671875,1.521945363140106,-0.34467911434471604,-0.295189399510622
1788861371947782400,10.562782470703125,0.7240455111891031,-0.1595025796920061,0.36177287248671053
1788861371957788400,10.572788330078126,-0.010990765091776848,-0.064758595636487,1.030169561690092
1788861371967794400,10.58279443359375,-0.6801105078727007,-0.1304419049024582,1.3912491912156342
1788861371977801200,10.59280126953125,-1.235010581755638,-0.23853636891841887,1.3311793379172683
1788861371987807500,10.602807373046875,-1.7563503313422202,-0.4136784162908792,1.1179971904858945
1788861371997813500,10.6128134765625,-1.9004571889817714,-0.5720791722208262,1.1321548951759934
1788861372007819500,10.622819580078126,-1.5210972218781709,-0.555768088889122,1.2525281182676553
1788861372017825300,10.6328251953125,-0.33376609066426755,-0.5143599737018346,1.3031123503401876
1788861372027832600,10.64283251953125,0.9596545944839715,-0.4627309087514877,1.1832386012032627
1788861372037838300,10.65283837890625,1.2259499079436063,-0.43801615421175955,0.9193874660253524
1788861372047844400,10.66284423828125,0.5444201809227466,-0.43378129312098024,0.6473185376003384
1788861372057850400,10.672850341796876,0.04236673108637333,-0.39870997973978517,0.5156950216978788
1788861372067856400,10.6828564453125,-0.2084574569970369,-0.3631786476314068,0.3915706293791532
1788861372077862400,10.6928623046875,-0.30176234816014763,-0.5058452433347702,0.21806144390553234
1788861372087869400,10.702869384765625,-0.03722995271980762,-0.7047931137084961,0.062087622861564155
1788861372097875500,10.71287548828125,0.32169512912034987,-0.8534352766901254,0.0321592253267765
1788861372107881200,10.722881103515626,0.3948971434533596,-0.8397294074207544,0.16737316693663595
1788861372117887500,10.732887451171875,0.22415011616945266,-0.6449427483797073,0.2449222705632448
1788861372127893500,10.7428935546875,0.2751438058257103,-0.289680280700326,0.16894085464477537
1788861372137900300,10.752900390625,0.2706301277935505,0.21990239559710026,0.12890636589825152
1788861372147906300,10.76290625,0.631560119715333,0.3923664559319615,0.018999884024262427
1788861372157912600,10.77291259765625,1.3303466864854097,0.24812661956250667,-0.12534195141494273
1788861372167918300,10.78291845703125,1.231702187860012,0.18673253192305564,-0.061028761458396905
1788861372177924400,10.79292431640625,0.14036825563311575,0.12220832956433296,0.28251754946410657
1788861372187931400,10.802931396484375,-0.7750970685124396,-0.1878893007427454,0.5548480514347552
1788861372197937400,10.8129375,-0.4817886604428291,-0.5352122075945138,0.48033232415467497
1788861372207943400,10.822943359375,0.8332587501019239,-0.8091054288372397,0.0755789725974202
1788861372217949400,10.832949462890625,1.4829565840542316,-0.9608718613192438,-0.03874094180464745
1788861372227955500,10.84295556640625,1.4238397936969995,-0.9276496829360723,0.061977732746303076
1788861372237961200,10.852961181640625,1.2073591892421245,-0.8424909810885787,-0.024309973131120204
1788861372247968500,10.862968505859374,1.4168389750242232,-0.6678560064554214,-0.1851701049119234
1788861372257974300,10.872974365234375,1.771931346833706,-0.38195349072813983,-0.33718086754381654
1788861372267980300,10.882980224609375,1.2116437346935272,-0.11311199991703033,-0.52374973333776
1788861372277986300,10.892986328125,0.9956716642826795,0.3136056384280324,-1.0858185298062861
1788861372287992600,10.90299267578125,1.0487257936000824,0.5364128155559301,-1.3846315266415476
1788861372297999400,10.912999267578124,1.0598106667160987,0.5063144682817161,-1.3113687220320105
1788861372308005400,10.92300537109375,1.4482429980695246,0.4093680057458579,-1.3650352841593325
1788861372318011400,10.933011474609375,1.8218524388223885,0.29772344803288575,-1.412489109251648
1788861372328017400,10.943017333984375,2.586045251482725,0.017515929076820612,-1.1327313798896967
1788861372338023400,10.9530234375,3.6375194670081137,-0.26146219421476125,-0.980335709593445
1788861372348030200,10.9630302734375,3.6384447651594876,-0.35320626580193637,-1.114892356338352
1788861372358036200,10.9730361328125,2.754908949238062,-0.27759149123877286,-1.1562982795685528
1788861372368042500,10.98304248046875,2.266297749298811,-0.10685191660895943,-1.1229136041000485
1788861372378048500,10.993048583984375,2.22732066065073,0.5547204795323312,-1.4539587453678249
1788861372388054300,11.00305419921875,1.7904256194233894,1.5667100952789186,-2.0008713276281953
1788861372398060300,11.013060302734376,1.5270225202739238,1.521464009363949,-2.0102908978804943
1788861372408067600,11.023067626953125,1.697817478352785,1.0186508272014558,-1.546197760865092
1788861372418073300,11.0330732421875,1.675765805542469,0.9735736681126057,-1.3682219513714313
1788861372428079400,11.043079345703125,1.8688474142313003,1.4564492470093071,-1.6484613267704844
1788861372438085400,11.05308544921875,1.7543495129138231,1.8062758072450755,-1.5081506465435026
1788861372448091400,11.06309130859375,1.3801672407090664,1.4678599910788237,-0.7177987257540226
1788861372458098400,11.073098388671875,1.6073159541726112,0.9717604812107979,-0.19163491701185703
1788861372468104400,11.0831044921875,1.7425637980520725,0.807517867384851,-0.3258180542692542
1788861372478110200,11.093110107421875,1.290669925135374,1.0287199474036692,-0.643622897952795
1788861372488116500,11.103116455078125,1.224277590817213,1.2805053817346692,-0.6836413123473525
1788861372498122500,11.11312255859375,2.0311656358659267,1.1400029783278702,-0.4258353025525808
1788861372508129300,11.12312939453125,2.5529776791393757,0.6394730847969651,-0.41331747402399777
1788861372518135300,11.13313525390625,2.5305063196122646,0.16504209364056585,-0.8539961254432797
1788861372528141600,11.1431416015625,2.3221792109966275,-0.12392214774489402,-1.5652330084636807
1788861372538147300,11.153147216796874,1.6556915702849626,-0.1085226263001561,-2.185300551044941
1788861372548153300,11.1631533203125,1.1664356427013873,0.09309738589227198,-2.226805989126861
1788861372558159400,11.173159423828125,1.3058984739273787,0.282710733948648,-1.7879872863605617
1788861372568166400,11.18316650390625,1.3916951814174652,0.49217941381484265,-1.1934224338263273
1788861372578172400,11.19317236328125,1.7074012992560863,0.5753539561077952,-0.6647144935593009
1788861372588178400,11.203178466796874,2.1562088965952397,0.5077393865182995,-0.5366133065640926
1788861372598184400,11.213184326171875,2.030906108146906,0.4960168000206351,-0.789639973127842
1788861372608190200,11.223190185546875,1.5036083269387484,0.5451087477087975,-1.0012690458983182
1788861372618197500,11.233197509765626,1.1997130584031344,0.638331805807352,-0.943129868401587
1788861372628203500,11.24320361328125,0.7109872921735048,0.7824263884872198,-0.725862205222249
1788861372638209300,11.253209228515624,0.1945505121976137,0.8016828776210546,-0.466852080334723
1788861372648215300,11.26321533203125,0.051288873210549354,0.5180822090953588,-0.2581809805870056
1788861372658221600,11.2732216796875,-0.14245558330118654,-0.13145312777161597,0.017877894257009027
1788861372668228400,11.283228271484376,-0.4507674992352724,-0.9981956298023462,0.48374388616383074
1788861372678234400,11.293234375,-0.6402741720467805,-1.8573451924860476,0.9583610475420952
1788861372688240400,11.303240478515624,-0.7771838116586208,-2.5345611479610204,1.212736790627241
1788861372698246400,11.313246337890625,-0.9625584992319345,-2.9992437753021717,1.1895394549131393
1788861372708252400,11.32325244140625,-1.0808972938865422,-3.24378610663712,1.0423302473440765
1788861372718259500,11.333259521484376,-1.1627461405336856,-3.091965313619375,0.7734092615559697
1788861372728265200,11.34326513671875,-1.469615456444025,-2.5085107609033583,0.45303018347024915
1788861372738271500,11.353271484375,-1.8561071751236915,-1.5888175899297,0.2565849435672164
1788861372748277500,11.363277587890625,-2.2475620691686866,-0.621584084624052,0.41427988931536674
1788861372758283300,11.373283203125,-2.701940744638443,-0.04383797268271446,0.7831982496425509
1788861372768289300,11.383289306640625,-2.963417844161391,-0.18386019135713577,1.3787985827043652
1788861372778296600,11.393296630859375,-2.7858219738960264,-0.8916542404472827,2.0099606430128216
1788861372788302300,11.40330224609375,-2.4228175137877463,-1.7164625575900077,2.3519281603112816
1788861372798308400,11.413308349609375,-2.4523510667860506,-2.362113746500015,2.3365569881781934
1788861372808314400,11.423314453125,-2.95204304818809,-2.744831791859865,1.8761442932412027
1788861372818320600,11.433320556640625,-3.2723306485980745,-2.841916201561689,1.2354366982132197
1788861372828327400,11.443327392578125,-3.0543045682668684,-2.722071093997359,0.6867834097653627
1788861372838333400,11.45333349609375,-2.8299054457724093,-2.4029513683229684,0.308449570839107
1788861372848339200,11.463339111328125,-2.6501409992963074,-1.9049328730911015,0.1167079785823822
1788861372858345500,11.473345458984374,-1.934761025121808,-1.3408967220723629,0.28441373847424983
1788861372868351500,11.4833515625,-1.1898580193430184,-0.8625321908593178,0.5252715360775589
1788861372878358300,11.493358154296875,-1.0644096849441527,-0.5423439591705799,0.5263818354070187
1788861372888364300,11.5033642578125,-0.9150012137651443,-0.476600444149971,0.5307572740122676
1788861372898370600,11.51337060546875,-0.6966606606572866,-0.526030537751317,0.479903285087645
1788861372908376600,11.52337646484375,-0.5799363154619932,-0.5642191063702107,0.1597320045337081
1788861372918382300,11.53338232421875,-0.46784839789569377,-0.5316285038888454,-0.16577333052456378
1788861372928389400,11.543389404296875,-0.46731180680096146,-0.42953591063618657,-0.38864860445261
1788861372938395400,11.5533955078125,-0.6159387722134589,-0.3270452579766512,-0.4606880047470331
1788861372948401400,11.5634013671875,-0.7822405105262994,-0.2608306183129549,-0.3001835545361042
1788861372958407400,11.573407470703126,-1.033815809237957,-0.3920218802779913,0.14997399610728024
1788861372968413400,11.583413330078125,-1.481439749750495,-0.6261486160606146,0.7446279882296919
1788861372978419200,11.593419189453124,-1.92813663854599,-0.944297450876236,1.4156491807177662
1788861372988426500,11.603426513671875,-2.0788024163097143,-1.3216168520629406,1.9661399137258528
1788861372998432500,11.6134326171875,-2.1017630206584927,-1.700109388682246,2.1241715440824627
1788861373008438300,11.623438232421876,-1.56158822222054,-1.9572563500463962,1.8406369265303015
1788861373018444300,11.6334443359375,-0.4814017069518566,-1.8499883999824522,1.2148583128258585
1788861373028450600,11.643450439453124,0.536308770659566,-1.5156442171692848,0.43647827711999415
1788861373038457300,11.653457275390625,1.1154670874863863,-1.1720774479806422,-0.3381830303236842
1788861373048463400,11.66346337890625,1.3255793259531259,-0.9122972155034541,-0.8484215401813388
1788861373058469400,11.673469482421876,1.1276298189669847,-0.7516489729076623,-0.6918383550673722
1788861373068475400,11.683475341796875,0.3981926778674125,-0.7517810748547316,0.04345891023725271
1788861373078481400,11.6934814453125,-0.23275544742941856,-0.7156371638059615,0.836559545212984
1788861373088488400,11.703488525390625,-0.7397294025331735,-0.5265513467550278,1.1834323702096938
1788861373098494200,11.713494140625,-0.8335732228785753,-0.35627252150475974,1.1338050004705786
1788861373108500500,11.72350048828125,-0.6524205369144678,-0.3826356277734041,0.7598588751092553
1788861373118506500,11.733506591796875,-0.6464046376258135,-0.5407984832942485,0.20031243672519922
1788861373128512300,11.74351220703125,-0.17132453491091726,-0.703002723160386,-0.35198914509713647
1788861373138518300,11.753518310546875,0.8147422656804323,-0.8094535116225481,-0.7581418420583009
1788861373148525600,11.763525634765625,1.3623708872556686,-0.8371464051902293,-0.8147443115070462
1788861373158531300,11.77353125,1.1746399919450283,-0.7833119391500949,-0.5973325636819005
1788861373168537300,11.783537353515625,0.816827839782834,-0.6685995182991027,-0.25261457863152026
1788861373178543400,11.79354345703125,0.4480331058353185,-0.47105157785117624,0.1817360388100147
1788861373188549400,11.80354931640625,-0.006695113724470138,-0.3812754453361034,0.5265051695257424
1788861373198556400,11.813556396484374,-0.15624036302566527,-0.5520563748896121,0.5164876333802938
1788861373208562400,11.8235625,0.010015198057889937,-0.7804650252863764,0.3592176350459456
1788861373218568400,11.833568359375,0.4772258825719356,-0.8571262401625513,0.33940321976840493
1788861373228574200,11.84357421875,1.0512918446958064,-0.712962099377811,0.3596919745594263
1788861373238580500,11.85358056640625,1.2858148863196373,-0.45711657600104805,0.4312357002913952
1788861373248587300,11.863587158203124,1.1016028127849102,-0.14922873069792986,0.5392763882935047
1788861373258593300,11.87359326171875,0.9147153825610875,0.10362900903970003,0.45245501393079757
1788861373268599600,11.883599609375,0.9846557647496461,0.19873510440587996,0.1969347769856453
1788861373278605600,11.89360546875,1.2994471058309078,0.22096914804577827,-0.17939648994654417
1788861373288611300,11.903611328125,1.6101456246405839,0.30940584865063425,-0.45830812387317416
1788861373298618400,11.913618408203124,1.918891840338707,0.33017011199891566,-0.5748547744140029
1788861373308624400,11.923624267578125,2.236647876444459,0.17523469409197567,-0.7648959924936294
1788861373318630400,11.93363037109375,1.4091110111206768,-0.06649784051924944,-0.8053072055980562
1788861373328636400,11.943636474609375,0.3377577906489372,-0.17661854966580867,-0.7138499881282449
1788861373338642400,11.953642333984375,0.2299076567828655,-0.31343583481907844,-0.6987421431064605
1788861373348648200,11.963648193359376,0.42076165255010123,-0.49203883630037304,-0.8457683953240513
1788861373358655500,11.973655517578125,0.602370850110054,-0.6022670974746346,-0.9618217093899846
1788861373368661500,11.98366162109375,0.6942272960305214,-0.6292809227369726,-0.8869920938551425
1788861373378667300,11.993667236328125,0.9979811102688312,-0.5231821625828743,-0.9018225832402705
1788861373388673300,12.00367333984375,1.3913584968090056,-0.4116651767723262,-0.8903528024598956
1788861373398679600,12.013679443359376,1.429883165514469,-0.3518723868496716,-0.6669099577769637
1788861373408686300,12.023686279296875,1.8269196590840815,-0.3155209705300629,-0.6148702661991119
1788861373418692400,12.0336923828125,2.360001284390688,-0.23632073869556186,-0.877735312949121
1788861373428698400,12.043698486328125,2.612804663592577,-0.07342880882620811,-1.1625485721349715
1788861373438704400,12.053704345703125,2.592542796808481,0.1953422470971942,-1.490874517571926
1788861373448710400,12.06371044921875,2.2248896341115234,0.5010084708280861,-1.8707032712310552
1788861373458717400,12.073717529296875,1.8433412170529364,0.6416195953063667,-1.9670453381329773
1788861373468723200,12.08372314453125,1.7226660884052514,0.5260653168037533,-1.6798063131049275
1788861373478729500,12.0937294921875,1.8462725943297147,0.45368908577039835,-1.5956404216870665
1788861373488735500,12.103735595703125,2.150728419357538,0.6670179481960833,-1.6887822312429546
1788861373498741500,12.113741455078125,2.607434660992026,0.8924247864283621,-1.6205539136692881
1788861373508748300,12.123748291015625,2.577683081328869,1.0040646679662169,-1.5466460891544818
1788861373518754600,12.133754638671874,2.053332459488511,1.338778560874611,-1.511883695591986
1788861373528760300,12.14376025390625,1.9157009353429078,1.5716722477309404,-1.2714666274935007
1788861373538766300,12.153766357421874,2.0476374627172946,1.748904837641865,-1.1514730513691902
1788861373548772400,12.1637724609375,2.2856863403797147,1.9617320341557263,-1.0847326342657209
1788861373558778400,12.1737783203125,2.6008985372215507,1.8313389368310569,-0.905592749428749
1788861373568785400,12.183785400390626,2.698633519786596,1.5861460326328873,-0.961360229358077
1788861373578791400,12.19379150390625,2.6727438762485978,1.5025284227475524,-1.4011100754946468
1788861373588797400,12.20379736328125,2.632002700537443,1.3466656608626246,-1.798221972388029
1788861373598803200,12.21380322265625,2.180104151445627,1.136987722159922,-1.9602771591722965
1788861373608809500,12.2238095703125,1.4371265607714652,0.9573998012945055,-1.9147367664858699
1788861373618816300,12.233816162109376,0.786553113028407,0.7031558678954839,-1.4458511344969271
1788861373628822000,12.243822021484375,0.6243249077647924,0.20404928516596554,-0.7881134942129254
1788861373638828000,12.253828125,0.7374433374226093,-0.41136049473732705,-0.4922317285239696
1788861373648834300,12.263834228515625,0.9632049804419278,-0.8564186764150857,-0.44252457154691216
1788861373658840000,12.273840087890624,1.2724509623557327,-1.058360760168731,-0.23967823242992162
1788861373668847000,12.28384716796875,1.4913544100433587,-0.9894204949334263,-0.012959434816241264
1788861373678853000,12.29385302734375,1.2088701783269644,-0.7224933133110404,-0.10714666177183389
1788861373688859100,12.303859130859376,0.7219651977837085,-0.35125849273502824,-0.38027299029529094
1788861373698865200,12.313865234375,0.4239712622463703,0.07516191622912884,-0.5846843867719174
1788861373708871200,12.32387109375,0.17738485786318778,0.3726806354701519,-0.4720747834190726
1788861373718878000,12.3338779296875,0.04924246207475662,0.22494681950509546,-0.041119653634727
1788861373728884200,12.34388427734375,-0.015917700099945066,-0.21842472425997256,0.2345326862350106
1788861373738890200,12.35389013671875,0.10331190591454505,-0.750260148897767,0.284653976970911
1788861373748896000,12.36389599609375,0.35258301933705805,-1.2327175023823975,0.38827158783376214
1788861373758902000,12.373902099609374,0.25990005946457384,-1.5593571021676063,0.5312734068408608
1788861373768909300,12.383909423828126,-0.23953414778411386,-1.7631524125725029,0.6451853249639272
1788861373778915000,12.3939150390625,-0.5965028348594904,-2.012207252895832,0.7293395259439944
1788861373788921000,12.403921142578126,-0.7895014414399861,-2.1885458165764806,0.6770759624823928
1788861373798927000,12.413927001953125,-1.156995614182949,-2.1064076315939424,0.4805757775217294
1788861373808933400,12.423933349609374,-1.491122939375043,-1.8836855024009942,0.27645751877278085
1788861373818939100,12.433939208984375,-1.7609972803652285,-1.5879466523140668,0.29791619412600995
1788861373828946200,12.4439462890625,-2.1375252389132977,-1.2745371209800243,0.43698476533740754
1788861373838952200,12.4539521484375,-2.5098341184616086,-1.0719856731563806,0.6568690407559276
1788861373848958200,12.463958251953125,-2.6242355736672875,-1.179780277442932,0.9378019513770938
1788861373858964200,12.473964111328126,-2.761987509322166,-1.4206173245191573,1.1688538097590206
1788861373868970200,12.48397021484375,-2.9350936669528482,-1.6688474044561386,1.3136559561863541
1788861373878977000,12.49397705078125,-3.0602520784944294,-1.8106436470657585,1.3802873599573968
1788861373888983300,12.5039833984375,-3.227844441139698,-1.8928882150322197,1.3891469582393765
1788861373898989300,12.5139892578125,-3.1199528062194584,-1.8691244776070117,1.2835188843369483
1788861373908995000,12.5239951171875,-2.635671744439006,-1.7759323991686105,1.1580527220204473
1788861373919001000,12.5340009765625,-2.137431423150003,-1.6730027705699204,1.0854100951358676
1788861373929008000,12.544008056640624,-1.7342115647703409,-1.5397680200785397,1.0461819543361663
1788861373939014100,12.55401416015625,-1.6689420970022677,-1.364212715730071,1.118393496327102
1788861373949020200,12.564020263671875,-1.9497960971683264,-1.1700631855487822,1.1426377107456325
1788861373959026200,12.574026123046876,-2.0557114635795353,-0.9597299978077412,1.2250482829287648
