time,seconds_elapsed,z,y,x
1788861361420127700,0.035127685546875,8.55448253173828,2.5870845314025877,0.7902361854553223
1788861361430133800,0.0451337890625,8.469189097595214,2.644246096038818,0.9985317298889159
1788861361440140000,0.05514013671875,7.818265521240234,2.53456173248291,1.261444999694824
1788861361450146000,0.06514599609375,7.513304084777832,2.337937921142578,1.5343839889526367
1788861361460151800,0.07515185546875,7.368155609130859,2.2559365142822263,1.8116624687194822
1788861361470157800,0.08515771484375,7.438634920501708,2.3792378997802732,1.58960026473999
1788861361480164000,0.0951640625,8.1594392578125,2.843563384246826,0.7793126403808593
1788861361490170000,0.105170166015625,8.849867161560057,2.971054622650146,0.2736871772766113
1788861361500176000,0.11517578125,8.781931689453124,2.6228479187011717,0.07496843948364257
1788861361510182000,0.125181884765625,8.730905266571044,2.323123798370361,-0.016609774017333982
1788861361520188000,0.13518798828125,8.770559231567383,2.374449496459961,-0.026485855865478514
1788861361530194000,0.14519384765625,9.068188425445555,2.712031930541992,-0.17522563400268554
1788861361540200000,0.155199951171875,9.96571477279663,3.029263650512695,-0.6769605194091797
1788861361550206000,0.1652060546875,9.797821381378172,2.9013234992980954,-1.0066121604919434
1788861361560212000,0.1752119140625,9.2190231300354,2.7789199394226074,-1.3233949676513672
1788861361570217700,0.1852177734375,9.044096771240234,2.8878561149597166,-1.2702736183166503
1788861361580224000,0.19522412109375,9.228749574279785,2.8356325912475584,-0.6899789909362792
1788861361590229000,0.20522900390625,9.471761042785644,2.765751830291748,-0.2615665313720703
1788861361600235000,0.215235107421875,10.129119036102294,2.8380267929077148,-0.7963713272094726
1788861361610240000,0.225239990234375,10.370185215759276,2.925265515899658,-1.6189292350769042
1788861361620246000,0.23524609375,9.706692080688477,3.1253309921264645,-2.108094561767578
1788861361630252000,0.245251953125,9.662698625183104,3.632153556060791,-2.4934113914489746
1788861361640258000,0.255258056640625,9.641749360656737,3.9360675292968748,-2.250998473358154
1788861361650264000,0.26526416015625,9.431807802581787,3.6801872268676754,-1.3244424308776854
1788861361660270000,0.27527001953125,8.804975880432128,3.1287726570129393,-0.2120364845275879
1788861361670275800,0.28527587890625,8.581267662811278,2.939331450653076,0.12150573425292968
1788861361680282000,0.2952822265625,8.678831380462645,2.9044658889770507,0.20245967788696287
1788861361690288000,0.3052880859375,9.207501034545897,2.741510538482666,0.181959326171875
1788861361700294100,0.315294189453125,9.869348155975342,2.3683143547058103,0.033818098449707026
1788861361710300000,0.3252998046875,10.127323384857178,2.167351052856445,0.012419921112060545
1788861361720306000,0.335305908203125,10.085873768615722,2.105550722503662,0.17298106994628906
1788861361730312200,0.345312255859375,9.745148944854735,2.084002907562256,0.34865561676025386
1788861361740318000,0.35531787109375,9.448267938995361,2.3038205474853513,-0.023792378997802732
1788861361750324000,0.365323974609375,9.04753843612671,2.076969940185547,-0.058957215881347655
1788861361760330000,0.375330078125,8.659528129577636,1.7853262504577636,-0.1261444999694824
1788861361770336000,0.3853359375,8.717138607025145,2.3597850112915038,-0.10519523544311522
1788861361780342000,0.395342041015625,9.26331586074829,2.645592834472656,0.010474632263183592
1788861361790348000,0.40534814453125,8.959850800323485,2.4363994644165037,0.7083844161987304
1788861361800354000,0.41535400390625,8.156895418548583,1.9268834236145018,1.691204197692871
1788861361810360000,0.425360107421875,7.934234664154053,1.4938321983337401,1.748665037536621
1788861361820365800,0.43536572265625,7.907449533081055,1.4540285957336425,1.44924019241333
1788861361830372000,0.4453720703125,8.258200076293944,1.8230349266052246,1.486200680541992
1788861361840378000,0.455378173828125,8.396614859771727,1.9621978981018064,1.2171522689819336
1788861361850384000,0.4653837890625,8.605060041809082,1.2364555198669434,0.7634510543823242
1788861361860390000,0.475389892578125,8.914211331176757,0.5382464607238769,0.5898714340209961
1788861361870396200,0.485396240234375,9.345466905212401,-0.2680009483337402,1.034893667602539
1788861361880401200,0.495401123046875,9.789890588378906,-1.1569979522705078,2.8482021499633787
1788861361890407200,0.5054072265625,10.670058973693846,-1.0173860679626465,4.061164566040039
1788861361900413000,0.515412841796875,11.684452289581298,-0.08170213165283202,4.704755899810791
1788861361910419000,0.5254189453125,11.739518927764891,0.5249287139892578,5.143493354034423
1788861361920425000,0.535425048828125,10.739640459442137,1.0127473022460938,4.125957648468018
1788861361930431200,0.54543115234375,10.1383965675354,1.514931100463867,3.0814871742248533
1788861361940437000,0.55543701171875,9.140613025665283,1.8828899681091307,3.4837130531311034
1788861361950443000,0.565443115234375,7.852083619689941,2.324470536804199,3.7571009552001953
1788861361960449000,0.575448974609375,7.410054138183593,2.8945898071289062,3.57529126663208
1788861361970455000,0.585455078125,8.253411672973632,3.1624411178588865,3.49852717590332
1788861361980461000,0.5954609375,9.440187508392333,3.0469208877563476,3.364900795745849
1788861361990467000,0.605467041015625,10.541071359252928,2.5444378143310544,3.4317888046264646
1788861362000473000,0.61547314453125,10.784681378173827,1.5692495506286621,4.212747458648681
1788861362010478800,0.625478759765625,10.52865143814087,1.11075993270874,5.048772750854492
1788861362020484900,0.63548486328125,9.929502472686767,1.6181810470581053,5.529259096527099
1788861362030491100,0.6454912109375,8.577526722717284,2.154482218933105,6.263830093383788
1788861362040497200,0.6554970703125,7.368903797149658,2.0425532913208007,6.70975015258789
1788861362050503000,0.6655029296875,7.236025605010986,1.4947300239562988,6.463297019195556
1788861362060509000,0.675509033203125,7.323264328002929,1.3718775512695311,5.917568678283691
1788861362070515000,0.685514892578125,8.105120807647705,1.2732663703918456,5.915623389434814
1788861362080521200,0.695521240234375,9.272593392181395,0.4586392555236816,6.5297361152648925
1788861362090527000,0.70552685546875,9.209296685791015,-0.203656778717041,7.428609201049804
1788861362100533000,0.715532958984375,8.557624921417236,0.16983868026733398,8.112752325439452
1788861362110539000,0.7255390625,7.770231850433349,0.3242646873474121,9.446621925354004
1788861362120545000,0.735544921875,6.947823580169677,-0.12479776153564452,11.72874502029419
1788861362130551000,0.745551025390625,5.476586660003662,-0.7975684280395507,13.04929687347412
1788861362140557000,0.75555712890625,4.773289922332763,-1.4291887535095213,13.06171679458618
1788861362150563000,0.76556298828125,4.593724797821045,-1.7449240974426268,12.182745510101318
1788861362160568800,0.77556884765625,4.104409833526611,-2.0048446151733397,11.171344946289063
1788861362170574800,0.785574951171875,3.1802479927062985,-2.277035416412353,10.045321977996826
1788861362180581000,0.7955810546875,1.8601450523376464,-1.6901567344665527,9.523236378479004
1788861362190587100,0.805587158203125,2.1281460006713866,-1.4624083015441893,9.912743061065672
1788861362200593000,0.815593017578125,-0.10878653793334961,-0.9775824653625488,12.783989402008055
1788861362210599000,0.825598876953125,-2.2029648025512696,0.05461772537231445,12.807632143402099
1788861362220605200,0.835605224609375,-1.0808324119567871,0.03696048812866211,10.918008483123778
1788861362230611200,0.845611083984375,0.9198223503112792,-1.0350433052062988,8.435071723937988
1788861362240617000,0.855616943359375,2.127098537445068,-2.365471240234375,7.464372588348388
1788861362250623000,0.865623046875,2.1398177337646485,-3.784035723876953,7.699153988647461
1788861362260628000,0.8756279296875,1.112106671142578,-4.454262551116943,8.185326563262938
1788861362270634000,0.885634033203125,-0.49245735397338863,-3.6272155151367187,8.13310303955078
1788861362280640000,0.895639892578125,-2.3192332206726074,-2.3599346488952637,8.186224388885497
1788861362290646000,0.90564599609375,-3.814561795043945,-2.0323779342651367,8.516474580383301
1788861362300652000,0.915652099609375,-4.0066964782714845,-2.5549124465942383,8.44674345703125
1788861362310658000,0.925657958984375,-3.9214030441284176,-2.563292152404785,7.380575530242919
1788861362320663800,0.935663818359375,-6.967725381469726,-7.490559169006347,6.862081233215331
1788861362330670000,0.945670166015625,-3.7612908081054686,-4.819976854705811,5.149778133392334
1788861362340676000,0.955676025390625,0.8283937744140625,-3.369090648651123,6.609044045257568
1788861362350682000,0.96568212890625,-0.12075754623413085,-4.768651156616211,7.6099699768066404
1788861362360687900,0.97568798828125,0.9452607429504394,-4.0532337730407715,5.957372280883789
1788861362370694000,0.98569384765625,1.5735890411376952,-4.580855963897704,4.038718925476074
1788861362380700200,0.9957001953125,2.662801158905029,-4.780322889709472,2.586785256195068
1788861362390706200,1.0057060546875,1.8748095375061034,-3.6638767280578612,3.0942063705444336
1788861362400712000,1.0157119140625,-4.327669138336181,-2.4678233612060545,3.8563106864929195
1788861362410718000,1.025718017578125,-7.291840431213378,-5.540631554412841,5.925948384094238
1788861362420724000,1.035723876953125,-2.8285996238708493,-8.017882084655762,9.766846397399902
1788861362430730000,1.04572998046875,2.0982184799194337,-7.168539045715332,11.34462529144287
1788861362440736000,1.055736083984375,3.573944528198242,-6.93989278717041,12.99123748321533
1788861362450742000,1.065741943359375,2.124255422973633,-6.142623634338379,12.532149314880371
1788861362460748000,1.075748046875,-1.588403163909912,-5.215169766235351,9.738415252685547
1788861362470753800,1.08575390625,-2.58558815536499,-5.147084656524658,8.067711406707764
1788861362480760000,1.095760009765625,-2.210745957946777,-6.340444546508789,8.282142092895507
1788861362490766000,1.10576611328125,-1.50670103225708,-6.90143592300415,7.7416510681152335
1788861362500772000,1.115772216796875,-0.9437643669128417,-6.431723484802245,7.378330966186523
1788861362510777900,1.12577783203125,-0.7686883705139159,-5.6058735496521,6.495469104003906
1788861362520784000,1.135783935546875,-0.6349123527526855,-5.053261878967285,5.771971289825439
1788861362530790100,1.1457900390625,-0.9648632690429687,-4.909609779357909,5.961412496185303
1788861362540796200,1.155796142578125,-1.1665747589111328,-4.7469537040710446,6.298246742248534
1788861362550802000,1.165802001953125,-1.1192892761230469,-6.172551155090332,7.1404071762084955
1788861362560808000,1.175807861328125,-1.3416507553100585,-9.154529322814941,6.085910982513427
1788861362570814200,1.185814208984375,-1.465849966430664,-11.008239958190916,4.422689016723632
1788861362580820000,1.195820068359375,0.20216040267944335,-11.446079586791992,3.5613749694824217
1788861362590826000,1.205825927734375,0.22251111679077148,-12.855665814208983,2.779967402648926
1788861362600832000,1.21583203125,0.07302315063476562,-13.367576056671142,3.6092590026855467
1788861362610838500,1.225838623046875,0.5205892234802246,-14.570063840484618,4.294599227905273
1788861362620844500,1.235844482421875,0.3128922294616699,-15.97366456375122,2.980182516479492
1788861362630850800,1.245850830078125,-0.7347206344604492,-14.870685786437987,1.0229226593017577
1788861362640856800,1.25585693359375,-2.312499528503418,-12.419472199249267,0.812083275604248
1788861362650862600,1.265862548828125,-4.168005815124512,-11.279682571411133,0.7534253349304199
1788861362660868600,1.27586865234375,-3.9709330909729004,-10.884190384674072,1.0803834991455077
1788861362670874600,1.28587451171875,-3.199700881195068,-11.020210966491698,1.1189900009155274
1788861362680881000,1.295880859375,-2.7629087158203123,-11.059116743469238,0.6200982299804687
1788861362690886700,1.30588671875,-2.277035416412353,-10.874015027618407,0.24480711975097655
1788861362700892700,1.315892578125,-1.856553749847412,-11.310507917785644,0.24211364288330076
1788861362710898700,1.325898681640625,-1.2472294273376463,-11.03293016281128,0.5666776054382324
1788861362720904700,1.33590478515625,-0.7106289802551269,-10.071209283447265,0.9443629173278808
1788861362730910700,1.34591064453125,-0.4923077163696289,-8.555679632568358,0.8180687797546387
1788861362740916700,1.355916748046875,-0.12419921112060546,-7.743446719360351,0.4445733207702636
1788861362750922800,1.3659228515625,-0.1858499038696289,-7.032219188690185,1.027262149810791
1788861362760928500,1.375928466796875,-0.903362213897705,-4.54569112701416,2.2711995498657225
1788861362770934500,1.3859345703125,-1.3711293632507324,-3.2665888900756834,3.331381972503662
1788861362780940800,1.39594091796875,-4.025401178741455,-7.193229250335693,3.053056029510498
1788861362790946800,1.40594677734375,-3.999813148498535,-7.42516753616333,1.5318401496887206
1788861362800952600,1.41595263671875,-3.1610943794250486,-7.6223898979187,1.2802993377685545
1788861362810958600,1.42595849609375,-3.3508348609924314,-7.438335645294189,2.3190835830688474
1788861362820964600,1.435964599609375,-2.5227403617858886,-6.863278334045409,3.45393516998291
1788861362830971000,1.445970947265625,-0.9319429962158202,-7.528716757965087,3.4056022239685055
1788861362840976600,1.4559765625,-0.44891281127929683,-8.339453295135497,2.870198877716064
1788861362850982700,1.465982666015625,-1.373822840118408,-8.532635441589354,2.5254338386535644
1788861362860988700,1.47598876953125,-2.186055753326416,-8.06307264099121,2.305167285919189
1788861362870994700,1.48599462890625,-1.4098855026245116,-4.1569326324462885,2.288707149505615
1788861362881000700,1.496000732421875,-1.562216583251953,-3.297114961242676,1.9213468322753906
1788861362891006700,1.5060068359375,-5.072714767456055,-5.22235237121582,2.6446950088500976
1788861362901012700,1.5160126953125,-4.206313041687012,-3.5556887405395505,2.5092729774475098
1788861362911018500,1.5260185546875,-3.318513138580322,-5.917419040679931,1.1417349166870117
1788861362921024800,1.536024658203125,0.35015199279785153,-9.07148045272827,0.7875427085876464
1788861362931030800,1.54603076171875,3.5708021385192867,-4.094084838867187,-1.2770073104858397
1788861362941036800,1.556036865234375,-1.0179846183776855,-8.93216784362793,-1.1655272956848144
1788861362951042600,1.56604248046875,-5.004480020141601,-8.890867864990234,-0.8026561065673827
1788861362961048600,1.576048583984375,-4.450820886230469,-8.735544032287597,0.18989011917114257
1788861362971054800,1.586054931640625,-3.9577649818420406,-11.371859335327148,3.216909205627441
1788861362981060900,1.596060791015625,-2.8576293190002438,-11.144260540008544,4.132691340637207
1788861362991066600,1.606066650390625,-2.0786159538269042,-9.237877468109131,2.9574376007080074
1788861363001072600,1.61607275390625,-2.3822306518554686,-10.734552780914306,2.5149592063903805
1788861363011078700,1.62607861328125,0.17597382202148437,-13.653084604644775,2.2291513832092282
1788861363021084700,1.636084716796875,1.1059715293884276,-9.558550852966308,2.286013672637939
1788861363031090700,1.646090576171875,-0.7148188331604004,-9.272892667388916,3.239504483795166
1788861363041096700,1.6560966796875,-3.1055788284301755,-9.286210414123534,4.601206678009033
1788861363051102700,1.666102783203125,-3.6309564552307125,-9.541791441345215,4.293102851867675
1788861363061108500,1.6761083984375,-2.321328147125244,-9.25747999420166,3.342904067993164
1788861363071114800,1.68611474609375,-1.4704887321472166,-9.221716606903076,2.291550263977051
1788861363081120800,1.696120849609375,-0.019003975677490233,-9.669133042144775,1.3587094421386718
1788861363091126800,1.706126708984375,-0.17941548690795897,-10.165780249023436,1.4199112220764158
1788861363101132500,1.716132568359375,-1.9020435813903807,-10.494384426879883,2.343624150085449
1788861363111138600,1.726138671875,-3.0398879203796385,-10.595988359832763,3.0425813972473144
1788861363121144800,1.736144775390625,-2.2845172966003418,-10.346392836761474,3.5865140869140624
1788861363131150800,1.74615087890625,-0.826149210357666,-8.945036677551268,2.6417022567749022
1788861363141156600,1.756156494140625,-0.35883097381591794,-9.992649541473389,1.4864999557495115
1788861363151162600,1.76616259765625,-1.9913772308349609,-11.735029799652098,1.7034744812011717
1788861363161168600,1.776168701171875,-2.9261633415222166,-12.89666651763916,1.5453075340270994
1788861363171174700,1.786174560546875,-2.4693197372436524,-13.903428315734862,2.26641114654541
1788861363181180700,1.7961806640625,-1.9032406822204588,-14.714763403320312,2.916287259674072
1788861363191186700,1.806186767578125,-2.5565584602355957,-15.174599759674072,2.616862414550781
1788861363201192700,1.816192626953125,-3.1178491119384764,-15.487043076324461,1.9967641845703124
1788861363211198500,1.826198486328125,-3.21152225189209,-15.39905616531372,1.1985972061157226
1788861363221204700,1.836204833984375,-2.7916391357421872,-15.595081426239013,0.9386766883850097
1788861363231210800,1.846210693359375,-1.9743185440063475,-14.560337396240234,0.7211036125183105
1788861363241216800,1.856216796875,-1.7238251953125,-14.217218370819092,-0.6212953308105469
1788861363251222500,1.866222412109375,-2.1136311531066894,-14.15407130203247,-1.6742951484680175
1788861363261228800,1.876228759765625,-2.9109003059387204,-13.353959034729003,-2.1389199081420895
1788861363271234800,1.88623486328125,-3.444208725738525,-12.775908971405029,-2.4329577995300293
1788861363281240600,1.896240478515625,-3.4082957008361814,-11.261576421356201,-2.401683540344238
1788861363291246600,1.90624658203125,-2.9541455734252926,-9.563788169097899,-1.3648445838928223
1788861363301252600,1.916252685546875,-2.490568276977539,-9.027935910034179,-0.24735095901489257
1788861363311259000,1.9262587890625,-2.4703672004699704,-7.703942391967773,0.4520552009582519
1788861363321264600,1.9362646484375,-1.5774796188354492,-6.087257720947266,1.3859434860229491
1788861363331270700,1.946270751953125,-0.16026187362670896,-5.41987400817871,2.5252842010498044
1788861363341276700,1.956276611328125,0.1149216796875,-5.408052637481689,3.6605847007751464
1788861363351282700,1.96628271484375,-0.2838625343322754,-4.762516014862061,4.308814800262451
1788861363361288700,1.976288818359375,-0.9288006065368651,-5.635202519989013,4.127304386901855
1788861363371294700,1.986294677734375,-1.450586930847168,-7.980173408508301,2.7775732009887695
1788861363381300700,1.99630078125,-2.609979084777832,-9.687987380218505,1.5032593673706054
1788861363391306800,2.006306640625,-3.7446810340881345,-10.532691653442383,0.4408323806762695
1788861363401312500,2.0163125,-3.3857004226684566,-11.071686302185057,0.08918401184082031
1788861363411318800,2.02631884765625,-2.5043349365234375,-10.730811840820312,0.22505495605468748
1788861363421324800,2.03632470703125,-1.8139070327758788,-9.890895970916748,0.9525929855346679
1788861363431330600,2.04633056640625,-1.4226046989440917,-9.158120625305175,1.656787548828125
1788861363441336600,2.056336669921875,-1.3334206871032714,-8.679579568481445,1.9162591537475584
1788861363451342600,2.066342529296875,-1.5228618934631346,-8.526350662231446,1.7738041549682617
1788861363461348900,2.076348876953125,-1.8936638755798338,-8.670601312255858,1.3884873252868652
1788861363471354600,2.086354736328125,-2.3226748855590817,-9.003993893432616,1.216254443359375
1788861363481360600,2.096360595703125,-2.4896704513549803,-9.427318674468994,1.2587515228271484
1788861363491366700,2.10636669921875,-2.5514707817077635,-9.775525378417969,1.3373112648010252
1788861363501372700,2.11637255859375,-2.6791116577148437,-10.005518375396727,1.3093290328979492
1788861363511378700,2.126378662109375,-2.546233465576172,-10.014047718811035,1.096843635559082
1788861363521384700,2.136384765625,-2.2067057426452634,-9.76190835647583,0.7769184387207031
1788861363531390700,2.146390625,-2.04285256652832,-9.395745140075682,0.5446808776855468
1788861363541396700,2.156396728515625,-2.0849007331848144,-9.11023659210205,0.5099649536132812
1788861363551402500,2.166402587890625,-2.201318788909912,-9.07851342010498,0.7080851409912109
1788861363561408800,2.17640869140625,-2.4000375267028806,-9.227253198242186,0.9763853645324706
1788861363571414800,2.186414794921875,-2.6626515213012696,-9.449764315032958,1.2301707405090332
1788861363581420500,2.196420654296875,-3.018938655853271,-9.559747953796386,1.354070676422119
1788861363591426600,2.206426513671875,-3.2219968841552733,-9.573364975738524,1.4408604866027832
1788861363601432800,2.216432861328125,-3.5052608680725097,-9.593715689849853,1.6481085678100584
1788861363611438000,2.22643798828125,-3.5645173591613766,-9.684396077728271,2.0063409912109376
1788861363621444400,2.2364443359375,-3.621230010986328,-9.811288765716553,2.2342390617370604
1788861363631450000,2.2464501953125,-3.4587235733032227,-9.956437241363524,2.2602760047912596
1788861363641456000,2.2564560546875,-2.9773394020080564,-9.594164602661133,1.6558897232055663
1788861363651462100,2.266462158203125,-2.715473595428467,-9.21887349243164,1.159392153930664
1788861363661468000,2.276468017578125,-2.75168589553833,-9.164854317474365,1.2912228828430174
1788861363671474200,2.28647412109375,-3.085527389526367,-9.156923524475097,1.562216583251953
1788861363681480200,2.296480224609375,-4.153490967559814,-9.297882147216797,2.110638401031494
1788861363691486200,2.306486328125,-4.996249951934814,-9.908104295349121,3.169623722839355
1788861363701492000,2.316491943359375,-5.097404972076416,-10.317812054443358,3.598784370422363
1788861363711498200,2.326498291015625,-4.874744217681885,-10.388291365814208,3.1094694061279293
1788861363721504300,2.336504150390625,-5.151274509429931,-10.587459016418457,2.746448579406738
1788861363731510300,2.34651025390625,-5.810278516387939,-10.756250233459472,2.781164503479004
1788861363741516000,2.35651611328125,-5.987599076843261,-10.588356842041016,2.8405706321716306
1788861363751522000,2.36652197265625,-5.127332492828369,-10.140641131591796,2.6937761428833005
1788861363761528300,2.3765283203125,-3.762188633728027,-9.502736026763916,2.5252842010498044
1788861363771534000,2.3865341796875,-3.047818713378906,-8.941744650268554,2.629880886077881
1788861363781540000,2.3965400390625,-3.443161262512207,-8.757241484832763,3.170371910858154
1788861363791546000,2.406546142578125,-4.589534944915771,-8.89894829559326,3.9644986740112302
1788861363801552100,2.41655224609375,-5.999420447540283,-9.22485899658203,4.5325230178833005
1788861363811558100,2.42655810546875,-7.047781499481201,-9.575160626983642,4.880580084228515
1788861363821564200,2.436564208984375,-7.719205427551269,-9.802160871887207,5.233575191497803
1788861363831570200,2.446570068359375,-7.817816608428955,-9.871293444824218,5.621735135650635
1788861363841576200,2.456576171875,-7.277624858856201,-9.69741454925537,5.8265890151977535
1788861363851582000,2.46658203125,-6.368277140808105,-9.406818322753905,5.9020063674926755
1788861363861589200,2.47658935546875,-5.442319648742675,-9.118765935516358,5.624129337310791
1788861363871595300,2.48659521484375,-4.53925671005249,-8.814403049468993,5.0568531814575195
1788861363881601000,2.49660107421875,-3.7653310234069823,-8.251915296936035,4.0717888359069825
1788861363891607000,2.50660693359375,-3.041533934020996,-7.714566661834716,3.1289222946166992
1788861363901613300,2.51661328125,-3.602076397705078,-7.236624155426025,2.6976667205810547
1788861363911619000,2.526619140625,-5.028272399139404,-6.9792474769592285,2.9103017555236814
1788861363921625000,2.536625,-6.358999609374999,-6.909067440795898,3.3482910217285156
1788861363931631000,2.546631103515625,-7.059004319763183,-6.981492041015625,3.647266954040527
1788861363941637000,2.55663720703125,-7.486070040893554,-7.063942360687255,3.786429925537109
1788861363951643100,2.56664306640625,-7.593210565185546,-7.0649898239135736,3.4855087043762203
1788861363961649200,2.576649169921875,-7.148188331604003,-6.860734494781494,2.603544667816162
1788861363971655200,2.5866552734375,-6.175992819976806,-6.431723484802245,1.6334440826416015
1788861363981661200,2.5966611328125,-5.520280840301513,-5.9670987251281735,1.1366472381591797
1788861363991667000,2.6066669921875,-5.153219798278808,-5.638195272064209,1.3187562019348145
1788861364001673200,2.616673095703125,-5.272630606079101,-5.190629199218749,1.746121198272705
1788861364011679200,2.62667919921875,-6.043264265441894,-4.331410078430175,2.0361188743591305
1788861364021685200,2.636685302734375,-6.470030711364745,-3.7044285186767576,2.4389433036804196
1788861364031691000,2.64669091796875,-6.595576660919189,-3.3934815780639647,2.770091320800781
1788861364041697000,2.656697021484375,-6.539312921905517,-3.4515409683227536,2.9994857673645017
1788861364051703300,2.666703369140625,-6.449829634857178,-3.8886324089050293,3.216460292816162
1788861364061709000,2.676708984375,-6.421847402954101,-4.672583815002441,3.3592145668029785
1788861364071715000,2.686715087890625,-6.401347051239013,-5.3019595764160155,3.566911560821533
1788861364081721000,2.69672119140625,-6.43531478729248,-5.565770671844482,3.8646903923034666
1788861364091727400,2.706727294921875,-6.4089785690307615,-5.603180072784424,4.2019735511779785
1788861364101733000,2.716733154296875,-6.649745473480224,-5.308244355773925,4.404133953857421
1788861364111739100,2.7267392578125,-7.101651036834716,-4.67961678237915,4.340238697052001
1788861364121745200,2.7367451171875,-7.27807377166748,-4.0638580429077145,4.075380138397216
1788861364131751200,2.746751220703125,-6.891859116363525,-3.6272155151367187,3.6920085975646972
1788861364141757200,2.756757080078125,-6.617423751068115,-3.331980522918701,3.2499791160583493
1788861364151763200,2.76676318359375,-6.803572930145263,-3.142988229370117,2.934243772125244
1788861364161769200,2.776769287109375,-7.141903552246093,-3.012055326080322,2.971952448272705
1788861364171775000,2.78677490234375,-7.2988733985900875,-2.951452096557617,3.1847371208190918
1788861364181781000,2.796781005859375,-7.690325370025635,-3.2544682441711426,3.545962296295166
1788861364191787300,2.806787353515625,-7.720552165985107,-3.5865140869140624,3.8947675506591795
1788861364201793300,2.816793212890625,-7.841758625030517,-3.6391865234374996,3.958962082672119
1788861364211799000,2.826799072265625,-8.038831349182129,-3.729118723297119,4.07927071609497
1788861364221805000,2.83680517578125,-8.538022395324706,-4.147804738616943,4.238485126495361
1788861364231811000,2.84681103515625,-9.324816915893555,-4.64145919342041,4.204218115234375
1788861364241817300,2.8568173828125,-9.503783489990234,-4.649539624023437,4.43690458908081
1788861364251823000,2.866822998046875,-9.255385067749023,-4.464138632965088,4.8320975006103515
1788861364261829000,2.8768291015625,-8.80392841720581,-4.661510632324219,4.105457296752929
1788861364271835100,2.886835205078125,-7.1112278434753415,-4.783166004180908,2.6020482917785643
1788861364281841200,2.896841064453125,-6.101772568511962,-4.576516473388671,2.419041502380371
1788861364291847200,2.90684716796875,-7.025934409332275,-4.492869052886963,3.0276176368713377
1788861364301853200,2.916853271484375,-7.988104201507568,-4.876090956115722,3.8518215583801267
1788861364311859200,2.926859130859375,-9.18715032043457,-5.297620085906982,4.354603907012939
1788861364321865000,2.936864990234375,-9.9721491897583,-5.218761068725586,3.9535751289367673
1788861364331872300,2.946872314453125,-9.732429748535155,-4.5585599609375,4.147655101013183
1788861364341878300,2.956878173828125,-9.418041143035888,-3.8501755447387693,5.296572622680664
1788861364351884000,2.966884033203125,-8.780435313415527,-3.8980595779418943,5.8171618461608885
1788861364361890000,2.97689013671875,-7.800458646392822,-4.321384358978271,5.214421578216553
1788861364371896000,2.98689599609375,-7.126191603851318,-4.346822751617432,3.93906028137207
1788861364381902300,2.99690234375,-7.36097300415039,-4.111143525695801,3.293673296356201
1788861364391908000,3.006908203125,-7.573608039093017,-3.962703022766113,3.125630267333984
1788861364401914000,3.0169140625,-7.4776903350830075,-3.9332244148254394,2.8721441665649414
1788861364411920100,3.026920166015625,-7.6562079963684075,-3.8212954872131344,2.8371289672851563
1788861364421926100,3.036926025390625,-8.045864316558838,-4.042010952758789,3.1783027038574216
1788861364431932200,3.04693212890625,-8.544905725097657,-4.800224691009521,3.528005783843994
1788861364441938200,3.056938232421875,-8.973168547058105,-5.582829358673095,3.330783422088623
1788861364451944200,3.066944091796875,-8.844629845428466,-5.8548705223083495,2.6390087799072264
1788861364461950000,3.076949951171875,-7.8630071647644035,-5.539883366394043,1.9475334129333495
1788861364471956200,3.086956298828125,-7.035062303161621,-4.9826329299926755,1.8044798637390136
1788861364481962200,3.096962158203125,-7.185298457336425,-4.6915877906799315,2.4003368019104
1788861364491968300,3.10696826171875,-7.691073558044433,-4.834342064666748,3.1022868011474607
1788861364501974000,3.11697412109375,-8.399457974243164,-5.2742766197204585,3.5227684677124023
1788861364511980000,3.12697998046875,-9.258228182220458,-5.684433291625976,3.470395306396484
1788861364521986300,3.136986328125,-9.428066862487793,-5.739051016998291,2.951901009368896
1788861364531992300,3.146992431640625,-9.462034598541258,-5.534197137451171,2.368164717102051
1788861364541998000,3.156998046875,-8.647407483673096,-5.08169302368164,2.236633263397217
1788861364552004000,3.167004150390625,-7.905803519439697,-4.849305825042724,2.320729596710205
1788861364562010000,3.177010009765625,-7.633463080596924,-4.969913733673096,2.5884312698364256
1788861364572016000,3.18701611328125,-7.849090867614746,-5.13301872177124,2.7639561790466307
1788861364582022100,3.197022216796875,-8.021174111938477,-5.15875638961792,2.755875748443603
1788861364592028200,3.207028076171875,-8.048108880615233,-4.957942725372314,2.558803024291992
1788861364602034200,3.2170341796875,-8.206425465393066,-4.690091414642334,2.09417826461792
1788861364612040200,3.227040283203125,-8.387935878753662,-4.608538920593261,1.5921441040039062
1788861364622046200,3.237046142578125,-8.63783067703247,-4.713584518432617,1.2057798110961913
1788861364632052200,3.24705224609375,-8.93755479736328,-4.8904561660766594,0.9699509475708007
1788861364642059300,3.257059326171875,-8.76651901626587,-4.865915599060059,1.1914146011352538
1788861364652065300,3.267065185546875,-8.72162773513794,-4.543596200561523,1.662473777770996
1788861364662071300,3.2770712890625,-8.270470359802246,-4.084208757019042,1.8538602729797362
1788861364672077000,3.2870771484375,-8.148665350341796,-3.8097733917236325,2.1628619247436522
1788861364682083300,3.297083251953125,-8.748263228607177,-3.803787887573242,2.5583541114807127
1788861364692089300,3.30708935546875,-8.799588926696776,-3.7784991325378416,2.657264567565918
1788861364702095400,3.317095458984375,-9.375244788360595,-3.864391117095947,2.766799293518066
1788861364712101000,3.32710107421875,-9.881917714691161,-3.9784149711608885,2.8239608581542965
1788861364722107100,3.337107177734375,-9.255983618164063,-4.198531886291503,2.5014918220520017
1788861364732113400,3.347113525390625,-8.261492103576659,-4.2235213661193844,1.8145055831909178
1788861364742119400,3.357119384765625,-8.825925144958495,-4.2402807777404785,1.3061866432189941
1788861364752125200,3.367125244140625,-9.076867406463622,-4.337545220184326,1.7194857048034666
1788861364762131200,3.377131103515625,-8.941295737457274,-4.114435552978516,2.146252150726318
1788861364772137200,3.38713720703125,-8.443601067352294,-3.8524201087951657,2.084451820373535
1788861364782143200,3.397143310546875,-7.92944626083374,-3.0942063705444336,1.7480664871215819
1788861364792149200,3.407149169921875,-8.18502728805542,-2.747795317840576,2.1609166358947753
1788861364802155300,3.4171552734375,-8.347982638549805,-2.9517513717651367,2.4775498054504395
1788861364812161300,3.427161376953125,-7.89098939666748,-3.24982947845459,2.189347780609131
1788861364822167000,3.4371669921875,-8.170213165283203,-3.575889817047119,1.7744027053833007
1788861364832173300,3.44717333984375,-8.380453998565674,-3.7108629356384277,1.2740145584106444
1788861364842179300,3.457179443359375,-8.483105394744873,-3.6586394119262695,0.9856628959655761
1788861364852185300,3.467185302734375,-8.74661721496582,-3.734056764221191,0.9891045608520507
1788861364862191000,3.477191162109375,-9.702202952575684,-3.8359599723815916,1.046415763092041
1788861364872197000,3.487197021484375,-9.847800341033935,-3.797353470611572,1.164479832458496
1788861364882203400,3.497203369140625,-9.49914472427368,-3.671657883453369,1.5477017356872558
1788861364892209400,3.50720947265625,-9.056965605163574,-3.5435680946350097,2.1199159324645995
1788861364902215200,3.517215087890625,-8.345139524078368,-3.4210148971557617,2.3720552947998046
1788861364912222500,3.527222412109375,-7.826345951843261,-3.1349077987670895,2.282422370147705
1788861364922228200,3.537228271484375,-7.573308763885498,-2.5212439857482907,1.8210896377563475
1788861364932234200,3.547234130859375,-7.979874133300781,-2.1224597717285154,1.2080243751525879
1788861364942240300,3.557240234375,-8.025962515258788,-1.995118170928955,1.0779892974853515
1788861364952246300,3.567246337890625,-7.3563342384338375,-1.7788918334960937,1.5553332534790039
1788861364962252300,3.577252197265625,-7.267000588989258,-1.6298527801513671,1.9080290855407713
1788861364972258300,3.58725830078125,-7.875576723480224,-1.712303099822998,1.6410756004333495
1788861364982264300,3.597264404296875,-8.131307388305663,-2.1071967361450192,1.2387000839233397
1788861364992270300,3.607270263671875,-8.583661864471434,-2.3973440498352048,0.967257470703125
1788861365002276000,3.617276123046875,-8.753949457550048,-2.5375544845581053,1.0886135673522948
1788861365012282400,3.627282470703125,-8.756493296813964,-2.7992706535339353,1.7166425903320313
1788861365022288400,3.637288330078125,-8.461557579803467,-3.0756513076782226,2.602197929382324
1788861365032294400,3.64729443359375,-7.650372129821777,-3.126977005767822,3.4425627120971676
1788861365042300200,3.657300048828125,-8.061276989746093,-2.7994202911376953,3.784783911895752
1788861365052306200,3.66730615234375,-8.377161971282959,-2.0783166786193847,3.4861072547912597
1788861365062312400,3.6773125,-8.24248812789917,-1.4851532173156738,3.1815947311401365
1788861365072318200,3.687318115234375,-8.001272310638427,-1.4006079711914061,3.081187899017334
1788861365082324200,3.69732421875,-7.780706482696533,-1.7803882095336914,2.910152117919922
1788861365092330200,3.707330322265625,-8.046612504577636,-2.3391350219726563,2.6918308540344236
1788861365102336300,3.717336181640625,-8.478167353820801,-2.762609440612793,2.5386019477844237
1788861365112342300,3.72734228515625,-8.76562119064331,-2.9062615402221676,2.6734254287719725
1788861365122348300,3.737348388671875,-8.852261363220215,-3.0467712501525877,3.1763574150085447
1788861365132354300,3.747354248046875,-8.332719602966309,-3.2282816635131835,3.718195178222656
1788861365142361000,3.757361083984375,-7.811681466674804,-3.448697853851318,4.121767795562744
1788861365152367400,3.767367431640625,-8.06337191619873,-3.741688282012939,4.155136981201172
1788861365162373400,3.777373291015625,-8.182184173583984,-3.8468835174560545,3.854066122436523
1788861365172379100,3.787379150390625,-8.13295340194702,-3.633500294494629,3.51783042678833
1788861365182385200,3.79738525390625,-7.912387574005127,-3.3678935478210446,3.259256647491455
1788861365192391200,3.80739111328125,-7.567622534942626,-3.202543995666504,3.0918121688842772
1788861365202397400,3.8173974609375,-7.1303814567565915,-3.2531215057373046,2.7609634269714354
1788861365212403200,3.8274033203125,-7.110928568267822,-3.4674025543212887,2.4754548789978026
1788861365222409200,3.8374091796875,-7.523180166625976,-3.5660137351989745,2.56014976272583
1788861365232415200,3.847415283203125,-7.551012760925293,-3.4669536415100097,2.9755437507629394
1788861365242421200,3.857421142578125,-7.322067227172851,-3.359364204406738,3.5535938140869137
1788861365252427300,3.86742724609375,-7.114220595550536,-3.4190696083068848,3.991433442687988
1788861365262433300,3.877433349609375,-7.245153498840332,-3.633350656890869,4.158429008483886
1788861365272439300,3.887439208984375,-7.785494886016846,-3.7955578193664548,4.153191692352294
1788861365282445300,3.8974453125,-8.189366778564453,-3.8398505500793454,4.103212732696533
1788861365292451300,3.907451416015625,-8.1586910697937,-3.8468835174560545,4.025700453948974
1788861365302457300,3.917457275390625,-8.365639875793457,-3.969885627746582,3.943699047088623
1788861365312463400,3.92746337890625,-8.378059796905518,-4.241926791381836,3.9127240631103515
1788861365322469000,3.93746923828125,-8.000673760223389,-4.640860643005371,3.828627729797363
1788861365332475100,3.94747509765625,-7.8824600532531734,-5.005677120971679,3.7289690856933593
1788861365342482400,3.957482421875,-8.002469411468505,-5.229235700988769,3.6872201942443845
1788861365352488200,3.96748828125,-7.928249160003662,-5.2733787940979004,3.6623803520202634
1788861365362494200,3.977494140625,-7.407061386108398,-5.078550634002685,3.7491701622009277
1788861365372500200,3.987500244140625,-6.821529442596435,-4.7746366607666015,3.877259951019287
1788861365382506500,3.997506591796875,-6.887519625854492,-4.630984561157226,4.0541315986633295
1788861365392512300,4.00751220703125,-6.880187383270263,-4.803067805480957,4.310161538696288
1788861365402518300,4.017518310546875,-6.6340335250854485,-5.15860675201416,4.349067315673828
1788861365412524300,4.027524169921875,-6.534225243377685,-5.391293225860595,4.134636629486084
1788861365422530000,4.037530029296875,-6.68386284713745,-5.548562347412109,3.9695863525390624
1788861365432536300,4.047536376953125,-7.050474976348877,-5.680841989135742,3.8699277084350583
1788861365442542300,4.057542236328125,-6.829759510803222,-5.768230349731445,3.730315824127197
1788861365452548400,4.06754833984375,-6.636427726745605,-6.057779113006592,3.5187282524108885
1788861365462554000,4.07755419921875,-6.546944439697265,-6.560262186431884,3.2302269523620604
1788861365472560000,4.08756005859375,-6.354660118865967,-7.0181532539367675,2.918831098937988
1788861365482566400,4.09756640625,-6.4272343566894525,-7.317727736663818,2.6280852348327635
1788861365492572400,4.107572509765625,-6.669347999572754,-7.397334941864013,2.4717139389038083
1788861365502578200,4.117578125,-7.053018815612792,-7.310844406890869,2.5103204406738278
1788861365512584200,4.127584228515625,-7.458387084197998,-7.290493692779541,2.800168479156494
1788861365522590200,4.137590087890625,-7.691522470855713,-7.250690090179443,3.3008559013366696
1788861365532597200,4.14759716796875,-7.942315094757079,-7.189039397430419,3.800046947479248
1788861365542603300,4.157603271484375,-7.936628865814209,-7.179163315582275,4.257189826965332
1788861365552609300,4.167609375,-7.547421458435058,-7.256525956726073,4.578312124633789
1788861365562615000,4.177614990234375,-7.201309680938721,-7.48876351776123,4.7679029685974115
1788861365572621300,4.187621337890625,-6.8691142005920405,-7.868094843292236,4.726752627563476
1788861365582627300,4.19762744140625,-6.55637160873413,-8.325836273193358,4.427178144836425
1788861365592633300,4.20763330078125,-6.178835934448242,-8.803180229187012,4.09258846282959
1788861365602639000,4.21763916015625,-5.814019456481933,-9.239373844146728,3.752162914276123
1788861365612645000,4.22764501953125,-5.43902762145996,-9.616011692810059,3.601328209686279
1788861365622651100,4.237651123046875,-5.347748683166504,-9.849745629882811,3.6680665809631345
1788861365632657200,4.2476572265625,-5.6474728034973145,-9.927108271026611,3.6827310661315917
1788861365642663200,4.2576630859375,-5.942857433319092,-9.977386505889893,3.5703532257080077
1788861365652669200,4.267669189453125,-5.736806452941894,-9.890596695709228,3.3699884742736814
1788861365662675200,4.27767529296875,-5.3676504844665525,-9.651326167297363,3.1105168693542478
1788861365672681200,4.28768115234375,-4.940734400939941,-9.586832360076905,3.0609868225097654
1788861365682688300,4.297688232421875,-4.459499867248535,-9.732130473327636,3.084779201507568
1788861365692694300,4.3076943359375,-4.513219766998291,-10.018836122131347,2.7419594512939454
1788861365702700000,4.317699951171875,-4.899584059906005,-10.339659144592284,2.207902843475342
1788861365712706000,4.3277060546875,-5.278316835021973,-10.359710583496094,2.2836194709777833
1788861365722712000,4.337712158203125,-5.493495709228515,-10.110115060424803,2.9785365028381348
1788861365732718300,4.34771826171875,-4.995202488708496,-9.99145244064331,3.687070556640625
1788861365742724000,4.35772412109375,-3.8084266532897946,-9.894337635803222,3.730764736938476
1788861365752730000,4.367730224609375,-2.442684243774414,-9.738714527893066,3.149123371124267
1788861365762736000,4.377736083984375,-1.3661913223266602,-9.77492682800293,2.2616227432250975
1788861365772742100,4.3877421875,-0.9214683639526366,-9.964816947174072,1.5180734901428221
1788861365782748200,4.397748046875,1.412878254699707,-10.957961723327637,0.6830956611633301
1788861365792754200,4.407754150390625,-0.9497498710632324,-10.679186867523192,0.5545569595336913
1788861365802760200,4.41776025390625,-3.4853590667724608,-10.462511617279052,0.9566332008361815
1788861365812766000,4.427765869140625,-4.941033676147461,-10.115352376556396,1.5640122344970702
1788861365822772000,4.43777197265625,-6.6784758934021,-9.94715970993042,2.3976433250427243
1788861365832778200,4.4477783203125,-7.7120228225708,-9.95987890625,2.7322330070495604
1788861365842785000,4.457784912109375,-7.087884377288818,-8.932467118835449,3.9631519355773923
1788861365852791000,4.467791015625,-6.556072333526611,-7.031471000671386,5.902904193115234
1788861365862797300,4.47779736328125,-5.34325955505371,-5.632509043121337,4.928314479827881
1788861365872803300,4.48780322265625,-3.6701615074157714,-5.5449710449218745,3.0467712501525877
1788861365882809000,4.49780908203125,-3.406799324798584,-6.625055268859863,2.351255667877197
1788861365892815000,4.507815185546875,-3.95177947769165,-7.785045973205566,2.4630349578857422
1788861365902821000,4.517821044921875,-5.221454545593262,-8.832060286712647,2.3780407989501953
1788861365912827100,4.5278271484375,-6.515670180511474,-9.805901811981201,2.459294017791748
1788861365922833200,4.537833251953125,-6.806116769409179,-10.019584310150146,3.031957127380371
1788861365932839200,4.547839111328125,-6.89515114364624,-9.277531433105468,3.510198908996582
1788861365942845200,4.55784521484375,-6.949020680999755,-7.907449533081055,3.7784991325378416
1788861365952851000,4.567850830078125,-6.714239280700683,-6.506243011474609,4.2314521591186525
1788861365962857200,4.577857177734375,-6.039224050140381,-4.726902265167236,5.585522835540771
1788861365972863200,4.58786328125,-5.2542251808166505,-4.118475768280029,4.3162966804504395
1788861365982870000,4.5978701171875,-5.10159482498169,-5.664830765533447,2.8999767608642575
1788861365992876000,4.6078759765625,-5.532551123809814,-6.516867281341552,3.6565444854736326
1788861366002882300,4.61788232421875,-6.291513050079345,-6.854449715423583,4.247313745117188
1788861366012888300,4.627888427734375,-6.872106952667236,-7.1398086257934565,4.492120864868164
1788861366022894000,4.63789404296875,-7.550563848114013,-7.733570637512207,4.600458489990234
1788861366032900000,4.647900146484375,-7.803301760864257,-8.290521798706054,4.2414778785705565
1788861366042906000,4.657906005859375,-7.436390356445312,-8.506299223327636,3.553444176483154
1788861366052912000,4.667912109375,-6.752845782470703,-8.236502623748779,3.0741549316406247
1788861366062918100,4.677918212890625,-6.334907955169677,-7.421576233673095,3.3954268669128416
1788861366072924200,4.687924072265625,-6.2201359130859375,-6.457311515045165,4.368669841766357
1788861366082930200,4.69793017578125,-6.082170042419433,-6.010942543029785,5.207238973236084
1788861366092936000,4.70793603515625,-6.49891076889038,-6.139630882263183,5.725134719848633
1788861366102942200,4.717942138671875,-6.860285581970214,-6.490830338287354,5.423764585876465
1788861366112949200,4.72794921875,-7.249792264556884,-6.573579933166504,5.014805014801025
1788861366122955000,4.737955078125,-7.5716627502441405,-6.3247325981140134,5.408202275085449
1788861366132961000,4.7479609375,-7.7221981796264645,-6.0233624641418455,5.991190379333496
1788861366142967300,4.75796728515625,-7.593509840393066,-5.604826086425781,5.9394157684326165
1788861366152973000,4.76797314453125,-6.745513539886474,-5.164592256164551,5.455038845062256
1788861366162979000,4.77797900390625,-6.121524732208251,-4.573074808502197,5.1894320983886715
1788861366172985000,4.787985107421875,-6.188712016296386,-3.9878421401977535,5.08169302368164
1788861366182991000,4.7979912109375,-6.383240901184082,-3.6834792541503902,4.961833303070068
1788861366192997000,4.8079970703125,-6.808959883880615,-3.8943186378479,4.862174658966064
1788861366203003100,4.818003173828125,-7.28465782623291,-4.407874893951416,4.389469468688964
1788861366213009200,4.828009033203125,-7.415590729522704,-4.5227965736389155,3.7256770584106444
1788861366223015200,4.83801513671875,-7.23946726989746,-4.129249675750732,3.192817551422119
1788861366233021200,4.848021240234375,-7.387608497619628,-3.6501100685119625,2.844760485076904
1788861366243028200,4.8580283203125,-7.395539290618896,-3.5091514457702635,2.4908675521850583
1788861366253034200,4.8680341796875,-7.218817280578613,-3.652504270172119,2.2105963203430172
1788861366263040000,4.8780400390625,-7.357980252075195,-3.944896147918701,2.104353621673584
1788861366273046300,4.88804638671875,-7.39913059310913,-4.1362826431274415,2.3397335723876953
1788861366283052300,4.89805224609375,-7.359177352905273,-4.190900368499755,3.0775965965270995
1788861366293058000,4.90805810546875,-7.515548648834228,-4.473416164398193,4.013430170440674
1788861366303064000,4.91806396484375,-7.885602442932129,-4.71762473373413,4.215590573120117
1788861366313070000,4.928070068359375,-8.4528785987854,-4.604049792480469,3.9152679023742674
1788861366323076400,4.938076416015625,-7.732074261474609,-4.180725011444092,2.9523499221801757
1788861366333082000,4.94808203125,-6.303633695983886,-3.8257846153259276,2.0301333702087403
1788861366343088000,4.958088134765625,-6.445939057159423,-3.957615344238281,2.1167735427856442
1788861366353094100,4.96809423828125,-7.790732202148437,-4.246715194702148,2.8847137252807618
1788861366363101200,4.97810107421875,-9.03377177658081,-4.534019393920898,3.3919852020263668
1788861366373107200,4.988107177734375,-7.756315553283691,-4.441842630004882,3.131915046691894
1788861366383113200,4.99811328125,-5.82913285446167,-4.018517848968505,2.8432641090393065
1788861366393119000,5.008118896484375,-6.871358764648437,-3.6917093223571773,3.1567548889160153
1788861366403125000,5.018125,-8.019677735900878,-3.761739720916748,3.638288697814941
1788861366413131300,5.02813134765625,-7.372345462036132,-4.4671313850402825,3.604620236968994
1788861366423137300,5.03813720703125,-6.963834803771972,-4.795735562896728,3.1310172210693357
1788861366433143000,5.04814306640625,-7.034014839935303,-4.461594793701171,2.4048259300231933
1788861366443149000,5.058149169921875,-6.448632534027099,-3.7166988021850584,1.3491326354980469
1788861366453155000,5.068155029296875,-6.88871672668457,-3.0879215911865234,0.5551555099487304
1788861366463161300,5.078161376953125,-8.526649937438965,-2.8057050704956055,0.303913973236084
1788861366473168100,5.088168212890625,-8.65054987335205,-2.84086990737915,0.3676595924377441
1788861366483174100,5.098174072265625,-8.164975849151611,-2.8693010520935056,1.0320505531311035
1788861366493180200,5.10818017578125,-8.416815936279296,-3.0737060188293457,1.664269429016113
1788861366503186200,5.118186279296875,-8.56061767349243,-3.439869235229492,2.075473564147949
1788861366513192200,5.128192138671875,-8.898798657989502,-3.7939118057250973,2.4431331565856933
1788861366523198200,5.1381982421875,-8.535328918457031,-3.9667432380676266,2.3204303215026854
1788861366533204000,5.148203857421875,-8.67553935317993,-3.70951619720459,2.300977433013916
1788861366543210000,5.1582099609375,-8.97601166152954,-3.2345664428710936,2.1353286056518552
1788861366553216300,5.16821630859375,-8.660425955200195,-2.883366986846924,1.4963760375976562
1788861366563222300,5.17822216796875,-8.356212706756592,-2.3337480682373046,1.2623428253173827
1788861366573228000,5.18822802734375,-8.421454701995849,-1.758241844177246,1.656787548828125
1788861366583235000,5.198235107421875,-8.295908752441406,-1.571793389892578,2.2981343185424805
1788861366593241000,5.208240966796875,-8.025962515258788,-1.423053611755371,2.5130139175415036
1788861366603247000,5.2182470703125,-7.704840217590331,-1.3848960227966307,2.4990976203918454
1788861366613254000,5.22825390625,-7.321169401550293,-1.4519336692810059,2.3126491661071777
1788861366623260000,5.238260009765625,-6.7353381828308105,-1.4263456390380858,1.9735703559875488
1788861366633265700,5.248265625,-7.190086860656738,-1.3808558074951172,1.7353472908020018
1788861366643271700,5.258271728515625,-7.556848627471924,-1.369483349609375,1.7426795333862304
1788861366653278000,5.26827783203125,-7.203105332183838,-1.3584101669311524,2.0239982284545897
1788861366663283700,5.27828369140625,-7.109581829833984,-1.3210007659912109,2.4281693962097166
1788861366673289700,5.288289794921875,-7.312939333343506,-1.2804489753723143,2.934692684936523
1788861366683295700,5.298295654296875,-7.219415830993652,-1.4071920257568358,3.489100006866455
1788861366693302800,5.308302734375,-7.1224506637573235,-1.6615759521484375,3.6719571586608883
1788861366703308800,5.318308837890625,-7.036259403991699,-1.9090765487670898,3.6357448585510252
1788861366713314800,5.328314697265625,-7.147290505981445,-2.1273978126525876,3.404704398345947
1788861366723320800,5.33832080078125,-7.462427299499511,-2.2182278381347653,3.0169933670043942
1788861366733326600,5.34832666015625,-7.747636572265624,-2.289455337524414,2.8520927276611325
1788861366743332900,5.358332763671875,-7.699153988647461,-2.5200468849182127,2.8850130004882812
1788861366753339000,5.3683388671875,-7.728632596588135,-2.890998504638672,2.9179332733154295
1788861366763344600,5.3783447265625,-7.74449418258667,-3.3542765258789062,3.1289222946166992
1788861366773350700,5.3883505859375,-7.612064903259277,-3.904793270111084,3.380463106536865
1788861366783356700,5.398356689453125,-7.503876915740967,-4.46907667388916,3.3426047927856444
1788861366793363000,5.408363037109375,-7.3466077941894525,-4.975151049804687,3.1561563385009763
1788861366803369700,5.41836962890625,-7.205649171447753,-5.350891072845458,2.9899089607238767
1788861366813375700,5.428375732421875,-7.247398062896728,-5.5638253829956055,2.888305027770996
1788861366823381800,5.4383818359375,-7.205349896240234,-5.539135178375243,2.8393735313415527
1788861366833387800,5.4483876953125,-7.228992637634277,-5.268291115570068,2.7632079910278318
1788861366843393800,5.458393798828125,-7.5254247306823725,-4.967818807220459,2.89848038482666
1788861366853399800,5.46839990234375,-7.870189769744872,-4.9360956352233885,3.4082957008361814
1788861366863405800,5.47840576171875,-7.967154936981201,-5.211428826141357,4.048146094512939
1788861366873411600,5.48841162109375,-7.708581157684326,-5.686827493286133,4.338742321014404
1788861366883417900,5.49841796875,-7.392546538543701,-6.309918475341797,4.161721035766601
1788861366893424600,5.508424560546875,-6.860285581970214,-6.9606924140930175,3.7472248733520503
1788861366903430700,5.5184306640625,-6.4469865203857415,-7.3861121215820305,3.338115664672851
1788861366913436700,5.528436767578125,-6.293159063720703,-7.627776851654052,3.0550013183593747
1788861366923443000,5.53844287109375,-6.253804373931884,-7.836820584106444,2.9803321540832517
1788861366933448700,5.54844873046875,-6.575375584411621,-8.053645471954345,2.8673557632446287
1788861366943454700,5.558454833984375,-6.969670670318603,-8.301146068572997,2.761262702178955
1788861366953460700,5.568460693359375,-6.918344972229003,-8.52231044692993,2.7353753967285153
1788861366963467000,5.578467041015625,-6.568791529846191,-8.699331732177734,2.8941408943176268
1788861366973472800,5.58847265625,-6.19260259399414,-8.89266351623535,3.2837972145080565
1788861366983478800,5.598478759765625,-6.066607731628418,-9.164854317474365,3.655646659851074
1788861366993485600,5.608485595703125,-6.423343778991699,-9.461136772918701,3.6418800003051754
1788861367003491800,5.618491943359375,-6.8402341430664055,-9.738115977478026,3.248931652832031
1788861367013497900,5.628497802734375,-7.076063006591797,-9.855880771636963,2.8094460105895993
1788861367023504000,5.63850390625,-7.088632565307617,-9.87608184814453,2.620902629852295
1788861367033509600,5.648509521484375,-6.9892731964111325,-9.82580361328125,2.555062084197998
1788861367043515600,5.658515625,-6.706009212493896,-9.715520699310302,2.659209856414795
1788861367053522000,5.66852197265625,-6.348524977111816,-9.572018237304688,3.1688755348205566
1788861367063528000,5.67852783203125,-6.259789878082275,-9.509619356536865,4.179827185821533
1788861367073533700,5.68853369140625,-6.453420937347412,-9.554809912872313,4.927416654205322
1788861367083539700,5.698539794921875,-6.660669018554687,-9.727641345214844,4.9360956352233885
1788861367093546800,5.708546630859375,-6.740725136566161,-10.021679236602782,4.110694612884521
1788861367103552800,5.718552734375,-6.54410132522583,-10.205583851623535,2.7711387840270993
1788861367113558800,5.728558837890625,-6.298396379852295,-10.383652600097655,1.7893664657592772
1788861367123564800,5.738564697265625,-6.214150408935547,-10.57863039779663,1.46195938873291
1788861367133570600,5.748570556640625,-6.353463018035888,-10.678737954711913,1.4751274978637694
1788861367143576800,5.758576904296875,-6.625953094482422,-10.41328084564209,1.5759832427978515
1788861367153582800,5.768582763671875,-6.841431243896484,-9.975291579437256,1.9505261650085448
1788861367163588900,5.7785888671875,-6.8961986068725585,-9.550021509552002,2.618957341003418
1788861367173594600,5.7885947265625,-7.076661557006836,-9.193734375,3.3542765258789062
1788861367183602000,5.798601806640625,-7.304260352325439,-8.960748625946044,3.8801030654907223
1788861367193607700,5.808607666015625,-6.993463049316406,-8.767117566680907,4.014178358459472
1788861367203613700,5.81861376953125,-6.129455525207519,-8.68840818710327,3.7696705139160156
1788861367213619700,5.82861962890625,-4.815936639404296,-8.713547304534911,3.293074745941162
1788861367223625700,5.838625732421875,-3.2926258331298826,-8.556577458190917,2.784905443572998
1788861367233631700,5.8486318359375,-2.4756045166015626,-8.03808316116333,2.493112116241455
1788861367243637800,5.8586376953125,-2.577956637573242,-7.474697583007812,2.7174188842773437
1788861367253643800,5.868643798828125,-3.21780703125,-7.177966214752197,3.173813575744629
1788861367263649800,5.87864990234375,-4.479850581359863,-7.058705044555664,3.4976293502807616
1788861367273656800,5.88865673828125,-5.997175883483886,-7.112574581909179,3.657442311096191
1788861367283662800,5.898662841796875,-7.001244204711914,-7.369053434753417,3.7606922576904296
1788861367293668900,5.9086689453125,-7.719504702758789,-7.719355065155029,3.9228994201660154
1788861367303674600,5.918674560546875,-8.15854143218994,-7.839364423370361,4.219331513214111
1788861367313681000,5.928680908203125,-7.808389439392089,-7.73761085281372,4.427627057647705
1788861367323687000,5.93868701171875,-6.96563045501709,-7.4500073783874505,4.476109641265869
1788861367333692700,5.948692626953125,-6.4926259895324705,-6.917447146606445,4.444536106872558
1788861367343698700,5.95869873046875,-6.246172856140136,-6.318747093963623,4.288464086151123
1788861367353706000,5.9687060546875,-5.814618006896972,-5.822848075103759,3.9969700340270995
1788861367363711700,5.978711669921875,-5.284900889587402,-5.555445677185058,3.800046947479248
1788861367373717800,5.9887177734375,-5.111919819641113,-5.518634826660156,3.7205893798828122
1788861367383723800,5.998723876953125,-5.611110865783691,-5.653907220458984,3.749469437408447
1788861367393729800,6.008729736328125,-6.416011536407471,-5.807136126708984,3.9324762268066404
1788861367403735800,6.01873583984375,-7.072770979309082,-5.9296893241882325,4.248510845947266
1788861367413741800,6.028741943359375,-7.473799757385254,-6.1459156616210935,4.6544776649475095
1788861367423747800,6.038747802734375,-7.4685624412536615,-6.426785443878173,4.899883335113525
1788861367433753900,6.04875390625,-7.2237553215026855,-6.575225946807861,4.866364511871337
1788861367443761000,6.058760986328125,-6.9898717468261715,-6.469132885742187,4.791695347595215
1788861367453767000,6.068766845703125,-7.205050621032714,-6.1255649475097655,4.823119244384765
1788861367463772700,6.078772705078125,-7.390451612091064,-5.815515832519531,4.919036948394775
1788861367473778700,6.08877880859375,-7.021445281219482,-5.483619627380371,4.794239186859131
1788861367483784700,6.09878466796875,-6.716932757568359,-5.12000025024414,4.3165959556579585
1788861367493791000,6.108791015625,-6.557419071960449,-4.701164597320556,3.7089176467895504
1788861367503796700,6.118796630859375,-6.733692169189453,-4.2205286140441896,3.330035234069824
1788861367513802800,6.128802734375,-7.1032970504760735,-3.7939118057250973,3.336320013427734
1788861367523808800,6.138808837890625,-7.177666939544677,-3.5001731895446775,3.556586566162109
1788861367533815800,6.14881591796875,-7.383269007110595,-3.379415643310547,3.6929064231872557
1788861367543821800,6.15882177734375,-7.517344300079345,-3.5221699172973633,3.756801679992676
1788861367553827800,6.168827880859375,-7.5254247306823725,-3.72178648071289,3.7140053253173826
1788861367563833600,6.17883349609375,-7.62957250289917,-3.8323686698913573,3.552695988464355
1788861367573839600,6.188839599609375,-7.874080347442627,-3.8895302345275877,3.552845626068115
1788861367583846000,6.198845947265625,-7.955333566284179,-3.8959646514892574,3.6617818016052244
1788861367593852000,6.208851806640625,-7.686434792327881,-3.756652042388916,3.164835319519043
1788861367603857700,6.218857666015625,-6.994809787750244,-3.6834792541503902,2.478447631072998
1788861367613865000,6.228864990234375,-6.859537393951416,-3.4358290199279784,2.36217921295166
1788861367623871000,6.23887109375,-8.360402559661864,-3.1325135971069336,2.8520927276611325
1788861367633876700,6.248876708984375,-8.725667950439453,-3.1974563171386716,2.7802666778564453
1788861367643883000,6.258883056640625,-7.107337265777588,-3.528753971862793,2.194136183929443
1788861367653889000,6.268888916015625,-6.529436840057373,-3.797952021026611,1.9647417373657226
1788861367663894800,6.278894775390625,-7.536497913360595,-3.8078281028747556,2.15148946685791
1788861367673900800,6.28890087890625,-8.46619634552002,-3.6427778259277344,2.3114520652770993
1788861367683906800,6.29890673828125,-8.309525774383545,-3.5645173591613766,1.9264345108032226
1788861367693913000,6.3089130859375,-8.29291600036621,-3.459621398925781,1.5752350547790526
1788861367703919900,6.318919921875,-7.961917620849609,-3.0563480567932126,1.5854104118347168
1788861367713926000,6.32892578125,-7.202806056976318,-2.503736386108398,1.7209820808410643
1788861367723932000,6.338931884765625,-7.659350386047363,-2.3054665611267087,2.0603601661682127
1788861367733938000,6.34893798828125,-8.418312312316894,-2.5577555610656737,2.407968319702148
1788861367743944000,6.35894384765625,-7.9396216178894035,-2.896385458374023,2.441936055755615
1788861367753950000,6.368949951171875,-7.219864743804931,-2.726696415710449,2.1657050392150876
1788861367763955700,6.378955810546875,-7.965209648132324,-2.292747364807129,1.7687164764404295
1788861367773963000,6.388962890625,-7.913435037231445,-2.048089882659912,1.2023381462097167
1788861367783969000,6.398968994140625,-6.899640271759033,-1.964442462158203,0.6305728622436523
1788861367793974800,6.408974853515625,-7.498340324401855,-2.3535002319335936,0.6669347999572753
1788861367803980800,6.418980712890625,-8.673743701934814,-2.792985874176025,0.9671078330993652
1788861367813986800,6.42898681640625,-8.58096838760376,-2.7365724975585937,1.17480482711792
1788861367823993000,6.4389931640625,-8.316409104156493,-2.568978381347656,1.6234183631896972
1788861367833998800,6.448998779296875,-8.186972576904296,-2.4651298843383787,2.188749230194092
1788861367844004900,6.4590048828125,-8.147617887115478,-2.345569438934326,2.351704580688476
1788861367854012000,6.469011962890625,-7.785345248413085,-2.1357775184631347,2.458695467376709
1788861367864018000,6.479017822265625,-7.4311530403137205,-1.9692308654785156,2.773233710479736
1788861367874024000,6.48902392578125,-7.123797402191162,-1.8936638755798338,2.869151414489746
1788861367884030000,6.499030029296875,-6.899191358947753,-1.788319002532959,2.5288755035400388
1788861367894035700,6.50903564453125,-6.898293533325195,-1.5671546241760252,1.9295769004821777
1788861367904042000,6.5190419921875,-6.982988417053222,-1.2927192588806151,1.3097779457092285
1788861367914048000,6.529048095703125,-7.097311546325683,-1.1866261978149413,1.1935095275878906
1788861367924054000,6.539053955078125,-6.955754373168945,-1.2600982612609863,1.5656582481384276
1788861367934060800,6.549060791015625,-6.9427359016418455,-1.4847043045043944,2.064849294281006
1788861367944067000,6.559067138671875,-6.562057837677002,-1.868075845336914,2.5022400100708007
1788861367954072800,6.56907275390625,-6.329670639038086,-2.33659118270874,2.7341782958984373
1788861367964078800,6.579078857421875,-6.405686541748047,-2.80929637298584,2.6369138534545895
1788861367974084900,6.5890849609375,-6.533477055358886,-3.2338182548522947,2.411858897399902
1788861367984091000,6.5990908203125,-6.84352617034912,-3.525910857391357,2.086397109222412
1788861367994097000,6.609096923828125,-7.375038938903808,-3.764283560180664,1.9240403091430662
1788861368004103000,6.61910302734375,-7.905953157043457,-3.9905356170654294,2.067991683959961
1788861368014110000,6.62910986328125,-8.102726605987549,-4.2323499847412105,2.2939444656372068
1788861368024115700,6.63911572265625,-7.620294971466064,-4.546738590240478,2.48338567199707
1788861368034122000,6.6491220703125,-6.92657504043579,-4.8798318962097165,2.551770056915283
1788861368044128000,6.6591279296875,-6.936301484680175,-5.233724829101562,2.5561095474243163
1788861368054134000,6.669134033203125,-7.222408583068847,-5.680991626739502,2.5858874305725097
1788861368064139800,6.679139892578125,-7.440729846954345,-6.118980892944336,2.6689363006591798
1788861368074145800,6.689145751953125,-7.5625348564147945,-6.362441274261474,2.921674213409424
1788861368084152000,6.699152099609375,-7.550414210510254,-6.612186434936523,3.271227655792236
1788861368094158800,6.709158935546875,-7.211485037994384,-7.006032608032226,3.646518766021728
1788861368104164900,6.719164794921875,-6.685209585571289,-7.476343596649169,3.9029976188659665
1788861368114171000,6.7291708984375,-6.31395869064331,-7.952191176605224,3.911526962280273
1788861368124177000,6.739177001953125,-6.225373229217529,-8.281992455291748,3.5440170074462887
1788861368134183000,6.749182861328125,-6.290615224456786,-8.380753273773193,3.132663234710693
1788861368144189000,6.75918896484375,-6.391022056579589,-8.204629814147948,2.8823195236206054
1788861368154195000,6.76919482421875,-6.586748042297363,-7.810484365844726,2.8637644607543944
1788861368164202000,6.779201904296875,-6.789357357788085,-7.400626969146728,2.9933506256103515
1788861368174208000,6.7892080078125,-6.843077257537842,-7.218368367767334,3.271078018188476
1788861368184213800,6.7992138671875,-6.854748990631103,-7.409754862976074,3.6801872268676754
1788861368194219800,6.8092197265625,-7.175123100280762,-8.029853092956543,4.080916729736328
1788861368204225800,6.819225830078125,-7.729979335021972,-8.83639977722168,4.320785808563232
1788861368214232000,6.829232177734375,-8.094346900177001,-9.636811319732665,4.509628464508056
1788861368224237800,6.83923779296875,-8.194604094696045,-10.298808078765868,4.625148694610595
1788861368234244900,6.849244873046875,-8.259546814727782,-10.783783552551268,4.44348864364624
1788861368244251100,6.859251220703125,-8.335263442230223,-11.054777252960205,4.039916026306152
1788861368254257000,6.8692568359375,-8.021772662353515,-11.061959857940673,3.743184658050537
1788861368264263000,6.879262939453125,-7.202506781768799,-10.672602812957763,3.7639842849731444
1788861368274269000,6.88926904296875,-6.644957070159911,-10.008960040283203,3.9255928970336913
1788861368284275000,6.89927490234375,-6.696582043457031,-9.39798970413208,3.7762545684814453
1788861368294281000,6.909281005859375,-6.587795505523681,-8.979303688812255,3.4434605377197265
1788861368304287000,6.919286865234375,-6.014384207916259,-8.79210704650879,3.270629105377197
1788861368314293800,6.929293701171875,-5.684283654022217,-8.844629845428466,3.132663234710693
1788861368324299800,6.9392998046875,-5.603628985595702,-8.971672171020508,2.934692684936523
1788861368334306000,6.94930615234375,-5.541828655242919,-8.940248274230957,2.766799293518066
1788861368344312000,6.95931201171875,-5.504568891906738,-8.73344910583496,2.8730419921875
1788861368354317800,6.96931787109375,-5.613205792236328,-8.477419165802,3.0918121688842772
1788861368364323800,6.97932373046875,-5.805340475463867,-8.278700428009033,3.228730576324463
1788861368374329900,6.989329833984375,-5.880308914947509,-8.150461001586914,3.3343747245788573
1788861368384337000,6.9993369140625,-5.729174935150146,-8.132055576324463,3.463661614227295
1788861368394343000,7.009343017578125,-5.705532193756103,-8.265681956481933,3.4281975021362303
1788861368404349000,7.019348876953125,-6.031891807556152,-8.621819453430176,3.093607820129394
1788861368414354700,7.029354736328125,-6.235099673461914,-9.093327542877196,2.7512369827270504
1788861368424361000,7.03936083984375,-6.12870733718872,-9.476100533294677,2.535908470916748
1788861368434367000,7.049366943359375,-5.975179155731201,-9.662100074768066,2.441337505340576
1788861368444373000,7.059373046875,-6.0413189765930175,-9.49300958251953,2.475903791809082
1788861368454379800,7.0693798828125,-5.9968766082763665,-9.159617001342772,2.786850732421875
1788861368464386000,7.079385986328125,-5.7326166000366205,-8.685565072631835,3.2495302032470703
1788861368474392000,7.08939208984375,-5.404012422180175,-8.012794406127929,3.6860230934143066
1788861368484397800,7.099397705078125,-5.194519776916503,-7.400776606750488,3.979312796783447
1788861368494403800,7.10940380859375,-5.114164383697509,-7.1112278434753415,4.089595710754394
1788861368504409900,7.119409912109375,-5.270386042022705,-6.973561248016357,3.9954736579895016
1788861368514415900,7.129415771484375,-5.672312645721435,-6.941987713623046,3.8468835174560545
1788861368524423000,7.1394228515625,-6.079326927947998,-7.039551431274414,3.8344635963439937
1788861368534429000,7.149428955078125,-6.375160470581054,-7.213430326843262,4.0447044296264645
1788861368544434700,7.1594345703125,-6.6994251579284665,-7.413346165466308,4.414159673309326
1788861368554441000,7.16944091796875,-7.078307570648193,-7.53365479888916,4.732738131713867
1788861368564447000,7.179447021484375,-7.304260352325439,-7.605181573486328,4.957493812561035
1788861368574453000,7.189452880859375,-7.346757431793212,-7.5351511749267575,5.0763060699462885
1788861368584458800,7.199458740234375,-7.300968325042724,-7.359177352905273,4.853944590759277
1788861368594466000,7.209466064453125,-6.851905876159668,-7.033117014312744,4.484040434265136
1788861368604471800,7.219471923828125,-6.097732353210449,-6.6777277053833,4.221276802062988
1788861368614477800,7.229477783203125,-5.787683238220215,-6.507440112304687,4.154987343597412
1788861368624483600,7.239483642578125,-6.120776544189453,-6.45446840057373,4.121468520355224
1788861368634489600,7.249489501953125,-6.85011022491455,-6.332663391113281,4.042759140777588
1788861368644495400,7.259495361328125,-7.3484034454345695,-6.3347583175659175,3.990984529876709
1788861368654501400,7.26950146484375,-7.4393831085205075,-6.5312324913024895,3.9715316413879393
1788861368664508700,7.2795087890625,-7.255927406311034,-6.825270382690429,3.8495769943237304
1788861368674514400,7.289514404296875,-6.708403414154052,-7.052869178009033,3.774458917236328
1788861368684520400,7.2995205078125,-6.53138212890625,-6.982240229034423,3.703381055450439
1788861368694526500,7.3095263671875,-6.778433812713622,-6.617124475860595,3.6406828994750975
1788861368704532700,7.31953271484375,-7.1881415718078605,-5.875071598815918,3.7397429931640622
1788861368714538500,7.32953857421875,-7.683142765045165,-4.932953245544433,4.14346524810791
1788861368724544500,7.33954443359375,-7.96087015762329,-4.235492374420166,4.6261961578369135
1788861368734551600,7.349551513671875,-7.837718409729003,-4.0800189041137696,4.73677834701538
1788861368744557600,7.3595576171875,-7.165695931243896,-4.394108234405517,4.5611038002014155
1788861368754563600,7.3695634765625,-6.553977407073974,-4.770596445465087,4.292653939056396
1788861368764569600,7.379569580078125,-6.361992361450195,-4.742763851165771,3.8691795204162593
1788861368774575400,7.389575439453125,-6.457910065460204,-4.31554849243164,3.3515830490112304
1788861368784581400,7.399581298828125,-6.576572685241699,-3.6079122642517087,3.010110037231445
1788861368794587600,7.409587646484375,-6.588244418334961,-2.818124991607666,2.8133365882873536
1788861368804594400,7.419594482421875,-7.1872437461853025,-2.361580662536621,2.760664151763916
1788861368814600400,7.429600341796875,-7.782651771545409,-2.3255180000305176,2.397942600250244
1788861368824606500,7.4396064453125,-8.066065393066406,-2.4753052413940426,1.7184382415771484
1788861368834612500,7.449612548828125,-7.668179004669189,-2.7020062110900875,1.008108536529541
1788861368844618500,7.459618408203125,-6.477512591552734,-3.2653917892456055,0.6631938598632812
1788861368854624500,7.46962451171875,-7.161057165527343,-4.062960217285156,0.9605237785339354
1788861368864631300,7.47963134765625,-8.675240077972411,-4.406677793121338,1.43008657913208
1788861368874637600,7.489637451171875,-9.164405404663086,-4.240131140136718,1.8453309295654297
1788861368884643600,7.4996435546875,-9.028983373260498,-3.771166889953613,2.063502555847168
1788861368894649600,7.509649658203125,-8.551938692474364,-3.261501211547851,2.013523596191406
1788861368904655400,7.5196552734375,-7.75676446609497,-2.967463320159912,1.7347487403869628
1788861368914661400,7.529661376953125,-7.109432192230225,-2.6487352241516113,1.4597148246765135
1788861368924667600,7.539667724609375,-6.7179802207946775,-2.173186919403076,1.3025953407287596
1788861368934674400,7.54967431640625,-6.675333503723144,-1.7360954788208007,1.2412439231872558
1788861368944680400,7.559680419921875,-7.344213592529297,-1.2624924629211425,1.3521253875732422
1788861368954686500,7.5696865234375,-8.092251973724364,-1.063624087524414,1.6341922706604004
1788861368964692500,7.5796923828125,-7.958475955963134,-1.3130699729919433,1.6877625328063963
1788861368974698500,7.589698486328125,-7.141454639434814,-1.6045640251159667,1.4567220726013184
1788861368984704500,7.59970458984375,-6.990320659637451,-1.856553749847412,1.3003507766723632
1788861368994710500,7.60971044921875,-7.454346868896484,-2.2463597076416013,1.3588590797424316
1788861369004717600,7.619717529296875,-7.430404852294921,-2.429067221832275,1.4743793098449707
1788861369014723600,7.6297236328125,-7.314435709381103,-2.257432890319824,1.3862427612304686
1788861369024729600,7.6397294921875,-7.205050621032714,-1.8499696952819824,1.1463736824035644
1788861369034735400,7.6497353515625,-7.269394790649414,-1.5973814201354979,1.1414356414794922
1788861369044741600,7.65974169921875,-7.5457754447937,-1.3147159866333007,1.3301286598205566
1788861369054747600,7.66974755859375,-7.5737576766967765,-1.129314995574951,1.5465046348571776
1788861369064753400,7.67975341796875,-7.509263869476318,-1.0850222648620604,1.696291876220703
1788861369074760400,7.689760498046875,-7.280767248535156,-1.1016320388793945,2.0235493156433106
1788861369084766700,7.6997666015625,-6.929268517303466,-1.3839981971740722,2.4446295326232907
1788861369094772500,7.7097724609375,-6.40344197769165,-1.7562965553283691,2.4850316856384276
1788861369104778500,7.719778564453125,-5.926098021697998,-1.9425953720092772,2.0361188743591305
1788861369114784500,7.729784423828125,-5.849782843780517,-2.04285256652832,1.434575707244873
1788861369124790500,7.73979052734375,-6.171054779052734,-2.2665607841491697,1.103876602935791
1788861369134797600,7.749797607421875,-6.516418368530273,-2.590825471496582,1.1679214973449705
1788861369144803600,7.759803466796875,-6.931213806152344,-2.7160721458435058,1.3820529083251953
1788861369154809600,7.7698095703125,-7.699902176666259,-2.7488427810668945,1.8213889129638672
1788861369164815400,7.7798154296875,-8.08881030883789,-2.965667668914795,2.551770056915283
1788861369174821600,7.789821533203125,-8.017133896636963,-3.2983120620727537,3.19835414276123
1788861369184827600,7.79982763671875,-7.911190473175048,-3.7764042060852048,3.773860366821289
1788861369194833400,7.80983349609375,-7.598597518920898,-4.454861101531982,4.192696019744873
1788861369204840400,7.81984033203125,-6.922085912322998,-5.193472313690185,4.084059119415283
1788861369214846700,7.8298466796875,-6.392817707824706,-5.767182886505126,3.503016304016113
1788861369224852500,7.8398525390625,-6.554276682281494,-6.119878718566894,2.8956372703552242
1788861369234858500,7.8498583984375,-7.038055055236816,-6.3989528495788575,2.5813983024597165
1788861369244864500,7.859864501953125,-7.474398307800293,-6.56310530090332,2.4990976203918454
1788861369254870500,7.86987060546875,-7.540538128662109,-6.664260321044922,2.5589526618957517
1788861369264877600,7.879877685546875,-7.2988733985900875,-6.873603328704833,2.8063036209106444
1788861369274883600,7.889883544921875,-6.985681893920898,-7.110180380249023,3.0385411819458006
1788861369284889300,7.899889404296875,-6.902184111022949,-7.2915411560058585,3.0542531303405758
1788861369294895400,7.909895263671875,-6.682516108703613,-7.5613377555847165,3.078494422149658
1788861369304901600,7.919901611328125,-6.494870553588867,-7.923161481475829,3.079242610168457
1788861369314907600,7.92990771484375,-6.542604949188232,-8.176049031829834,2.886210101318359
1788861369324914400,7.93991455078125,-6.5583168975830075,-8.45886410293579,2.6521768890380857
1788861369334920400,7.94992041015625,-6.466289771270752,-8.650849148559569,2.4967034187316894
1788861369344926700,7.9599267578125,-6.668599811553955,-8.70157629623413,2.353949144744873
1788861369354932500,7.969932373046875,-6.927772141265868,-8.739135334777831,2.3642741394042965
1788861369364938500,7.9799384765625,-6.960393138885498,-8.789413569641113,2.586934893798828
1788861369374944500,7.989944580078125,-6.823175456237792,-8.84777223510742,3.118746937561035
1788861369384950500,7.999950439453125,-6.921038449096679,-8.776993648529052,3.7611411705017086
1788861369394957600,8.00995751953125,-7.4046671844482415,-8.732401642608641,4.263923519134521
1788861369404963600,8.019963623046875,-7.914632138061523,-8.778041111755371,4.384232152557373
1788861369414969300,8.02996923828125,-8.227823642730712,-8.814103774261474,4.30297893371582
1788861369424975600,8.0399755859375,-8.124872971343994,-9.125649265289306,4.5218987480163575
1788861369434981600,8.049981689453125,-7.970596601867675,-9.805901811981201,4.824017070007324
1788861369444987600,8.059987548828126,-7.894879974365234,-10.710012213897704,4.529530265808106
1788861369454994400,8.069994384765625,-7.324311791229247,-11.337592324066161,3.8352117843627926
1788861369465000700,8.080000732421874,-6.646453446197509,-11.442189009094237,3.1961095787048337
1788861369475006500,8.09000634765625,-6.296900003814697,-10.983549753570555,2.717568521881103
1788861369485012500,8.100012451171875,-6.360196710205078,-10.071059645843505,2.7814637786865233
1788861369495018500,8.1100185546875,-6.379051048278808,-9.382128118133544,3.645920215606689
1788861369505024500,8.1200244140625,-6.37141953048706,-9.026738809204101,4.499153832244873
1788861369515031600,8.130031494140624,-6.566247690582275,-8.828319346618652,4.697274019622802
1788861369525037600,8.14003759765625,-6.527641188812256,-8.854206652069092,4.348319127655029
1788861369535043600,8.150043701171874,-6.153547179412842,-8.796296899414061,3.7223850311279296
1788861369545049300,8.16004931640625,-5.648220991516113,-8.627206407165527,3.227832750701904
1788861369555055600,8.1700556640625,-5.464017101287841,-8.488193073272704,2.7814637786865233
1788861369565061600,8.1800615234375,-5.516539900207519,-8.434772448730468,2.217928562927246
1788861369575068400,8.190068359375,-5.462820000457763,-8.398859423828124,1.7726070541381835
1788861369585074400,8.200074462890624,-5.642983675384521,-8.393622107696533,1.5327379753112793
1788861369595080700,8.210080810546875,-5.86085602645874,-8.45302823638916,1.631199518585205
1788861369605086500,8.22008642578125,-5.871929209136963,-8.470685473632813,1.9087772735595703
1788861369615092500,8.230092529296876,-5.618742383575439,-8.402450726318358,2.2355858001708984
1788861369625098200,8.24009814453125,-5.32455485458374,-8.266430144500731,2.6177602401733395
1788861369635104300,8.250104248046876,-5.364807369995117,-8.148366075134277,3.106775929260254
1788861369645111300,8.260111328125,-5.762244845581054,-8.160337083435058,3.671807521057129
1788861369655117300,8.270117431640625,-6.233453659820556,-8.289025422668457,4.065803331756592
1788861369665123300,8.280123291015625,-6.517166556549072,-8.353519229888915,4.164564150238037
1788861369675129000,8.290129150390625,-6.57597413482666,-8.289773610687256,4.1937434829711915
1788861369685135400,8.30013525390625,-6.417058999633789,-8.08192697906494,4.2128970962524415
1788861369695142100,8.31014208984375,-6.025307752990722,-7.7334209999084464,4.113986640167236
1788861369705148200,8.320148193359374,-5.693411547851563,-7.219415830993652,4.001309524536133
1788861369715154200,8.330154296875,-5.668422068023681,-6.649296560668945,3.993827644348144
1788861369725160400,8.340160400390625,-5.8463411788940425,-6.188263103485107,4.008043216705322
1788861369735166200,8.350166259765626,-6.376207933807373,-5.92475128326416,4.037222549438476
1788861369745172200,8.360172119140625,-7.0367083168029785,-5.940762506866455,4.282029669189453
1788861369755178200,8.37017822265625,-7.417386380767822,-6.194098970031738,4.680215332794189
1788861369765185300,8.380185302734375,-7.539191390228271,-6.532130316925048,4.961833303070068
1788861369775191300,8.39019140625,-7.542483417510986,-6.896048969268798,5.078849909210205
1788861369785197300,8.400197265625,-7.41214906463623,-7.191583236694336,5.008220960235596
1788861369795203300,8.410203369140625,-7.040449256896972,-7.254879943084716,4.728249003601074
1788861369805209000,8.420208984375,-6.678775168609619,-6.953809084320068,4.339939421844482
1788861369815215400,8.43021533203125,-6.449081446838378,-6.436811163330078,4.097376866149902
1788861369825222100,8.44022216796875,-6.273257262420654,-6.01378565750122,4.06041637802124
1788861369835228200,8.450228271484375,-6.591237170410156,-5.8086325027465815,4.063409130096435
1788861369845234200,8.460234130859375,-7.311442957305908,-5.793369467163085,4.048894282531738
1788861369855240400,8.470240478515626,-7.804798136901855,-5.888688620758057,4.062361666870117
1788861369865246200,8.48024609375,-7.421276958465576,-5.842450601196289,3.9921816307067868
1788861369875252200,8.490252197265624,-6.908768165588379,-5.551405461883545,3.8667853187561034
1788861369885259300,8.50025927734375,-7.071424240875244,-5.204395858764648,3.8851907440185545
1788861369895265300,8.510265380859375,-7.572710213470459,-4.950311207580566,3.8030396995544433
1788861369905271300,8.520271240234376,-7.397035666656493,-4.768202243804931,3.615693419647217
1788861369915277300,8.53027734375,-7.039551431274414,-4.526238238525391,3.512144197845459
1788861369925283000,8.540282958984376,-7.096563358306884,-4.428973796081543,3.4569279220581053
1788861369935289300,8.550289306640625,-7.4579381713867186,-4.548085328674316,3.369090648651123
1788861369945296400,8.56029638671875,-7.790432926940918,-4.62185666732788,3.2893338058471677
1788861369955302100,8.57030224609375,-7.416338917541504,-4.540154535675049,3.1352070739746094
1788861369965308200,8.58030810546875,-6.583904927825928,-4.302380383300781,2.78355870513916
1788861369975314400,8.590314453125,-6.2778960281372065,-3.9203555809020996,2.5152584815979004
1788861369985320400,8.600320556640625,-6.856245366668701,-3.482815227508545,2.384624853515625
1788861369995326200,8.610326171875,-7.012317387390136,-3.201646170043945,2.2234651542663575
1788861370005333200,8.620333251953125,-7.627178301239013,-3.062632836151123,2.16405902557373
1788861370015339300,8.63033935546875,-8.754398370361328,-2.9050644393920897,2.224213342285156
1788861370025345300,8.64034521484375,-8.800037839508056,-2.823212670135498,2.034472860717773
1788861370035351300,8.650351318359375,-8.34424169845581,-2.920327474975586,1.7093103477478027
1788861370045357300,8.660357421875,-7.786093436431885,-2.94950680770874,1.30873048248291
1788861370055363000,8.670363037109375,-7.2994719490051265,-2.765602192687988,0.9217676391601562
1788861370065370400,8.680370361328125,-7.35483786239624,-2.2686557106018066,0.7580641006469726
1788861370075376400,8.69037646484375,-7.523629079437256,-1.8180968856811521,0.8940846824645996
1788861370085382100,8.700382080078125,-8.035838597106933,-1.8345570220947265,1.2470797897338866
1788861370095388200,8.71038818359375,-8.24862326965332,-2.0527286483764646,1.6283564041137695
1788861370105394400,8.72039453125,-7.830386167144775,-2.4262241073608397,1.9252374099731444
1788861370115400200,8.730400146484374,-7.634660181427002,-2.747645680236816,2.0245967788696286
1788861370125407200,8.7404072265625,-7.625233012390137,-2.7645547294616697,1.9550152931213378
1788861370135413200,8.750413330078125,-7.33568424911499,-2.487276249694824,1.7687164764404295
1788861370145419300,8.760419189453126,-7.002590943145751,-1.9460370368957518,1.1520599113464354
1788861370155425300,8.77042529296875,-6.78606533050537,-1.5020622665405272,0.5080196647644043
1788861370165431300,8.780431396484374,-7.132027470397949,-1.4181155708312987,0.4122515983581543
1788861370175437300,8.790437255859375,-7.196820552825927,-1.2797007873535156,0.7025485496520996
1788861370185444400,8.8004443359375,-6.956652198791503,-0.9928455009460448,0.9546879119873046
1788861370195450400,8.810450439453126,-7.141454639434814,-0.7887398094177246,1.2081740127563476
1788861370205456400,8.820456298828125,-7.107636540985107,-0.6575076309204101,1.5876549758911132
1788861370215462100,8.830462158203124,-7.143549565887451,-0.752078596496582,1.8869301834106444
1788861370225468200,8.84046826171875,-6.950517057037353,-1.0778396598815918,2.120215207672119
1788861370235474400,8.850474365234374,-6.946327204132079,-1.4130278923034667,2.0444985801696776
1788861370245481200,8.860481201171876,-7.099556110382079,-1.59618431930542,1.839943975830078
1788861370255487200,8.8704873046875,-7.023989120483398,-1.7663222747802734,1.7618331466674804
1788861370265493200,8.8804931640625,-6.975805812072753,-1.868674395751953,1.5795745452880858
1788861370275499300,8.890499267578125,-7.0658876495361325,-1.9246388595581054,1.4487912796020508
1788861370285505300,8.90050537109375,-7.125593053436279,-2.1193173820495605,1.4671967048645018
1788861370295511300,8.91051123046875,-6.84352617034912,-2.3460183517456055,1.6123451805114746
1788861370305518000,8.92051806640625,-6.74192223739624,-2.505083124542236,1.9490297889709471
1788861370315524400,8.9305244140625,-7.106738715362549,-2.6153660385131836,2.3101053268432614
1788861370325530400,8.9405302734375,-7.173177811431884,-2.8784289459228516,2.627935597229004
1788861370335536000,8.9505361328125,-6.955305460357666,-3.329436683654785,2.8784289459228516
1788861370345542100,8.960542236328125,-6.943484089660644,-3.831470844268799,2.919429649353027
1788861370355549400,8.970549560546875,-7.2337810409545895,-4.43106872253418,2.84101954498291
1788861370365555200,8.98055517578125,-7.313238608551025,-5.153219798278808,2.865410474395752
1788861370375561200,8.990561279296875,-7.376984227752685,-5.6961050247192375,2.8516438148498535
1788861370385567200,9.000567138671874,-7.494150471496582,-5.959467207336425,2.664746447753906
1788861370395573500,9.010573486328125,-7.473051569366454,-6.030993981933594,2.4691700996398924
1788861370405579300,9.020579345703124,-7.466467514801025,-5.946897648620605,2.609380534362793
1788861370415586300,9.03058642578125,-7.505373291778564,-5.7326166000366205,2.9970915657043453
1788861370425592000,9.040592041015625,-7.353042211151123,-5.608866301727295,3.25596462020874
1788861370435598300,9.050598388671874,-7.048679325103759,-5.638195272064209,3.411138815307617
1788861370445604400,9.060604248046875,-6.892308029174805,-5.913378825378418,3.435380107116699
1788861370455610400,9.0706103515625,-6.829160960388183,-6.4083800186157225,3.3143232856750484
1788861370465616100,9.0806162109375,-6.770503019714355,-6.9354036590576165,3.0916625312805173
1788861370475623400,9.09062353515625,-6.779630913543701,-7.523329804229736,3.005171996307373
1788861370485629400,9.10062939453125,-6.783820766448974,-8.115445802307129,3.087622315979004
1788861370495635200,9.11063525390625,-6.580612900543213,-8.639626328277588,3.3048961166381834
1788861370505641200,9.12064111328125,-6.451475648498535,-8.91825154647827,3.3966239677429195
1788861370515647200,9.130647216796875,-6.757334910583496,-9.114576082611084,3.2486323776245114
1788861370525653200,9.1406533203125,-7.090278578948975,-9.357138638305663,2.977040126800537
1788861370535660300,9.150660400390626,-7.320271575927734,-9.579051204681395,2.7742811737060546
1788861370545666300,9.160666259765625,-7.707533694458007,-9.73587141342163,2.765602192687988
1788861370555672000,9.170672119140624,-8.086865019989013,-9.97873324432373,3.057545157623291
1788861370565678300,9.18067822265625,-8.225279803466796,-10.367342101287841,3.555239827728271
1788861370575684400,9.190684326171874,-8.163479473114013,-10.734253505706786,3.910928411865234
1788861370585690400,9.2006904296875,-8.040178087615967,-10.891073714447021,4.093486288452148
1788861370595697200,9.210697265625,-7.8639049903869624,-10.638934352111816,4.114285915374755
1788861370605703400,9.220703369140624,-7.397783854675293,-9.96002854385376,3.9438486846923824
1788861370615709200,9.230709228515625,-6.6510922119140625,-9.12415288925171,3.603273498535156
1788861370625716200,9.24071630859375,-5.920411792755127,-8.596231423187255,3.334524362182617
1788861370635722200,9.25072216796875,-5.62472788772583,-8.469039459991455,3.3165678497314452
1788861370645729300,9.260729248046875,-5.861753852081298,-8.867973311614989,3.591003215026855
1788861370655735300,9.2707353515625,-6.271611248779297,-9.523834928894042,3.986196126556396
1788861370665741300,9.2807412109375,-6.834847189331055,-9.98456911087036,3.9546225921630858
1788861370675747000,9.2907470703125,-7.199514029693603,-10.149769025421142,3.5883097381591793
1788861370685753000,9.300753173828125,-7.237970893859863,-10.046070166015625,3.1398458396911617
1788861370695759400,9.31075927734375,-7.071124965667724,-9.726743519592285,2.569726569366455
1788861370705766100,9.32076611328125,-6.683114659118652,-9.313594095611572,2.03671742477417
1788861370715772200,9.330772216796875,-6.125116034698486,-9.003993893432616,1.8391957878112792
1788861370725778200,9.340778076171874,-5.660341637420654,-8.838793978881835,1.9225439331054686
1788861370735784200,9.3507841796875,-5.606023187255859,-8.734197293853759,2.1369746192932126
1788861370745790200,9.360790283203125,-5.597643481445312,-8.78507407913208,2.503886023712158
1788861370755797200,9.37079736328125,-5.382464607238769,-8.936956246948242,3.0240263343811034
1788861370765803000,9.380802978515625,-5.296871897888184,-8.927828353118896,3.343652256011963
1788861370775809300,9.390809326171874,-5.269338578796386,-8.640673791503906,3.303100465393066
1788861370785815300,9.400815185546875,-5.30540124130249,-8.266729419708252,3.160944741821289
1788861370795821300,9.4108212890625,-5.543175393676758,-7.98077195892334,3.179948717498779
1788861370805827000,9.4208271484375,-5.979518646240234,-7.809137627410888,3.2740707702636715
1788861370815834400,9.43083447265625,-6.0799254783630365,-7.714716299438476,3.2625486747741697
1788861370825840000,9.440840087890624,-5.700145240020752,-7.604732660675048,3.24982947845459
1788861370835846100,9.45084619140625,-5.213523752593994,-7.426514274597167,3.398269981384277
1788861370845852200,9.46085205078125,-5.064783974456787,-7.208941198730468,3.7473745109558103
1788861370855858200,9.470858154296875,-5.410446839141845,-7.017704341125488,4.1751884201049805
1788861370865864200,9.4808642578125,-6.144568923187255,-6.783222216033935,4.615422250366211
1788861370875871200,9.490871337890624,-6.968323931884766,-6.502950984191894,4.84571452255249
1788861370885877200,9.500877197265625,-7.314585346984863,-6.358550696563721,4.843170683288574
1788861370895883000,9.510883056640624,-7.288548403930664,-6.395211909484863,4.6903906898498535
1788861370905889300,9.52088916015625,-7.274482469177245,-6.501005695343017,4.592677334594726
1788861370915895300,9.530895263671875,-7.2152259780883785,-6.497564030456543,4.6055461685180665
1788861370925902000,9.540902099609376,-7.160608252716064,-6.317849268341064,4.584596903991699
1788861370935908000,9.550908203125,-7.39913059310913,-6.074239249420166,4.582202702331543
1788861370945914400,9.560914306640624,-7.500734526062011,-6.026205578613281,4.572775533294678
1788861370955920100,9.570920166015625,-7.12484486541748,-6.233603297424316,4.486284998321533
1788861370965926100,9.580926025390625,-6.800131265258789,-6.39087241897583,4.343231449127197
1788861370975932200,9.59093212890625,-6.674286040496826,-6.334010129547119,4.166958351898193
1788861370985939200,9.600939208984375,-6.776638161468505,-5.921459255981445,3.97751714553833
1788861370995945200,9.6109453125,-7.251288640594482,-5.394285977935791,3.853467572021484
1788861371005951200,9.620951171875,-7.371447636413574,-5.052962603759766,3.702183954620361
1788861371015957000,9.63095703125,-7.18200643005371,-4.879382983398437,3.5845687980651855
1788861371025963000,9.640962890625,-7.215674890899658,-4.822819969177246,3.7856817375183103
1788861371035969300,9.65096923828125,-7.416039642333984,-4.769399344635009,4.097526503753662
1788861371045976000,9.66097607421875,-7.471405555725097,-4.7110406791687005,4.346822751617432
1788861371055982000,9.670982177734375,-7.850287968444824,-4.573822996520996,4.48823028717041
1788861371065988400,9.68098828125,-8.192060255432128,-4.555417571258545,4.37300933227539
1788861371075994400,9.690994384765625,-8.084321180725096,-4.533720118713378,3.858854525756836
1788861371086000000,9.701000244140625,-7.720701803588867,-4.24566773147583,3.2071827613830566
1788861371096007200,9.711007080078126,-7.306654553985595,-3.9299323875427246,2.6515783386230467
1788861371106013200,9.72101318359375,-6.685808135986328,-3.784035723876953,2.246658982849121
1788861371116019200,9.731019287109374,-6.438307539367675,-3.6749499107360837,1.8881272842407226
1788861371126025200,9.741025146484375,-6.969670670318603,-3.56900648727417,1.8031331253051757
1788861371136031200,9.75103125,-7.202656419372558,-3.5899557518005367,1.8561048370361326
1788861371146037000,9.761037109375,-7.325059979248047,-3.704877431488037,1.8983026412963866
1788861371156044300,9.771044189453125,-7.780856120300292,-3.615693419647217,2.0204069259643553
1788861371166050300,9.78105029296875,-8.10123022994995,-3.568258299255371,2.1134815155029294
1788861371176056000,9.79105615234375,-8.196549383544921,-3.7132571372985836,2.01112939453125
1788861371186062000,9.80106201171875,-7.798962270355224,-3.6733038970947263,1.6940473121643065
1788861371196068400,9.811068359375,-7.374440388488769,-3.2481834648132324,1.48111300201416
1788861371206075100,9.8210751953125,-7.521384515380859,-2.533963182067871,1.4686930809020995
1788861371216081200,9.8310810546875,-8.44045867767334,-1.8471265808105468,1.599177071380615
1788861371226087200,9.841087158203125,-8.680178118896483,-1.1777975791931152,1.7076643341064452
1788861371236093200,9.85109326171875,-7.39957950592041,-0.8397662322998046,1.641973426055908
1788861371246099200,9.86109912109375,-6.9153522201538085,-0.9784802909851074,1.9141642272949217
1788861371256105200,9.871105224609375,-7.277624858856201,-1.4859014053344726,2.673126153564453
1788861371266112000,9.881112060546876,-7.110629293060303,-2.2405238410949706,2.4699182876586914
1788861371276118300,9.8911181640625,-6.70989979019165,-2.5471312911987303,1.1031284149169922
1788861371286124300,9.901124267578124,-7.243357847595214,-2.4576480041503905,0.09292495193481445
1788861371296130300,9.91113037109375,-7.835773120880127,-2.2499510101318356,-0.25258827514648435
1788861371306136000,9.921135986328125,-7.780107932281494,-1.834856297302246,-0.17687164764404295
1788861371316142000,9.93114208984375,-7.992593329620361,-1.46839380569458,0.7598597518920898
1788861371326149000,9.941149169921875,-8.051999458312988,-1.4942811111450194,1.9499276145935058
1788861371336155100,9.951155029296874,-7.379079154205322,-1.6301520553588866,2.443432431793213
1788861371346161200,9.9611611328125,-6.787412068939209,-1.445349614715576,2.3678654418945313
1788861371356167200,9.971167236328125,-6.766762079620361,-1.2521674682617188,2.0790648666381837
1788861371366173200,9.981173095703125,-6.673238577270507,-1.3028946159362793,1.760785683441162
1788861371376180200,9.99118017578125,-6.876895355987548,-1.5219640678405761,1.4806640892028808
1788861371386186200,10.001186279296874,-6.880935571289062,-1.6877625328063963,1.1818377944946288
1788861371396192000,10.01119189453125,-6.66515814666748,-1.7405846069335937,0.9419687156677246
1788861371406198300,10.0211982421875,-6.833949363708496,-1.765274811553955,1.1031284149169922
1788861371416204300,10.031204345703125,-6.884975786590576,-1.8918682243347167,1.5963339569091797
1788861371426211000,10.041211181640625,-6.743717888641357,-2.0593127029418943,2.0684405967712403
1788861371436217000,10.051217041015626,-6.52464843673706,-2.2553379638671873,2.4830863967895507
1788861371446223400,10.061223388671875,-6.470180348968506,-2.507327688598633,2.8089970977783203
1788861371456229000,10.07122900390625,-6.475417665100097,-2.888903578186035,2.969408609008789
1788861371466235100,10.081235107421875,-6.450428185272217,-3.38345585861206,2.9044658889770507
1788861371476241200,10.0912412109375,-6.955754373168945,-3.913023338317871,2.654571090698242
1788861371486248200,10.101248291015626,-7.520037776947021,-4.521599472808838,2.3295582153320313
1788861371496254200,10.111254150390625,-7.6196964210510245,-4.969764096069335,2.0905869621276856
1788861371506260200,10.12126025390625,-7.511209158325195,-5.176862539672851,2.1320365783691404
1788861371516266000,10.131265869140625,-7.6765587104797355,-5.243451273345947,2.364723052215576
1788861371526272300,10.141272216796875,-7.6997525390625,-5.3676504844665525,2.7082909904479977
1788861371536278300,10.1512783203125,-7.631817066955566,-5.57998624420166,3.1591490905761717
1788861371546285000,10.16128515625,-7.403918996429443,-5.8545712471008295,3.569605037689209
1788861371556291000,10.171291015625,-6.9998974662780755,-6.247070681762695,3.707271633148193
1788861371566297300,10.18129736328125,-6.88871672668457,-6.63986939163208,3.503165941619873
1788861371576303400,10.191303466796874,-7.007379346466064,-7.031620638275146,3.1995512435913085
1788861371586309000,10.20130908203125,-7.268796240234375,-7.405116097259521,3.011606413269043
1788861371596316200,10.211316162109375,-7.41828420639038,-7.613112366485595,3.068319065093994
1788861371606322200,10.221322265625,-7.4895117057800284,-7.6747630592346185,3.4358290199279784
1788861371616328200,10.231328125,-7.403769358825683,-7.819911534881592,4.001459162139892
1788861371626333400,10.24133349609375,-7.1775173019409175,-8.008155640411376,4.387524179840088
1788861371636339500,10.25133935546875,-7.062445984649658,-8.074445098876952,4.342782536315918
1788861371646346200,10.26134619140625,-7.052569902801514,-8.039130624389648,4.081964192962646
1788861371656352300,10.271352294921876,-7.2066966346740715,-7.992443692016601,3.871274446868896
1788861371666358500,10.281358642578125,-7.704540942382812,-8.175749756622315,3.801094410705566
1788861371676364500,10.291364501953124,-8.086266469573975,-8.732401642608641,3.933523690032959
1788861371686370300,10.301370361328125,-8.212111694335936,-9.610774376678465,4.278737641906738
1788861371696376300,10.311376220703124,-8.328230474853514,-10.401309837341309,4.478952755737304
1788861371706383400,10.32138330078125,-8.417414486694335,-10.904840373992919,4.490923764038086
1788861371716389400,10.331389404296875,-8.458714465332031,-11.123012000274658,4.420743727874756
1788861371726395400,10.3413955078125,-8.33182177734375,-10.97472113494873,4.158129733276367
1788861371736401400,10.3514013671875,-7.634061631011963,-10.48914711074829,3.7714661651611325
1788861371746407400,10.361407470703124,-6.629843672180176,-9.9461122467041,3.6632781776428223
1788861371756414500,10.37141455078125,-6.1194298057556145,-9.45574981918335,3.637540509796142
1788861371766420500,10.38142041015625,-6.082170042419433,-9.09048442840576,3.421314172363281
1788861371776426200,10.39142626953125,-5.895123037719726,-8.897900832366943,3.2300773147583004
1788861371786432500,10.4014326171875,-5.602880797576904,-8.774449809265136,3.0569466072082516
1788861371796438500,10.4114384765625,-5.6015340591430665,-8.722226285552978,2.8386253433227537
1788861371806444300,10.4214443359375,-6.015132395935058,-8.70127702102661,2.6850971618652344
1788861371816451300,10.431451416015625,-6.694038204193115,-8.649352772521972,2.717119609069824
1788861371826457600,10.44145751953125,-7.467066065216064,-8.577526722717284,2.926612254333496
1788861371836463400,10.45146337890625,-7.957278855133056,-8.62451293029785,3.1407436653137206
1788861371846469400,10.461469482421874,-8.020126648712157,-8.854655564880371,3.2020950828552244
1788861371856475400,10.471475341796875,-7.472453018951415,-9.075520668029785,3.1937153770446773
1788861371866482400,10.481482421875,-6.823325093841552,-9.184007930755614,3.1904233497619625
1788861371876488400,10.491488525390626,-6.245873580932617,-9.229797037506103,3.11560454788208
1788861371886494500,10.501494384765625,-5.644779326629639,-9.148992731475829,2.794332612609863
1788861371896500200,10.511500244140626,-4.735730883789063,-8.892364241027831,2.3603835617065427
1788861371906506200,10.52150634765625,-3.5482068603515624,-8.469189097595214,2.146252150726318
1788861371916513500,10.531513427734374,-3.084928839111328,-7.969848413848877,2.3024738090515133
1788861371926519300,10.541519287109375,-3.8236896888732907,-7.5716627502441405,2.661454420471191
1788861371936525300,10.551525390625,-4.8323967758178705,-7.267748777008056,3.2167595680236816
1788861371946531300,10.56153125,-5.647921716308593,-7.034314115142822,3.946542161560058
1788861371956537600,10.57153759765625,-6.452373474121093,-6.917746421813964,4.576815748596191
1788861371966543400,10.58154345703125,-7.138312249755859,-6.912958018493652,4.828356560516357
1788861371976550400,10.59155029296875,-7.765742722320557,-6.94602792892456,4.716277995300293
1788861371986556400,10.601556396484375,-8.266729419708252,-7.026832234954834,4.614823699951172
1788861371996562400,10.6115625,-8.304887008666991,-7.01635760269165,4.762067102050781
1788861372006568400,10.621568359375,-7.704989855194091,-6.858938843536377,4.93534744720459
1788861372016574500,10.631574462890624,-6.388178942108154,-6.7188780464172355,4.988169521331787
1788861372026581200,10.641581298828125,-5.483170714569091,-6.572682107543945,4.8415246696472165
1788861372036587500,10.65158740234375,-5.754463690185546,-6.451326010894775,4.5696331436157225
1788861372046593500,10.661593505859376,-6.574028845977783,-6.328623175811767,4.362983612823486
1788861372056599300,10.671599365234375,-7.004087319183349,-6.169857678222656,4.254645987701416
1788861372066605300,10.681605224609376,-7.324162153625488,-6.06466244277954,4.1177275802612305
1788861372076611300,10.691611328125,-7.372794374847412,-6.149506964111327,3.9405566574096675
1788861372086618400,10.701618408203124,-7.123498126983642,-6.210110193634033,3.8054339012145992
1788861372096624400,10.711624267578125,-6.940790612792968,-6.172850430297851,3.831171569061279
1788861372106630400,10.72163037109375,-7.11885936126709,-5.964854161071777,3.95821389465332
1788861372116636200,10.73163623046875,-7.3186255622863765,-5.577442404937744,3.948487450408935
1788861372126642400,10.741642333984375,-7.3460092437744136,-5.024830734252929,3.8404491004943844
1788861372136649500,10.7516494140625,-7.427262462615967,-4.451569074249267,3.7413890068054196
1788861372146655200,10.7616552734375,-6.9333087326049805,-4.304026396942138,3.5429695442199707
1788861372156661500,10.77166162109375,-6.541557485961913,-4.3065702362060545,3.360710942840576
1788861372166667500,10.78166748046875,-7.189338672637939,-4.186860153198242,3.458274660491943
1788861372176673500,10.791673583984375,-8.500912269592284,-4.20137500076294,3.7318122001647946
1788861372186680300,10.801680419921874,-9.143755415344238,-4.421940828704834,3.824737152099609
1788861372196686600,10.8116865234375,-8.425644554901123,-4.58998385772705,3.4862568923950192
1788861372206692400,10.8216923828125,-7.3100962188720695,-4.675875842285156,3.0316578521728514
1788861372216698400,10.831698486328126,-7.114819145965575,-4.598662838745117,2.9548937614440915
1788861372226704400,10.841704345703125,-7.363516843414306,-4.37944374923706,2.888753940582275
1788861372236710400,10.85171044921875,-7.632265979766845,-4.122964896392822,2.6556185539245605
1788861372246717400,10.861717529296875,-7.266701313781738,-3.716249889373779,2.3728034828186035
1788861372256723500,10.871723388671874,-7.3549875,-3.2932243835449215,2.157175695800781
1788861372266729500,10.8817294921875,-8.026561065673828,-2.7802666778564453,1.7465701110839842
1788861372276735200,10.8917353515625,-8.088211758422851,-2.2207716773986816,1.1348515869140625
1788861372286741500,10.901741455078126,-8.171559903717041,-1.9479823257446287,0.9979331794738769
1788861372296748300,10.911748291015625,-8.054692935180663,-1.8804957664489745,1.024119760131836
1788861372306754300,10.92175439453125,-7.677157260894775,-1.8583494010925292,0.9121908325195311
1788861372316760300,10.93176025390625,-7.266252400970458,-1.9197008186340332,0.9591770401000976
1788861372326766600,10.9417666015625,-6.292111600494384,-2.1627122871398923,1.2732663703918456
1788861372336772400,10.9517724609375,-5.518036276245117,-2.32387198638916,1.313219610595703
1788861372346779400,10.961779296875,-5.969941839599609,-2.2905028007507324,1.1900678627014158
1788861372356785400,10.971785400390624,-6.8314055244445795,-2.1568764205932616,1.246780514526367
1788861372366791400,10.98179150390625,-7.078756483459472,-1.862988166809082,1.2189479202270508
1788861372376797400,10.99179736328125,-7.179612228393554,-0.9285013313293456,0.743100340270996
1788861372386803500,11.001803466796876,-7.687182980346679,-0.2284966209411621,0.3890577697753906
1788861372396809200,11.011809326171875,-7.689577182006835,-0.6337152519226074,0.6625953094482422
1788861372406816500,11.02181640625,-7.554753701019287,-1.0537480056762694,1.16193599319458
1788861372416822500,11.031822509765625,-7.5059718421936035,-0.9567828384399414,1.154903025817871
1788861372426828300,11.041828369140624,-7.272836455535888,-0.4798877952575683,0.9894038360595703
1788861372436834300,11.051834228515625,-7.588571799468994,-0.47704468078613277,1.4730325714111328
1788861372446840300,11.06184033203125,-7.7121724601745605,-1.0631751747131346,2.3355437194824216
1788861372456847400,11.071847412109374,-7.345261055755615,-1.5770307060241697,2.6485855865478514
1788861372466853400,11.081853271484375,-7.398382405090332,-1.7181389663696287,2.43235924911499
1788861372476859400,11.091859375,-7.7964184310913085,-1.5837643981933593,2.2288521080017087
1788861372486865400,11.101865478515625,-7.409455587768554,-1.5987281585693358,2.375048046875
1788861372496871400,11.111871337890625,-6.503699172210693,-2.0932804389953614,2.6478373985290524
1788861372506878500,11.12187841796875,-6.153996092224121,-2.795080800628662,2.518101596069336
1788861372516884200,11.13188427734375,-6.1818286865234375,-3.390788101196289,1.9973627349853516
1788861372526890200,11.14189013671875,-6.428281819915771,-3.745878134918213,1.2970587493896484
1788861372536896500,11.151896484375,-7.095515895080566,-3.7969045578002927,0.896329246520996
1788861372546902500,11.161902587890625,-7.198017653656006,-3.780743696594238,1.1167454368591307
1788861372556908300,11.171908203125,-6.9445315528869624,-3.7497687126159667,1.659181750488281
1788861372566915600,11.18191552734375,-6.72291826171875,-3.748272336578369,2.288108599090576
1788861372576921300,11.19192138671875,-6.182277599334716,-3.9330747772216794,2.715323957824707
1788861372586927400,11.20192724609375,-5.766733973693848,-4.192696019744873,2.6625018836975096
1788861372596933400,11.211933349609374,-6.018274785614014,-4.365078539276123,2.37489840927124
1788861372606939400,11.221939453125,-6.36558366394043,-4.50094948348999,2.2571336151123047
1788861372616946400,11.231946533203125,-6.553977407073974,-4.559158511352539,2.388365793609619
1788861372626952400,11.241952392578124,-7.009174997711181,-4.613476961517334,2.614917125701904
1788861372636958500,11.25195849609375,-7.251438278198242,-4.875342768096924,2.843563384246826
1788861372646964200,11.261964111328124,-7.218667642974853,-5.494094259643554,3.0406361083984375
1788861372656970500,11.271970458984375,-7.3475056198120114,-6.417657550048828,3.365648983764648
1788861372666977300,11.281977294921875,-7.476642871856689,-7.503128727722167,3.8256349777221677
1788861372676983300,11.2919833984375,-7.472004106140136,-8.489539811706543,4.219481150817871
1788861372686989300,11.3019892578125,-7.4597338226318355,-9.272892667388916,4.332607179260254
1788861372696995600,11.31199560546875,-7.4676646156311035,-9.84405940093994,4.228459407043457
1788861372707001300,11.32200146484375,-7.377582778167724,-10.102633180236817,4.030039944458007
1788861372717008400,11.33200830078125,-7.368454884338378,-9.95942999343872,3.7158009765625
1788861372727014400,11.342014404296876,-7.5731591262817375,-9.343970529174804,3.4261025756835934
1788861372737020400,11.3520205078125,-7.78893655090332,-8.499116618347168,3.344250806427002
1788861372747026400,11.3620263671875,-8.069058145141602,-7.736413751983642,3.591152852630615
1788861372757032400,11.372032470703125,-8.35696089477539,-7.539041752624511,4.004003001403809
1788861372767038500,11.38203857421875,-8.317007654571533,-8.03748461074829,4.623053768157959
1788861372777045500,11.39204541015625,-7.904905693817138,-8.941295737457274,5.128679231262207
1788861372787051500,11.402051513671875,-7.517643575286865,-9.79408044128418,5.313332034301758
1788861372797057300,11.412057373046874,-7.692719571685791,-10.41941598739624,5.106532865905762
1788861372807063300,11.422063232421875,-8.13400086517334,-10.733804592895508,4.533420843505859
1788861372817069300,11.4320693359375,-8.193706269073486,-10.770615443420409,3.9092823982238767
1788861372827076400,11.442076416015626,-7.857320935821533,-10.605116253662109,3.427299676513672
1788861372837082400,11.452082275390625,-7.7210010787963865,-10.200945085906982,3.09016615524292
1788861372847088400,11.46208837890625,-7.373392925262451,-9.65970587310791,3.027467999267578
1788861372857094400,11.472094482421875,-6.553678131866454,-9.10440072555542,3.285293590545654
1788861372867100400,11.482100341796874,-6.081421854400634,-8.646958570861816,3.4370261207580564
1788861372877107500,11.492107421875,-6.064812080383301,-8.400804712677001,3.41547830581665
1788861372887113200,11.50211328125,-5.887641157531738,-8.364143499755858,3.4575264724731443
1788861372897119200,11.512119140625,-5.757606079864502,-8.378359072113037,3.3119290840148925
1788861372907125500,11.52212548828125,-5.699546689605713,-8.355763793945313,2.986018383026123
1788861372917131500,11.532131591796874,-5.678747062683105,-8.230367481994628,2.7328315574645994
1788861372927138300,11.54213818359375,-5.825242276763916,-8.060678439331054,2.5884312698364256
1788861372937144300,11.552144287109375,-6.057180562591553,-7.8821607780456535,2.6282348724365234
1788861372947150600,11.562150634765626,-6.3329626663208005,-7.813626755523681,2.9300539192199704
1788861372957156400,11.57215625,-6.749254479980468,-7.927500971984863,3.4727895080566404
1788861372967162400,11.582162353515624,-7.321618314361571,-8.118887467193604,4.122216708374023
1788861372977168400,11.59216845703125,-7.713818473815918,-8.406939854431151,4.809053309631348
1788861372987175400,11.602175537109375,-7.876624186706542,-8.713547304534911,5.283853426361084
1788861372997181400,11.612181396484376,-7.822754649353027,-9.00833338394165,5.326350505828857
1788861373007187500,11.6221875,-7.085939088439941,-9.04664061050415,4.975300687408447
1788861373017193200,11.632193115234376,-6.028749417877197,-8.728511064910888,4.355202457427978
1788861373027199500,11.642199462890625,-5.239411058044433,-8.257900801086425,3.6324528312683104
1788861373037206500,11.65220654296875,-4.90287608718872,-7.837868047332763,2.976591213989258
1788861373047212300,11.66221240234375,-4.884321024322509,-7.518391763305663,2.75168589553833
1788861373057218300,11.67221826171875,-5.419275457763671,-7.310694769287109,3.183988932800293
1788861373067224600,11.682224609375,-6.242581553649902,-7.236923430633545,4.043956241607666
1788861373077230300,11.692230224609375,-6.918195334625244,-7.049876425933838,4.7110406791687005
1788861373087237400,11.7022373046875,-7.375338214111328,-6.724713912963867,4.927267016601562
1788861373097243400,11.712243408203125,-7.398980955505371,-6.516867281341552,4.777779050445556
1788861373107249400,11.72224951171875,-7.372195824432373,-6.49307490234375,4.326172762298584
1788861373117255400,11.73225537109375,-7.390601249694824,-6.546794802093506,3.780893334197998
1788861373127261400,11.742261474609375,-6.730549779510498,-6.5689411674499505,3.256712808227539
1788861373137267500,11.752267333984374,-5.926696572113037,-6.525396624755859,2.956539775085449
1788861373147274500,11.7622744140625,-5.778704981994629,-6.382043800354004,3.014748802947998
1788861373157280500,11.772280517578125,-6.222829389953613,-6.178835934448242,3.2794577239990232
1788861373167286300,11.782286376953126,-6.649296560668945,-5.897367601776122,3.6559459350585937
1788861373177292300,11.792292236328125,-7.173776361846923,-5.597044931030273,4.076577239227294
1788861373187298300,11.80229833984375,-7.647529015350341,-5.474342095947265,4.278139091491699
1788861373197305300,11.812305419921875,-7.764844896697998,-5.560982268524169,4.142717060089111
1788861373207311400,11.822311279296875,-7.60368519744873,-5.597194568634033,3.9983167724609374
1788861373217317400,11.8323173828125,-7.1504328956604,-5.463568188476562,3.953126216125488
1788861373227323400,11.842323486328125,-6.769156281280517,-5.10129554977417,3.931578401184082
1788861373237329400,11.852329345703126,-6.828712047576904,-4.674678741455078,3.963002297973633
1788861373247336400,11.86233642578125,-7.167042669677734,-4.214243834686279,3.941753758239746
1788861373257342500,11.872342529296875,-7.390601249694824,-3.871872997283935,3.7110125732421873
1788861373267348200,11.88234814453125,-7.305158177947997,-3.6623803520202634,3.319261326599121
1788861373277354500,11.8923544921875,-7.086836914062499,-3.4587235733032227,2.8350340408325194
1788861373287360500,11.902360595703126,-6.917746421813964,-3.215113554382324,2.5252842010498044
1788861373297367300,11.9123671875,-6.632088236236572,-3.099144411468506,2.2828712829589843
1788861373307373300,11.922373291015624,-6.74805737915039,-3.1604958290100096,2.0082862800598145
1788861373317379600,11.932379638671875,-7.975385005187988,-3.180098355102539,1.9521721786499022
1788861373327385300,11.94238525390625,-8.773103070831299,-3.1260791801452634,1.9818004241943359
1788861373337391400,11.952391357421876,-8.73434693145752,-3.127725193786621,1.8854338073730468
1788861373347397400,11.9623974609375,-8.623914379882812,-3.12847338180542,1.6632219657897949
1788861373357404400,11.972404296875,-8.498817343139647,-3.0750527572631836,1.5812205589294432
1788861373367410400,11.982410400390625,-8.431330783843993,-2.9282582679748534,1.6310498809814453
1788861373377416400,11.99241650390625,-8.04361975250244,-2.70050983505249,1.5484499237060545
1788861373387422200,12.002422119140626,-7.825148851013183,-2.497002693939209,1.6454150909423828
1788861373397428500,12.012428466796875,-7.764844896697998,-2.3943512977600094,1.8637363548278807
1788861373407435500,12.022435546875,-7.216273441314697,-2.2756886779785157,1.779939296722412
1788861373417441300,12.032441162109375,-6.808959883880615,-2.111835501861572,1.490689808654785
1788861373427447300,12.042447265625,-6.646603083801269,-1.882141780090332,1.2075754623413084
1788861373437453600,12.05245361328125,-6.815543938446044,-1.5670049865722655,0.8602665840148925
1788861373447459600,12.06245947265625,-7.222558220672607,-1.2927192588806151,0.572663109588623
1788861373457466400,12.07246630859375,-7.5148004608154295,-1.2825439018249511,0.6655880615234374
1788861373467472400,12.082472412109375,-7.513902635192871,-1.4540285957336425,0.9832686943054199
1788861373477478400,12.092478515625,-7.312340782928467,-1.449838742828369,0.9864110839843749
1788861373487484400,12.102484375,-6.890512377929687,-1.2216413970947264,0.9814730430603027
1788861373497490400,12.112490478515625,-6.497115117645263,-1.1288660827636718,1.1372457885742187
1788861373507497200,12.122497314453126,-6.778433812713622,-1.0191817192077637,1.214907704925537
1788861373517503500,12.13250341796875,-7.193229250335693,-0.7625532287597656,1.3670891479492187
1788861373527509500,12.142509521484374,-7.126939791870117,-0.6995557975769042,1.6552911727905273
1788861373537515500,12.152515625,-6.935852571868896,-0.5978022270202636,1.7464204734802244
1788861373547521300,12.162521240234375,-6.583605652618408,-0.6227917068481444,1.9000982925415038
1788861373557527300,12.17252734375,-6.278793853759765,-1.0054150596618652,2.0772692153930663
1788861373567534300,12.182534423828125,-6.179733760070801,-1.357362703704834,1.9107225624084472
1788861373577540400,12.192540283203124,-6.1261634979248045,-1.6129437309265136,1.4722843833923338
1788861373587546400,12.20254638671875,-6.191405493164062,-1.9871873779296874,1.2196961082458495
1788861373597552400,12.212552490234375,-6.724115362548828,-2.3508067550659177,1.1739070014953612
1788861373607558400,12.222558349609375,-7.398083129882812,-2.7198130859375,1.39821376953125
1788861373617565400,12.2325654296875,-7.783399959564209,-3.23681100692749,2.034622498321533
1788861373627571200,12.2425712890625,-7.6951137733459465,-4.013430170440674,2.6262895835876465
1788861373637577000,12.252576904296875,-7.438335645294189,-4.784512742614746,2.8089970977783203
1788861373647583200,12.262583251953124,-7.070975328063964,-5.3384711517333985,2.8942905319213867
1788861373657589200,12.27258935546875,-6.635978813934326,-5.642534762573242,3.166032420349121
1788861373667596000,12.282595947265625,-6.4543187629699705,-5.678148512268066,3.282151200866699
1788861373677602000,12.29260205078125,-6.781426564788818,-5.571157625579834,3.0819360870361328
1788861373687608300,12.3026083984375,-7.066486199951171,-5.377376928710937,2.79627790145874
1788861373697614000,12.312614013671874,-7.200411855316162,-5.146336468505859,2.675819630432129
1788861373707620000,12.3226201171875,-7.274332831573486,-5.200206005859375,2.914341970825195
1788861373717627100,12.332627197265625,-7.230638651275634,-5.699995602416992,3.3258453811645508
1788861373727633200,12.342633056640626,-7.098209371948242,-6.375908658599853,3.4644098022460934
1788861373737639200,12.35263916015625,-6.726060651397705,-7.1118263938903805,3.4983775382995606
1788861373747645200,12.362645263671874,-6.388178942108154,-7.724293106079101,3.5884593757629393
1788861373757651200,12.372651123046875,-6.528239739227295,-8.17904178390503,3.7027825050354
1788861373767658200,12.382658203125,-6.8596870315551755,-8.549694128417968,3.7829882606506344
1788861373777664300,12.392664306640626,-6.9427359016418455,-8.979303688812255,3.790470140838623
1788861373787670000,12.402669921875,-7.025784771728516,-9.2190231300354,3.659537237548828
1788861373797676000,12.412676025390626,-7.250091539764404,-9.222165519714355,3.4190696083068848
1788861373807682000,12.42268212890625,-7.382371181488037,-9.100809423065185,3.2685341789245603
1788861373817688300,12.432688232421874,-7.516446474456787,-8.914660243988036,3.324947555541992
1788861373827695000,12.442695068359376,-7.800757921600342,-8.734496569061278,3.4579753852844237
1788861373837701000,12.452701171875,-7.931690824890136,-8.744223013305664,3.6828807037353513
1788861373847707100,12.46270703125,-7.898770552062988,-9.025990621185302,3.933972602844238
1788861373857713200,12.472713134765625,-7.9773302940368644,-9.360430665588378,4.104409833526611
1788861373867719200,12.48271923828125,-8.03808316116333,-9.637409870147705,4.1952398590087885
1788861373877726000,12.492725830078125,-8.129212461853028,-9.798868844604492,4.217086949157714
1788861373887732000,12.50273193359375,-8.166921138000488,-9.898078575897216,4.19479094619751
1788861373897738200,12.51273828125,-7.868244480895996,-9.85109236831665,4.0243537155151365
1788861373907744300,12.522744140625,-7.31682991104126,-9.769539874267577,3.9372646301269527
1788861373917750000,12.53275,-6.870012026214599,-9.650877254486083,3.8423943893432613
1788861373927757300,12.54275732421875,-6.581810001373291,-9.484031326293945,3.824587514495849
1788861373937763300,12.552763427734375,-6.731297967529296,-9.2963857711792,3.877110313415527
1788861373947769000,12.56276904296875,-7.039252156066894,-9.053972853088379,3.896263926696777
1788861373957775000,12.572775146484375,-7.110330017852783,-8.82338130569458,3.984999025726318
1788861373967781000,12.582781005859376,-7.004685869598388,-8.617779238128662,3.8859389320373534
1788861373977788200,12.5927880859375,-6.784568954467773,-8.49717132949829,3.550301786804199
1788861373987794200,12.602794189453125,-6.427982544708252,-8.412775720977782,3.277213159942627
1788861373997800200,12.61280029296875,-6.196193896484375,-8.371176467132567,3.14747735748291
1788861374007806000,12.622805908203125,-6.204124689483642,-8.33690945587158,3.018340105438232
1788861374017812200,12.632812255859376,-6.251410172271728,-8.32523772277832,2.7898434844970703
1788861374027819300,12.6428193359375,-6.19260259399414,-8.42070651397705,2.6110265480041503
1788861374037825000,12.652824951171874,-5.981015022277831,-8.615085761260985,2.673575066375732
1788861374047831000,12.6628310546875,-5.750573112487793,-8.75230344390869,2.94980608291626
1788861374057837300,12.67283740234375,-5.558139154052734,-8.68332050857544,3.035099517059326
1788861374067843000,12.682843017578126,-5.491101507568359,-8.473528588104248,2.9966426528930663
1788861374077849000,12.69284912109375,-5.534197137451171,-8.205826914978028,3.196408853912353
1788861374087856000,12.702856201171874,-5.67575431060791,-7.888894470214844,3.8256349777221677
1788861374097862100,12.712862060546875,-6.148908413696288,-7.498639599609374,4.693533079528808
1788861374107868200,12.7228681640625,-6.8782420944213865,-7.198017653656006,5.384559533691406
1788861374117874200,12.732874267578126,-7.5457754447937,-7.0753148185729975,5.6857800300598145
1788861374127880200,12.742880126953125,-7.756315553283691,-7.230788288879394,5.647023890686035
1788861374137887200,12.75288720703125,-7.296479196929932,-7.362319742584228,5.397428367614745
1788861374147893200,12.762893310546875,-6.5571197967529296,-7.3557356880187985,5.0100166114807125
1788861374157899300,12.772899169921875,-6.202329038238525,-7.232583940124512,4.454561826324463
1788861374167905000,12.782905029296876,-6.386383290863037,-7.081898873138427,3.95192911529541
1788861374177911000,12.7929111328125,-6.641066492462158,-6.92672467803955,3.703530693054199
1788861374187918000,12.80291796875,-6.830358061218261,-6.674435678100585,3.636493046569824
