time,seconds_elapsed,z,y,x
1789635441448537900,0.041537841796875,-0.6020688414573669,-0.5980823040008545,1.1528704166412354
1789635441458578000,0.051577880859375,-0.5787070393562317,-0.5764198899269104,1.2380199432373047
1789635441468618000,0.061617919921875,-0.5044594407081604,-0.5473906397819519,1.2826870679855347
1789635441478658000,0.071657958984375,-0.46712350845336914,-0.5782257914543152,1.245848298072815
1789635441488696800,0.08169677734375,-0.4754975438117981,-0.6588548421859741,1.1411552429199219
1789635441498737000,0.09173681640625,-0.4702058434486389,-0.7362223267555237,0.9954603314399719
1789635441508777000,0.10177685546875,-0.4494694173336029,-0.7435585856437683,0.762268602848053
1789635441518817000,0.111817138671875,-0.372501403093338,-0.440566748380661,0.39282530546188354
1789635441528857000,0.121857177734375,-0.13382437825202942,0.09324845671653748,-0.024586303159594536
1789635441538897000,0.13189697265625,0.14848801493644714,0.5506788492202759,-0.4399222433567047
1789635441548937000,0.14193701171875,0.34069526195526123,0.6068108081817627,-0.7344961166381836
1789635441558976800,0.151976806640625,0.4486424922943115,0.32825005054473877,-0.7803562879562378
1789635441569016800,0.162016845703125,0.563520073890686,-0.0487973652780056,-0.590192437171936
1789635441579057000,0.172056884765625,0.868446409702301,-0.5384224653244019,-0.28738996386528015
1789635441589096000,0.182095947265625,1.2459518909454346,-1.3730579614639282,-0.017857560887932777
1789635441599136000,0.192135986328125,1.4657212495803833,-2.4672231674194336,0.21503214538097382
1789635441609175800,0.20217578125,1.4768905639648438,-3.746727705001831,0.47625628113746643
1789635441619216000,0.2122158203125,1.4513013362884521,-4.961739540100098,0.7130531072616577
1789635441629256000,0.222255859375,1.6297481060028076,-5.765092849731445,0.8709729909896851
1789635441639295700,0.232295654296875,2.0173709392547607,-6.048282146453857,0.9419994950294495
1789635441649335800,0.242335693359375,2.6918318271636963,-5.884854316711426,1.1085807085037231
1789635441659375900,0.2523759765625,3.278099536895752,-5.599699020385742,1.2866545915603638
1789635441669416000,0.262416015625,3.5470943450927734,-5.6027750968933105,1.3539851903915405
1789635441679456000,0.2724560546875,3.6287779808044434,-5.7806010246276855,1.4424381256103516
1789635441689494800,0.282494873046875,3.692584991455078,-5.976673126220703,1.6799675226211548
1789635441699534800,0.292534912109375,3.7494451999664307,-6.127205848693848,2.061490774154663
1789635441709575000,0.302574951171875,3.756685733795166,-6.348069667816162,2.443469524383545
1789635441719615000,0.312614990234375,3.6202545166015625,-6.792191982269287,2.6473388671875
1789635441729654800,0.32265478515625,3.3869779109954834,-7.080307483673096,2.6633691787719727
1789635441739694800,0.33269482421875,3.3904449939727783,-7.00426721572876,2.697031259536743
1789635441749735000,0.34273486328125,3.6653027534484863,-6.737245559692383,2.897413730621338
1789635441759775000,0.35277490234375,3.9123971462249756,-6.508585453033447,3.156363010406494
1789635441769815000,0.36281494140625,3.9279398918151855,-6.498254776000977,3.3539576530456543
1789635441779853800,0.372853759765625,3.745091199874878,-6.6464457511901855,3.4998116493225098
1789635441789894000,0.382893798828125,3.501413583755493,-6.562808990478516,3.630669116973877
1789635441799934000,0.392933837890625,3.2761342525482178,-6.083693027496338,3.8382866382598877
1789635441809974000,0.40297412109375,3.044735908508301,-5.468972206115723,4.117842674255371
1789635441820014000,0.41301416015625,2.866318464279175,-4.894020080566406,4.361158847808838
1789635441830054000,0.423053955078125,2.6823017597198486,-4.257538795471191,4.488702774047852
1789635441840094000,0.433093994140625,2.297244071960449,-3.8610098361968994,4.539453983306885
1789635441850134000,0.443134033203125,1.8198671340942383,-3.656428813934326,4.4591522216796875
1789635441860173800,0.453173828125,1.5671682357788086,-3.4481823444366455,4.173777103424072
1789635441870214000,0.4632138671875,1.5323165655136108,-2.9011714458465576,3.7132534980773926
1789635441880253000,0.4732529296875,1.589834213256836,-1.9583605527877808,3.210879325866699
1789635441890293000,0.48329296875,1.668221354484558,-0.8052394986152649,2.8222477436065674
1789635441900332800,0.493332763671875,1.623094916343689,0.11740652471780777,2.554373264312744
1789635441910372900,0.503372802734375,1.600008487701416,0.34018421173095703,2.3615219593048096
1789635441920412700,0.51341259765625,1.6687260866165161,-0.20080740749835968,2.356048107147217
1789635441930452700,0.52345263671875,1.7998793125152588,-1.5939104557037354,2.4499497413635254
1789635441940492800,0.533492919921875,1.7699674367904663,-2.9106953144073486,1.3848624229431152
1789635441950532900,0.543532958984375,1.5392154455184937,-2.8989124298095703,-0.8797731399536133
1789635441960573000,0.553572998046875,1.7527544498443604,-0.4740898013114929,-2.454700469970703
1789635441970613000,0.563613037109375,2.111010789871216,2.019895553588867,-2.0645673274993896
1789635441980651800,0.57365185546875,2.365926742553711,1.9741206169128418,-1.5781689882278442
1789635441990691800,0.58369189453125,2.8172554969787598,0.8222025036811829,-1.1867681741714478
1789635442000732000,0.59373193359375,3.6405088901519775,-0.6533415913581848,-0.7088128328323364
1789635442010772000,0.60377197265625,4.10999059677124,-1.8662748336791992,-0.2484510838985443
1789635442020811800,0.613811767578125,4.296663284301758,-1.6768311262130737,0.11693407595157623
1789635442030851800,0.623851806640625,4.154264450073242,-0.8698049187660217,0.23066356778144836
1789635442040892000,0.633891845703125,3.63157057762146,0.013736585155129433,0.5182207822799683
1789635442050932000,0.643931884765625,3.0610098838806152,1.013037919998169,0.8187425136566162
1789635442060972000,0.653971923828125,2.6859889030456543,1.1952568292617798,0.047442082315683365
1789635442071010800,0.6640107421875,3.2627742290496826,0.9776576161384583,-0.5692480206489563
1789635442081051000,0.67405078125,4.783328533172607,0.09767862409353256,-0.4028712809085846
1789635442091091000,0.684091064453125,3.3709423542022705,-2.667768716812134,1.2159287929534912
1789635442101131000,0.694131103515625,2.7797930240631104,-2.589883327484131,1.3160796165466309
1789635442111171000,0.704171142578125,2.760345697402954,-1.8264509439468384,0.7279353737831116
1789635442121211000,0.7142109375,2.509477138519287,-1.3943568468093872,-0.057324010878801346
1789635442131251000,0.7242509765625,2.1702661514282227,-1.1711090803146362,-0.37816914916038513
1789635442141291000,0.734291015625,1.036774754524231,-1.582948088645935,-0.6000106930732727
1789635442151331000,0.7443310546875,0.05434579774737358,-1.6313621997833252,-0.484317421913147
1789635442161371000,0.754370849609375,-0.6810222268104553,-1.0542300939559937,-0.0054672034457325935
1789635442171410000,0.764409912109375,-0.20756730437278748,-0.6041455268859863,0.1028563380241394
1789635442181450000,0.774449951171875,0.372769832611084,-0.33776524662971497,0.16713200509548187
1789635442191490000,0.784489990234375,0.5211662650108337,-0.5536256432533264,0.05485845357179642
1789635442201529900,0.79452978515625,0.27535513043403625,-0.7067837715148926,0.15395841002464294
1789635442211569700,0.804569580078125,0.3997972011566162,-0.6457251906394958,0.21588116884231567
1789635442221609500,0.814609375,0.9547179341316223,-0.4749974012374878,-0.043289151042699814
1789635442231649300,0.824649169921875,1.3778876066207886,-0.3898676037788391,-0.3629741966724396
1789635442241689300,0.834689453125,1.3463318347930908,-0.6889573931694031,-0.4556295871734619
1789635442251729400,0.8447294921875,0.8162775039672852,-1.1732805967330933,0.1793694943189621
1789635442261769500,0.85476953125,0.4411962926387787,-1.794874668121338,0.8146708011627197
1789635442271808500,0.86480859375,0.5315831899642944,-1.8917332887649536,1.0407955646514893
1789635442281848300,0.874848388671875,0.7332170009613037,-1.4750897884368896,1.0362343788146973
1789635442291888400,0.884888427734375,0.745083212852478,-0.9327282309532166,0.6801398992538452
1789635442301928400,0.894928466796875,0.674015462398529,-0.4330286681652069,-0.004348143003880978
1789635442311968500,0.904968505859375,0.5463712215423584,-0.0017725999932736158,-0.6264460682868958
1789635442322008300,0.91500830078125,0.37636512517929077,0.20941047370433807,-0.7927995920181274
1789635442332048400,0.92504833984375,0.15840081870555878,0.30763664841651917,-0.46206003427505493
1789635442342088400,0.93508837890625,0.1277608871459961,0.355620414018631,-0.338167667388916
1789635442352128500,0.94512841796875,0.2887772023677826,0.5576398372650146,-0.5577253103256226
1789635442362167300,0.955167236328125,0.3345566689968109,0.7655472159385681,-0.6367216110229492
1789635442372207400,0.965207275390625,0.21921703219413757,0.9113348126411438,-0.42973431944847107
1789635442382247400,0.975247314453125,0.0647270679473877,1.0979148149490356,-0.47251296043395996
1789635442392287500,0.98528759765625,-0.11464881896972656,0.39370813965797424,-0.04710039868950844
1789635442402327600,0.99532763671875,-0.1422615349292755,-0.2078181803226471,0.01624980941414833
1789635442412367600,1.00536767578125,-0.10405556112527847,-0.6119478344917297,0.11244851350784302
1789635442422407400,1.015407470703125,-0.12699256837368011,-1.1482911109924316,0.25260668992996216
1789635442432447500,1.025447509765625,0.0014961638953536749,-1.304265022277832,0.31499868631362915
1789635442442487600,1.035487548828125,0.48503726720809937,-0.9554572105407715,0.2169719934463501
1789635442452526600,1.045526611328125,0.7266008853912354,-0.2055547535419464,0.04965277388691902
1789635442462566400,1.05556640625,0.6811559200286865,0.0443086102604866,-0.0645129457116127
1789635442472606500,1.0656064453125,0.5654674172401428,-0.26375120878219604,-0.06992342323064804
1789635442482646500,1.075646484375,0.38355323672294617,-0.4557693898677826,-0.04601622745394707
1789635442492686600,1.0856865234375,0.20944802463054657,-0.2093321830034256,-0.08757884800434113
1789635442502726700,1.0957265625,0.14817962050437927,0.14388367533683777,-0.16023440659046173
1789635442512766500,1.105766357421875,0.19085250794887543,0.3823082149028778,-0.17506049573421478
1789635442522806500,1.115806640625,0.07428941130638123,0.46585237979888916,-0.12021589279174805
1789635442532846300,1.125846435546875,-0.17892047762870789,0.5696661472320557,-0.11121679842472076
1789635442542886400,1.135886474609375,-0.0755687952041626,0.7152963280677795,-0.2794252634048462
1789635442552925700,1.14592578125,-0.09943711012601852,0.5877018570899963,-0.2747220993041992
1789635442562965500,1.155965576171875,-0.10794244706630707,0.551566481590271,-0.31361091136932373
1789635442573005300,1.16600537109375,-0.07791450619697571,0.5797531008720398,-0.3429866433143616
1789635442583045400,1.17604541015625,0.029467077925801277,0.398467481136322,-0.28772711753845215
1789635442593085400,1.18608544921875,0.13513997197151184,0.32766416668891907,-0.2439977526664734
1789635442603125500,1.19612548828125,0.1530340164899826,0.2523947060108185,-0.14752207696437836
1789635442613165300,1.206165283203125,0.09769193828105927,0.2748616635799408,-0.08383071422576904
1789635442623205400,1.216205322265625,0.21535012125968933,0.3304751217365265,-0.0359012745320797
1789635442633245400,1.226245361328125,0.5123184323310852,0.1902884542942047,0.047749944031238556
1789635442643284500,1.236284423828125,0.6401858329772949,0.11672502011060715,0.13695251941680908
1789635442653324300,1.24632421875,0.5232073068618774,0.06293289363384247,0.15286117792129517
1789635442663364400,1.2563642578125,0.32770276069641113,0.14083407819271088,0.03652205690741539
1789635442673404400,1.266404296875,0.13998159766197205,0.3165542483329773,-0.1351889818906784
1789635442683444500,1.276444580078125,-0.30032387375831604,0.5896891355514526,-0.24405767023563385
1789635442693484500,1.286484619140625,-0.5033286809921265,0.272160142660141,-0.26476719975471497
1789635442703524600,1.296524658203125,-0.6863767504692078,-0.11607414484024048,-0.39897242188453674
1789635442713564400,1.306564453125,-0.6448074579238892,0.09954763203859329,-0.28574758768081665
1789635442723604500,1.3166044921875,-0.2305607795715332,0.5855263471603394,-0.033423203974962234
1789635442733643500,1.3266435546875,-0.13062699139118195,0.5195185542106628,-0.045279331505298615
1789635442743683600,1.33668359375,0.0018096179701387882,0.2562059462070465,-0.18803727626800537
1789635442753723400,1.346723388671875,0.15464816987514496,-0.06637928634881973,-0.2600182592868805
1789635442763763500,1.356763427734375,0.344818651676178,-0.37425270676612854,-0.19825983047485352
1789635442773803500,1.366803466796875,0.5025323629379272,-0.4685927629470825,-0.1854707896709442
1789635442783843600,1.376843505859375,0.584892213344574,-0.27091723680496216,-0.22499530017375946
1789635442793883600,1.386883544921875,0.4241124093532562,-0.10174819827079773,-0.3017646372318268
1789635442803923500,1.39692333984375,0.19819298386573792,-0.04247289150953293,-0.3569147288799286
1789635442813963500,1.406963623046875,0.13336817920207977,-0.6365258693695068,-0.23327799141407013
1789635442824003600,1.417003662109375,0.06265166401863098,-1.6482346057891846,-0.26152294874191284
1789635442834042600,1.427042724609375,0.24479909241199493,-1.5728530883789062,-0.09319199621677399
1789635442844082700,1.437082763671875,0.571365237236023,-1.1938914060592651,-0.3129664361476898
1789635442854122500,1.44712255859375,0.9007332921028137,-0.994645893573761,-0.5972245335578918
1789635442864162600,1.45716259765625,0.906478762626648,-0.5447224378585815,-0.7623569965362549
1789635442874202400,1.467202392578125,0.8771259188652039,-0.39084500074386597,-0.637493908405304
1789635442884242400,1.477242431640625,0.4802635610103607,-0.14573243260383606,-0.3695274591445923
1789635442894282500,1.487282470703125,0.38235244154930115,-0.20736543834209442,-0.314264714717865
1789635442904322300,1.497322265625,0.2384120374917984,-0.4089600741863251,-0.43905511498451233
1789635442914362400,1.5073623046875,-0.15485642850399017,-0.5510967373847961,-0.5239665508270264
1789635442924401400,1.5174013671875,-0.1143002063035965,-0.44543179869651794,-0.6597739458084106
1789635442934441500,1.52744140625,-0.009355951100587845,-0.5345403552055359,-0.6155116558074951
1789635442944481300,1.537481201171875,0.09441598504781723,-0.9142970442771912,-0.3902745246887207
1789635442954521300,1.547521240234375,0.19475030899047852,-1.1688313484191895,-0.20431052148342133
1789635442964561400,1.5575615234375,0.4343021810054779,-1.352479100227356,-0.20866186916828156
1789635442974601500,1.5676015625,0.395327627658844,-1.3494902849197388,-0.42688819766044617
1789635442984641500,1.5776416015625,0.28705519437789917,-1.1144556999206543,-0.707499086856842
1789635442994681300,1.587681396484375,0.12362819910049438,-1.141020655632019,-0.8343942165374756
1789635443004721400,1.597721435546875,-0.2147517204284668,-1.1443758010864258,-0.7061872482299805
1789635443014760400,1.607760498046875,-0.022367889061570168,-0.825097918510437,-0.6816707253456116
1789635443024800500,1.617800537109375,0.07757415622472763,-1.0290377140045166,-0.706679105758667
1789635443034840600,1.627840576171875,0.27445366978645325,-0.878153383731842,-0.6960842609405518
1789635443044880400,1.63788037109375,0.40742048621177673,-0.6958248615264893,-0.8039262890815735
1789635443054920400,1.64792041015625,0.49506938457489014,-0.9516564011573792,-0.9301660060882568
1789635443064960500,1.65796044921875,0.5774018168449402,-1.1648149490356445,-0.9345897436141968
1789635443075000600,1.66800048828125,0.8051260709762573,-0.8571306467056274,-1.0861135721206665
1789635443085040600,1.67804052734375,0.8100297451019287,-0.47881051898002625,-1.2992122173309326
1789635443095080400,1.68808056640625,0.7285931706428528,-1.5109214782714844,-1.8600637912750244
1789635443105119500,1.698119384765625,0.7671427130699158,-0.8576042056083679,-0.8186943531036377
1789635443115159600,1.70815966796875,0.847069501876831,-0.34408172965049744,-0.750457763671875
1789635443125199600,1.71819970703125,0.8244954943656921,-0.11496759951114655,-0.8642325401306152
1789635443135239400,1.728239501953125,1.0069953203201294,-0.6411458849906921,-0.8032088279724121
1789635443145279500,1.738279541015625,1.0431159734725952,-1.3577183485031128,-0.38724571466445923
1789635443155319600,1.748319580078125,1.101020336151123,-1.4433486461639404,-0.27093270421028137
1789635443165359600,1.758359619140625,0.8954857587814331,-1.3668240308761597,-0.3917512595653534
1789635443175399400,1.7683994140625,0.8122467994689941,-1.6483800411224365,-0.3942969739437103
1789635443185439500,1.778439453125,0.7492406964302063,-0.9760024547576904,-0.6101464629173279
1789635443195479300,1.788479248046875,0.7226485013961792,-0.2875654697418213,-0.4210476279258728
1789635443205518600,1.7985185546875,0.6085573434829712,-0.33839136362075806,-0.3901120722293854
1789635443215558700,1.80855859375,0.3724593222141266,-0.6023582816123962,-0.2650018334388733
1789635443225598500,1.818598388671875,0.211188405752182,-0.7035520076751709,-0.114195816218853
1789635443235638500,1.828638427734375,0.15690305829048157,-0.7298829555511475,0.035298336297273636
1789635443245678300,1.83867822265625,0.08995092660188675,-0.8022698163986206,0.09878010302782059
1789635443255718400,1.848718505859375,0.022427277639508247,-0.8557758927345276,0.07397142797708511
1789635443265758500,1.858758544921875,-0.017256218940019608,-0.7724666595458984,-0.053709033876657486
1789635443275798500,1.868798583984375,0.03578756004571915,-0.7061691284179688,-0.2557412385940552
1789635443285838600,1.878838623046875,0.20919743180274963,-0.6096710562705994,-0.3890436291694641
1789635443295878400,1.88887841796875,0.3782610297203064,-0.540584146976471,-0.42088279128074646
1789635443305917400,1.89891748046875,0.459136962890625,-0.5544980764389038,-0.3916838765144348
1789635443315957500,1.90895751953125,0.41592317819595337,-0.38945242762565613,-0.30909207463264465
1789635443325997600,1.91899755859375,0.3552806079387665,-0.27496233582496643,-0.18891586363315582
1789635443336037600,1.92903759765625,0.3397842049598694,-0.4167277216911316,-0.05771389603614807
1789635443346077400,1.939077392578125,0.3320256173610687,-0.7396903038024902,-0.024987375363707542
1789635443356117500,1.949117431640625,0.33053529262542725,-1.0356199741363525,-0.018880214542150497
1789635443366157600,1.959157470703125,0.28271904587745667,-1.113378643989563,-0.047984037548303604
1789635443376197600,1.96919775390625,0.21987856924533844,-1.1061594486236572,-0.08606164902448654
1789635443386237700,1.97923779296875,0.16305896639823914,-0.9553259611129761,-0.14332599937915802
1789635443396277500,1.989277587890625,0.16957278549671173,-0.8384536504745483,-0.16577938199043274
1789635443406316500,1.999316650390625,0.24635784327983856,-0.8263064622879028,-0.15002119541168213
1789635443416356600,2.009356689453125,0.36117711663246155,-0.7393488883972168,-0.09319598972797394
1789635443426396700,2.019396728515625,0.4531587064266205,-0.6713736057281494,-0.05818421021103859
1789635443436436500,2.0294365234375,0.49843376874923706,-0.5611892938613892,-0.01549533661454916
1789635443446476500,2.0394765625,0.49350079894065857,-0.526911735534668,-0.016690297052264214
1789635443456516600,2.0495166015625,0.5544000864028931,-0.16815438866615295,-0.27402010560035706
1789635443466556700,2.059556640625,0.5848408341407776,-0.21989348530769348,-0.4852444529533386
1789635443476596500,2.069596435546875,0.44459661841392517,-0.5487054586410522,-0.4264373481273651
1789635443486636300,2.07963623046875,0.4490249454975128,-0.5544147491455078,-0.23425644636154175
1789635443496676400,2.08967626953125,0.484801322221756,-0.3745341897010803,-0.15278342366218567
1789635443506715600,2.099715576171875,0.4522966146469116,-0.15934304893016815,-0.1016552522778511
1789635443516755500,2.10975537109375,0.31597474217414856,-0.055871520191431046,0.003964381758123636
1789635443526795500,2.11979541015625,0.20883843302726746,-0.19548533856868744,0.15727856755256653
1789635443536835300,2.12983544921875,0.1661040186882019,-0.17446501553058624,0.29752489924430847
1789635443546875400,2.13987548828125,0.1916450709104538,-0.1867794692516327,0.3834584355354309
1789635443556915500,2.14991552734375,0.09204976260662079,-0.2476593255996704,0.36036378145217896
1789635443566955500,2.15995556640625,0.005376656074076891,-0.13696850836277008,0.389954149723053
1789635443576995600,2.16999560546875,-0.18365691602230072,-0.016704412177205086,0.4685046374797821
1789635443587035400,2.180035400390625,-0.42256882786750793,0.3640762269496918,0.6381349563598633
1789635443597075500,2.190075439453125,-0.8086826801300049,0.9129624962806702,0.8891189694404602
1789635443607114500,2.200114501953125,-1.2049623727798462,1.4287230968475342,1.0983179807662964
1789635443617154600,2.210154541015625,-1.0632609128952026,1.3625714778900146,0.9472438097000122
1789635443627194400,2.2201943359375,-0.6590942740440369,0.782143771648407,0.5221553444862366
1789635443637234400,2.230234375,-0.27391037344932556,0.041609495878219604,0.12872815132141113
1789635443647274500,2.2402744140625,-0.05031350255012512,-0.3707199990749359,-0.05884440988302231
1789635443657314600,2.250314453125,-0.16036356985569,-0.41155293583869934,-0.05463341623544693
1789635443667354600,2.260354736328125,-0.27791842818260193,-0.4051078259944916,-0.030533941462635994
1789635443677394700,2.270394775390625,-0.23796328902244568,-0.34853002429008484,0.07103502750396729
1789635443687434500,2.2804345703125,-0.1549895852804184,-0.23873135447502136,0.21676427125930786
1789635443697474600,2.290474609375,-0.14712446928024292,-0.18060946464538574,0.2632122039794922
1789635443707513600,2.300513671875,-0.14413240551948547,-0.18656401336193085,0.18605002760887146
1789635443717553700,2.3105537109375,-0.15497733652591705,-0.22117765247821808,0.03570633381605148
1789635443727593500,2.320593505859375,-0.1643388718366623,-0.3763970732688904,-0.08080057054758072
1789635443737633500,2.330633544921875,-0.1573275774717331,-0.5071026086807251,-0.14709757268428802
1789635443747673600,2.340673583984375,-0.1454397588968277,-0.5978290438652039,-0.11604537814855576
1789635443757713700,2.350713623046875,-0.11192094534635544,-0.547903835773468,-0.05345310643315315
1789635443767753700,2.360753662109375,-0.14551618695259094,-0.4029676914215088,-0.012046276591718197
1789635443777793300,2.370793212890625,-0.18615922331809998,-0.4426591694355011,0.0633973479270935
1789635443787833300,2.380833251953125,-0.20144523680210114,-0.35208213329315186,0.05808434262871742
1789635443797872600,2.39087255859375,-0.11584804207086563,-0.2932465374469757,-0.0034112429711967707
1789635443807912700,2.40091259765625,-0.056537047028541565,-0.203343003988266,-0.11145994812250137
1789635443817952500,2.410952392578125,-0.015271631069481373,-0.17986351251602173,-0.27128636837005615
1789635443827992300,2.420992431640625,-0.04566096141934395,-0.2783224284648895,-0.38425979018211365
1789635443838032400,2.431032470703125,-0.08619027584791183,-0.45647433400154114,-0.367235004901886
1789635443848072400,2.441072509765625,-0.07030186057090759,-0.4843352437019348,-0.20567433536052704
1789635443858112500,2.451112548828125,-0.00908830389380455,-0.3643209636211395,-0.12520025670528412
1789635443868152600,2.461152587890625,-0.02786731719970703,-0.18238818645477295,-0.15076208114624023
1789635443878192400,2.4711923828125,-0.004475708585232496,-0.07809000462293625,-0.24982981383800507
1789635443888232400,2.481232421875,0.004597681108862162,-0.09156613796949387,-0.3846358358860016
1789635443898271500,2.491271484375,0.007882158271968365,-0.19178514182567596,-0.4627316892147064
1789635443908311600,2.5013115234375,0.011355984956026077,-0.327265202999115,-0.4576277434825897
1789635443918351400,2.511351318359375,0.0004093278548680246,-0.3690219819545746,-0.3912852108478546
1789635443928391400,2.521391357421875,0.0038136467337608337,-0.2893353998661041,-0.299279123544693
1789635443938431500,2.531431396484375,0.009461412206292152,-0.17261146008968353,-0.2537590265274048
1789635443948471600,2.541471435546875,0.024054203182458878,-0.13524118065834045,-0.23196105659008026
1789635443958511600,2.55151171875,0.024757010862231255,-0.15463511645793915,-0.19344110786914825
1789635443968551700,2.5615517578125,0.014451909810304642,-0.1923326998949051,-0.14342214167118073
1789635443978591500,2.571591552734375,-0.024282436817884445,-0.19043545424938202,-0.11798522621393204
1789635443988631600,2.581631591796875,-0.05348612740635872,-0.17383544147014618,-0.0957193374633789
1789635443998670600,2.591670654296875,-0.07878322899341583,-0.25861743092536926,-0.0850595012307167
1789635444008710700,2.601710693359375,-0.11145009845495224,-0.3874332010746002,-0.07795339077711105
1789635444018750500,2.61175048828125,-0.13486939668655396,-0.4183133542537689,-0.042984750121831894
1789635444028790500,2.62179052734375,-0.16363953053951263,-0.3592255413532257,0.005615008994936943
1789635444038830600,2.63183056640625,-0.19928140938282013,-0.2588595151901245,0.04464177042245865
1789635444048870700,2.64187060546875,-0.22409062087535858,-0.21275594830513,0.06457366794347763
1789635444058910700,2.65191064453125,-0.23557524383068085,-0.19804570078849792,0.054308246821165085
1789635444068950500,2.661950439453125,-0.2103218138217926,-0.18364626169204712,0.06366206705570221
1789635444078990300,2.671990234375,-0.14815644919872284,-0.15304121375083923,0.13149890303611755
1789635444089030400,2.682030517578125,-0.10189280658960342,-0.10693869739770889,0.2769050896167755
1789635444099069700,2.692069580078125,-0.024807078763842583,-0.0988440215587616,0.42693614959716797
1789635444109109500,2.702109619140625,-0.08535218238830566,-0.11648347228765488,0.528616189956665
1789635444119149600,2.712149658203125,-0.15191709995269775,-0.07358207553625107,0.52316814661026
1789635444129189400,2.722189453125,-0.18633897602558136,-0.009729593060910702,0.43652963638305664
1789635444139229400,2.7322294921875,-0.17553800344467163,-0.05136944726109505,0.3570246994495392
1789635444149269500,2.74226953125,-0.1607806235551834,-0.11702781915664673,0.3676794767379761
1789635444159309600,2.7523095703125,-0.13603506982326508,-0.16142165660858154,0.45448973774909973
1789635444169349400,2.762349365234375,-0.1291143149137497,-0.11835566908121109,0.5194812417030334
1789635444179389400,2.772389404296875,-0.12310701608657837,-0.03971012681722641,0.5261040329933167
1789635444189428500,2.782428466796875,-0.10048000514507294,-0.056824665516614914,0.49098438024520874
1789635444199468500,2.792468505859375,-0.09168677777051926,-0.22217048704624176,0.4569763243198395
1789635444209508600,2.802508544921875,-0.13289226591587067,-0.33205145597457886,0.4420951306819916
1789635444219548700,2.812548583984375,-0.17623016238212585,-0.369516521692276,0.44700467586517334
1789635444229588700,2.822588623046875,-0.23369824886322021,-0.36793941259384155,0.4598813056945801
1789635444239628800,2.83262890625,-0.32480311393737793,-0.3365921378135681,0.4980736970901489
1789635444249668900,2.8426689453125,-0.40778669714927673,-0.2522689998149872,0.5571857690811157
1789635444259708700,2.852708740234375,-0.43538716435432434,-0.09460533410310745,0.6309113502502441
1789635444269748700,2.862748779296875,-0.38612452149391174,-0.0479012131690979,0.6390771865844727
1789635444279788800,2.872788818359375,-0.2777317464351654,-0.11218485981225967,0.588549792766571
1789635444289827800,2.882827880859375,-0.1580258458852768,-0.18504121899604797,0.5160899758338928
1789635444299867600,2.89286767578125,-0.10056255757808685,-0.20391584932804108,0.48042601346969604
1789635444309907700,2.90290771484375,-0.1310000866651535,-0.17417339980602264,0.5486905574798584
1789635444319947800,2.91294775390625,-0.2185259461402893,-0.14632898569107056,0.7044668197631836
1789635444329987800,2.92298779296875,-0.2863028645515442,-0.07873209565877914,0.8382472395896912
1789635444340028000,2.93302783203125,-0.29520952701568604,-0.0482729896903038,0.8667287230491638
1789635444350067700,2.943067626953125,-0.2693318724632263,-0.058700330555438995,0.811419665813446
1789635444360107800,2.953107666015625,-0.21258044242858887,-0.09381704032421112,0.6546865105628967
1789635444370147600,2.963147705078125,-0.1516510397195816,-0.09593904763460159,0.47565096616744995
1789635444380187000,2.973186767578125,-0.16375350952148438,-0.096591517329216,0.35804522037506104
1789635444390227000,2.98322705078125,-0.21152928471565247,-0.11175689101219177,0.3482716977596283
1789635444400266800,2.993266845703125,-0.3346903622150421,-0.1409643143415451,0.42062097787857056
1789635444410306800,3.003306884765625,-0.4835834503173828,-0.02599564753472805,0.5062780976295471
1789635444420346600,3.0133466796875,-0.6238864660263062,0.15263135731220245,0.5269538164138794
1789635444430386700,3.02338671875,-0.7094770073890686,0.30623316764831543,0.4924680292606354
1789635444440426800,3.0334267578125,-0.7141112089157104,0.44360992312431335,0.4638347625732422
1789635444450466600,3.043466552734375,-0.6669077277183533,0.5651683211326599,0.4638558030128479
1789635444460506600,3.053506591796875,-0.5801597833633423,0.6266724467277527,0.47362640500068665
1789635444470546700,3.063546630859375,-0.4804787337779999,0.7551283836364746,0.5235353708267212
1789635444480585700,3.073585693359375,-0.36509835720062256,0.9056169986724854,0.6208997368812561
1789635444490625500,3.08362548828125,-0.2606686055660248,0.9870729446411133,0.6973559260368347
1789635444500665600,3.09366552734375,-0.19492074847221375,1.1249666213989258,0.7381760478019714
1789635444510705700,3.10370556640625,-0.14585360884666443,1.3988021612167358,0.6891557574272156
1789635444520745700,3.113745849609375,-0.05524860695004463,1.5984101295471191,0.5425447821617126
1789635444530785800,3.123785888671875,0.050160106271505356,1.5154017210006714,0.3698060214519501
1789635444540825900,3.133825927734375,0.14714470505714417,1.2521469593048096,0.25034645199775696
1789635444550865700,3.14386572265625,0.1739499568939209,1.0653712749481201,0.19754795730113983
1789635444560905700,3.15390576171875,0.1264335662126541,1.01676344871521,0.23776568472385406
1789635444570944800,3.16394482421875,0.05570134520530701,1.0187067985534668,0.33945876359939575
1789635444580984800,3.17398486328125,0.029255356639623642,0.9017476439476013,0.4161413013935089
1789635444591024600,3.184024658203125,0.07231681048870087,0.6904961466789246,0.45009845495224
1789635444601064700,3.194064697265625,0.12124732881784439,0.49923190474510193,0.43036922812461853
1789635444611104800,3.204104736328125,0.13440175354480743,0.2736760079860687,0.4045538604259491
1789635444621144800,3.214144775390625,0.09669484943151474,0.03838387504220009,0.43045711517333984
1789635444631185000,3.224184814453125,0.015622369013726711,-0.017470603808760643,0.49779513478279114
1789635444641224700,3.234224609375,-0.044978126883506775,0.09407323598861694,0.6051524877548218
1789635444651264800,3.2442646484375,-0.048535577952861786,0.2645650804042816,0.7005964517593384
1789635444661303800,3.2543037109375,-0.02124563418328762,0.2884499132633209,0.7491093873977661
1789635444671343900,3.26434375,0.012177570722997189,0.06717051565647125,0.7432171702384949
1789635444681383700,3.2743837890625,0.028205271810293198,-0.13153831660747528,0.711974024772644
1789635444691423700,3.284423828125,0.03605467453598976,-0.09859448671340942,0.6366994976997375
1789635444701463800,3.2944638671875,0.021135644987225533,0.09399919956922531,0.5762806534767151
1789635444711504000,3.30450390625,0.008978048339486122,0.27641454339027405,0.5617315173149109
1789635444721543700,3.314543701171875,0.04361032694578171,0.39134353399276733,0.607531726360321
1789635444731583700,3.324583740234375,0.11767257004976273,0.3840866684913635,0.6670150756835938
1789635444741623600,3.33462353515625,0.17349669337272644,0.2919769883155823,0.710704505443573
1789635444751663600,3.34466357421875,0.16202405095100403,0.21423159539699554,0.7093822360038757
1789635444761702700,3.35470263671875,0.030666565522551537,0.18089202046394348,0.7223893404006958
1789635444771742700,3.36474267578125,-0.12685514986515045,0.32580259442329407,0.7928342223167419
1789635444781782500,3.374782470703125,-0.22828856110572815,0.5453914403915405,0.8932351469993591
1789635444791822600,3.384822509765625,-0.28567036986351013,0.6631281971931458,0.9812036156654358
1789635444801862700,3.394862548828125,-0.30497029423713684,0.577046275138855,1.0082570314407349
1789635444811902700,3.40490283203125,-0.30896395444869995,0.2931240200996399,0.9504169225692749
1789635444821942800,3.41494287109375,-0.3102790415287018,0.01902216114103794,0.8145760297775269
1789635444831982600,3.424982666015625,-0.3480948507785797,-0.16852723062038422,0.6550185680389404
1789635444842022700,3.435022705078125,-0.40884554386138916,-0.2792508006095886,0.5086198449134827
1789635444852061700,3.445061767578125,-0.4544617831707001,-0.3344869017601013,0.4019378423690796
1789635444862101800,3.455101806640625,-0.4757747948169708,-0.2778196334838867,0.3577299118041992
1789635444872141800,3.465141845703125,-0.45372408628463745,-0.06144338846206665,0.39569008350372314
1789635444882181600,3.475181640625,-0.4032049775123596,0.07739252597093582,0.4750797152519226
1789635444892221700,3.4852216796875,-0.3387250602245331,0.028753085061907768,0.5728635191917419
1789635444902261800,3.49526171875,-0.2867870330810547,-0.17097653448581696,0.6511729955673218
1789635444912301800,3.5053017578125,-0.2723127603530884,-0.387594074010849,0.6535868644714355
1789635444922342000,3.515341796875,-0.2925815284252167,-0.4945412874221802,0.6127544641494751
1789635444932381700,3.525381591796875,-0.33710533380508423,-0.5184032320976257,0.6079405546188354
1789635444942420700,3.535420654296875,-0.3531114459037781,-0.3914601802825928,0.641373336315155
1789635444952460800,3.545460693359375,-0.308017760515213,-0.21878373622894287,0.68171226978302
1789635444962500900,3.5555009765625,-0.2653113007545471,-0.1382414996623993,0.670217752456665
1789635444972540700,3.565540771484375,-0.27047276496887207,-0.20785412192344666,0.5927935838699341
1789635444982580700,3.575580810546875,-0.317134290933609,-0.34020525217056274,0.4692918658256531
1789635444992620800,3.585620849609375,-0.36436837911605835,-0.3115099370479584,0.3933243751525879
1789635445002660900,3.595660888671875,-0.36189454793930054,-0.18625801801681519,0.38691654801368713
1789635445012700700,3.60570068359375,-0.29192906618118286,-0.19887740910053253,0.4216175377368927
1789635445022740700,3.61574072265625,-0.1798190325498581,-0.19669069349765778,0.4751763641834259
1789635445032779800,3.62577978515625,-0.07507824152708054,-0.041839323937892914,0.4773721396923065
1789635445042819800,3.63581982421875,-0.011504855938255787,0.11839455366134644,0.4460885226726532
1789635445052860000,3.64585986328125,-0.016287360340356827,0.0144670894369483,0.4067128896713257
1789635445062899700,3.655899658203125,-0.14317846298217773,-0.23416855931282043,0.4128384292125702
1789635445072939500,3.665939453125,-0.30639347434043884,-0.21611924469470978,0.4732045829296112
1789635445082979600,3.6759794921875,-0.3690347671508789,-0.0149840097874403,0.5563719272613525
1789635445093019600,3.68601953125,-0.31948691606521606,-0.024021713063120842,0.5446881055831909
1789635445103059700,3.696059814453125,-0.2555862367153168,-0.24802498519420624,0.4365304410457611
1789635445113099800,3.706099853515625,-0.24764788150787354,-0.3653081953525543,0.3146980106830597
1789635445123139600,3.7161396484375,-0.3067857623100281,-0.151846781373024,0.2535225450992584
1789635445133178600,3.7261787109375,-0.3548571467399597,0.13978159427642822,0.2514767050743103
1789635445143218700,3.73621875,-0.4126448333263397,0.12448547035455704,0.3016892671585083
1789635445153258800,3.7462587890625,-0.4769465923309326,-0.10123181343078613,0.3668144941329956
1789635445163298800,3.756298828125,-0.5166130065917969,-0.1448163092136383,0.42926374077796936
1789635445173338600,3.766338623046875,-0.46886441111564636,-0.023384151980280876,0.45251554250717163
1789635445183378700,3.776378662109375,-0.38052496314048767,-0.021698370575904846,0.4560340940952301
1789635445193418800,3.786418701171875,-0.30174174904823303,-0.25737959146499634,0.4544210433959961
1789635445203458800,3.796458740234375,-0.26128166913986206,-0.5493070483207703,0.4116099178791046
1789635445213499000,3.806498779296875,-0.24888625741004944,-0.6653338074684143,0.31714120507240295
1789635445223537700,3.81653759765625,-0.30914080142974854,-0.5733892321586609,0.22367863357067108
1789635445233577700,3.82657763671875,-0.41774237155914307,-0.4215403199195862,0.1717214286327362
1789635445243617800,3.83661767578125,-0.477672815322876,-0.31125137209892273,0.15978726744651794
1789635445253657900,3.846657958984375,-0.4427313506603241,-0.23455365002155304,0.11338648200035095
1789635445263697700,3.85669775390625,-0.3928886950016022,-0.09875081479549408,0.024938106536865234
1789635445273737700,3.86673779296875,-0.3446236848831177,-0.0010703244479373097,-0.11960389465093613
1789635445283777800,3.87677783203125,-0.332981139421463,-0.17981716990470886,-0.30261099338531494
1789635445293817900,3.88681787109375,-0.34482717514038086,-0.5523819327354431,-0.5000958442687988
1789635445303858000,3.89685791015625,-0.3432404398918152,-0.7085753083229065,-0.6351575255393982
1789635445313896700,3.906896728515625,-0.31898438930511475,-0.5243226289749146,-0.6727008819580078
1789635445323936800,3.916936767578125,-0.3191838562488556,-0.145121768116951,-0.6740521788597107
1789635445333976800,3.926976806640625,-0.3345218002796173,0.17143993079662323,-0.6285384893417358
1789635445344017000,3.937016845703125,-0.3458695113658905,0.3369697630405426,-0.5891711115837097
1789635445354057000,3.947056884765625,-0.3457435667514801,0.32522496581077576,-0.5924979448318481
1789635445364096800,3.9570966796875,-0.33833518624305725,0.17986856400966644,-0.6310173869132996
1789635445374136600,3.967136474609375,-0.2764579653739929,0.04306571185588837,-0.689643144607544
1789635445384176600,3.9771767578125,-0.15507879853248596,0.060089968144893646,-0.7913016080856323
1789635445394216700,3.987216796875,-0.01955213025212288,0.21403692662715912,-0.9107118844985962
1789635445404255700,3.997255859375,0.09646981209516525,0.30973201990127563,-0.9775090217590332
1789635445414295600,4.007295654296875,0.15276025235652924,0.3805582523345947,-0.9838095307350159
1789635445424335600,4.017335693359375,0.16874614357948303,0.5187656879425049,-0.9446789026260376
1789635445434375700,4.027375732421875,0.21976564824581146,0.6332549452781677,-0.9215099215507507
1789635445444415700,4.037415771484375,0.31159543991088867,0.7555539608001709,-0.9029013514518738
1789635445454455600,4.04745556640625,0.37048566341400146,0.9033474326133728,-0.8802298903465271
1789635445464495600,4.05749560546875,0.37567535042762756,0.9700609445571899,-0.8494994044303894
1789635445474535700,4.06753564453125,0.4029330611228943,0.8907126188278198,-0.7960012555122375
1789635445484575700,4.07757568359375,0.4803676903247833,0.7013333439826965,-0.7209291458129883
1789635445494614800,4.08761474609375,0.5792242288589478,0.5947227478027344,-0.6325833201408386
1789635445504654600,4.097654541015625,0.6807172894477844,0.5944074392318726,-0.5225225687026978
1789635445514694700,4.107694580078125,0.7539249062538147,0.612090528011322,-0.4136403203010559
1789635445524734700,4.117734619140625,0.7831483483314514,0.5868049263954163,-0.34815236926078796
1789635445534774800,4.12777490234375,0.7937876582145691,0.558951199054718,-0.32034286856651306
1789635445544814800,4.13781494140625,0.8112968802452087,0.5050197839736938,-0.3066456913948059
1789635445554854700,4.147854736328125,0.811208963394165,0.4016379714012146,-0.29884636402130127
1789635445564894700,4.157894775390625,0.7818090319633484,0.2920915186405182,-0.31491774320602417
1789635445574934800,4.167934814453125,0.765251874923706,0.28870129585266113,-0.34249475598335266
1789635445584974800,4.177974853515625,0.7472348213195801,0.3365500569343567,-0.38502705097198486
1789635445595013600,4.188013671875,0.7156827449798584,0.25678545236587524,-0.4202745258808136
1789635445605053700,4.1980537109375,0.6246223449707031,0.12664449214935303,-0.4430416226387024
1789635445615093800,4.20809375,0.5015051960945129,0.003081809962168336,-0.4707848131656647
1789635445625133800,4.2181337890625,0.3988398015499115,-0.0932452604174614,-0.5095013380050659
1789635445635174000,4.228173828125,0.32662153244018555,-0.16983270645141602,-0.5358820557594299
1789635445645214000,4.2382138671875,0.2676279842853546,-0.16580495238304138,-0.5524610280990601
1789635445655253800,4.248253662109375,0.1746423840522766,-0.05426084250211716,-0.6189306378364563
1789635445665293600,4.25829345703125,0.09581521153450012,0.15241803228855133,-0.6859210729598999
1789635445675333600,4.268333740234375,0.062067899852991104,0.35509684681892395,-0.7022236585617065
1789635445685373000,4.278373046875,0.06076721101999283,0.48380208015441895,-0.6506879925727844
1789635445695412700,4.288412841796875,0.07367847859859467,0.5234581828117371,-0.5078387260437012
1789635445705452800,4.298452880859375,0.06626610457897186,0.4034225642681122,-0.3332560062408447
1789635445715492600,4.30849267578125,0.06060529127717018,0.11032997071743011,-0.20582427084445953
1789635445725532700,4.31853271484375,0.054783355444669724,-0.24362757802009583,-0.12381142377853394
1789635445735572700,4.32857275390625,0.02828649990260601,-0.48730388283729553,-0.06532414257526398
1789635445745612500,4.338612548828125,0.003079146845266223,-0.5760542750358582,-0.05398813262581825
1789635445755652600,4.348652587890625,-0.006380401086062193,-0.5120211839675903,-0.07585109025239944
1789635445765692700,4.358692626953125,-0.041969288140535355,-0.2819283604621887,-0.15555763244628906
1789635445775731700,4.368731689453125,-0.12003292888402939,-0.02467259019613266,-0.3025103211402893
1789635445785771500,4.378771484375,-0.19844092428684235,0.13647235929965973,-0.47185835242271423
1789635445795811600,4.3888115234375,-0.26699280738830566,0.12990686297416687,-0.6160072684288025
1789635445805851600,4.3988515625,-0.29808947443962097,-0.08686565607786179,-0.7030774354934692
1789635445815891700,4.4088916015625,-0.28172755241394043,-0.3178735673427582,-0.6914005279541016
1789635445825931800,4.418931884765625,-0.26484763622283936,-0.43891823291778564,-0.5721990466117859
1789635445835971800,4.428971923828125,-0.26529452204704285,-0.3561996519565582,-0.46839916706085205
1789635445846011600,4.43901171875,-0.26581862568855286,-0.12033706158399582,-0.44019177556037903
1789635445856051700,4.4490517578125,-0.253143846988678,0.06544718146324158,-0.44596922397613525
1789635445866090800,4.4590908203125,-0.20304259657859802,0.21161717176437378,-0.47641128301620483
1789635445876130800,4.469130859375,-0.15405641496181488,0.2587849497795105,-0.5403801202774048
1789635445886170600,4.479170654296875,-0.10940025746822357,0.10615919530391693,-0.6114063858985901
1789635445896210700,4.489210693359375,-0.06758543848991394,-0.09696169942617416,-0.6839021444320679
1789635445906250800,4.499250732421875,-0.04120522737503052,-0.16898342967033386,-0.7374902963638306
1789635445916290800,4.509290771484375,-0.030293723568320274,-0.23704689741134644,-0.7473312020301819
1789635445926331000,4.519330810546875,-0.02419455163180828,-0.22919216752052307,-0.7169756889343262
1789635445936370700,4.52937060546875,-0.02893737517297268,-0.16354312002658844,-0.6830224990844727
1789635445946410800,4.53941064453125,-0.04115089774131775,-0.17171210050582886,-0.635543167591095
1789635445956449800,4.54944970703125,-0.061772555112838745,-0.18975529074668884,-0.5804889798164368
1789635445966489900,4.55948974609375,-0.10020995885133743,-0.1665751338005066,-0.5537114143371582
1789635445976530000,4.569530029296875,-0.14909467101097107,-0.10748650878667831,-0.5593266487121582
1789635445986569700,4.57956982421875,-0.1729384958744049,-0.025297101587057114,-0.618959903717041
1789635445996609800,4.58960986328125,-0.17610205709934235,-0.05703984946012497,-0.677984893321991
1789635446006649900,4.59964990234375,-0.14731834828853607,-0.1787625551223755,-0.7089598178863525
1789635446016689700,4.609689697265625,-0.12329263985157013,-0.24226057529449463,-0.7223499417304993
1789635446026729700,4.619729736328125,-0.12808047235012054,-0.20208145678043365,-0.6901829838752747
1789635446036769500,4.62976953125,-0.13133591413497925,-0.06052486225962639,-0.6180278062820435
1789635446046808800,4.639808837890625,-0.14469513297080994,0.04398263618350029,-0.5548245906829834
1789635446056848600,4.6498486328125,-0.16250315308570862,-0.03930079936981201,-0.5299679636955261
1789635446066888700,4.659888671875,-0.1589108258485794,-0.18021558225154877,-0.5392099618911743
1789635446076928500,4.669928466796875,-0.1305641382932663,-0.26998674869537354,-0.579957902431488
1789635446086968600,4.679968505859375,-0.08442966639995575,-0.3209977149963379,-0.589897632598877
1789635446097008600,4.690008544921875,-0.04141828045248985,-0.36867469549179077,-0.556873083114624
1789635446107048700,4.700048583984375,0.018500180914998055,-0.35783565044403076,-0.5044277310371399
1789635446117088800,4.7100888671875,0.08243335783481598,-0.3713301420211792,-0.4958440959453583
1789635446127128800,4.72012890625,0.10093273967504501,-0.45153629779815674,-0.5452606678009033
1789635446137167600,4.730167724609375,0.07944609224796295,-0.5264770984649658,-0.6405065059661865
1789635446147207700,4.740207763671875,0.0455525703728199,-0.5626659989356995,-0.6967052817344666
1789635446157247700,4.750247802734375,0.01788179576396942,-0.5598145723342896,-0.7258365750312805
1789635446167287800,4.760287841796875,-0.00236195744946599,-0.6222808957099915,-0.7576815485954285
1789635446177327600,4.77032763671875,-0.027776237577199936,-0.6577858924865723,-0.8047966361045837
1789635446187367700,4.78036767578125,-0.05128742381930351,-0.5586733818054199,-0.8239442110061646
1789635446197407700,4.79040771484375,-0.06369642168283463,-0.4169953763484955,-0.7890307307243347
1789635446207447800,4.80044775390625,-0.06943073868751526,-0.3230670094490051,-0.7340116500854492
1789635446217487000,4.810487060546875,-0.10183422267436981,-0.28550657629966736,-0.7051839828491211
1789635446227526100,4.820526123046875,-0.13476073741912842,-0.2592483460903168,-0.7273886799812317
1789635446237566000,4.83056591796875,-0.1457795798778534,-0.22193852066993713,-0.8068991899490356
1789635446247606000,4.84060595703125,-0.11293800175189972,-0.27977919578552246,-0.9472211599349976
1789635446257646000,4.85064599609375,-0.0520661287009716,-0.4392074644565582,-1.0208399295806885
1789635446267686100,4.86068603515625,-0.012172776274383068,-0.5164330005645752,-0.9895268082618713
1789635446277726200,4.870726318359375,-0.01840324141085148,-0.4015769958496094,-0.8924718499183655
1789635446287766300,4.880766357421875,-0.05362594500184059,-0.30995598435401917,-0.8371545672416687
1789635446297806000,4.89080615234375,-0.10687079280614853,-0.28754204511642456,-0.8404214382171631
1789635446307846100,4.90084619140625,-0.13201849162578583,-0.25435638427734375,-0.8611096739768982
1789635446317885200,4.91088525390625,-0.10865350812673569,-0.19810722768306732,-0.8813342452049255
1789635446327925200,4.92092529296875,-0.05854959785938263,-0.19737058877944946,-0.8691681623458862
1789635446337965000,4.930965087890625,-0.028117388486862183,-0.24366699159145355,-0.8437371253967285
1789635446348005000,4.941005126953125,-0.05223897099494934,-0.27402782440185547,-0.8483787178993225
1789635446358045200,4.951045166015625,-0.09826238453388214,-0.13741885125637054,-0.9177505970001221
1789635446368085200,4.961085205078125,-0.07323959469795227,-0.15124277770519257,-1.0038272142410278
1789635446378125300,4.971125244140625,0.0013105415273457766,-0.33741050958633423,-1.0237516164779663
1789635446388165000,4.9811650390625,0.05817036330699921,-0.42341330647468567,-0.9725286364555359
1789635446398205000,4.991204833984375,0.00010865696822293103,-0.2801959812641144,-0.8934969305992126
1789635446408245000,5.001244873046875,-0.10287365317344666,-0.1711917221546173,-0.852149248123169
1789635446418284300,5.0112841796875,-0.14793460071086884,-0.06287030875682831,-0.8533106446266174
1789635446428324000,5.021323974609375,-0.121771439909935,-0.1259573996067047,-0.9473926424980164
1789635446438364000,5.031364013671875,-0.07435651868581772,-0.3695327639579773,-1.090126872062683
1789635446448404000,5.041404052734375,-0.0459216870367527,-0.3869490623474121,-1.1263113021850586
1789635446458444000,5.051444091796875,-0.03200746700167656,-0.2415391206741333,-1.0733966827392578
1789635446468484000,5.061484130859375,-0.06461761146783829,-0.13678154349327087,-1.0317631959915161
1789635446478524200,5.071524169921875,-0.12483620643615723,-0.03633297234773636,-1.0500907897949219
1789635446488564000,5.08156396484375,-0.14645254611968994,-0.04427585005760193,-1.0744675397872925
1789635446498603000,5.09160302734375,-0.09986241161823273,-0.00007669904152862728,-1.1057199239730835
1789635446508643000,5.10164306640625,-0.051958538591861725,0.1318666934967041,-1.1146007776260376
1789635446518683100,5.11168310546875,-0.028076374903321266,0.28796014189720154,-1.1635619401931763
1789635446528723000,5.121722900390625,-0.04753955453634262,0.33790746331214905,-1.2541669607162476
1789635446538763000,5.131762939453125,-0.08093133568763733,0.26279568672180176,-1.315091609954834
1789635446548803000,5.141802978515625,-0.05525606498122215,0.2670740485191345,-1.3223644495010376
1789635446558843100,5.151843017578125,0.016520120203495026,0.12849938869476318,-1.2267768383026123
1789635446568883200,5.16188330078125,0.07590781152248383,-0.010510697960853577,-1.0614646673202515
1789635446578923000,5.171923095703125,0.08253295719623566,0.2400360405445099,-0.8795779347419739
1789635446588962000,5.181962158203125,0.11554151028394699,0.6908114552497864,-0.8057351112365723
1789635446599002000,5.192002197265625,0.2071627676486969,0.8124492168426514,-0.914322555065155
1789635446609042200,5.202042236328125,0.3386257290840149,0.5727996230125427,-1.0218868255615234
1789635446619082200,5.212082275390625,0.42092111706733704,0.12387693673372269,-0.9986478686332703
1789635446629122000,5.2221220703125,0.3659079372882843,-0.14348658919334412,-0.7906759977340698
1789635446639162000,5.232162109375,0.27053481340408325,-0.032137431204319,-0.495637983083725
1789635446649202200,5.2422021484375,0.2874291241168976,0.0475829653441906,-0.20882777869701385
1789635446659242200,5.2522421875,0.3608444631099701,0.09629830718040466,-0.026999393478035927
1789635446669282300,5.2622822265625,0.4005777835845947,0.16880899667739868,0.023555394262075424
1789635446679321000,5.272321044921875,0.37217089533805847,0.1457822322845459,0.08185438811779022
1789635446689361200,5.282361083984375,0.3339636027812958,0.08662863820791245,0.11956074833869934
1789635446699401200,5.292401123046875,0.2919599413871765,-0.021020064130425453,0.16556605696678162
1789635446709441300,5.302441162109375,0.2377457171678543,-0.13475169241428375,0.2595815062522888
1789635446719481000,5.312481201171875,0.14930586516857147,-0.2542799413204193,0.44342511892318726
1789635446729521200,5.322521240234375,0.09248572587966919,-0.12382607161998749,0.6525067090988159
1789635446739561000,5.33256103515625,0.1446964591741562,0.23038554191589355,0.7580810785293579
1789635446749601000,5.34260107421875,0.24400094151496887,0.2968481779098511,0.7229281067848206
1789635446759641000,5.35264111328125,0.23030909895896912,0.1866641491651535,0.6799399256706238
1789635446769681200,5.36268115234375,0.06228920817375183,0.1844816952943802,0.7674391269683838
1789635446779720200,5.37272021484375,-0.20082125067710876,0.26491981744766235,0.9481039643287659
1789635446789760000,5.382760009765625,-0.43685269355773926,0.3016842305660248,1.0961962938308716
1789635446799800000,5.392800048828125,-0.5470476150512695,0.203327015042305,1.148329496383667
1789635446809840000,5.402840087890625,-0.49081072211265564,0.10949293524026871,1.1838752031326294
1789635446819880000,5.4128798828125,-0.34611213207244873,0.10554666817188263,1.1854166984558105
1789635446829920000,5.422919921875,-0.24862205982208252,0.14687733352184296,1.1004711389541626
1789635446839960000,5.4329599609375,-0.2771623730659485,0.12091177701950073,1.03632390499115
1789635446850000100,5.443000244140625,-0.42164337635040283,0.09959450364112854,1.0467021465301514
1789635446860040200,5.453040283203125,-0.5764207243919373,0.03527703136205673,1.1121903657913208
1789635446870079000,5.463078857421875,-0.6435339450836182,0.03305675461888313,1.2519216537475586
1789635446880119000,5.473119140625,-0.6004146933555603,0.0649571642279625,1.3810380697250366
1789635446890159000,5.4831591796875,-0.48766446113586426,0.10348005592823029,1.435386300086975
1789635446900199200,5.49319921875,-0.4057472348213196,0.2275865525007248,1.4050755500793457
1789635446910239200,5.5032392578125,-0.36811918020248413,0.35186269879341125,1.3630415201187134
1789635446920279000,5.513279052734375,-0.33466506004333496,0.3586210012435913,1.354557991027832
1789635446930319000,5.523319091796875,-0.2858421504497528,0.31713029742240906,1.3709473609924316
1789635446940359200,5.533359130859375,-0.22657109797000885,0.351917564868927,1.3784362077713013
1789635446950399200,5.543399169921875,-0.144631490111351,0.46639832854270935,1.3724955320358276
1789635446960438000,5.55343798828125,-0.06300373375415802,0.5551689267158508,1.371824860572815
1789635446970478000,5.56347802734375,0.05403260886669159,0.5381548404693604,1.3624851703643799
1789635446980518100,5.57351806640625,0.20125481486320496,0.48748019337654114,1.3467509746551514
1789635446990558200,5.58355810546875,0.3482314646244049,0.4791780412197113,1.354871153831482
1789635447000598300,5.593598388671875,0.43581512570381165,0.6919462084770203,1.3929461240768433
1789635447010638000,5.60363818359375,0.47092172503471375,0.8790562152862549,1.4012738466262817
1789635447020678100,5.61367822265625,0.4729553163051605,0.690314769744873,1.34357750415802
1789635447030718200,5.62371826171875,0.47399580478668213,0.3878774344921112,1.2938348054885864
1789635447040758000,5.633758056640625,0.4891907274723053,0.3362531065940857,1.293956995010376
1789635447050797000,5.643797119140625,0.5266622304916382,0.43024617433547974,1.3016610145568848
1789635447060837000,5.653837158203125,0.5813667178153992,0.41609200835227966,1.2622065544128418
1789635447070877200,5.663877197265625,0.6180214285850525,0.22082984447479248,1.1324127912521362
1789635447080917000,5.6739169921875,0.6261419057846069,-0.017944911494851112,1.023042917251587
1789635447090957000,5.68395703125,0.6032485961914062,-0.06708156317472458,1.0131964683532715
1789635447100997000,5.6939970703125,0.48211151361465454,-0.08729416131973267,1.035965085029602
1789635447111037000,5.704036865234375,0.4001346230506897,-0.09186600893735886,1.048876404762268
1789635447121077000,5.714076904296875,0.41190871596336365,0.2066570371389389,1.1474871635437012
1789635447131117000,5.724116943359375,0.5041126608848572,0.4118911623954773,1.2211765050888062
1789635447141156000,5.734156005859375,0.6220861673355103,0.19894425570964813,1.2018595933914185
1789635447151196000,5.74419580078125,0.6219921708106995,-0.03543176129460335,1.1986232995986938
1789635447161236000,5.754236083984375,0.46200013160705566,-0.021223796531558037,1.2622957229614258
1789635447171276000,5.764276123046875,0.23599575459957123,-0.014948057010769844,1.3702038526535034
1789635447181316000,5.774316162109375,0.07904182374477386,-0.12551318109035492,1.4515234231948853
1789635447191356200,5.784356201171875,0.021156683564186096,-0.18044407665729523,1.47396719455719
1789635447201396000,5.79439599609375,0.02437804453074932,-0.10251971334218979,1.4145691394805908
1789635447211436000,5.80443603515625,0.031141674146056175,-0.01974201388657093,1.3067917823791504
1789635447221476000,5.81447607421875,0.000020772657080669887,0.04927061125636101,1.209511399269104
1789635447231515000,5.824514892578125,-0.061477743089199066,0.18730518221855164,1.1478102207183838
1789635447241555000,5.834554931640625,-0.0925469771027565,0.33384400606155396,1.168509840965271
1789635447251595000,5.844594970703125,-0.09444501250982285,0.3858230710029602,1.232033133506775
1789635447261635000,5.854635009765625,-0.05341768637299538,0.33373960852622986,1.2875092029571533
1789635447271675000,5.8646748046875,-0.0029822078067809343,0.11579158157110214,1.2906203269958496
1789635447281715000,5.87471484375,-0.003347327234223485,-0.2226642370223999,1.2686303853988647
1789635447291755000,5.884755126953125,-0.07910706847906113,-0.41235587000846863,1.262881875038147
1789635447301795000,5.894795166015625,-0.1724548637866974,-0.3698060214519501,1.2690396308898926
1789635447311835100,5.904835205078125,-0.24582281708717346,-0.16250289976596832,1.2710529565811157
1789635447321874000,5.9148740234375,-0.29426732659339905,0.10067414492368698,1.225748062133789
1789635447331914000,5.9249140625,-0.3482389450073242,0.33130523562431335,1.1192994117736816
1789635447341954000,5.9349541015625,-0.39437606930732727,0.362120121717453,0.9803125262260437
1789635447351994000,5.944994140625,-0.3933480978012085,0.39080023765563965,0.8695012927055359
1789635447362034200,5.9550341796875,-0.3264651894569397,0.5110350251197815,0.7524886727333069
1789635447372074000,5.965073974609375,-0.21085071563720703,0.4645479619503021,0.6115573644638062
1789635447382114000,5.975114013671875,-0.09527885168790817,0.2834695279598236,0.5307296514511108
1789635447392153900,5.98515380859375,-0.06458085775375366,0.2485533505678177,0.46722179651260376
1789635447402194000,5.99519384765625,-0.0918034240603447,0.2345041185617447,0.3560481369495392
1789635447412233000,6.00523291015625,-0.10943274945020676,0.2740864157676697,0.2489008903503418
1789635447422273000,6.01527294921875,-0.08475802838802338,0.2186039835214615,0.1369330883026123
1789635447432313000,6.02531298828125,-0.07594003528356552,-0.13363662362098694,0.07343826442956924
1789635447442353000,6.035352783203125,-0.20378455519676208,-0.27787503600120544,0.05463394895195961
1789635447452393000,6.04539306640625,-0.2997765839099884,0.10331760346889496,0.017844244837760925
1789635447462432800,6.055432861328125,-0.25481709837913513,0.4045330882072449,0.08127035200595856
1789635447472472800,6.065472900390625,-0.10673923045396805,0.5205406546592712,0.21641460061073303
1789635447482513000,6.075512939453125,0.01501277182251215,0.1426306515932083,0.396117240190506
1789635447492553000,6.085552978515625,0.06047666072845459,-0.18181347846984863,0.4538061022758484
1789635447502592000,6.095592041015625,0.016415191814303398,-0.25435692071914673,0.4030049741268158
1789635447512631800,6.1056318359375,0.01372087188065052,-0.25707387924194336,0.2902832329273224
1789635447522671900,6.115671875,0.014225541613996029,-0.3630999028682709,0.22223547101020813
1789635447532712000,6.1257119140625,-0.017374463379383087,-0.3818190097808838,0.137029230594635
1789635447542752000,6.135751953125,-0.0958050861954689,-0.28693804144859314,0.025312812998890877
1789635447552792000,6.1457919921875,-0.15788869559764862,-0.15882612764835358,-0.08793225139379501
1789635447562832000,6.155831787109375,-0.17518620193004608,-0.10173515230417252,-0.13389654457569122
1789635447572872000,6.165871826171875,-0.14201892912387848,-0.006208893842995167,-0.17824004590511322
1789635447582912000,6.175912109375,-0.10049545019865036,-0.006897054612636566,-0.23430490493774414
1789635447592951000,6.185950927734375,-0.08188394457101822,-0.028725387528538704,-0.28946271538734436
1789635447602990800,6.195990966796875,-0.11064395308494568,0.034333206713199615,-0.3970876932144165
1789635447613031000,6.206031005859375,-0.10847987234592438,0.21134020388126373,-0.5745429396629333
1789635447623071000,6.216071044921875,-0.0657356008887291,0.2520197331905365,-0.6857849955558777
1789635447633111000,6.226111083984375,-0.08402619510889053,0.19477029144763947,-0.7254442572593689
1789635447643151000,6.236151123046875,-0.22824116051197052,0.03488980606198311,-0.7115052938461304
1789635447653191200,6.246191162109375,-0.3123376667499542,0.00011345066013745964,-0.6649356484413147
1789635447663231000,6.25623095703125,-0.3030834496021271,-0.0310513935983181,-0.5651856064796448
1789635447673270000,6.26627001953125,-0.22825847566127777,-0.10615386813879013,-0.45032376050949097
1789635447683310000,6.27631005859375,-0.17882061004638672,-0.057018011808395386,-0.35109943151474
1789635447693350100,6.28635009765625,-0.19853731989860535,0.10759729892015457,-0.3451368808746338
1789635447703390000,6.296389892578125,-0.23356854915618896,0.25126925110816956,-0.38999277353286743
1789635447713430000,6.306429931640625,-0.20018289983272552,0.32001742720603943,-0.41891762614250183
1789635447723470000,6.316469970703125,-0.09244044870138168,0.08962415903806686,-0.36243146657943726
1789635447733510100,6.32651025390625,-0.0319582000374794,-0.21894246339797974,-0.2819054424762726
1789635447743550000,6.336550048828125,-0.0699271559715271,-0.2708789110183716,-0.358379989862442
1789635447753589800,6.34658984375,-0.11909469962120056,-0.16233430802822113,-0.5923682451248169
1789635447763629000,6.356629150390625,-0.15332457423210144,0.013529391027987003,-0.833397626876831
1789635447773669000,6.366669189453125,-0.17035548388957977,0.20709165930747986,-0.9823152422904968
1789635447783709000,6.376708984375,-0.14238697290420532,0.41401129961013794,-1.0053105354309082
1789635447793749000,6.3867490234375,-0.06034856289625168,0.5952401757240295,-0.949357807636261
1789635447803788800,6.396788818359375,0.08024317026138306,0.6605129241943359,-0.8832778334617615
1789635447813828900,6.406828857421875,0.1960909515619278,0.4922672212123871,-0.7910048961639404
1789635447823869000,6.416868896484375,0.24285365641117096,0.30356335639953613,-0.6735994815826416
1789635447833909000,6.426908935546875,0.25772368907928467,0.24739381670951843,-0.5706597566604614
1789635447843949000,6.436948974609375,0.27417615056037903,0.2214469015598297,-0.49059394001960754
1789635447853988900,6.44698876953125,0.28399816155433655,0.10248003900051117,-0.48666977882385254
1789635447864028000,6.45702783203125,0.31387242674827576,-0.07539462298154831,-0.5449234843254089
1789635447874068000,6.46706787109375,0.3664703965187073,-0.2210354506969452,-0.6369287967681885
1789635447884108000,6.47710791015625,0.40232905745506287,-0.31263861060142517,-0.7539832592010498
1789635447894147800,6.48714794921875,0.427200049161911,-0.3134987950325012,-0.8553218245506287
1789635447904188000,6.49718798828125,0.42583492398262024,-0.18452483415603638,-0.9192473292350769
1789635447914228000,6.50722802734375,0.3579176664352417,-0.03346741199493408,-0.9434735178947449
1789635447924268000,6.51726806640625,0.23864346742630005,0.13828144967556,-0.955559253692627
1789635447934308000,6.52730810546875,0.14164048433303833,0.30869391560554504,-0.9650009274482727
1789635447944347000,6.537346923828125,0.11517506092786789,0.41612130403518677,-0.9415430426597595
1789635447954387000,6.547386962890625,0.1247272863984108,0.4135436415672302,-0.903343141078949
1789635447964427000,6.557427001953125,0.1257331669330597,0.2633506655693054,-0.8884968161582947
1789635447974467000,6.567467041015625,0.12444791942834854,0.02317402884364128,-0.9071653485298157
1789635447984507100,6.577507080078125,0.1301252394914627,-0.19257263839244843,-0.9681322574615479
1789635447994547000,6.587546875,0.12220820039510727,-0.29219645261764526,-1.04513680934906
1789635448004587000,6.5975869140625,0.1036214679479599,-0.33394336700439453,-1.105836033821106
1789635448014627000,6.607626953125,0.09969010949134827,-0.4534868001937866,-1.1537444591522217
1789635448024667100,6.617667236328125,0.13355512917041779,-0.5782087445259094,-1.1734217405319214
1789635448034706000,6.627705810546875,0.16417668759822845,-0.590419590473175,-1.1674256324768066
1789635448044746000,6.63774609375,0.1540265828371048,-0.48952415585517883,-1.1701977252960205
1789635448054786000,6.6477861328125,0.16609257459640503,-0.36496785283088684,-1.1187654733657837
1789635448064826000,6.657826171875,0.175811767578125,-0.4106746315956116,-1.0388062000274658
1789635448074866200,6.6678662109375,0.11243359744548798,-0.5096086263656616,-1.019003987312317
1789635448084906000,6.677906005859375,0.025709623470902443,-0.4107356071472168,-1.0758121013641357
1789635448094945800,6.68794580078125,-0.014129933901131153,-0.22513778507709503,-1.1697237491607666
1789635448104985900,6.69798583984375,0.018434401601552963,-0.3861117362976074,-1.2427105903625488
1789635448115026000,6.70802587890625,0.10901916027069092,-0.646085798740387,-1.2810297012329102
1789635448125065200,6.718065185546875,0.16286668181419373,-0.6159127354621887,-1.2150152921676636
1789635448135104800,6.728104736328125,0.15765300393104553,-0.6032584309577942,-1.1173300743103027
1789635448145144800,6.738144775390625,0.16965533792972565,-0.7383667230606079,-1.134219765663147
1789635448155185000,6.748184814453125,0.22388955950737,-0.8528426885604858,-1.1642509698867798
1789635448165225000,6.758224853515625,0.24342995882034302,-0.8335795402526855,-1.2027655839920044
1789635448175265000,6.76826513671875,0.2765900492668152,-0.6100729703903198,-1.2086535692214966
1789635448185304800,6.778304931640625,0.2968473732471466,-0.46160969138145447,-1.122180461883545
1789635448195345000,6.788344970703125,0.2883990406990051,-0.5696051716804504,-1.1253799200057983
1789635448205385000,6.798385009765625,0.2389124482870102,-0.7037054300308228,-1.2356140613555908
1789635448215424300,6.80842431640625,0.18303214013576508,-0.8637264966964722,-1.3338474035263062
1789635448225464300,6.81846435546875,0.15315599739551544,-0.8783565759658813,-1.3535031080245972
1789635448235504000,6.828504150390625,0.16711682081222534,-0.7703896760940552,-1.3220642805099487
1789635448245544200,6.838544189453125,0.1936964988708496,-0.684042751789093,-1.2845549583435059
1789635448255584300,6.848584228515625,0.19788618385791779,-0.6265973448753357,-1.2211275100708008
1789635448265624300,6.858624267578125,0.16582119464874268,-0.47649943828582764,-1.162143588066101
1789635448275664400,6.868664306640625,0.171831414103508,-0.2602371871471405,-1.1143406629562378
1789635448285704200,6.8787041015625,0.20107798278331757,-0.06119118630886078,-1.1966357231140137
1789635448295744300,6.888744140625,0.2652455270290375,-0.06046627461910248,-1.3545081615447998
1789635448305783300,6.898783203125,0.33692848682403564,-0.39571937918663025,-1.4876508712768555
1789635448315823400,6.9088232421875,0.2844700813293457,-0.5176876187324524,-1.5196247100830078
1789635448325863200,6.91886328125,0.16753946244716644,-0.41670507192611694,-1.487483263015747
1789635448335903200,6.9289033203125,0.060507550835609436,-0.19358091056346893,-1.4762901067733765
1789635448345943300,6.938943359375,-0.02298973873257637,-0.12558935582637787,-1.4818845987319946
1789635448355983400,6.9489833984375,-0.11857777833938599,-0.09869621694087982,-1.5113105773925781
1789635448366023400,6.9590234375,-0.1281110942363739,0.032113462686538696,-1.5202908515930176
1789635448376063200,6.969063232421875,-0.06239200383424759,0.2122182548046112,-1.4661836624145508
1789635448386103000,6.97910302734375,-0.023374564945697784,0.34053948521614075,-1.4166107177734375
1789635448396142300,6.989142333984375,-0.08933387696743011,0.21407660841941833,-1.2994822263717651
1789635448406182400,6.999182373046875,-0.18343400955200195,0.2293655425310135,-1.1540875434875488
1789635448416222200,7.00922216796875,-0.27598604559898376,0.4854878783226013,-1.0715010166168213
1789635448426262000,7.019261962890625,-0.3134612441062927,0.6028105020523071,-1.074676513671875
1789635448436302000,7.029302001953125,-0.34302952885627747,0.27002856135368347,-0.9905022978782654
1789635448446342100,7.039342041015625,-0.34018102288246155,0.03502083569765091,-0.7735348343849182
1789635448456382200,7.04938232421875,-0.31145161390304565,-0.07006696611642838,-0.5517574548721313
1789635448466422300,7.05942236328125,-0.32103288173675537,-0.09067077934741974,-0.39502134919166565
1789635448476462000,7.069462158203125,-0.37235012650489807,-0.050584081560373306,-0.13081340491771698
1789635448486501000,7.079501220703125,-0.34466230869293213,0.15345746278762817,0.2029653638601303
1789635448496541200,7.089541259765625,-0.2316553294658661,0.3552427887916565,0.33254384994506836
1789635448506581200,7.099581298828125,-0.10868547111749649,0.30474019050598145,0.25991812348365784
1789635448516621000,7.10962109375,-0.03786322474479675,0.1305241882801056,0.2088642716407776
1789635448526661000,7.1196611328125,-0.02040141075849533,0.19228023290634155,0.22962281107902527
1789635448536701200,7.129701171875,-0.086309053003788,0.23035438358783722,0.34586048126220703
1789635448546741200,7.1397412109375,-0.18823541700839996,0.31664371490478516,0.4845626950263977
1789635448556781300,7.14978125,-0.23629721999168396,0.3544475734233856,0.6499412655830383
1789635448566821400,7.1598212890625,-0.22887232899665833,0.34905946254730225,0.8728214502334595
1789635448576860200,7.169860107421875,-0.18078309297561646,0.3038448393344879,1.0610307455062866
1789635448586900200,7.179900146484375,-0.17380934953689575,0.283481240272522,1.1873732805252075
1789635448596940300,7.189940185546875,-0.20512545108795166,0.3023523986339569,1.260941743850708
1789635448606980400,7.19998046875,-0.2075023204088211,0.477485328912735,1.2705522775650024
1789635448617020200,7.210020263671875,-0.16434553265571594,0.5006556510925293,1.2254434823989868
1789635448627060200,7.220060302734375,-0.13916507363319397,0.27257266640663147,1.2260181903839111
1789635448637100300,7.230100341796875,-0.1477617621421814,0.16168929636478424,1.3613954782485962
1789635448647140400,7.240140380859375,-0.18247313797473907,0.3668472468852997,1.6005667448043823
1789635448657180400,7.250180419921875,-0.1780450940132141,0.674708366394043,1.7016425132751465
1789635448667219200,7.26021923828125,-0.06718835979700089,0.6998169422149658,1.611065149307251
1789635448677259300,7.27025927734375,0.12142043560743332,0.48590466380119324,1.5391126871109009
1789635448687299300,7.28029931640625,0.25533217191696167,0.41562914848327637,1.6165531873703003
1789635448697339400,7.29033935546875,0.2548312246799469,0.6680108308792114,1.7730692625045776
1789635448707379500,7.30037939453125,0.2096347212791443,0.897951066493988,1.836645245552063
1789635448717419300,7.310419189453125,0.2158377468585968,0.7558757066726685,1.7972923517227173
1789635448727459000,7.320458984375,0.29600369930267334,0.5163997411727905,1.7660771608352661
1789635448737499100,7.3304990234375,0.3829106390476227,0.5009174346923828,1.7973532676696777
1789635448747539200,7.340539306640625,0.41807475686073303,0.633460283279419,1.7682303190231323
1789635448757578200,7.350578125,0.3627859354019165,0.653704822063446,1.6309547424316406
1789635448767618300,7.360618408203125,0.3097200393676758,0.4360039532184601,1.5312443971633911
1789635448777658000,7.370658203125,0.35003525018692017,0.27522650361061096,1.5862021446228027
1789635448787698200,7.3806982421875,0.42386364936828613,0.4104956388473511,1.6939518451690674
1789635448797738200,7.39073828125,0.42748716473579407,0.7069214582443237,1.7383424043655396
1789635448807778000,7.400778076171875,0.3916492462158203,0.631363570690155,1.6389575004577637
1789635448817818000,7.410818115234375,0.37238502502441406,0.21509553492069244,1.5294315814971924
1789635448827858200,7.420858154296875,0.39912980794906616,-0.0049556102603673935,1.5436956882476807
1789635448837897200,7.430897216796875,0.40059587359428406,0.051650676876306534,1.637732982635498
1789635448847937300,7.440937255859375,0.3613550066947937,0.10885031521320343,1.663133978843689
1789635448857977000,7.45097705078125,0.25381043553352356,-0.07934968173503876,1.5863877534866333
1789635448868017200,7.46101708984375,0.14128628373146057,-0.28627702593803406,1.5291295051574707
1789635448878057200,7.47105712890625,0.09463116526603699,-0.2939962148666382,1.5445191860198975
1789635448888097300,7.48109716796875,0.1154850497841835,-0.1473013013601303,1.5998873710632324
1789635448898137300,7.491137451171875,0.12534354627132416,0.12463966757059097,1.678314208984375
1789635448908177200,7.50117724609375,0.08174200356006622,0.33869922161102295,1.7249640226364136
1789635448918217200,7.51121728515625,0.032405078411102295,0.268679141998291,1.641249418258667
1789635448928257300,7.52125732421875,0.013458018191158772,-0.05656341090798378,1.4901847839355469
1789635448938296300,7.53129638671875,0.0032176312524825335,-0.26836326718330383,1.410811424255371
1789635448948336000,7.541336181640625,-0.013796771876513958,-0.08515910059213638,1.442484736442566
1789635448958376200,7.551376220703125,-0.0105943214148283,0.15100203454494476,1.4781007766723633
1789635448968416300,7.561416259765625,-0.017464477568864822,0.21307311952114105,1.4751073122024536
1789635448978456300,7.571456298828125,-0.03272119536995888,0.2822982668876648,1.4311686754226685
1789635448988496400,7.581496337890625,-0.011904862709343433,0.0756169930100441,1.3142439126968384
1789635448998536200,7.5915361328125,0.03364903852343559,-0.24505209922790527,1.1825199127197266
1789635449008576300,7.601576171875,0.003733485471457243,-0.03491351008415222,1.1634200811386108
1789635449018616300,7.6116162109375,-0.08081202208995819,0.5054479837417603,1.1724885702133179
1789635449028655400,7.6216552734375,-0.16053853929042816,0.6921433210372925,1.1139822006225586
1789635449038695400,7.6316953125,-0.15606071054935455,0.4110450744628906,1.0341321229934692
1789635449048735200,7.6417353515625,-0.09108676761388779,0.18161506950855255,1.0039070844650269
1789635449058775300,7.651775390625,-0.0570283979177475,0.2849870026111603,1.0284150838851929
1789635449068815000,7.661815185546875,-0.053594253957271576,0.5249940156936646,1.033395767211914
1789635449078855200,7.671855224609375,-0.04100176319479942,0.5158825516700745,0.9745965600013733
1789635449088895200,7.681895263671875,0.020484767854213715,0.22640757262706757,0.8990858197212219
1789635449098935000,7.69193505859375,0.11043063551187515,-0.04277436062693596,0.8739472031593323
1789635449108975000,7.70197509765625,0.12203536182641983,-0.0569855198264122,0.8942956328392029
1789635449119014100,7.71201416015625,0.06071075052022934,0.1412476748228073,0.8612534999847412
1789635449129054200,7.72205419921875,-0.0032431974541395903,0.2013046145439148,0.7806150913238525
1789635449139094000,7.732093994140625,-0.052629388868808746,0.1546955704689026,0.6821308732032776
1789635449149134000,7.742134033203125,-0.06659527122974396,0.06403570622205734,0.5716917514801025
1789635449159174100,7.752174072265625,-0.07744418829679489,-0.0585021935403347,0.43425238132476807
1789635449169214200,7.762214111328125,-0.15587881207466125,-0.10138893872499466,0.2597050666809082
1789635449179254300,7.772254150390625,-0.2531353235244751,0.04687589406967163,0.056401222944259644
1789635449189294300,7.78229443359375,-0.28356805443763733,0.11871439963579178,-0.13721245527267456
1789635449199333000,7.7923330078125,-0.24042671918869019,-0.04821839556097984,-0.24586009979248047
1789635449209373200,7.802373291015625,-0.2583335340023041,0.002549710450693965,-0.3322024345397949
1789635449219413500,7.81241357421875,-0.24954724311828613,0.32491764426231384,-0.461452841758728
1789635449229453600,7.82245361328125,-0.19892668724060059,0.40685218572616577,-0.5845468044281006
1789635449239493400,7.832493408203125,-0.2071436047554016,0.3871261477470398,-0.6586524844169617
1789635449249533400,7.842533447265625,-0.24801114201545715,0.16837330162525177,-0.6476610898971558
1789635449259573500,7.852573486328125,-0.241282656788826,-0.13805240392684937,-0.6042155623435974
1789635449269613600,7.862613525390625,-0.2586781680583954,-0.15481647849082947,-0.6024182438850403
1789635449279653600,7.872653564453125,-0.23144175112247467,-0.07036551088094711,-0.6783689260482788
1789635449289692400,7.8826923828125,-0.2600694000720978,-0.06439496576786041,-0.7461458444595337
1789635449299732500,7.892732421875,-0.31112512946128845,0.08028685301542282,-0.7605932354927063
1789635449309772500,7.9027724609375,-0.2759721875190735,0.11651782691478729,-0.6910585761070251
1789635449319812600,7.9128125,-0.20145854353904724,0.009107477962970734,-0.5635483264923096
1789635449329852700,7.922852783203125,-0.15716351568698883,-0.024693895131349564,-0.4634217321872711
1789635449339892500,7.932892578125,-0.1557437926530838,0.17435821890830994,-0.4952848553657532
1789635449349932500,7.9429326171875,-0.20186015963554382,0.4748693108558655,-0.5950269103050232
1789635449359972400,7.952972412109375,-0.18451179563999176,0.6155875325202942,-0.6725187301635742
1789635449370012400,7.963012451171875,-0.10435117036104202,0.4343559741973877,-0.6568068861961365
1789635449380051500,7.973051513671875,-0.019353192299604416,0.1746746003627777,-0.5995556116104126
1789635449390091500,7.983091552734375,0.007739412598311901,-0.04301590844988823,-0.6352086663246155
1789635449400131600,7.993131591796875,0.010040650144219398,-0.15447932481765747,-0.7261135578155518
1789635449410171400,8.00317138671875,0.0551130548119545,-0.26100149750709534,-0.7272664308547974
1789635449420211500,8.01321142578125,0.09288892894983292,-0.3666922450065613,-0.6718282103538513
1789635449430251300,8.023251220703125,0.09903576970100403,-0.3420902192592621,-0.6572367548942566
1789635449440291300,8.033291259765624,0.09545595198869705,-0.1990790069103241,-0.6887379288673401
1789635449450331400,8.043331298828125,0.09319812059402466,0.04803889989852905,-0.7133498191833496
1789635449460370400,8.053370361328126,0.10258523374795914,0.3000383973121643,-0.745454728603363
1789635449470410500,8.063410400390625,0.15099990367889404,0.3796581029891968,-0.7877857089042664
1789635449480450300,8.0734501953125,0.2226506471633911,0.25836658477783203,-0.8344812989234924
1789635449490490400,8.083490478515625,0.27365392446517944,0.022651515901088715,-0.8936614990234375
1789635449500530400,8.093530517578126,0.2998732626438141,-0.16763053834438324,-0.976854681968689
1789635449510570500,8.103570556640625,0.28931596875190735,-0.27954643964767456,-1.0489856004714966
1789635449520610600,8.113610595703125,0.23829352855682373,-0.1941063553094864,-1.1153273582458496
1789635449530650400,8.123650390625,0.16932404041290283,0.016100673004984856,-1.194057583808899
1789635449540690400,8.1336904296875,0.11669758707284927,0.12791003286838531,-1.258773684501648
1789635449550730500,8.14373046875,0.05289490520954132,0.11355399340391159,-1.2652721405029297
1789635449560769500,8.15376953125,-0.01059219054877758,0.07296528667211533,-1.2517626285552979
1789635449570809300,8.163809326171876,0.011212707497179508,-0.07152211666107178,-1.2224868535995483
1789635449580849400,8.173849365234375,0.14009425044059753,-0.2812870740890503,-1.160745620727539
1789635449590889500,8.183889404296876,0.2422400712966919,-0.3824312686920166,-1.0774468183517456
1789635449600929500,8.193929443359375,0.26070481538772583,-0.4557203948497772,-1.0633533000946045
1789635449610969600,8.203969482421876,0.23765303194522858,-0.38683825731277466,-1.1168445348739624
1789635449621009700,8.214009765625,0.2471562623977661,-0.31659233570098877,-1.1871660947799683
1789635449631049500,8.224049560546876,0.26178261637687683,-0.4372718632221222,-1.1878385543823242
1789635449641089500,8.234089599609375,0.18920613825321198,-0.651528000831604,-1.272876262664795
1789635449651128600,8.244128662109375,0.10850436985492706,-0.6471140384674072,-1.384446382522583
1789635449661168600,8.254168701171874,0.10136816650629044,-0.5411415696144104,-1.413800597190857
1789635449671208400,8.26420849609375,0.10190346091985703,-0.5480854511260986,-1.3718703985214233
1789635449681248500,8.27424853515625,0.13724760711193085,-0.699508011341095,-1.3031505346298218
1789635449691288600,8.28428857421875,0.1711147576570511,-0.7805525064468384,-1.2099100351333618
1789635449701328600,8.29432861328125,0.1761862188577652,-0.7706008553504944,-1.175599455833435
1789635449711368400,8.304368408203125,0.18851372599601746,-0.7974931597709656,-1.2279987335205078
1789635449721408300,8.314408203125,0.22202587127685547,-0.831979513168335,-1.325717568397522
1789635449731448300,8.3244482421875,0.26400047540664673,-0.9063789248466492,-1.4098598957061768
1789635449741487600,8.334487548828125,0.29395759105682373,-1.0645480155944824,-1.4861162900924683
1789635449751527400,8.34452734375,0.2803243398666382,-1.033129096031189,-1.5069174766540527
1789635449761567500,8.3545673828125,0.25101837515830994,-0.8597139120101929,-1.4803657531738281
1789635449771607300,8.364607177734374,0.22576388716697693,-0.7657469511032104,-1.4358704090118408
1789635449781647400,8.3746474609375,0.19951310753822327,-0.7709957957267761,-1.4266068935394287
1789635449791687400,8.3846875,0.1646890789270401,-0.8218206167221069,-1.4522830247879028
1789635449801727500,8.3947275390625,0.1315273940563202,-0.7843747138977051,-1.4472570419311523
1789635449811767600,8.404767578125,0.13127359747886658,-0.5380682349205017,-1.413413643836975
1789635449821806300,8.414806396484375,0.15011653304100037,-0.2358921617269516,-1.450119972229004
1789635449831846400,8.424846435546876,0.14942118525505066,-0.26445135474205017,-1.5827655792236328
1789635449841886500,8.434886474609375,0.0904633179306984,-0.5311437845230103,-1.6876944303512573
1789635449851926500,8.444926513671875,-0.022793462499976158,-0.7077789902687073,-1.6911165714263916
1789635449861966300,8.45496630859375,-0.16321182250976562,-0.7479884624481201,-1.6030176877975464
1789635449872006400,8.46500634765625,-0.24494317173957825,-0.4461556375026703,-1.5521084070205688
1789635449882046500,8.47504638671875,-0.28489723801612854,-0.22322456538677216,-1.5135250091552734
1789635449892086500,8.48508642578125,-0.3247882127761841,-0.26537761092185974,-1.4745994806289673
1789635449902126600,8.495126708984374,-0.3617941737174988,-0.4030201733112335,-1.430766224861145
1789635449912165400,8.505165283203125,-0.32809320092201233,-0.2671731114387512,-1.3723822832107544
1789635449922205400,8.515205322265626,-0.24575836956501007,0.1488211750984192,-1.3675273656845093
1789635449932245500,8.52524560546875,-0.16121871769428253,0.3755866587162018,-1.3886600732803345
1789635449942285600,8.53528564453125,-0.1326374113559723,0.43519169092178345,-1.3445842266082764
1789635449952325600,8.54532568359375,-0.18593551218509674,0.2849228084087372,-1.1802812814712524
1789635449962365400,8.555365478515625,-0.2633320391178131,0.1331908106803894,-0.9777976870536804
1789635449972405500,8.565405517578125,-0.34092962741851807,0.1099720373749733,-0.7433998584747314
1789635449982445600,8.575445556640625,-0.3690057396888733,0.343927264213562,-0.5588361024856567
1789635449992485600,8.585485595703124,-0.3105672001838684,0.4842793345451355,-0.4728538393974304
1789635450002524400,8.5955244140625,-0.2513062655925751,0.3172309398651123,-0.3687916100025177
1789635450012564500,8.605564453125,-0.16721561551094055,0.22417424619197845,-0.27062803506851196
1789635450022604500,8.6156044921875,-0.09241168946027756,0.25575321912765503,-0.19845902919769287
1789635450032644600,8.62564453125,-0.044323522597551346,0.32267019152641296,-0.15670013427734375
1789635450042684700,8.6356845703125,-0.020482905209064484,0.4410511553287506,-0.0989990159869194
1789635450052724500,8.645724365234376,-0.00026312030968256295,0.25920626521110535,-0.0016341155860573053
1789635450062764300,8.655764404296875,-0.0011198592837899923,-0.0008876316132955253,0.05385604128241539
1789635450072804400,8.665804443359375,-0.06680379807949066,0.09441491961479187,0.11964890360832214
1789635450082844400,8.675844482421875,-0.15748363733291626,0.21545878052711487,0.27520307898521423
1789635450092883700,8.6858837890625,-0.1784355193376541,0.21362732350826263,0.46408137679100037
1789635450102923500,8.695923583984374,-0.1182672530412674,0.25265222787857056,0.6275653839111328
1789635450112963300,8.70596337890625,0.006479470990598202,0.44934558868408203,0.7976457476615906
1789635450123003400,8.71600341796875,0.08842706680297852,0.5271865725517273,0.9480357766151428
1789635450133043500,8.72604345703125,0.10119453072547913,0.656395673751831,1.0909708738327026
1789635450143083500,8.73608349609375,0.15340793132781982,0.8029334545135498,1.2219547033309937
1789635450153123300,8.746123291015625,0.22550955414772034,0.8809601068496704,1.3300814628601074
1789635450163163400,8.756163330078126,0.22793489694595337,0.7207337021827698,1.445699691772461
1789635450173203500,8.766203369140625,0.13215696811676025,0.7103036642074585,1.640339732170105
1789635450183242500,8.776242431640625,0.020051205530762672,0.7971591949462891,1.8025898933410645
1789635450193282300,8.7862822265625,-0.018490327522158623,0.718113899230957,1.7907142639160156
1789635450203322400,8.796322265625,0.0013403689954429865,0.5911788940429688,1.7194840908050537
1789635450213362400,8.806362548828124,0.04428543895483017,0.5977297425270081,1.7558759450912476
1789635450223402500,8.816402587890625,0.10699835419654846,0.6678746938705444,1.8281538486480713
1789635450233442300,8.8264423828125,0.19183894991874695,0.6272335648536682,1.8243393898010254
1789635450243482400,8.836482421875,0.27156785130500793,0.5567727088928223,1.8596454858779907
1789635450253522400,8.8465224609375,0.33585044741630554,0.5830405354499817,2.003554344177246
1789635450263562500,8.8565625,0.4102272093296051,0.6588034629821777,2.1138081550598145
1789635450273601300,8.866601318359375,0.4727236032485962,0.7521555423736572,2.081418991088867
1789635450283641300,8.876641357421875,0.4835831820964813,0.8242946863174438,2.0251853466033936
1789635450293681400,8.886681396484375,0.4292363226413727,0.8326684832572937,2.0659422874450684
1789635450303721500,8.896721435546874,0.36063170433044434,0.6658390164375305,2.0937273502349854
1789635450313761500,8.906761474609375,0.33574604988098145,0.48810017108917236,2.0572574138641357
1789635450323801300,8.91680126953125,0.2876112759113312,0.5933930277824402,2.028506278991699
1789635450333841400,8.92684130859375,0.2470444142818451,0.7933050990104675,1.9870686531066895
1789635450343881500,8.936881591796874,0.21879999339580536,0.619937539100647,1.8857319355010986
1789635450353921500,8.946921630859375,0.10943648219108582,0.19125038385391235,1.7920013666152954
1789635450363960600,8.956960693359376,-0.05510745942592621,-0.011631888337433338,1.840147852897644
1789635450374000400,8.96700048828125,-0.13745532929897308,0.1532854288816452,1.9851140975952148
1789635450384040400,8.97704052734375,-0.10286220163106918,0.32927191257476807,2.095372200012207
1789635450394080500,8.98708056640625,-0.036918338388204575,0.31228917837142944,2.068455934524536
1789635450404120300,8.997120361328125,0.014473747462034225,0.26117566227912903,1.9726537466049194
1789635450414160400,9.007160400390624,0.11276783049106598,0.265616238117218,1.8832154273986816
1789635450424200200,9.0172001953125,0.254935085773468,0.21552030742168427,1.819284200668335
1789635450434240300,9.027240234375,0.33910882472991943,0.31271421909332275,1.7879682779312134
1789635450444280300,9.0372802734375,0.34044545888900757,0.3689117133617401,1.7486180067062378
1789635450454319400,9.0473193359375,0.2697041928768158,0.050881288945674896,1.6726795434951782
1789635450464359200,9.057359130859375,0.15850283205509186,-0.23242312669754028,1.6810541152954102
1789635450474399200,9.067399169921876,0.06850448995828629,-0.1121441125869751,1.7691166400909424
1789635450484439300,9.077439208984375,-0.0006945523782633245,0.00424135010689497,1.8118685483932495
1789635450494479400,9.087479248046876,-0.058634817600250244,0.02822471410036087,1.7682465314865112
1789635450504519400,9.09751953125,-0.12281859666109085,0.13933391869068146,1.6726182699203491
1789635450514559500,9.1075595703125,-0.1352347880601883,0.27951791882514954,1.6136852502822876
1789635450524599300,9.117599365234375,-0.050993409007787704,0.5059899687767029,1.641618251800537
1789635450534639400,9.127639404296875,0.11628985404968262,0.6143425107002258,1.5567792654037476
1789635450544678400,9.137678466796874,0.317961186170578,0.1818574219942093,1.3615392446517944
1789635450554718500,9.147718505859375,0.4437023401260376,-0.1855890303850174,1.223429560661316
1789635450564758300,9.15775830078125,0.39486104249954224,-0.003620301140472293,1.208860158920288
1789635450574798300,9.16779833984375,0.27656739950180054,0.477222740650177,1.2513799667358398
1789635450584838400,9.17783837890625,0.23990926146507263,0.4611968994140625,1.2183316946029663
1789635450594878500,9.18787841796875,0.28512734174728394,-0.05836503952741623,1.1001473665237427
1789635450604918500,9.19791845703125,0.15550543367862701,-0.3430471122264862,0.9473068714141846
1789635450614958300,9.207958251953125,-0.037639785557985306,0.028789037838578224,0.6995788812637329
1789635450624997400,9.217997314453125,-0.1576245129108429,0.38932937383651733,0.3587496280670166
1789635450635037400,9.228037353515624,-0.1805386245250702,0.5060235261917114,0.05450744926929474
1789635450645077500,9.238077392578125,-0.14979082345962524,0.5650689601898193,-0.17241783440113068
1789635450655117600,9.24811767578125,-0.07430592179298401,0.5336876511573792,-0.36845898628234863
1789635450665157400,9.258157470703125,-0.017832260578870773,0.3104894161224365,-0.5823848843574524
1789635450675197400,9.268197509765624,0.014199974946677685,0.13387098908424377,-0.821368932723999
1789635450685237500,9.278237548828125,-0.04412831366062164,0.06088279187679291,-1.016451120376587
1789635450695277600,9.288277587890626,-0.06740886718034744,0.12036769092082977,-1.1763219833374023
1789635450705317400,9.2983173828125,-0.108647920191288,0.08337026089429855,-1.254802942276001
1789635450715356400,9.3083564453125,-0.12642797827720642,0.08702944219112396,-1.251585602760315
1789635450725396500,9.318396484375,-0.16329970955848694,0.19398465752601624,-1.213265061378479
1789635450735436500,9.3284365234375,-0.17224739491939545,0.41582968831062317,-1.1905219554901123
1789635450745476600,9.3384765625,-0.14240960776805878,0.6412628293037415,-1.142868995666504
1789635450755516400,9.348516357421875,-0.013141901232302189,0.690310001373291,-1.034304141998291
1789635450765556200,9.35855615234375,0.10130292177200317,0.48746153712272644,-0.8132396340370178
1789635450775596300,9.36859619140625,0.14703525602817535,0.2859417498111725,-0.5816226601600647
1789635450785636400,9.37863623046875,0.12629322707653046,0.2772795557975769,-0.4871249198913574
1789635450795676400,9.388676513671875,0.14447781443595886,0.09336590021848679,-0.46459269523620605
1789635450805715200,9.398715087890626,0.1939854472875595,-0.26639068126678467,-0.4031847417354584
1789635450815755300,9.40875537109375,0.15359461307525635,-0.4110858142375946,-0.37788018584251404
1789635450825795300,9.41879541015625,0.11601608246564865,-0.30384084582328796,-0.45975586771965027
1789635450835835400,9.42883544921875,0.1048118993639946,-0.12716621160507202,-0.5679765939712524
1789635450845875500,9.43887548828125,0.08696525543928146,0.049974218010902405,-0.6077495813369751
1789635450855915300,9.448915283203124,0.06481654942035675,0.1332818865776062,-0.6198757886886597
1789635450865955300,9.458955322265625,0.10879012942314148,0.1150810495018959,-0.656987190246582
1789635450875995400,9.468995361328124,0.15362870693206787,0.0755794495344162,-0.6617441177368164
1789635450886035500,9.479035400390625,0.1527666449546814,0.08639959990978241,-0.6960986256599426
1789635450896074200,9.48907421875,0.1333596557378769,0.013790114782750607,-0.775044322013855
1789635450906114300,9.4991142578125,0.12109792977571487,-0.061169881373643875,-0.8535037040710449
1789635450916154400,9.509154296875,0.09493556618690491,-0.11784300953149796,-0.9088513851165771
1789635450926194400,9.5191943359375,0.056646768003702164,-0.0618593730032444,-0.9562537670135498
1789635450936234500,9.529234375,0.03719823434948921,0.10476396232843399,-0.9997328519821167
1789635450946274300,9.5392744140625,0.0528794601559639,0.17958121001720428,-1.0410258769989014
1789635450956314400,9.549314453125,0.10220519453287125,0.11506000906229019,-1.0873771905899048
1789635450966354400,9.5593544921875,0.13539324700832367,-0.039386820048093796,-1.1718255281448364
1789635450976394500,9.56939453125,0.16966547071933746,-0.2595066726207733,-1.2401789426803589
1789635450986433500,9.57943359375,0.21909426152706146,-0.505089282989502,-1.245689868927002
1789635450996473300,9.589473388671875,0.2324225902557373,-0.7045198082923889,-1.2160238027572632
1789635451006513400,9.599513427734376,0.1679258942604065,-0.6939678192138672,-1.2354528903961182
1789635451016553500,9.609553466796875,0.06758356839418411,-0.45133176445961,-1.2984646558761597
1789635451026593500,9.619593505859376,0.024509070441126823,-0.07457037270069122,-1.311140775680542
1789635451036633600,9.629633544921875,0.09703706949949265,0.11085860431194305,-1.262433409690857
1789635451046673400,9.63967333984375,0.2669869661331177,-0.09175122529268265,-1.2080540657043457
1789635451056713200,9.649713134765625,0.38768672943115234,-0.4757300615310669,-1.1851900815963745
1789635451066752500,9.65975244140625,0.36676546931266785,-0.6158919334411621,-1.2209237813949585
1789635451076792600,9.66979248046875,0.3182956874370575,-0.641972541809082,-1.2917969226837158
1789635451086832400,9.679832275390625,0.24677489697933197,-0.6673639416694641,-1.3576291799545288
1789635451096872400,9.68987255859375,0.1333649754524231,-0.5286878347396851,-1.403928279876709
1789635451106912300,9.699912353515625,0.07398634403944016,-0.40510833263397217,-1.4221432209014893
1789635451116952300,9.709952392578124,0.09651561826467514,-0.40052637457847595,-1.410292148590088
1789635451126992400,9.719992431640625,0.1692763715982437,-0.43132850527763367,-1.3284766674041748
1789635451137032400,9.730032470703126,0.24361079931259155,-0.5962799191474915,-1.2872580289840698
1789635451147072300,9.740072265625,0.2519534230232239,-0.7360961437225342,-1.3182921409606934
1789635451157111300,9.750111328125,0.2043621987104416,-0.6520664691925049,-1.3698786497116089
1789635451167151400,9.7601513671875,0.1824616938829422,-0.6221383810043335,-1.435998558998108
1789635451177191400,9.77019140625,0.16447363793849945,-0.7538452744483948,-1.486585021018982
1789635451187231200,9.780231201171874,0.12336400896310806,-0.8089439868927002,-1.5412110090255737
1789635451197271300,9.790271240234375,0.1019577905535698,-0.8864805698394775,-1.6019864082336426
1789635451207311400,9.800311279296874,0.10088959336280823,-0.7931759357452393,-1.6367753744125366
1789635451217351200,9.81035107421875,0.1153593510389328,-0.7070415616035461,-1.6937971115112305
1789635451227391200,9.82039111328125,0.08810349553823471,-0.695320725440979,-1.788743257522583
1789635451237431300,9.830431396484375,0.0027116306591778994,-0.665963351726532,-1.825031042098999
1789635451247470000,9.840469970703126,-0.08011028170585632,-0.5198234915733337,-1.8071396350860596
1789635451257510100,9.85051025390625,-0.1063525378704071,-0.42506474256515503,-1.8016226291656494
1789635451267550200,9.86055029296875,-0.10024724155664444,-0.42722243070602417,-1.7991666793823242
1789635451277590300,9.87059033203125,-0.06642935425043106,-0.4864921569824219,-1.7668733596801758
1789635451287630300,9.88063037109375,-0.015907326713204384,-0.535053551197052,-1.6969801187515259
1789635451297670100,9.890670166015624,0.014845258556306362,-0.34185853600502014,-1.6197090148925781
1789635451307710200,9.900710205078125,0.009571134112775326,-0.16844627261161804,-1.6014999151229858
1789635451317750300,9.910750244140624,-0.026585537940263748,-0.2744816243648529,-1.600295901298523
1789635451327790300,9.920790283203125,-0.1331724375486374,-0.39074191451072693,-1.5530513525009155
1789635451337829000,9.9308291015625,-0.23468680679798126,-0.3575272560119629,-1.5070998668670654
1789635451347869200,9.940869140625,-0.26757657527923584,-0.2910025417804718,-1.4730031490325928
1789635451357909200,9.9509091796875,-0.23421649634838104,-0.2128337025642395,-1.429573893547058
1789635451367949300,9.96094921875,-0.1945849359035492,-0.14182105660438538,-1.3456134796142578
1789635451377989400,9.9709892578125,-0.12331900745630264,-0.04168353229761124,-1.1834989786148071
1789635451388029400,9.981029541015625,-0.09670203924179077,-0.01281379908323288,-1.0035594701766968
1789635451398069200,9.9910693359375,-0.12098554521799088,-0.020976655185222626,-0.8589671850204468
1789635451408109300,10.001109375,-0.20547007024288177,0.07283186167478561,-0.7150640487670898
1789635451418149000,10.011149169921875,-0.31721869111061096,0.028053471818566322,-0.5962841510772705
1789635451428188400,10.0211884765625,-0.40358421206474304,-0.14631593227386475,-0.5507918000221252
1789635451438228200,10.031228271484375,-0.4643852412700653,-0.39334890246391296,-0.46360042691230774
1789635451448268300,10.041268310546876,-0.47462138533592224,-0.5093631148338318,-0.3338988721370697
1789635451458308000,10.05130810546875,-0.42860594391822815,-0.3161909878253937,-0.21320416033267975
1789635451468348200,10.06134814453125,-0.38788169622421265,-0.14920972287654877,-0.08463392406702042
1789635451478388200,10.07138818359375,-0.3513713479042053,0.028750687837600708,0.04358449578285217
1789635451488428000,10.081427978515626,-0.2944428026676178,0.332753449678421,0.12786687910556793
1789635451498468000,10.091468017578125,-0.17906109988689423,0.5938444137573242,0.10438952594995499
1789635451508508200,10.101508056640625,-0.07039906829595566,0.5607559680938721,-0.016757141798734665
1789635451518547200,10.111547119140624,-0.030237531289458275,0.2617541253566742,-0.002912166528403759
1789635451528587300,10.121587158203125,-0.0886334627866745,0.18869908154010773,0.28681764006614685
1789635451538627000,10.131626953125,-0.16745051741600037,0.4677099287509918,0.6898298263549805
1789635451548667100,10.141667236328125,-0.23458747565746307,0.6375903487205505,1.0159446001052856
1789635451558707200,10.151707275390624,-0.2525635361671448,0.7042329907417297,1.1779284477233887
1789635451568747300,10.161747314453125,-0.15303242206573486,0.7234748601913452,1.2062817811965942
1789635451578787300,10.171787353515626,-0.045464951545000076,0.7198426127433777,1.2794904708862305
1789635451588827100,10.1818271484375,-0.03406822308897972,0.631366491317749,1.4549381732940674
1789635451598867200,10.1918671875,-0.11183172464370728,0.5296987295150757,1.7025431394577026
1789635451608906200,10.20190625,-0.2236432135105133,0.6091674566268921,1.979259967803955
1789635451618946300,10.2119462890625,-0.2878413796424866,0.9401035904884338,2.1680073738098145
1789635451628986000,10.221986083984374,-0.20280078053474426,1.0399491786956787,2.125683546066284
1789635451639026200,10.232026123046875,-0.0900377482175827,0.8890190720558167,2.0452871322631836
1789635451649066200,10.242066162109374,-0.051910337060689926,0.6382289528846741,2.1234331130981445
1789635451659106300,10.252106201171875,-0.16460013389587402,0.5612756013870239,2.3662304878234863
1789635451669146400,10.262146484375,-0.2808822691440582,0.6195295453071594,2.577198028564453
1789635451679186400,10.2721865234375,-0.2141501009464264,0.6194707155227661,2.574873447418213
1789635451689226200,10.282226318359376,0.02491999790072441,0.5856680274009705,2.420854330062866
1789635451699265300,10.292265380859375,0.20433954894542694,0.8106483817100525,2.384162425994873
1789635451709305300,10.302305419921876,0.22362057864665985,1.1795097589492798,2.472944498062134
1789635451719345400,10.312345458984375,0.15862533450126648,1.1677860021591187,2.45408296585083
1789635451729385200,10.32238525390625,0.15722210705280304,0.6016208529472351,2.3568713665008545
1789635451739425300,10.33242529296875,0.12795929610729218,0.24560444056987762,2.335911512374878
1789635451749465300,10.34246533203125,0.06884617358446121,0.42718222737312317,2.432063341140747
1789635451759505200,10.352505126953124,0.07231999933719635,0.8695226311683655,2.483063220977783
1789635451769545200,10.362545166015625,0.1230151355266571,0.8270598649978638,2.273193120956421
1789635451779584300,10.372584228515626,0.10818878561258316,0.05017901584506035,1.870922565460205
1789635451789624300,10.382624267578125,-0.06957001984119415,-0.4144131541252136,1.6719088554382324
1789635451799664400,10.392664306640626,-0.22092492878437042,-0.15512166917324066,1.8093918561935425
1789635451809704200,10.4027041015625,-0.27656129002571106,0.055875249207019806,2.0350332260131836
1789635451819744000,10.412743896484375,-0.30765077471733093,0.14329484105110168,2.2067418098449707
1789635451829784000,10.4227841796875,-0.3014858067035675,0.43804553151130676,2.2669692039489746
1789635451839824100,10.43282421875,-0.24111302196979523,0.7207557559013367,2.1336495876312256
1789635451849864200,10.4428642578125,-0.102016381919384,0.641899824142456,1.865625262260437
1789635451859904300,10.452904296875,0.06426101177930832,0.1748833954334259,1.602372646331787
1789635451869943000,10.462943115234374,0.18509262800216675,-0.274029940366745,1.4683905839920044
1789635451879983000,10.472983154296875,0.2183682918548584,-0.43675947189331055,1.5308725833892822
1789635451890023200,10.483023193359376,0.22249379754066467,-0.2726336717605591,1.667605996131897
1789635451900063200,10.493063232421875,0.22065460681915283,-0.14049559831619263,1.7036597728729248
1789635451910103300,10.503103271484376,0.12529613077640533,0.06825921684503555,1.6493436098098755
1789635451920143000,10.51314306640625,0.003043194068595767,0.400674432516098,1.5611764192581177
1789635451930183200,10.52318310546875,-0.0308079794049263,0.41028714179992676,1.4797385931015015
1789635451940223200,10.53322314453125,-0.010399111546576023,0.20034748315811157,1.437570571899414
1789635451950263300,10.54326318359375,0.0880475640296936,0.06901182234287262,1.3688496351242065
1789635451960302000,10.553302001953124,0.15865889191627502,-0.10390909016132355,1.2886689901351929
1789635451970342100,10.563342041015625,0.07386383414268494,-0.09189184010028839,1.1607829332351685
1789635451980382200,10.57338232421875,-0.11258353292942047,0.15958353877067566,0.960496723651886
1789635451990422300,10.58342236328125,-0.2392035275697708,0.36503124237060547,0.7197679877281189
1789635452000462300,10.59346240234375,-0.2294425070285797,0.43838322162628174,0.5105002522468567
1789635452010502400,10.60350244140625,-0.14631326496601105,0.45287320017814636,0.2805003821849823
1789635452020542200,10.613542236328126,-0.05726275593042374,0.432012140750885,-0.011170363053679466
1789635452030582300,10.623582275390625,-0.028008997440338135,0.3762418031692505,-0.24670885503292084
1789635452040622300,10.633622314453126,-0.008894957602024078,0.2926419973373413,-0.35797545313835144
1789635452050661400,10.643661376953125,-0.012776249088346958,0.2855055034160614,-0.339138925075531
1789635452060701200,10.653701171875,-0.04424042999744415,0.534834623336792,-0.3004514276981354
1789635452070741200,10.6637412109375,-0.003914047963917255,0.6697791218757629,-0.29326462745666504
1789635452080781300,10.67378125,0.016336096450686455,0.48506149649620056,-0.2629892826080322
1789635452090821400,10.6838212890625,-0.018677547574043274,0.0049257827922701836,-0.2603253126144409
1789635452100861200,10.693861083984375,-0.07723966240882874,-0.35839250683784485,-0.32644203305244446
1789635452110901000,10.70390087890625,-0.12807168066501617,-0.5059587955474854,-0.48632651567459106
1789635452120941000,10.713941162109375,-0.1778794527053833,-0.4457886517047882,-0.6676914691925049
1789635452130981000,10.723981201171876,-0.22803395986557007,-0.2679179906845093,-0.7734341621398926
1789635452141020400,10.7340205078125,-0.2523462176322937,-0.09013575315475464,-0.777360737323761
1789635452151060200,10.744060302734376,-0.2828831076622009,0.15757045149803162,-0.7271047830581665
1789635452161100000,10.75410009765625,-0.2419806718826294,0.4937593936920166,-0.6886692047119141
1789635452171140000,10.76414013671875,-0.14058507978916168,0.7700597047805786,-0.6558710336685181
1789635452181180200,10.77418017578125,-0.03788506239652634,0.9211775660514832,-0.6148315072059631
1789635452191220200,10.78422021484375,0.035902075469493866,0.8831702470779419,-0.5762806534767151
1789635452201260300,10.79426025390625,0.09092538058757782,0.6252889037132263,-0.5374557375907898
1789635452211300000,10.804300048828125,0.14427781105041504,0.25436970591545105,-0.5029350519180298
1789635452221339600,10.814339599609376,0.13225097954273224,-0.07972492277622223,-0.5143645405769348
1789635452231379500,10.82437939453125,0.05379611998796463,-0.23864665627479553,-0.648482620716095
1789635452241419500,10.83441943359375,0.024057399481534958,-0.22321151196956635,-0.8302439451217651
1789635452251459600,10.84445947265625,0.084086112678051,-0.1486097127199173,-0.9832108616828918
1789635452261499600,10.854499755859376,0.13123072683811188,-0.11963292211294174,-1.0832260847091675
1789635452271539700,10.864539794921875,0.14272332191467285,-0.03527995944023132,-1.139197826385498
1789635452281579500,10.87457958984375,0.18246248364448547,0.10014417767524719,-1.1440396308898926
1789635452291619600,10.88461962890625,0.222730815410614,0.18506652116775513,-1.105440616607666
1789635452301659600,10.89465966796875,0.20943018794059753,0.20328733325004578,-1.050534725189209
1789635452311698700,10.90469873046875,0.19458706676959991,0.06250545382499695,-1.0094964504241943
1789635452321738800,10.91473876953125,0.15674008429050446,0.014276407659053802,-1.0589258670806885
1789635452331778600,10.924778564453124,0.11665231734514236,0.046433545649051666,-1.2062079906463623
1789635452341818600,10.934818603515625,0.08680999279022217,-0.02310718409717083,-1.3825515508651733
1789635452351858700,10.944858642578126,0.09671083092689514,-0.09136400371789932,-1.5079635381698608
1789635452361898800,10.954898681640625,0.08207675814628601,-0.20036451518535614,-1.5678894519805908
1789635452371938800,10.964938720703126,0.0033095101825892925,-0.3268454968929291,-1.5461466312408447
1789635452381978600,10.974978515625,-0.0070738885551691055,-0.36837854981422424,-1.4655572175979614
1789635452392018400,10.985018310546875,0.013130183331668377,-0.3334519863128662,-1.3817752599716187
1789635452402057700,10.9950576171875,-0.004674912896007299,-0.22533032298088074,-1.314588189125061
1789635452412097800,11.005097900390625,-0.048164065927267075,-0.219146728515625,-1.2343107461929321
1789635452422137600,11.0151376953125,-0.039804670959711075,-0.27058061957359314,-1.1416412591934204
1789635452432177700,11.025177734375,-0.015503059141337872,-0.3744164705276489,-1.106937050819397
1789635452442217500,11.035217529296874,-0.008049936965107918,-0.5874277949333191,-1.191902756690979
1789635452452257500,11.045257568359375,-0.020854681730270386,-0.7939514517784119,-1.3337610960006714
1789635452462297600,11.055297607421876,-0.05459427088499069,-0.8882896304130554,-1.4433938264846802
1789635452472337400,11.06533740234375,-0.08140191435813904,-0.9026497006416321,-1.5000760555267334
1789635452482377500,11.07537744140625,-0.0814485177397728,-0.8666056394577026,-1.494726538658142
1789635452492416500,11.08541650390625,-0.08755061775445938,-0.8116194009780884,-1.4592149257659912
1789635452502456600,11.09545654296875,-0.05086264759302139,-0.858947217464447,-1.4500339031219482
1789635452512496600,11.10549658203125,-0.015083079226315022,-0.9299396276473999,-1.443170428276062
1789635452522536400,11.115536376953125,0.0368962325155735,-0.8928255438804626,-1.4327220916748047
1789635452532576500,11.125576416015624,0.08919166028499603,-0.8063841462135315,-1.4447177648544312
1789635452542616600,11.135616455078125,0.11817777156829834,-0.7348923683166504,-1.4922642707824707
1789635452552656600,11.14565673828125,0.11636309325695038,-0.6303470730781555,-1.5934324264526367
1789635452562696700,11.15569677734375,0.12819445133209229,-0.6643990278244019,-1.7450703382492065
1789635452572736500,11.165736572265626,0.12738512456417084,-0.734019935131073,-1.8892598152160645
1789635452582775600,11.175775634765625,0.1189306452870369,-0.7976734638214111,-1.9778162240982056
1789635452592815600,11.185815673828126,0.12393499165773392,-0.771689772605896,-1.9675180912017822
1789635452602855700,11.195855712890625,0.12473021447658539,-0.5953584313392639,-1.8977925777435303
1789635452612895500,11.2058955078125,0.12424152344465256,-0.5096842646598816,-1.827747106552124
1789635452622935600,11.215935546875,0.10489711910486221,-0.38377001881599426,-1.7776347398757935
1789635452632975600,11.2259755859375,0.10267311334609985,-0.2718490958213806,-1.7192894220352173
1789635452643015700,11.236015625,0.16499242186546326,-0.3083759546279907,-1.7004461288452148
1789635452653055700,11.2460556640625,0.23844026029109955,-0.40084409713745117,-1.7071315050125122
1789635452663095800,11.256095703125,0.24317243695259094,-0.520039439201355,-1.6853095293045044
1789635452673134600,11.266134521484375,0.18234211206436157,-0.5661843419075012,-1.6603938341140747
1789635452683174700,11.276174560546876,0.0818067118525505,-0.524666428565979,-1.6328881978988647
1789635452693214700,11.286214599609375,-0.030240459367632866,-0.6130740642547607,-1.6111760139465332
1789635452703254800,11.2962548828125,-0.16573624312877655,-0.8095964193344116,-1.5813016891479492
1789635452713294600,11.306294677734375,-0.311276912689209,-0.8581773042678833,-1.473580241203308
1789635452723334700,11.316334716796876,-0.36801743507385254,-0.7294235825538635,-1.386836051940918
1789635452733374700,11.326374755859375,-0.31392064690589905,-0.556344747543335,-1.344550609588623
1789635452743414500,11.33641455078125,-0.26360341906547546,-0.49403661489486694,-1.2287204265594482
1789635452753453600,11.34645361328125,-0.20011284947395325,-0.34923282265663147,-1.062933325767517
1789635452763493600,11.35649365234375,-0.12548868358135223,-0.12933722138404846,-0.9175060987472534
1789635452773533700,11.36653369140625,-0.08034729957580566,0.09868050366640091,-0.8057002425193787
1789635452783573500,11.376573486328125,-0.07364919036626816,0.060291837900877,-0.6846939325332642
1789635452793613600,11.386613525390626,-0.1206049770116806,0.03533348813652992,-0.5418888330459595
1789635452803653600,11.396653564453125,-0.1273137480020523,0.14725762605667114,-0.3796525299549103
1789635452813693400,11.406693359375,-0.06241783872246742,0.1791100949048996,-0.21987883746623993
1789635452823733500,11.4167333984375,-0.03443999961018562,0.21376314759254456,-0.07923330366611481
1789635452833773600,11.426773681640626,-0.024890435859560966,0.2880861163139343,0.07006217539310455
1789635452843812600,11.4368125,0.02087572030723095,0.3593810796737671,0.26584285497665405
1789635452853852400,11.446852294921875,0.07036151736974716,0.5133477449417114,0.4180617034435272
1789635452863892500,11.456892578125,0.019847741350531578,0.36154302954673767,0.5302755832672119
1789635452873932500,11.4669326171875,-0.08777326345443726,0.1975034922361374,0.6519383788108826
1789635452883972600,11.47697265625,-0.16126371920108795,0.3033420443534851,0.8411673903465271
1789635452894012700,11.4870126953125,-0.25147590041160583,0.3848491311073303,0.9969847202301025
1789635452904052500,11.497052490234376,-0.37191951274871826,0.36053261160850525,1.121901035308838
1789635452914092500,11.507092529296875,-0.4827061891555786,0.3937166631221771,1.349251627922058
1789635452924132600,11.517132568359376,-0.573154628276825,0.44473353028297424,1.6213082075119019
1789635452934171600,11.527171630859375,-0.6214451789855957,0.5786500573158264,1.8663523197174072
1789635452944211500,11.53721142578125,-0.5683135390281677,0.8075417876243591,2.0410192012786865
1789635452954251500,11.54725146484375,-0.4618653655052185,0.8384930491447449,2.085919141769409
1789635452964291600,11.55729150390625,-0.4063248634338379,0.9119065403938293,2.1559860706329346
1789635452974331600,11.56733154296875,-0.3609941601753235,1.0443596839904785,2.317469358444214
1789635452984371700,11.577371826171875,-0.32280227541923523,0.9214223027229309,2.4395740032196045
1789635452994411800,11.587411865234374,-0.32705268263816833,0.838394284248352,2.489781141281128
1789635453004451600,11.59745166015625,-0.335664302110672,0.9041695594787598,2.5460169315338135
1789635453014491600,11.60749169921875,-0.29010266065597534,0.9817655682563782,2.624268054962158
1789635453024531700,11.61753173828125,-0.16943563520908356,1.0062522888183594,2.6215968132019043
1789635453034570800,11.62757080078125,-0.029586387798190117,0.8265408277511597,2.4691882133483887
1789635453044610600,11.637610595703125,0.06172008812427521,0.6528241634368896,2.333312749862671
1789635453054650600,11.647650634765625,0.10144326835870743,0.7894594669342041,2.3436689376831055
1789635453064690700,11.657690673828125,0.14747068285942078,0.8702371716499329,2.3224620819091797
1789635453074730800,11.667730712890625,0.20464634895324707,0.6959937214851379,2.154618740081787
1789635453084770600,11.6777705078125,0.1870409995317459,0.46927347779273987,2.001405715942383
1789635453094810400,11.687810302734375,0.15725938975811005,0.2997715473175049,1.990009069442749
1789635453104850400,11.697850341796874,0.1723368763923645,0.27152231335639954,2.080606460571289
1789635453114889700,11.7078896484375,0.18795818090438843,0.3994952142238617,2.1439619064331055
1789635453124929800,11.7179296875,0.2236490696668625,0.49090340733528137,2.0845627784729004
1789635453134969600,11.727969482421875,0.2902616560459137,0.368361234664917,1.9182581901550293
1789635453145009400,11.738009521484376,0.2922861874103546,0.21891343593597412,1.8025805950164795
1789635453155049500,11.748049560546875,0.22096380591392517,0.18412722647190094,1.7849549055099487
1789635453165089500,11.758089599609375,0.13656529784202576,0.1264583319425583,1.834333896636963
1789635453175129600,11.768129638671875,0.11096486449241638,-0.013291037641465664,1.882895588874817
1789635453185169700,11.778169677734375,0.10757173597812653,-0.057380467653274536,1.9128750562667847
1789635453195209500,11.78820947265625,0.11513883620500565,0.2279285043478012,1.9046491384506226
1789635453205248500,11.79824853515625,0.18139588832855225,0.47109055519104004,1.782005786895752
1789635453215288600,11.80828857421875,0.2796231210231781,0.37634727358818054,1.499072551727295
1789635453225328400,11.818328369140625,0.2585279643535614,-0.0002466087171342224,1.2485090494155884
1789635453235368400,11.828368408203126,0.0902116522192955,-0.268089234828949,1.307926058769226
1789635453245408500,11.838408447265625,-0.036134034395217896,-0.05650588497519493,1.4969402551651
1789635453255448600,11.848448486328126,-0.1070026159286499,0.2108006477355957,1.5248039960861206
1789635453265488400,11.85848828125,-0.1618211269378662,0.407316118478775,1.4066798686981201
1789635453275528400,11.868528564453126,-0.16048501431941986,0.4544822871685028,1.2474864721298218
1789635453285567500,11.8785673828125,-0.11311856657266617,0.3964568078517914,1.1263972520828247
1789635453295607600,11.888607666015625,-0.14051929116249084,0.605586051940918,0.9926069974899292
1789635453305647400,11.8986474609375,-0.19652263820171356,0.8531122207641602,0.8198972940444946
1789635453315687400,11.9086875,-0.247520312666893,0.8018050789833069,0.6874393820762634
1789635453325727500,11.9187275390625,-0.2658575177192688,0.5056027173995972,0.6129619479179382
1789635453335767600,11.928767578125,-0.16627126932144165,0.03706241399049759,0.6004224419593811
1789635453345807600,11.9388076171875,-0.046966977417469025,-0.1937716007232666,0.6243778467178345
1789635453355847400,11.948847412109375,0.0231788232922554,-0.06378190964460373,0.6368662118911743
1789635453365887500,11.958887451171876,0.14438433945178986,0.020136959850788116,0.6060143113136292
1789635453375926500,11.968926513671875,0.2227121740579605,-0.014061756432056427,0.5603663921356201
1789635453385966600,11.978966552734375,0.1599060446023941,0.07568889856338501,0.45336028933525085
1789635453396006700,11.989006591796874,0.042402319610118866,0.1730005443096161,0.31977400183677673
1789635453406046500,11.99904638671875,0.007012103218585253,-0.0017675400013104081,0.1966097354888916
1789635453416086500,12.00908642578125,0.016088955104351044,-0.3643026053905487,0.11279046535491943
1789635453426126600,12.019126708984375,-0.040230777114629745,-0.35646969079971313,0.013666544109582901
1789635453436166400,12.02916650390625,-0.010832673870027065,-0.13619884848594666,-0.07914328575134277
1789635453446206500,12.03920654296875,0.043114978820085526,-0.11023968458175659,-0.14600194990634918
1789635453456246300,12.049246337890626,0.032812006771564484,-0.044430579990148544,-0.2445833832025528
1789635453466285600,12.05928564453125,0.03188815712928772,0.1713552474975586,-0.39519578218460083
1789635453476325600,12.06932568359375,0.06289507448673248,0.25106632709503174,-0.5458497405052185
1789635453486365400,12.079365478515625,0.08350528031587601,0.2573803961277008,-0.6661926507949829
1789635453496405200,12.0894052734375,0.06145670264959335,0.37591663002967834,-0.7519632577896118
1789635453506445300,12.0994453125,0.04740053787827492,0.4323018789291382,-0.8038975596427917
1789635453516485400,12.1094853515625,0.13541561365127563,0.2155940681695938,-0.8033078908920288
1789635453526525400,12.119525390625,0.15902774035930634,0.10543987154960632,-0.7376740574836731
1789635453536565500,12.1295654296875,0.11096060276031494,0.23627325892448425,-0.7115731835365295
1789635453546605600,12.13960546875,0.14233636856079102,0.25195208191871643,-0.7146821618080139
1789635453556644400,12.149644287109375,0.17833112180233002,-0.07074154913425446,-0.7008172273635864
1789635453566684400,12.159684326171876,0.11637800931930542,-0.45633476972579956,-0.7279577851295471
1789635453576724500,12.169724365234375,-0.020720724016427994,-0.5955454111099243,-0.8529471158981323
1789635453586764500,12.1797646484375,-0.07293306291103363,-0.5516839623451233,-0.9871898889541626
1789635453596804400,12.189804443359375,-0.037879738956689835,-0.2593649923801422,-0.9983815550804138
1789635453606844400,12.199844482421875,-0.027305657044053078,0.3232100009918213,-0.9289718270301819
1789635453616884500,12.209884521484375,-0.053753241896629333,0.7914898991584778,-0.8757078051567078
1789635453626924500,12.219924560546875,-0.02882951684296131,0.8788612484931946,-0.8972053527832031
1789635453636964600,12.229964599609374,0.07023687660694122,0.5232906341552734,-0.9396383166313171
1789635453647003400,12.24000341796875,0.21483799815177917,-0.14324423670768738,-0.9408798813819885
1789635453657043500,12.25004345703125,0.27392980456352234,-0.6335756182670593,-0.9953039884567261
1789635453667083500,12.26008349609375,0.19022266566753387,-0.8754055500030518,-1.168785810470581
1789635453677123600,12.27012353515625,0.045168545097112656,-0.7516037225723267,-1.2866655588150024
1789635453687163600,12.28016357421875,-0.039555396884679794,-0.2575516402721405,-1.2567400932312012
1789635453697203500,12.290203369140626,-0.03616759181022644,0.2681523561477661,-1.1842904090881348
1789635453707243500,12.300243408203125,0.00447064870968461,0.45498988032341003,-1.188766598701477
1789635453717283600,12.31028369140625,0.09570468962192535,0.24214738607406616,-1.2620855569839478
1789635453727322600,12.320322509765624,0.21169361472129822,-0.167160764336586,-1.3411232233047485
1789635453737362400,12.330362548828125,0.29045578837394714,-0.46998828649520874,-1.4488602876663208
1789635453747402500,12.340402587890624,0.28326845169067383,-0.514879047870636,-1.6117874383926392
1789635453757442600,12.350442626953125,0.18781544268131256,-0.2765085697174072,-1.7498664855957031
1789635453767482600,12.360482666015624,0.10698237270116806,-0.10140198469161987,-1.8016726970672607
1789635453777522700,12.370522705078125,0.09455739706754684,-0.008963667787611485,-1.796733021736145
1789635453787562500,12.3805625,0.13144883513450623,-0.030613303184509277,-1.7447500228881836
1789635453797602300,12.390602294921875,0.2260267436504364,-0.17227695882320404,-1.6699745655059814
1789635453807642400,12.400642333984376,0.3398297429084778,-0.20865067839622498,-1.5973442792892456
1789635453817681700,12.410681640625,0.36580008268356323,-0.1164962500333786,-1.5716197490692139
1789635453827721500,12.420721435546875,0.29763302206993103,0.18687108159065247,-1.6128145456314087
1789635453837761300,12.43076123046875,0.22014833986759186,0.047499340027570724,-1.6509103775024414
1789635453847801300,12.44080126953125,0.2027653604745865,-0.2596776485443115,-1.6689883470535278
1789635453857841400,12.45084130859375,0.2142353355884552,-0.4809940457344055,-1.6664130687713623
