time,seconds_elapsed,z,y,x
1788860597000016400,0.034016357421875,9.465027350616454,1.2886790435791016,-0.7915829238891601
1788860597010022400,0.0440224609375,9.425971936035156,1.5649100601196289,-0.9958382530212402
1788860597020029400,0.054029541015625,9.950751012420653,1.4404115737915038,-0.9929951385498046
1788860597030036500,0.064036376953125,10.290428372955322,1.5044564682006836,-0.8053495834350586
1788860597040042500,0.07404248046875,10.364498986816406,1.6294038673400877,-0.7242460021972655
1788860597050049500,0.084049560546875,10.267533819580077,1.722478456878662,-0.7823053924560547
1788860597060056300,0.094056396484375,9.745148944854735,1.818246523284912,-0.7413046890258789
1788860597070062300,0.104062255859375,8.790012120056153,1.893514237976074,-0.6066308456420898
1788860597080069600,0.114069580078125,8.311022150421142,1.758840394592285,-0.3182791831970215
1788860597090076400,0.124076416015625,7.596951505279541,1.5676035369873047,-0.12300211029052734
1788860597100082400,0.13408251953125,7.058854682159423,0.9944915145874023,-0.51071314163208
1788860597110089500,0.14408935546875,8.000673760223389,0.6356605407714844,-0.8708908538818358
1788860597120096500,0.154096435546875,8.811559934997558,1.6410756004333495,-0.8254010223388671
1788860597130102300,0.164102294921875,8.79674581222534,2.8823195236206054,-0.862511148071289
1788860597140109600,0.174109619140625,8.744073375701904,3.1171009239196774,-0.21487959899902342
1788860597150116400,0.184116455078125,8.662520881652831,2.6626515213012696,0.610371785736084
1788860597160122400,0.194122314453125,7.965359285736083,1.8778022895812987,1.5013140785217285
1788860597170129700,0.204129638671875,7.506121479797363,1.510441972351074,1.0302549018859863
1788860597180136400,0.214136474609375,8.110358123779296,3.353079425048828,-2.188599592590332
1788860597190142500,0.224142578125,7.733121724700927,4.938938749694824,-2.84101954498291
1788860597200149500,0.2341494140625,7.053318090820312,3.9655461372375487,-1.2406453727722166
1788860597210156500,0.244156494140625,8.59967308807373,2.0892402236938477,0.7689876457214355
1788860597220162300,0.254162353515625,10.326790310668944,1.7480664871215819,1.599925259399414
1788860597230169600,0.264169677734375,10.960954475402831,2.96237564163208,1.2268787132263184
1788860597240176400,0.27417626953125,10.166528437042235,3.967790701293945,0.6066308456420898
1788860597250182400,0.284182373046875,8.979154051208496,4.085405857849121,0.3286041778564453
1788860597260189400,0.294189453125,8.118438554382324,3.681833240509033,0.40462008056640625
1788860597270196500,0.304196533203125,7.745541645812988,3.169174810028076,0.27997195663452146
1788860597280202500,0.314202392578125,8.213757707977294,2.174533657836914,0.9427169036865234
1788860597290209500,0.32420947265625,9.12879165496826,1.656039360809326,1.717989328765869
1788860597300216300,0.33421630859375,9.601197570037842,1.7643769859313965,3.00068286819458
1788860597310222300,0.344222412109375,9.75502502670288,2.1815666252136228,4.129997863769531
1788860597320229600,0.354229736328125,10.184335311889647,2.5903765586853025,4.5048400611877435
1788860597330236400,0.364236328125,11.372607523345946,2.0862474716186523,4.525340412902832
1788860597340242400,0.374242431640625,13.698724073791503,1.1091139190673827,3.916764278411865
1788860597350249500,0.38424951171875,16.086192041778563,0.48347909774780273,2.2572832527160642
1788860597360256500,0.394256591796875,16.51699870300293,-0.031124621582031248,0.7240963645935058
1788860597370262300,0.40426220703125,14.864101731872557,-0.7528267845153808,0.6818985603332519
1788860597380269600,0.41426953125,11.688043592071532,-1.4173673828125,1.6443676277160644
1788860597390276400,0.4242763671875,8.236652261352539,-1.5272013839721679,2.8930934310913083
1788860597400282400,0.434282470703125,4.828805473327637,-1.2574047843933105,4.6538791145324705
1788860597410289400,0.444289306640625,2.2756886779785157,-0.5713163711547852,6.534823793792724
1788860597420296400,0.45429638671875,0.8955810585021972,0.8104372619628906,8.362347848510742
1788860597430302500,0.464302490234375,0.5068225639343261,1.5815198341369627,9.258826732635498
1788860597440309500,0.4743095703125,0.8038532073974609,1.1308113716125487,8.926780889892578
1788860597450316500,0.484316650390625,-1.1561001266479491,-3.554790914916992,17.852215041351318
1788860597460322300,0.494322265625,-0.6937199310302734,1.8445827415466307,12.1809498588562
1788860597470329600,0.50432958984375,3.3393127655029295,7.902062579345703,-2.7501895195007324
1788860597480336400,0.51433642578125,1.34060329208374,-1.5861585998535155,3.529801435089111
1788860597490342400,0.52434228515625,-0.2685994987487793,-5.435585956573486,4.925471365356445
1788860597500349400,0.534349365234375,-4.752789570617676,-7.144597029113769,11.02574755783081
1788860597510356500,0.5443564453125,-9.641898998260498,-1.0928034202575683,7.629722140502929
1788860597520362500,0.554362548828125,-1.9840449882507323,4.832546413421631,-3.8667853187561034
1788860597530369500,0.56436962890625,-8.014889332580566,-3.6138977684020994,5.734861164093017
1788860597540376300,0.574376220703125,-10.483460881805419,-5.708824221038818,9.395745140075682
1788860597550382800,0.5843828125,-13.535619085693359,-4.802469255065918,17.171214306640625
1788860597560389600,0.5943896484375,-17.95890665283203,0.127042325592041,20.240580834960937
1788860597570397000,0.60439697265625,-14.213178155517577,3.422660910797119,14.347851998901366
1788860597580403000,0.61440283203125,-10.689212586975097,2.8004677543640133,9.673622170257568
1788860597590409700,0.62440966796875,-8.635885388183594,0.41808746490478516,6.929118879699707
1788860597600417000,0.6344169921875,-6.05852730102539,-2.0433014793395996,6.770503019714355
1788860597610422800,0.6444228515625,-3.6936546112060546,-2.63032979888916,7.481281637573241
1788860597620429800,0.654429931640625,-2.1357775184631347,-2.1178210060119627,7.74449418258667
1788860597630436900,0.664436767578125,-1.4606126502990722,-1.6660650802612305,8.048258518218994
1788860597640443000,0.67444287109375,-2.623147193908691,-1.8454805671691894,7.86555100402832
1788860597650449700,0.68444970703125,-4.696974744415283,-1.0711059677124022,6.227019242858886
1788860597660457000,0.69445703125,-6.068104107666016,-1.2801497001647948,4.01597400970459
1788860597670462700,0.704462646484375,-6.18676672744751,-1.6105495292663574,3.4356793823242184
1788860597680469800,0.7144697265625,-5.8183589469909665,-1.4155717315673828,4.432265823364258
1788860597690476800,0.724476806640625,-5.12029952545166,-3.716848439788818,5.984157411956787
1788860597700482800,0.73448291015625,-5.756109703826904,-8.457218089294432,7.302015788269043
1788860597710489900,0.74448974609375,-1.8240823898315428,-5.422417847442627,1.580023458099365
1788860597720497000,0.754496826171875,0.1649006393432617,-6.417358274841308,-0.8268973983764648
1788860597730503000,0.7645029296875,-3.0309096641540525,-7.528118207550048,3.6667198425292966
1788860597740509700,0.774509765625,-9.296086495971679,-10.02392380065918,10.292224024200438
1788860597750517000,0.78451708984375,-11.475258919525146,-10.999112064361572,10.80203934020996
1788860597760522800,0.794522705078125,-9.121908325195312,-9.612420390319823,8.462904318237305
1788860597770529800,0.80452978515625,-5.549609810638428,-11.968464461517334,8.96419029083252
1788860597780535800,0.814535888671875,-3.464110527038574,-14.723292746734618,9.649081603240965
1788860597790542800,0.82454296875,-2.0368670623779295,-15.696386083984374,8.509740888214111
1788860597800549600,0.834549560546875,-1.9979612854003905,-14.149282898712157,6.087556996154785
1788860597810555600,0.8445556640625,-2.4794950942993164,-10.387992090606689,4.797381576538085
1788860597820563000,0.85456298828125,-3.4446576385498044,-7.292588619232177,4.972756848144531
1788860597830569700,0.86456982421875,-4.124910185241699,-4.75009609375,5.391592501068115
1788860597840575700,0.87457568359375,-4.0632594924926755,-2.9504046333312988,5.66333438949585
1788860597850582800,0.884582763671875,-3.6092590026855467,-2.0687398719787597,5.493794984436035
1788860597860589800,0.89458984375,-3.545663021087646,-2.0425532913208007,5.169829572296142
1788860597870595600,0.904595703125,-5.384709171295166,-3.604470599365234,4.9286137550354
1788860597880603000,0.914602783203125,-7.1032970504760735,-6.054038172912597,4.30941335067749
1788860597890609700,0.924609619140625,-8.628852420806885,-7.661594950103759,3.412934466552734
1788860597900615700,0.93461572265625,-8.838793978881835,-8.225429441070556,2.869600327301025
1788860597910622700,0.944622802734375,-7.515548648834228,-8.224531615447997,2.9315502952575683
1788860597920629800,0.954629638671875,-5.693860460662841,-8.463353231048583,3.7247792327880855
1788860597930635800,0.9646357421875,-4.038718925476074,-8.80347950439453,4.96707061920166
1788860597940642800,0.974642822265625,-3.922001594543457,-8.530839790344238,4.722712412261963
1788860597950649900,0.98464990234375,-3.940407019805908,-8.211064231109619,3.7241806823730466
1788860597960655600,0.994655517578125,-4.248810121154785,-8.316558741760254,2.682104409790039
1788860597970663000,1.004662841796875,-4.901678986358642,-8.046911779785155,1.0652701011657715
1788860597980669700,1.014669677734375,-5.758204630279541,-7.868394118499755,0.47150808944702144
1788860597990675700,1.02467578125,-6.796689600372314,-7.209539749145508,0.9014169250488281
1788860598000682800,1.034682861328125,-7.203404607391357,-4.873397479248046,1.5411176811218261
1788860598010689800,1.044689697265625,-6.243629016876221,0.8158242156982422,2.1312883903503415
1788860598020695800,1.05469580078125,-5.12643466720581,0.7671919944763184,3.027318361663818
1788860598030702800,1.064702880859375,-4.564545465087891,-1.9979612854003905,2.833238389587402
1788860598040709600,1.074709716796875,-4.123413809204101,-1.4273931022644042,2.1480478019714355
1788860598050715600,1.084715576171875,-4.580407051086426,-2.271049912261963,1.8668787445068358
1788860598060723000,1.094722900390625,-3.8851907440185545,-3.088071228790283,2.1306898399353025
1788860598070729700,1.104729736328125,-5.435137043762206,-5.008071322631836,1.7877204521179197
1788860598080735700,1.11473583984375,-7.545476169586181,-6.2858268211364745,1.9728221679687499
1788860598090742800,1.12474267578125,-7.670273931121826,-6.591386808013915,2.451063949584961
1788860598100748800,1.134748779296875,-2.7922376861572262,-3.0437784980773923,1.0746972702026367
1788860598110755600,1.144755615234375,-1.983596075439453,-4.993107562255859,0.07347206344604491
1788860598120763000,1.154762939453125,-4.89644167022705,-5.768679262542724,0.6051344696044921
1788860598130769000,1.164768798828125,-5.68188945236206,-6.732943981170654,1.357362703704834
1788860598140775700,1.174775634765625,-5.017049578857422,-6.54365241241455,1.6109984420776366
1788860598150782700,1.18478271484375,-3.231723328399658,-4.74979681854248,0.22954408416748046
1788860598160788700,1.194788818359375,-6.169708040618896,-1.146672957611084,-2.278531792449951
1788860598170795800,1.204795654296875,-8.684517609405518,1.0965443603515623,-2.24067347869873
1788860598180802800,1.214802734375,-9.664943189239501,3.7158009765625,-0.9264064048767089
1788860598190808800,1.224808837890625,-7.704989855194091,0.6127659873962402,-0.1892915687561035
1788860598200815600,1.234815673828125,-6.482749907684326,-5.926247659301757,0.32172084808349605
1788860598210823000,1.244822998046875,-5.335328762054443,-9.580697218322753,0.9819219558715819
1788860598220828700,1.25482861328125,-4.809502222442626,-16.377835731506348,2.2755390403747557
1788860598230835700,1.264835693359375,-5.580584794616699,-21.498135256958008,2.9358897857666015
1788860598240842800,1.2748427734375,-6.012289281463623,-30.093169579315184,3.718943366241455
1788860598250848800,1.284848876953125,-5.262754524230957,-24.986487075805663,5.287295091247558
1788860598260855600,1.29485546875,-5.247341851043701,-14.280664714813232,6.011092180633544
1788860598270862800,1.30486279296875,-4.7578772491455075,-11.777826154327393,4.582202702331543
1788860598280868900,1.314868896484375,-4.357746296691894,-10.751761105346679,1.789516103363037
1788860598290875600,1.324875732421875,-5.4153848800659175,-11.672630918884277,0.1005564697265625
1788860598300883000,1.334883056640625,-6.215048234558105,-12.547711625671386,-0.6429927833557129
1788860598310888700,1.344888671875,-6.2398880767822265,-12.749273477935791,-0.8792705596923828
1788860598320895700,1.354895751953125,-6.257246038818359,-12.335675141143797,-1.180341418457031
1788860598330902800,1.36490283203125,-6.1379848686218255,-11.452065090942382,-1.1777975791931152
1788860598340908800,1.37490869140625,-5.516539900207519,-10.027215827941895,-0.9642647186279296
1788860598350915600,1.38491552734375,-4.808005846405029,-9.259425283050536,-0.7009025360107421
1788860598360923000,1.3949228515625,-4.57771357421875,-9.5124624710083,-0.423923331451416
1788860598370928600,1.4049287109375,-4.921730425262451,-9.561244329833984,-0.15263035583496093
1788860598380935700,1.414935791015625,-5.253177717590332,-8.763226988983154,0.08200140686035155
1788860598390942700,1.424942626953125,-5.500977589416504,-8.770409593963622,-0.0004489128112792969
1788860598400948700,1.43494873046875,-5.633406868743896,-8.546402101135254,-0.36496611557006836
1788860598410955800,1.444955810546875,-5.503820703887939,-8.610297357940674,-0.587926145172119
1788860598420962800,1.454962890625,-5.432293929290771,-8.354417055511474,-0.6449380722045898
1788860598430968800,1.46496875,-5.742193406677246,-7.8782702003479,-0.38352117843627925
1788860598440975600,1.4749755859375,-5.4433671119689935,-6.695235305023193,-0.1883937431335449
1788860598450982000,1.48498193359375,-4.9437271530151365,-4.909909054565429,0.07347206344604491
1788860598460988700,1.49498876953125,-4.574421546936035,-4.689343226623535,0.38052842636108397
1788860598470996000,1.504995849609375,-4.640711005401611,-5.475090283966064,0.48662148742675776
1788860598481001700,1.515001708984375,-4.913949269866943,-6.1750949943542475,0.11073182678222655
1788860598491008800,1.5250087890625,-4.997147777557373,-7.021594918823242,-0.06584054565429687
1788860598501015800,1.535015869140625,-5.865345154571533,-7.317278823852539,-0.0570119270324707
1788860598511021800,1.545021728515625,-6.130353350830077,-7.48232910079956,-0.6325181510925293
1788860598521028900,1.55502880859375,-5.320365001678466,-7.943212920379638,-1.246780514526367
1788860598531036000,1.565035888671875,-4.965574243164062,-7.607126862335204,-2.127697087860107
1788860598541042000,1.5750419921875,-4.11129316329956,-8.953715658569335,-3.244292887115478
1788860598551048700,1.585048583984375,-4.284872783660888,-10.522815571594238,-4.435707488250732
1788860598561056000,1.595055908203125,-5.045331085968018,-11.454459292602538,-4.529380628204345
1788860598571061800,1.605061767578125,-6.1656678253173824,-10.824484980773924,-4.872948566436767
1788860598581068800,1.61506884765625,-6.658274816894531,-9.272144479370116,-5.543923581695556
1788860598591075800,1.625075927734375,-6.751050131225585,-8.519766607666016,-5.948394024658203
1788860598601081900,1.635081787109375,-6.801777278900146,-8.328230474853514,-5.7064300193786615
1788860598611088600,1.645088623046875,-6.214150408935547,-8.829666085052489,-5.068524914550781
1788860598621096000,1.655095947265625,-6.32039310760498,-9.618106619262695,-4.694430905151367
1788860598631102000,1.66510205078125,-6.253505098724365,-9.860968450164794,-4.386626354217529
1788860598641108700,1.675108642578125,-6.676530604553222,-9.351302771759032,-4.280832568359375
1788860598651115800,1.68511572265625,-6.65213967514038,-8.749161054229736,-3.7128082244873046
1788860598661121800,1.695121826171875,-6.247818869781494,-8.096441826629638,-2.989759323120117
1788860598671128800,1.70512890625,-5.903053830718994,-7.0281789733886715,-2.627187409210205
1788860598681135900,1.715135986328125,-5.01809704208374,-5.178059640502929,-2.053027923583984
1788860598691142000,1.725141845703125,-4.309862263488769,-3.987093952178955,-0.5220855995178222
1788860598701148700,1.735148681640625,-4.52608860092163,-3.4867058052062987,1.1441291183471678
1788860598711156000,1.745156005859375,-5.399672931671142,-3.3940801284790036,1.608155327606201
1788860598721161700,1.75516162109375,-5.866093342590331,-3.845836054229736,0.27189152603149414
1788860598731168800,1.765168701171875,-5.866242980194092,-4.80725765838623,-1.332373223876953
1788860598741174800,1.7751748046875,-6.004657763671875,-5.5063645431518555,-2.544288176727295
1788860598751181800,1.785181884765625,-5.987299801635742,-6.078728377532959,-3.2275334754943845
1788860598761188900,1.79518896484375,-5.981015022277831,-7.041197444915771,-3.0623335609436033
1788860598771194600,1.805194580078125,-6.430376746368408,-7.864204265594482,-2.1805191619873048
1788860598781202000,1.815201904296875,-7.212083588409423,-8.469638010406493,-0.9368810371398926
1788860598791208700,1.825208740234375,-7.191134323883056,-7.650821042633056,0.16220716247558592
1788860598801214700,1.835214599609375,-6.468235060119628,-6.257694951629638,0.9632172554016113
1788860598811221800,1.8452216796875,-6.123918933868408,-6.40314270248413,0.8596680335998534
1788860598821228800,1.855228759765625,-5.8654947921752925,-6.972962697601318,-0.18809446792602538
1788860598831234800,1.86523486328125,-5.724087256622314,-7.901164753723144,-1.2038345222473144
1788860598841241900,1.875241943359375,-5.973383504486083,-8.154950129699706,-1.5131354492187499
1788860598851248600,1.88524853515625,-6.234052210235595,-8.177695045471191,-0.8677484642028808
1788860598861254700,1.895254638671875,-6.644208882141113,-8.405892391204834,-0.10100538253784179
1788860598871262000,1.905261962890625,-6.9995981910705565,-8.914360968780517,-0.046238019561767575
1788860598881268700,1.915268798828125,-7.103745963287353,-9.153631497192382,-0.3755903854370117
1788860598891274800,1.925274658203125,-6.852205151367187,-8.539069858551025,-0.31393969268798827
1788860598901281800,1.93528173828125,-6.488286499023437,-7.860164050292968,-0.10743979949951171
1788860598911287800,1.945287841796875,-6.054636723327636,-7.529016033172607,-0.12000935821533203
1788860598921294600,1.955294677734375,-5.640439836120605,-7.3840171951293945,-0.15472528228759766
1788860598931302000,1.965302001953125,-5.417779081726074,-7.513752997589111,-0.2641103706359863
1788860598941308000,1.975307861328125,-5.477484485626221,-7.598298243713378,-0.40402153015136716
1788860598951314700,1.985314697265625,-5.571606538391113,-7.724293106079101,-0.3929483474731445
1788860598961321700,1.99532177734375,-5.8457426284790035,-8.039878812408446,-0.11941080780029296
1788860598971327700,2.00532763671875,-6.375459745788574,-8.777442561340331,0.06718728408813476
1788860598981334800,2.015334716796875,-6.885125424194335,-9.475651620483397,0.3687070556640625
1788860598991341800,2.025341796875,-7.153724922943115,-9.701005851745604,0.6965630455017089
1788860599001347800,2.035347900390625,-7.282862174987793,-10.280851566314697,0.7336731712341308
1788860599011354600,2.045354736328125,-7.182604980468749,-11.028590672302245,0.7366659233093261
1788860599021362000,2.05536181640625,-6.72276862411499,-10.02437271347046,1.0969932731628418
1788860599031367700,2.06536767578125,-6.463446656799316,-8.968978694152831,1.382202545928955
1788860599041374700,2.075374755859375,-6.206518891143799,-7.212831776428223,1.2825439018249511
1788860599051381800,2.0853818359375,-4.376750272369384,-5.627870277404785,0.2337339370727539
1788860599061387800,2.0953876953125,-3.8419454765319823,-4.269759385681152,-0.5910685348510741
1788860599071394600,2.10539453125,-4.580556688690185,-3.9936780067443847,-0.876577082824707
1788860599081400800,2.11540087890625,-5.843348426818848,-4.74366167678833,-1.0408791717529295
1788860599091408000,2.125407958984375,-6.9527616210937495,-4.396352798461914,-0.9542389991760253
1788860599101414700,2.13541455078125,-5.470301880645752,-4.1751884201049805,-1.0535983680725096
1788860599111421000,2.1454208984375,-4.9455228042602535,-7.838167322540283,-1.0977414611816405
1788860599121427700,2.155427734375,-5.390096125030517,-10.486303996276854,-0.3098994773864746
1788860599131434800,2.165434814453125,-4.835539165496826,-9.650129066467285,-0.4170400016784668
1788860599141440800,2.175440673828125,-5.092018018341064,-8.051550545501708,-0.859967308807373
1788860599151447800,2.18544775390625,-6.6401686668396,-7.520337052154541,-0.5499181938171387
1788860599161454600,2.19545458984375,-6.711246528625488,-7.27852268447876,-0.5716156463623047
1788860599171460900,2.2054609375,-6.28253479385376,-7.485321852874756,-0.3625719139099121
1788860599181467600,2.215467529296875,-6.17988339767456,-7.761702507019042,0.2522889999389648
1788860599191474700,2.225474609375,-6.126013860321045,-7.9658081985473626,0.7184101356506347
1788860599201481000,2.23548095703125,-5.984307049560546,-8.029703455352783,0.8482955757141113
1788860599211487700,2.24548779296875,-6.110002636718749,-7.876175273895263,0.7184101356506347
1788860599221493800,2.25549365234375,-6.410624582672119,-7.745840921020507,0.5198410354614258
1788860599231500800,2.265500732421875,-6.360795260620117,-7.775020253753661,0.39115269622802734
1788860599241507800,2.2755078125,-6.330269189453125,-7.866598467254638,0.2380734275817871
1788860599251513600,2.285513671875,-6.525396624755859,-7.910891197967529,0.0909796630859375
1788860599261521000,2.29552099609375,-6.845471459197998,-7.978228119659423,-0.05252279891967773
1788860599271527700,2.305527587890625,-6.968922482299805,-8.065017929840087,-0.08918401184082031
1788860599281533700,2.31553369140625,-6.826916396331787,-7.989750215148925,-0.012719196319580078
1788860599291540700,2.325540771484375,-6.610540421295165,-7.6565072715759275,0.12285247268676758
1788860599301547800,2.3355478515625,-6.573280657958984,-7.279121234893799,0.22909517135620117
1788860599311553800,2.3455537109375,-6.48634121017456,-7.041047807312012,0.3387795349121094
1788860599321560800,2.355560791015625,-6.468983248138428,-6.993911962127685,0.4471171600341797
1788860599331566800,2.36556689453125,-6.500556782531738,-6.890512377929687,0.5647323165893554
1788860599341573600,2.37557373046875,-6.557568709564209,-6.637325552368163,0.6030395431518555
1788860599351581000,2.385580810546875,-6.684760672760009,-6.293757614135742,0.6775590698242188
1788860599361586700,2.395586669921875,-6.823474731445312,-5.896320138549805,0.8897451919555663
1788860599371593700,2.40559375,-7.042095270538329,-5.8654947921752925,1.0914566818237303
1788860599381600800,2.415600830078125,-7.4185834815979,-6.2018801254272455,1.1348515869140625
1788860599391606800,2.425606689453125,-7.438485282897949,-6.412719509124756,0.9156324974060058
1788860599401613800,2.43561376953125,-7.184699906921386,-6.2392895263671875,0.5891232460021972
1788860599411620900,2.445620849609375,-6.938845323944092,-5.767631799316406,0.39534254913330075
1788860599421627000,2.455626953125,-6.701819359588622,-5.347150132751464,0.3796306007385254
1788860599431633700,2.465633544921875,-6.641515405273437,-5.272630606079101,0.5017348854064941
1788860599441641000,2.475640869140625,-7.059902145385742,-5.576095666503906,0.6299743118286133
1788860599451646700,2.485646728515625,-7.601889546203613,-6.178536659240723,0.6603507453918457
1788860599461653800,2.49565380859375,-7.813327480316162,-6.995109062957764,0.9599252281188965
1788860599471659800,2.50565966796875,-7.7395561416625975,-7.595604766845702,1.4998177024841308
1788860599481666800,2.515666748046875,-7.800309008789062,-7.735366288757324,1.6807295654296874
1788860599491673600,2.525673583984375,-7.754070989227294,-7.539041752624511,1.582716934967041
1788860599501679900,2.535679931640625,-7.1026985000610345,-7.299322311401367,1.5738883163452146
1788860599511687000,2.54568701171875,-6.535871257019043,-7.037456504821777,1.7272668601989745
1788860599521693700,2.555693603515625,-6.405985816955566,-6.749254479980468,1.6856676063537597
1788860599531700000,2.565699951171875,-6.509535038757324,-6.44803398361206,1.209221475982666
1788860599541706800,2.575706787109375,-6.47975715560913,-6.278195303344726,0.3887584945678711
1788860599551713300,2.58571337890625,-6.28178660583496,-6.423343778991699,-0.36092590026855464
1788860599561719300,2.59571923828125,-6.348973889923095,-6.662614307403564,-0.8684966522216796
1788860599571726000,2.60572607421875,-6.62041650314331,-6.903081936645507,-1.2146084297180175
1788860599581732400,2.615732421875,-6.739378398132324,-7.292738256835937,-1.4673463424682616
1788860599591739100,2.6257392578125,-6.477662229156493,-7.742997806549072,-1.5607202072143553
1788860599601746200,2.63574609375,-6.139780519866943,-7.765144171905517,-1.4007576087951659
1788860599611752200,2.645752197265625,-5.928791498565674,-7.472602656555176,-1.0410288093566893
1788860599621759200,2.65575927734375,-5.744587608337402,-7.301566875457763,-0.6006453414916992
1788860599631766000,2.66576611328125,-5.672462283325195,-7.325957804870605,-0.13736732025146484
1788860599641772300,2.675772216796875,-5.87387449798584,-7.4685624412536615,0.07422025146484375
1788860599651779000,2.685779052734375,-6.1076084350585935,-7.638999671936035,0.05027823486328125
1788860599661786000,2.6957861328125,-6.4071829177856445,-7.631966704559326,-0.15831658477783203
1788860599671792400,2.70579248046875,-6.4834980957031245,-7.676857985687255,-0.30960020217895506
1788860599681799200,2.715799072265625,-6.222530114746093,-7.882310415649414,-0.28012159423828126
1788860599691805200,2.72580517578125,-6.13514175415039,-7.832930006408691,-0.3016694091796875
1788860599701812200,2.735812255859375,-5.916072302246094,-7.952939364624023,-0.2488473350524902
1788860599711819300,2.7458193359375,-6.009146891784668,-8.1341505027771,-0.35673604736328124
1788860599721825000,2.755824951171875,-5.790975265502929,-8.532785079193115,-0.035464112091064454
1788860599731832300,2.765832275390625,-6.1462149368286125,-8.683769421386717,0.0713771369934082
1788860599741839000,2.775839111328125,-6.354809756469726,-8.573636145019531,-0.14784195251464843
1788860599751845000,2.78584521484375,-5.874173773193359,-8.565854989624023,-0.330699104309082
1788860599761852200,2.79585205078125,-5.513846423339843,-8.547748839569092,-0.19333178405761717
1788860599771859200,2.805859130859375,-5.84185205078125,-8.411129707336425,-0.13976152191162108
1788860599781865200,2.815865234375,-5.988646540069579,-8.298153316497801,-0.09965864410400391
1788860599791872300,2.825872314453125,-5.6018333343505855,-8.628104232788086,0.2280477081298828
1788860599801879000,2.835879150390625,-5.6209869476318355,-9.047688073730468,0.0378583137512207
1788860599811885000,2.845885009765625,-5.912480999755859,-9.093776455688475,-0.5083189399719238
1788860599821892400,2.855892333984375,-6.114940677642822,-9.191789086151122,-0.6407482192993164
1788860599831898000,2.865898193359375,-6.20562106552124,-9.2826191116333,-0.3447650390625
1788860599841905200,2.8759052734375,-6.314856516265869,-9.089586602783202,-0.23508067550659179
1788860599851912200,2.885912109375,-5.940612869262695,-9.033472501373291,-0.11866261978149413
1788860599861918200,2.895918212890625,-5.596446380615234,-9.166649968719481,0.22655133209228515
1788860599871925000,2.905925048828125,-5.687725318908691,-9.134328246307373,0.6233902572631835
1788860599881932300,2.915932373046875,-6.2018801254272455,-8.904634524536132,0.8059481338500976
1788860599891938300,2.925938232421875,-6.3441854866027825,-8.774749084472656,0.4510077377319336
1788860599901945000,2.935945068359375,-5.660640912628174,-8.930671467590331,-0.0857423469543457
1788860599911952400,2.945952392578125,-4.701912785339355,-9.046790248107909,-0.656310530090332
1788860599921958100,2.955958251953125,-3.7894226776123046,-8.964040653228759,-1.0720037933349609
1788860599931965200,2.965965087890625,-3.388693174743652,-8.585906428527831,-1.2779051361083984
1788860599941971000,2.975970947265625,-3.4126351913452146,-8.225279803466796,-1.101931314086914
1788860599951978200,2.985978271484375,-3.7282208976745603,-8.06307264099121,-0.6784568954467773
1788860599961985000,2.995985107421875,-4.135983367919922,-8.197746484375,-0.23927052841186522
1788860599971991000,3.005990966796875,-4.66689758605957,-8.311171788024902,-0.06808510971069336
1788860599981998000,3.015998046875,-5.174019425201416,-8.295908752441406,-0.04414309310913086
1788860599992005000,3.026005126953125,-5.395931991577148,-8.495974228668212,0.28954876327514645
1788860600002011100,3.03601123046875,-5.436633419799804,-8.864082733917236,0.8812158485412597
1788860600012018200,3.04601806640625,-5.929240411376953,-9.095572106933593,1.1502642601013182
1788860600022025200,3.056025146484375,-6.810306622314453,-8.978555500793457,1.0458172126770018
1788860600032031000,3.066031005859375,-7.525275093078613,-8.672696238708495,0.8283937744140625
1788860600042038300,3.076038330078125,-7.702146740722656,-8.288726147460936,0.7977180656433105
1788860600052044000,3.0860439453125,-6.94004242477417,-8.037185335540771,1.0978910987854003
1788860600062051000,3.096051025390625,-6.173000067901611,-7.9086466339111325,1.537975291442871
1788860600072058000,3.10605810546875,-5.6958057495117185,-7.943362557983398,1.8312649948120117
1788860600082064100,3.116064208984375,-5.162497329711914,-8.100033129119872,1.777395457458496
1788860600092071200,3.1260712890625,-4.668393962097167,-8.22946965637207,1.4561235221862792
1788860600102078200,3.136078125,-4.351311879730225,-8.225878353881836,1.0149918663024902
1788860600112084200,3.146084228515625,-4.482693695831299,-8.05738641204834,0.8385691314697266
1788860600122091000,3.156091064453125,-5.295674797058105,-7.8621093391418455,0.9926958633422851
1788860600132098300,3.166098388671875,-6.076334175872803,-7.794473142242431,1.2566565963745115
1788860600142104000,3.17610400390625,-6.573879208374023,-7.975385005187988,1.5249568199157715
1788860600152111000,3.186111083984375,-6.890213102722168,-8.33167213973999,1.6211737991333006
1788860600162117000,3.1961171875,-6.963385890960693,-8.628702783203124,1.476025323486328
1788860600172124200,3.206124267578125,-6.6711436508178705,-8.776395098114014,1.1586439659118652
1788860600182131000,3.216130859375,-6.124966397094727,-8.662520881652831,0.7414543266296386
1788860600192137200,3.22613720703125,-5.669619168853759,-8.275857313537598,0.6057330200195312
1788860600202144300,3.236144287109375,-5.556792415618896,-7.672219219970703,0.8011597305297851
1788860600212151000,3.246151123046875,-5.882403841400146,-7.11870972366333,1.1456254943847655
1788860600222157300,3.2561572265625,-6.655431702423095,-6.92657504043579,1.3536217636108399
1788860600232164000,3.2661640625,-7.472004106140136,-7.051522439575195,1.343895319366455
1788860600242170000,3.276170166015625,-7.84594847793579,-7.349600546264648,1.3271359077453613
1788860600252177200,3.28617724609375,-7.5587939163208,-7.643039887237548,1.3453916954040526
1788860600262184200,3.29618408203125,-7.053617366027831,-7.703194203948974,1.377713417816162
1788860600272190200,3.306190185546875,-6.591536445617676,-7.354089674377441,1.5158289260864257
1788860600282197200,3.316197265625,-6.383689813995361,-6.804620393371581,1.8637363548278807
1788860600292204000,3.3262041015625,-6.861781958007812,-6.337002881622314,2.182614088439941
1788860600302210000,3.3362099609375,-7.452401580047607,-6.068403382873535,2.1068974609374997
1788860600312217300,3.34621728515625,-7.634809819030761,-5.970989302825927,1.619677423095703
1788860600322224000,3.35622412109375,-7.632415617370605,-5.997624796295166,1.022773021697998
1788860600332230100,3.366230224609375,-7.717709051513672,-6.182277599334716,0.7106289802551269
1788860600342237200,3.3762373046875,-7.857769848632812,-6.245424668121338,0.6036380935668945
1788860600352244200,3.386244140625,-7.633612718200683,-5.957821193695068,0.748936206817627
1788860600362250000,3.39625,-7.443273686218261,-5.404311697387695,1.1194389137268066
1788860600372257300,3.40625732421875,-8.103474794006347,-5.1602527656555175,1.4124293418884277
1788860600382263300,3.41626318359375,-8.224830890655516,-5.256469744873047,1.361103643798828
1788860600392270000,3.42627001953125,-7.661594950103759,-5.419275457763671,1.261444999694824
1788860600402277000,3.436277099609375,-7.519439226531982,-5.603329710388183,1.5598223815917969
1788860600412283100,3.446283203125,-7.54008921585083,-5.760449194335937,1.7693150268554687
1788860600422290200,3.456290283203125,-7.231237201690673,-5.719149215698242,1.7381904052734374
1788860600432297200,3.466297119140625,-7.607875050354004,-5.4625207252502435,1.6970400642395018
1788860600442303200,3.47630322265625,-7.94859987411499,-5.165789356994629,1.665017617034912
1788860600452310000,3.48631005859375,-8.232612046051026,-4.789899696350098,1.349581548309326
1788860600462317300,3.4963173828125,-8.352022853851318,-4.579958138275146,1.012448027038574
1788860600472323000,3.506322998046875,-8.367585164642334,-4.490774126434326,0.7944260383605957
1788860600482330000,3.516330078125,-8.501510820007324,-4.4583027664184565,0.833182177734375
1788860600492336400,3.52633642578125,-8.622418003845214,-4.454262551116943,0.8979752601623535
1788860600502343200,3.53634326171875,-8.613739022827147,-4.466383197021484,0.7917325614929199
1788860600512350200,3.54635009765625,-8.35726016998291,-4.391564395141601,0.6607996582031249
1788860600522356200,3.556356201171875,-7.964760735321044,-4.292803576660156,0.618601853942871
1788860600532363300,3.56636328125,-7.962067258453368,-4.164264875030518,0.5940612869262695
1788860600542370000,3.5763701171875,-8.417414486694335,-4.009689230346679,0.7240963645935058
1788860600552376300,3.586376220703125,-9.118317022705078,-3.9010523300170896,0.9035118515014647
1788860600562383000,3.596383056640625,-9.861866275787353,-3.9363668045043942,1.1026795021057127
1788860600572389000,3.60638916015625,-10.194510668945313,-4.063708405303955,1.3027449783325196
1788860600582396200,3.616396240234375,-9.505579141235351,-4.221875352478027,1.174056639099121
1788860600592403200,3.6264033203125,-8.50450357208252,-4.447528858947754,0.9213187263488769
1788860600602409200,3.6364091796875,-8.240093926239012,-4.757428336334228,0.8762778076171874
1788860600612416300,3.646416259765625,-8.636633576202392,-5.059397020721435,0.8717886795043944
1788860600622423300,3.65642333984375,-9.127295278930664,-5.216366867065429,0.7742249618530272
1788860600632429300,3.66642919921875,-9.340977777099608,-5.221005632781982,0.7212532501220703
1788860600642436400,3.676436279296875,-9.230245950317382,-5.119102424621582,0.6432920585632323
1788860600652443100,3.686443115234375,-8.972270721435546,-5.007772047424316,0.6551134292602538
1788860600662449400,3.696449462890625,-8.775347634887694,-4.799177227783203,0.6079775840759277
1788860600672456200,3.706456298828125,-8.96927796936035,-4.359242672729492,0.3990834892272949
1788860600682462200,3.716462158203125,-9.497199435424804,-3.780145146179199,0.165349552154541
1788860600692469200,3.72646923828125,-9.821164847564697,-3.331381972503662,-0.08798691101074219
1788860600702476300,3.736476318359375,-9.854234757995606,-3.225139273834228,-0.2663549346923828
1788860600712482300,3.746482421875,-9.787496386718749,-3.362057681274414,-0.21113865890502928
1788860600722489300,3.7564892578125,-9.486275890350342,-3.7090672843933103,-0.10324994659423828
1788860600732496400,3.766496337890625,-9.265410787200928,-4.181173924255371,-0.2916436897277832
1788860600742502100,3.776502197265625,-8.572738319396972,-4.5455414894104,-0.6829460235595702
1788860600752509400,3.786509521484375,-8.169016064453125,-4.598662838745117,-0.7909843734741211
1788860600762516200,3.79651611328125,-8.793753060150147,-4.518307445526123,-0.47584757995605464
1788860600772522200,3.806522216796875,-9.539546877288817,-4.621258116912841,-0.15472528228759766
1788860600782529300,3.816529296875,-10.239701225280761,-4.767753330993652,-0.0818517692565918
1788860600792535300,3.826535400390625,-10.285789607238769,-4.8314989501953125,-0.354341845703125
1788860600802542300,3.836542236328125,-9.358186101531983,-4.585045816802978,-0.6370072792053222
1788860600812549400,3.84654931640625,-8.553734343719482,-4.04126276473999,-0.9852139831542969
1788860600822555400,3.856555419921875,-8.33840583190918,-3.6324528312683104,-0.9926958633422851
1788860600832562200,3.866562255859375,-9.172336197662354,-3.7030817802429197,-0.3221697608947754
1788860600842569500,3.876569580078125,-9.865457578277587,-3.836408885192871,0.5829881042480468
1788860600852575200,3.8865751953125,-8.844031295013426,-3.9056910957336424,0.8979752601623535
1788860600862582300,3.896582275390625,-7.493851196289062,-3.7802947837829586,0.45175592575073237
1788860600872588000,3.906588134765625,-7.6373536582946775,-3.157652714538574,-0.45325230178833004
1788860600882595300,3.91659521484375,-8.270171084594725,-2.648435948944092,-1.3157634498596191
1788860600892602000,3.92660205078125,-8.304737371063231,-2.5794530136108396,-1.5161282012939452
1788860600902608100,3.936608154296875,-8.244583054351805,-2.782810517120361,-1.1158476112365723
1788860600912615400,3.946615478515625,-8.31835439300537,-3.123236065673828,-0.661398208618164
1788860600922622200,3.956622314453125,-8.277054414367676,-3.312677272033691,-0.6260837341308594
1788860600932628200,3.966628173828125,-8.552836518096923,-3.3533787002563473,-1.2325649421691893
1788860600942635300,3.97663525390625,-8.95655877304077,-3.0199861190795896,-1.9838953506469725
1788860600952642300,3.986642333984375,-8.824578406524658,-2.3950994857788084,-2.260724917602539
1788860600962648000,3.99664794921875,-8.688108911895752,-2.007987004852295,-1.5921441040039062
1788860600972655400,4.0066552734375,-8.180987072753906,-1.894262425994873,-0.8999205490112304
1788860600982661000,4.0166611328125,-8.090306684875488,-1.790713204193115,-0.8677484642028808
1788860600992668200,4.026668212890625,-8.356212706756592,-1.8679262077331542,-1.2515689178466796
1788860601002675200,4.03667529296875,-8.094047624969482,-2.3123498908996583,-1.133205573272705
1788860601012681200,4.04668115234375,-7.866299192047118,-2.476352704620361,-0.9828197814941406
1788860601022688300,4.056688232421875,-8.103175518798828,-2.1631611999511717,-1.520168416595459
1788860601032695300,4.0666953125,-8.104671894836425,-1.962646810913086,-1.875707363128662
1788860601042701300,4.076701416015625,-8.026710703277587,-1.866130556488037,-1.518821678161621
1788860601052708000,4.0867080078125,-8.052747646331786,-1.5764321556091307,-1.2586018852233887
1788860601062715400,4.09671533203125,-8.126668622589111,-1.1079168182373047,-1.451784031677246
1788860601072721200,4.10672119140625,-7.946804222869873,-0.9496002334594726,-1.2816460762023925
1788860601082728200,4.116728271484375,-7.889792295837402,-1.0184335311889647,-0.830638338470459
1788860601092734500,4.126734375,-8.130259925079345,-1.0356418556213378,-0.565031591796875
1788860601102741200,4.1367412109375,-8.609249894714354,-0.9452607429504394,-0.5355529838562011
1788860601112748000,4.146748046875,-8.454823887634277,-0.9394248764038086,-0.3956418243408203
1788860601122754300,4.15675439453125,-8.144176222229003,-1.1314099220275877,0.010324994659423827
1788860601132761300,4.16676123046875,-8.253860585784912,-1.370680450439453,0.3298012786865234
1788860601142768000,4.17676806640625,-8.065317205047608,-1.491288359069824,0.3806780639648437
1788860601152774400,4.1867744140625,-7.532457698059082,-1.5969325073242187,0.2750339157104492
1788860601162781200,4.19678125,-7.177367664337158,-1.7389385932922363,0.2319382858276367
1788860601172788200,4.206788330078125,-7.383867557525634,-1.9259855979919434,0.13063362808227538
1788860601182794200,4.216794189453125,-8.090755597686767,-2.1903952438354493,-0.31753099517822264
1788860601192801300,4.22680126953125,-8.509441613006592,-2.4630349578857422,-0.6833949363708496
1788860601202807300,4.236807373046875,-8.456619538879394,-2.8507459892272946,-0.6464344482421874
1788860601212814300,4.246814453125,-7.946205672454833,-3.2857425033569334,-0.337732071685791
1788860601222821000,4.256821044921875,-7.688080805969238,-3.572448152160644,-0.143652099609375
1788860601232827100,4.2668271484375,-7.567472897338867,-3.61973363494873,-0.29493571701049803
1788860601242834400,4.27683447265625,-7.654262707519531,-3.601926760101318,-0.5162497329711914
1788860601252841200,4.28684130859375,-8.021323749542235,-3.5582325798034664,-0.5843348426818847
1788860601262847200,4.29684716796875,-8.071153071594237,-3.5411738929748533,-0.5572504364013672
1788860601272854300,4.306854248046875,-8.154052304077148,-3.6055180625915524,-0.3995324020385742
1788860601282861300,4.316861328125,-8.43402426071167,-4.049043920135498,0.1484405029296875
1788860601292867000,4.3268671875,-8.172906642150878,-4.7946880996704095,0.7013514488220215
1788860601302874400,4.336874267578125,-7.918073802947998,-5.444713850402832,0.8149263900756836
1788860601312881200,4.346881103515625,-7.562983769226074,-6.066607731628418,0.6811503723144531
1788860601322887200,4.35688720703125,-7.1589622390747065,-6.759579474639892,0.404769718170166
1788860601332894200,4.366894287109375,-7.27163935470581,-7.323713240814208,-0.010474632263183592
1788860601342900200,4.376900146484375,-7.834875295257568,-7.595006216430663,-0.4560954162597656
1788860601352907300,4.3869072265625,-8.202834162902832,-7.644985176086426,-0.5955576629638671
1788860601362914300,4.396914306640625,-8.329427575683594,-7.476343596649169,-0.40925884628295894
1788860601372920300,4.40692041015625,-8.24188957748413,-7.16330172958374,-0.08918401184082031
1788860601382927000,4.416927001953125,-7.860463325500488,-6.975356899261474,0.1924339584350586
1788860601392934400,4.426934326171875,-7.5531076873779295,-6.889464914703368,0.48826750106811523
1788860601402940200,4.436940185546875,-7.4317515907287595,-7.0090253601074215,1.1454758567810057
1788860601412947200,4.446947265625,-7.477391059875488,-7.289895142364501,1.9577087699890137
1788860601422954200,4.456954345703125,-7.733720275115966,-7.6574050971984855,2.4979005195617674
1788860601432960300,4.466960205078125,-7.951442988586425,-8.141482745361328,2.7953800758361815
1788860601442967300,4.47696728515625,-8.117091815948486,-8.721777372741698,2.871096703338623
1788860601452974300,4.486974365234375,-8.486547059631347,-9.316886122894287,2.6569652923583984
1788860601462980400,4.49698046875,-9.047388798522949,-9.794529354095458,2.174533657836914
1788860601472987100,4.506987060546875,-9.27079774093628,-10.179247633361816,1.7161936775207518
1788860601482993200,4.5169931640625,-9.031227937316894,-10.443058728790282,1.51942022857666
1788860601493000200,4.527000244140625,-8.674491889953613,-10.71285532836914,1.50026661529541
1788860601503007200,4.53700732421875,-8.731204541778563,-10.728417639160156,1.2057798110961913
1788860601513013200,4.54701318359375,-8.47278040008545,-10.761936462402343,0.9747393508911132
1788860601523020300,4.557020263671875,-7.645733364105224,-10.852766487884521,0.9412205276489257
1788860601533027000,4.567027099609375,-7.1309800071716305,-10.613495959472656,0.7116764434814453
1788860601543033000,4.577033203125,-7.10614016494751,-10.059537550354003,0.18959084396362302
1788860601553040400,4.587040283203125,-7.356184600830078,-9.756072489929199,-0.08753799819946288
1788860601563047400,4.59704736328125,-7.542034504699706,-9.846154327392577,-0.08140285644531249
1788860601573053700,4.6070537109375,-7.136217323303223,-10.201543636322022,0.12659341278076172
1788860601583060500,4.617060546875,-6.764667153167724,-10.178349807739258,0.14679448928833008
1788860601593067500,4.627067626953125,-6.787262431335448,-9.731980835723876,0.09681552963256836
1788860601603073500,4.637073486328125,-6.853701527404785,-9.315838659667968,0.46671968612670894
1788860601613080600,4.64708056640625,-6.685059947967529,-8.878298306274413,1.0823287879943848
1788860601623086300,4.65708642578125,-6.1647699996948235,-8.265233043670653,1.4622586639404296
1788860601633093600,4.66709375,-5.182548768615723,-7.8170684204101555,1.8281226051330566
1788860601643100400,4.677100341796875,-4.528033889770508,-7.359626265716552,1.8704700469970703
1788860601653106400,4.6871064453125,-4.637119702911376,-6.771999395751953,1.5255553703308105
1788860601663113500,4.697113525390625,-4.989216984558105,-6.431573847198486,1.1658265708923339
1788860601673120500,4.70712060546875,-5.226093311309814,-6.502202796173095,0.8933364944458008
1788860601683126500,4.71712646484375,-5.69505756149292,-6.811503723144531,0.7498340324401855
1788860601693133600,4.727133544921875,-6.630142947387695,-7.242460021972656,0.9695020347595215
1788860601703140600,4.737140625,-7.877372374725342,-7.607725412750244,1.4124293418884277
1788860601713146400,4.747146484375,-8.864382009124755,-7.961917620849609,1.7881693649291992
1788860601723153700,4.757153564453125,-9.140762663269042,-8.29306563796997,1.8863316329956055
1788860601733160400,4.767160400390625,-8.998906214904785,-8.409932606506347,1.7202338928222656
1788860601743166500,4.77716650390625,-8.685864347839354,-8.343343872833252,1.6193781478881835
1788860601753173500,4.787173583984375,-8.226626541900634,-8.211962056732178,1.7699135772705077
1788860601763179500,4.797179443359375,-7.461828749084472,-7.990348765563964,1.9921254188537596
1788860601773186600,4.8071865234375,-6.7377323844909665,-7.588721437072754,1.8746598999023436
1788860601783193600,4.817193603515625,-6.386981841278076,-7.018302891540527,1.3795090690612792
1788860601793199600,4.82719970703125,-6.403741252899169,-6.477811866760254,0.8643067993164062
1788860601803206400,4.837206298828125,-6.938396411132812,-6.030993981933594,0.5008370597839356
1788860601813213700,4.847213623046875,-7.789535101318359,-5.805639750671387,0.23956980361938476
1788860601823219500,4.857219482421875,-8.443900342559814,-6.003161387634277,0.1731307075500488
1788860601833226500,4.8672265625,-8.83610050201416,-6.28208588104248,0.4520552009582519
1788860601843233500,4.877233642578125,-8.807070806884765,-6.519261483001708,0.7528267845153808
1788860601853239600,4.887239501953125,-8.375366320037841,-6.628646571350097,0.8927379440307617
1788860601863246300,4.897246337890625,-7.98660782546997,-6.500257507324219,1.0205284576416016
1788860601873253600,4.907253662109375,-7.764844896697998,-6.222081201934814,1.0238204849243164
1788860601883259600,4.917259765625,-7.627327938842773,-5.844096614837646,0.7276876670837402
1788860601893266400,4.927266357421875,-7.445518250274658,-5.372588525390625,0.3892074073791504
1788860601903272400,4.9372724609375,-7.089081478118896,-4.865765961456298,0.25647885284423827
1788860601913279500,4.947279541015625,-7.034912665557861,-4.477606017303467,0.25528175201416015
1788860601923286500,4.95728662109375,-7.668777555084228,-4.490175576019287,0.407313557434082
1788860601933292300,4.967292236328125,-8.509890525817871,-4.813392800140381,0.5330091445922851
1788860601943299600,4.977299560546875,-8.897152644348145,-5.073612593078613,0.5609913764953613
1788860601953306400,4.987306396484375,-9.096769207763671,-5.0769046203613275,0.376039298248291
1788860601963312400,4.9973125,-9.074922117614745,-4.778976151275635,-0.015263035583496093
1788860601973319400,5.0073193359375,-8.902539598083495,-4.2688615600585935,-0.2929904281616211
1788860601983326500,5.017326416015625,-8.976759849548339,-3.8251860649108886,-0.3253121505737305
1788860601993332500,5.02733251953125,-8.994716361999512,-3.7632360969543455,-0.37918168792724605
1788860602003339500,5.037339599609375,-8.576628897094727,-3.9451954231262203,-0.687584789276123
1788860602013346600,5.0473466796875,-8.298153316497801,-4.21978042602539,-0.8563760063171386
1788860602023352300,5.057352294921875,-8.163928385925292,-4.50738390045166,-0.7438485282897949
1788860602033359600,5.067359619140625,-7.350947284698486,-4.64789361038208,-0.6220435188293457
1788860602043366400,5.077366455078125,-7.484124752044678,-4.556764309692382,-0.45459904022216796
1788860602053372400,5.087372314453125,-8.259097901916503,-4.3825861389160155,-0.4149450752258301
1788860602063379500,5.09737939453125,-8.230666757202147,-4.04171167755127,-0.7583633758544921
1788860602073386500,5.107386474609375,-7.85268217010498,-3.526659045410156,-1.1418845542907714
1788860602083392300,5.117392333984375,-7.799261545562744,-3.4305917037963867,-1.4354735328674315
1788860602093399600,5.127399658203125,-6.4469865203857415,-3.2933740211486815,-2.0397101768493653
1788860602103405600,5.137405517578125,-5.589563050842285,-2.57301859664917,-2.6479870361328124
1788860602113412400,5.147412353515625,-8.379556172943115,-1.9289783500671385,-2.0814590682983396
1788860602123419600,5.157419677734375,-10.032303506469725,-2.1583727966308595,-0.702847824859619
1788860602133425400,5.16742529296875,-7.455843244934082,-2.384475215911865,-0.14185644836425781
1788860602143432400,5.177432373046875,-6.017676235198974,-1.8758570007324218,-0.36436756515502927
1788860602153439500,5.187439453125,-7.672069582366943,-1.0823287879943848,-1.009455274963379
1788860602163445500,5.197445556640625,-8.04406866531372,-0.9906009368896483,-1.5773299812316894
1788860602173452300,5.207452392578125,-7.273734281158447,-1.1086650062561034,-1.762581334686279
1788860602183459600,5.21745947265625,-7.458835997009277,-1.2343605934143065,-1.6692074699401855
1788860602193465300,5.22746533203125,-7.73117643585205,-1.5750854171752928,-1.4540285957336425
1788860602203472400,5.237472412109375,-8.045415403747558,-1.8396447006225585,-1.3281833709716797
1788860602213479400,5.2474794921875,-8.611943371582031,-2.062604730224609,-1.0034697708129883
1788860602223485400,5.2574853515625,-8.664017257690428,-2.2004209632873533,-0.7139210075378417
1788860602233492500,5.267492431640625,-8.182932361602782,-2.021304751586914,-0.7164648468017578
1788860602243498500,5.27749853515625,-7.728782234191894,-1.8198925369262695,-0.7395090377807617
1788860602253505500,5.287505615234375,-7.429806301879882,-1.7974468963623045,-1.0344447547912596
1788860602263512600,5.2975126953125,-7.45045629119873,-1.6551415351867675,-1.4990695144653319
1788860602273518600,5.3075185546875,-7.901464028930664,-1.3985130447387695,-1.7622820594787596
1788860602283525400,5.317525390625,-7.940070530700683,-1.0338462043762207,-1.7980454467773437
1788860602293532700,5.32753271484375,-7.4317515907287595,-0.7088333290100097,-1.4329296936035156
1788860602303538700,5.33753857421875,-7.127239067077636,-0.7577648254394531,-0.6585550941467285
1788860602313545500,5.34754541015625,-7.089380753326416,-1.1375450637817381,0.007481880187988281
1788860602323552500,5.357552490234375,-6.90128628540039,-1.5574281799316405,0.12285247268676758
1788860602333558500,5.36755859375,-6.509834313964843,-1.9680337646484374,0.030974983978271482
1788860602343565600,5.377565673828125,-6.2852282707214355,-2.379836450195312,-0.0004489128112792969
1788860602353572600,5.387572509765625,-6.598569412994385,-2.804507969665527,-0.11716624374389648
1788860602363578600,5.39757861328125,-7.3377791755676265,-3.192967189025879,-0.3338414939880371
1788860602373585400,5.40758544921875,-7.768585836791992,-3.4069489624023435,-0.3730465461730957
1788860602383592700,5.4175927734375,-7.920019091796875,-3.5646669967651365,-0.2904465888977051
1788860602393598500,5.427598388671875,-8.36294639892578,-3.710563660430908,-0.21248539733886718
1788860602403605500,5.43760546875,-8.761431337738037,-3.8832454551696776,0.07332242584228515
1788860602413612500,5.447612548828125,-8.693645503234864,-4.177283346557617,0.7164648468017578
1788860602423618600,5.45761865234375,-8.248174356842041,-4.564545465087891,1.1329062980651854
1788860602433625300,5.467625244140625,-7.766191635131835,-4.97335539855957,0.9886556480407714
1788860602443632600,5.477632568359375,-7.466317877197265,-5.362263530731201,0.6238391700744629
1788860602453638700,5.487638671875,-7.526472193908691,-5.737105728149413,0.3456628646850586
1788860602463645400,5.4976455078125,-7.898770552062988,-5.969492926788329,0.076614453125
1788860602473651500,5.5076513671875,-7.747935847473144,-6.10341858215332,-0.19093758239746092
1788860602483658500,5.517658447265625,-6.812401548767089,-6.349422802734375,-0.20425532913208005
1788860602493665500,5.52766552734375,-5.720944866943359,-6.643909606933593,0.16250643768310546
1788860602503671300,5.53767138671875,-5.1137154708862305,-6.593182459259033,0.6477811866760254
1788860602513678600,5.5476787109375,-5.085134688568115,-6.255749662780762,1.0103531005859374
1788860602523685400,5.557685302734375,-5.466560940551758,-6.129605162811279,1.2313678413391111
1788860602533691400,5.56769140625,-5.692513722229004,-6.301838044738769,1.3199533027648924
1788860602543698400,5.577698486328125,-5.700294877624511,-6.759429837036133,1.1773486663818358
1788860602553705700,5.587705810546875,-5.441721098327636,-7.462576937103271,0.866401725769043
1788860602563711700,5.597711669921875,-5.248688589477538,-8.338555469512938,0.38741175613403317
1788860602573718500,5.607718505859375,-5.4810757881164545,-9.310302068328857,-0.1714846939086914
1788860602583725600,5.6177255859375,-6.404938353729247,-10.255862086486816,-0.7164648468017578
1788860602593731600,5.627731689453125,-8.079233502197265,-11.572672999572752,-1.0705074172973632
1788860602603738600,5.637738525390625,-10.220397974395752,-13.317896372222899,-1.0359411308288573
1788860602613745700,5.64774560546875,-12.284648718261717,-15.082273358154296,-0.3746925598144531
1788860602623751700,5.657751708984375,-13.888314917755126,-16.116418837738035,0.34551322708129883
1788860602633758500,5.667758544921875,-14.276175586700438,-15.595979251861571,0.8454524612426757
1788860602643765800,5.677765869140625,-13.06845048675537,-13.555371249389648,1.746121198272705
1788860602653771500,5.687771484375,-11.425878510284424,-11.021707342529297,2.5986066268920895
1788860602663778600,5.697778564453125,-9.880570976257324,-8.871115701293945,3.1567548889160153
1788860602673785600,5.70778564453125,-8.514978204345702,-7.688230443572998,4.008641767120361
1788860602683791600,5.71779150390625,-7.247248425292969,-6.962039152526855,4.608838195800781
1788860602693798700,5.727798583984375,-5.867290443420409,-6.453869850158691,4.537610696411132
1788860602703805700,5.7378056640625,-4.883123923492431,-6.526294450378417,4.295796328735351
1788860602713811700,5.747811767578125,-4.964975692749023,-7.183951718902588,3.8220436752319333
1788860602723818500,5.757818603515625,-5.486612379455566,-7.99304224243164,2.9269115295410155
1788860602733825800,5.76782568359375,-5.985504150390625,-8.615235398864746,1.7476175743103026
1788860602743831600,5.77783154296875,-6.60141252746582,-9.083152185821532,0.7426514274597168
1788860602753838800,5.7878388671875,-7.053018815612792,-9.486126252746581,-0.08993219985961913
1788860602763844600,5.7978447265625,-7.133523846435547,-9.67841057357788,-0.7794622779846191
1788860602773851600,5.8078515625,-6.890811653137207,-9.540145427703857,-1.3283330085754395
1788860602783858700,5.817858642578125,-6.442946305084228,-9.17383257369995,-1.6370353851318358
1788860602793864700,5.82786474609375,-5.887192244720459,-8.68930601272583,-1.4236521621704101
1788860602803871700,5.837871826171875,-5.395782353973388,-8.046612504577636,-0.728435855102539
1788860602813878800,5.847878662109375,-4.979939453125,-7.404218271636963,0.16086042404174802
1788860602823884800,5.857884765625,-5.026177472686768,-6.93959351196289,0.8391676818847655
1788860602833891600,5.8678916015625,-5.536292063903808,-6.743119338226318,1.450586930847168
1788860602843899000,5.87789892578125,-5.991040741729736,-6.878691007232666,1.7827824111938475
1788860602853904600,5.887904541015625,-6.309319924926758,-7.162703179168701,1.6118962677001951
1788860602863911700,5.89791162109375,-6.90128628540039,-7.327304543304443,0.9837176071166992
1788860602873918700,5.907918701171875,-7.459883460235595,-7.293785720062256,0.35583822174072266
1788860602883924700,5.9179248046875,-7.627477576446533,-7.106439440155029,0.1140238540649414
1788860602893931500,5.927931640625,-7.779509381866455,-6.842628344726562,0.15517419509887695
1788860602903938800,5.937938720703125,-7.91612851409912,-6.672041476440429,0.38352117843627925
1788860602913944800,5.94794482421875,-7.863456077575683,-6.724863550567626,0.6368576416015624
1788860602923951600,5.95795166015625,-7.716661588287353,-6.97805037612915,0.92565821685791
1788860602933958700,5.967958740234375,-7.409156312561035,-7.246649874877929,1.0797849487304687
1788860602943964700,5.977964599609375,-6.996605438995361,-7.284807463836669,1.0040683212280272
1788860602953971700,5.9879716796875,-6.8967971572875975,-7.01635760269165,0.8683470146179199
1788860602963978800,5.997978759765625,-7.112574581909179,-6.6394204788208,0.8949825080871582
1788860602973984800,6.00798486328125,-7.7042416671752925,-6.2858268211364745,0.9594763153076171
1788860602983991600,6.017991455078125,-8.1081135597229,-5.927744035339355,1.0191817192077637
1788860602993998800,6.027998779296875,-8.138938906097412,-5.697900675964355,1.1285668075561524
1788860603004004600,6.038004638671875,-8.103774069213866,-5.7323173248291015,1.2910732452392577
1788860603014011600,6.04801171875,-8.084919731140136,-5.833322707366943,1.3186065643310547
1788860603024018700,6.058018798828125,-8.122927682495117,-5.8469397293090815,1.1911153259277343
1788860603034024700,6.068024658203125,-8.07609111251831,-5.863250228118896,1.0229226593017577
1788860603044031700,6.07803173828125,-7.739705779266357,-5.6766521362304685,0.7794622779846191
1788860603054037500,6.08803759765625,-7.619846058654785,-5.213224477386475,0.3724479957580566
1788860603064044800,6.098044921875,-8.211363506317138,-4.728847554016113,0.20530279235839843
1788860603074051600,6.108051513671875,-8.901043222045898,-4.491821589660645,0.3933972602844238
1788860603084059000,6.118058837890625,-9.119663761138915,-4.435258575439453,0.6839934867858887
1788860603094064600,6.128064697265625,-9.09123261642456,-4.475960003662109,0.7202057868957519
1788860603104071700,6.13807177734375,-9.016563452148437,-4.575319372558593,0.45549686584472654
1788860603114077700,6.14807763671875,-8.802432041168212,-4.608090007781982,0.1785176612854004
1788860603124084700,6.158084716796875,-8.756792572021483,-4.572176982879639,0.14469956283569335
1788860603134091500,6.168091552734375,-8.697087168121337,-4.484938259887695,0.3485059791564941
1788860603144097500,6.17809765625,-8.468291271972657,-4.4373535018920895,0.519092847442627
1788860603154104800,6.188104736328125,-8.04975489425659,-4.5072342628479,0.4831798225402832
1788860603164111600,6.198111572265625,-7.341220840454101,-4.476708191680908,0.2075473564147949
1788860603174117600,6.20811767578125,-7.419331669616699,-4.1672576271057125,-0.05416881256103515
1788860603184124700,6.218124755859375,-8.06412010421753,-3.8093244789123535,-0.3434183006286621
1788860603194131700,6.228131591796875,-8.37641378326416,-3.569455400085449,-0.7576151878356933
1788860603204137500,6.238137451171875,-8.661323780822753,-3.6342484825134274,-0.9156324974060058
1788860603214144800,6.248144775390625,-8.475024964141845,-3.758896606445312,-0.9917980377197265
1788860603224151600,6.258151611328125,-8.309376136779784,-3.8326679450988768,-0.963366893005371
1788860603234157600,6.268157470703125,-7.908796271514892,-3.8467338798522945,-0.9111433692932128
1788860603244164600,6.27816455078125,-7.365911045074462,-3.876661400604248,-0.8750807067871094
1788860603254171600,6.288171630859375,-7.593659477996826,-3.85616104888916,-0.9180266990661621
1788860603264177700,6.298177734375,-8.137741805267334,-3.8435914901733397,-1.175852290344238
1788860603274184700,6.308184814453125,-8.278550790405273,-3.791816879272461,-1.4221557861328125
1788860603284191500,6.31819140625,-8.1341505027771,-3.5664626480102535,-1.5574281799316405
1788860603294197500,6.328197509765625,-8.323591709136963,-3.06442848739624,-1.7739537925720215
1788860603304204800,6.338204833984375,-8.203133438110351,-2.3795371749877927,-2.044348942565918
1788860603314211600,6.348211669921875,-7.3751885765075675,-1.4362217208862305,-2.2162825492858884
1788860603324217600,6.358217529296875,-7.19502490158081,-0.692073917388916,-2.198774949645996
1788860603334224600,6.368224609375,-7.261912910461425,-0.5472247169494628,-1.978508396911621
1788860603344231700,6.378231689453125,-7.583184845733642,-0.9150339469909667,-1.547552098083496
1788860603354237400,6.388237548828125,-8.23515588531494,-1.3896844261169432,-1.3295301094055174
1788860603364244700,6.39824462890625,-8.455871350860596,-1.7262193969726563,-1.2898761444091795
1788860603374251500,6.40825146484375,-8.361599660491942,-1.811961743927002,-1.386093123626709
1788860603384257500,6.418257568359375,-8.045864316558838,-1.6742951484680175,-1.435174257659912
1788860603394264600,6.4282646484375,-7.915978876495361,-1.512536898803711,-1.3409025672912598
1788860603404271600,6.438271728515625,-8.042721926879882,-1.568651000213623,-0.971746598815918
1788860603414277600,6.448277587890625,-8.224082702636718,-1.5752350547790526,-0.6865373260498047
1788860603424284700,6.45828466796875,-8.620173439788818,-1.1763012031555176,-0.7609072151184082
1788860603434290700,6.468290771484375,-8.56720172805786,-0.8978256225585937,-0.8743325187683105
1788860603444297500,6.47829736328125,-8.150311363983153,-1.0800842239379882,-0.7633014167785644
1788860603454304800,6.4883046875,-8.278401152801512,-1.311872872161865,-0.7341220840454101
1788860603464310500,6.498310546875,-8.64411545639038,-1.4767735115051268,-0.8903437423706054
1788860603474317600,6.508317626953125,-8.566303902435303,-1.6291045921325682,-1.036838956451416
1788860603484324600,6.51832470703125,-8.086266469573975,-1.7910124794006346,-0.8839093254089355
1788860603494330600,6.52833056640625,-7.670273931121826,-2.121412308502197,-0.7390601249694824
1788860603504337700,6.538337646484375,-7.604882298278808,-2.249053184509277,-0.9708487731933593
1788860603514344700,6.5483447265625,-7.595455129241943,-2.0126257705688477,-1.2101193016052245
1788860603524350700,6.558350830078125,-7.432948691558837,-1.792658493041992,-1.031751277923584
1788860603534357500,6.568357421875,-7.4320508659362785,-1.8983026412963866,-0.6389525680541992
1788860603544364800,6.57836474609375,-7.7124717353820795,-2.0492869834899903,-0.5090671279907226
1788860603554370000,6.5883701171875,-7.945607122039794,-2.186504666137695,-0.4412812934875488
1788860603564377300,6.59837744140625,-7.73776049041748,-2.443282794189453,-0.40581718139648437
1788860603574384000,6.608384033203125,-7.118260810852051,-2.874239093017578,-0.41958384094238277
1788860603584390100,6.61839013671875,-6.8770449935913085,-3.330783422088623,-0.5114613296508789
1788860603594397200,6.628397216796875,-7.264007836914062,-3.7229835815429686,-0.6304232246398925
1788860603604404200,6.638404296875,-7.636455832672119,-4.055029424285888,-0.7071873153686523
1788860603614410200,6.64841015625,-7.677456536102294,-4.361786511993408,-0.6521206771850585
1788860603624417300,6.658417236328125,-7.615057655334472,-4.576217198181152,-0.502483073425293
1788860603634424300,6.66842431640625,-7.595904042053222,-4.750844281768798,-0.3491045295715332
1788860603644430000,6.67843017578125,-7.786542349243164,-4.925321727752685,-0.07287351303100585
1788860603654437400,6.688437255859375,-7.738807953643798,-5.232078815460205,0.2856581855773926
1788860603664444200,6.698444091796875,-7.53365479888916,-5.485265641021728,0.4294599227905273
1788860603674450200,6.7084501953125,-7.37414111328125,-5.650764830780029,0.48826750106811523
1788860603684457200,6.718457275390625,-7.293187169647217,-5.763292308807372,0.42721535873413086
1788860603694464300,6.72846435546875,-7.415740367126465,-5.852326683044433,0.30481179885864257
1788860603704470300,6.73847021484375,-7.64214206161499,-6.129904438018799,0.3221697608947754
1788860603714477300,6.748477294921875,-8.06920778274536,-6.698676969909668,0.4563946914672851
1788860603724484000,6.758484130859375,-8.59892490005493,-7.366210320281982,0.7019499992370605
1788860603734490000,6.768489990234375,-9.03422068939209,-8.068908507537842,0.9223661895751952
1788860603744497400,6.778497314453125,-9.247005361938475,-8.706663974761963,0.9876081848144531
1788860603754504200,6.788504150390625,-9.216928203582762,-9.16201120300293,0.91293902053833
1788860603764510200,6.79851025390625,-9.000252953338622,-9.432406352996825,0.821660082244873
1788860603774517200,6.808517333984375,-8.585158240509033,-9.681852238464355,0.9077017044067383
1788860603784524300,6.818524169921875,-8.410231881713866,-9.592069676208496,0.8450035484313965
1788860603794530000,6.828530029296875,-8.31865366821289,-9.223212982940673,0.6643909606933593
1788860603804537300,6.838537353515625,-8.234258059692383,-8.843283106994628,0.4982932205200195
1788860603814544100,6.848544189453125,-8.249371457672119,-8.462006492614746,0.4299088356018066
1788860603824550100,6.858550048828125,-8.269572534179687,-8.238298274993896,0.6581061813354492
1788860603834557200,6.86855712890625,-8.278850065612792,-8.349179739379883,1.2291232772827148
1788860603844564200,6.878564208984375,-8.405593115997315,-8.543558986663818,1.5538368774414062
1788860603854570200,6.8885703125,-8.43956085205078,-8.680327756500244,1.465251416015625
1788860603864577300,6.898577392578125,-8.040028450012207,-8.706963249969482,1.1988964813232421
1788860603874584300,6.908584228515625,-7.085939088439941,-8.741679174041748,1.027262149810791
1788860603884590000,6.918590087890625,-6.636577364349365,-8.352621404266356,0.5358522590637207
1788860603894597400,6.928597412109375,-6.49277562713623,-7.912537211608886,0.05776011505126953
1788860603904603100,6.93860302734375,-6.51881257019043,-7.873182521820068,0.06853402252197265
1788860603914610200,6.948610107421875,-6.6976295066833496,-8.034342221069336,0.3616740882873535
1788860603924617200,6.9586171875,-6.777535987091064,-8.304887008666991,0.5345055206298828
1788860603934623200,6.968623291015625,-6.797138513183594,-8.552986155700683,0.4121019607543945
1788860603944630300,6.97863037109375,-6.906373963928222,-8.616432499694824,0.11192892761230468
1788860603954637300,6.98863720703125,-6.965480817413329,-8.64411545639038,-0.051475335693359374
1788860603964643300,6.998643310546875,-7.12529377822876,-8.736292220306396,-0.058957215881347655
1788860603974650000,7.008650146484375,-7.434295429992676,-8.648006034088134,-0.1349731185913086
1788860603984657400,7.018657470703125,-7.375338214111328,-8.690203838348388,-0.10669161148071288
1788860603994663200,7.0286630859375,-7.08698655166626,-8.709207814025879,-0.00852934341430664
1788860604004670200,7.038670166015625,-6.789207720184326,-8.312069613647461,-0.06943184814453125
1788860604014677200,7.04867724609375,-6.055983461761474,-7.85253253250122,0.01571194839477539
1788860604024683300,7.058683349609375,-5.341912816619873,-7.535749725341796,0.4652233100891113
1788860604034690000,7.06868994140625,-5.44576131362915,-7.383119369506836,1.0773907470703123
1788860604044697300,7.078697265625,-6.1182327049255365,-7.375637489318847,1.5286977600097655
1788860604054703400,7.088703369140625,-6.845920372009277,-7.552958049774169,1.7329530891418456
1788860604064710100,7.098710205078125,-7.427112825012206,-7.761103956604003,1.754351266479492
1788860604074717200,7.10871728515625,-7.992443692016601,-7.989450939941406,1.4791677131652832
1788860604084723200,7.11872314453125,-8.533982180023193,-8.195651557922362,1.1279682571411132
1788860604094730200,7.128730224609375,-8.794052335357666,-8.407538404846191,0.9189245246887207
1788860604104737300,7.1387373046875,-8.791358858489989,-8.532036891174316,0.8753799819946289
1788860604114743300,7.148743408203125,-8.78507407913208,-8.489240536499024,0.9177274238586425
1788860604124750000,7.15875,-8.507795599365235,-8.36968009109497,0.931494083404541
1788860604134757400,7.16875732421875,-8.251167108917237,-7.972242615509033,0.7155670211791991
1788860604144763100,7.17876318359375,-7.994987531280517,-7.336133161926269,0.46896425018310545
1788860604154770200,7.188770263671875,-7.463774037933349,-6.629245121765137,0.4086602958679199
1788860604164777200,7.198777099609375,-7.2170216293334954,-5.954080253601074,0.4531026641845703
1788860604174783200,7.208783203125,-7.587075423431396,-5.5838768218994135,0.6079775840759277
1788860604184790000,7.2187900390625,-8.010250566864013,-5.6197898468017575,0.831236888885498
1788860604194797300,7.22879736328125,-7.952789727020263,-5.884648405456542,0.843956085205078
1788860604204803300,7.23880322265625,-7.848342679595947,-6.10970336151123,0.6783072578430175
1788860604214810000,7.24881005859375,-7.911789023590088,-6.091746849060058,0.5376479103088379
1788860604224817200,7.258817138671875,-7.816769145202636,-5.903802018737792,0.5749076736450195
1788860604234823200,7.2688232421875,-7.842057900238037,-5.725733270263672,0.6827963859558105
1788860604244830200,7.278830322265625,-8.151358827209473,-5.566069947052002,0.5153519073486328
1788860604254837200,7.288837158203125,-8.027009978485108,-5.268740028381347,0.20814590682983397
1788860604264843300,7.29884326171875,-7.631817066955566,-4.892401454925537,0.1427542739868164
1788860604274850000,7.30885009765625,-7.594557303619385,-4.582501977539062,0.244507844543457
1788860604284857300,7.318857421875,-7.729979335021972,-4.355202457427978,0.28745383682250975
1788860604294863000,7.328863037109375,-7.8238021125793455,-4.285471334075927,0.2501940734863281
1788860604304870100,7.3388701171875,-8.092551248931885,-4.313902478790283,0.16295535049438475
1788860604314877200,7.348877197265625,-8.77923821258545,-4.333205729675293,-0.12644377517700195
1788860604324883200,7.35888330078125,-9.105897101593017,-4.32228218460083,-0.5476736297607422
1788860604334890200,7.36889013671875,-7.9928926048278806,-4.183867401123047,-0.6807014595031737
1788860604344897300,7.378897216796875,-7.248744801330566,-3.9541736793518063,-0.15547347030639647
1788860604354903300,7.3889033203125,-7.617751132202148,-3.95192911529541,0.44202948150634763
1788860604364910000,7.39891015625,-8.307730123138427,-4.1572319076538085,0.436043977355957
1788860604374916400,7.408916259765625,-8.677634279632567,-4.218134412384033,-0.018704700469970702
1788860604384923100,7.418923095703125,-8.462605043029784,-4.0738837623596185,-0.3324947555541992
1788860604394930200,7.42893017578125,-8.443152154541016,-4.028842843627929,-0.5523123954772949
1788860604404936200,7.438936279296875,-8.515277479553221,-4.164115237426757,-0.8607154968261719
1788860604414943200,7.448943115234375,-9.249549201202392,-4.207959055328369,-1.1348515869140625
1788860604424950300,7.4589501953125,-9.753379013061522,-4.11757794265747,-1.3019967903137206
1788860604434956300,7.468956298828125,-9.322572351837158,-4.0435073287963865,-1.361103643798828
1788860604444963300,7.47896337890625,-8.294711651611328,-3.8789059646606443,-1.5028104545593262
1788860604454970400,7.488970458984375,-7.458835997009277,-3.587411912536621,-1.5912462783813475
1788860604464976400,7.498976318359375,-7.225999885559082,-3.283348301696777,-1.442207225036621
1788860604474983200,7.508983154296875,-7.143250290679931,-2.873640542602539,-1.2358569694519042
1788860604484990500,7.518990478515625,-7.136815873718262,-2.2954408416748047,-1.2101193016052245
1788860604494996200,7.528996337890625,-7.505822204589843,-1.893514237976074,-1.2894272315979003
1788860604505003300,7.539003173828125,-7.812429654693603,-1.9394529823303222,-1.4791677131652832
1788860604515010300,7.54901025390625,-7.7401546920776365,-2.3157915557861326,-1.6524480583190917
1788860604525016300,7.559016357421875,-7.25936907119751,-2.666691736602783,-1.6385317611694334
1788860604535023000,7.569023193359375,-7.015160501861572,-2.314145542144775,-1.6838719551086425
1788860604545030400,7.579030517578125,-7.208342648315429,-1.7184382415771484,-1.8647838180541991
1788860604555036400,7.589036376953125,-7.651120317840576,-1.258302610015869,-1.986139914703369
1788860604565043200,7.599043212890625,-7.953388277435303,-1.1887211242675781,-1.9693805030822753
1788860604575050200,7.60905029296875,-8.211064231109619,-1.3281833709716797,-1.8279729675292968
1788860604585056300,7.61905615234375,-7.9855603622436515,-1.4417583122253417,-1.2925696212768554
1788860604595063300,7.629063232421875,-7.957428492736816,-1.5382745666503905,-0.720804337310791
1788860604605070300,7.6390703125,-7.973290078735351,-1.7081132469177245,-0.5135562561035156
1788860604615076400,7.649076416015625,-7.8624086143493646,-1.3908815269470214,-0.5434837768554687
1788860604625083100,7.659083251953125,-7.611017440032959,-0.8412626083374023,-0.4682160621643066
1788860604635090400,7.66909033203125,-7.108983279418945,-0.8704419410705566,-0.27129297561645505
1788860604645096200,7.67909619140625,-6.677578067779541,-1.2427402992248535,-0.3534440200805664
1788860604655103200,7.689103271484375,-6.7380316596984855,-1.564760422515869,-0.6374561920166015
1788860604665110300,7.6991103515625,-7.095216619873047,-1.9518729034423827,-0.9484031326293945
1788860604675116300,7.7091162109375,-7.649773579406737,-2.1767782218933105,-1.3549685020446776
1788860604685123300,7.719123291015625,-8.07594147491455,-2.2282535575866698,-1.3301286598205566
1788860604695130400,7.72913037109375,-8.15285520324707,-2.3415292236328122,-0.7752724250793457
1788860604705136400,7.739136474609375,-7.61041888961792,-2.5863363433837887,-0.13437456817626953
1788860604715143200,7.74914306640625,-7.474099032592773,-2.7181670722961426,0.05431845016479492
1788860604725150500,7.759150390625,-7.873481797027587,-2.736871772766113,-0.03172317199707031
1788860604735156200,7.76915625,-7.780107932281494,-2.9147908836364746,-0.15547347030639647
1788860604745163300,7.779163330078125,-7.547122183227539,-3.2233436225891112,-0.3570353225708008
1788860604755170300,7.78917041015625,-7.704840217590331,-3.608959727478027,-0.5220855995178222
1788860604765176300,7.79917626953125,-7.900865478515625,-4.157980095672607,-0.62563482131958
1788860604775183000,7.80918310546875,-8.059182063293457,-4.702062422943115,-0.8933364944458008
1788860604785190400,7.8191904296875,-8.301445343780516,-5.199607455444336,-1.2131120536804199
1788860604795196400,7.829196533203125,-8.340351120758056,-5.661987651062011,-1.2373533454895018
1788860604805203200,7.839203125,-7.936329590606689,-5.986701251220703,-0.9415198028564452
1788860604815210200,7.849210205078125,-7.8818615028381345,-5.9956795074462885,-0.5790975265502929
1788860604825216300,7.85921630859375,-8.191611342620849,-5.871629933929443,-0.19018939437866209
1788860604835223300,7.869223388671875,-8.130110287475585,-5.880907465362548,0.21083938369750976
1788860604845230300,7.879230224609375,-7.722946367645263,-5.885246955871581,0.35404257049560545
1788860604855236400,7.889236328125,-7.375038938903808,-5.784690486145019,0.3190273712158203
1788860604865243100,7.8992431640625,-7.080851409912109,-5.814618006896972,0.34237083740234375
1788860604875249400,7.90924951171875,-6.602459990692139,-6.093841775512695,0.5852326683044433
1788860604885256200,7.919256103515625,-6.506392649078369,-6.425139430236816,0.8075941474914551
1788860604895263200,7.92926318359375,-7.020397817993164,-6.590488982391357,0.8930372192382812
1788860604905269500,7.93926953125,-7.426364636993408,-6.972663422393798,1.0149918663024902
1788860604915276300,7.9492763671875,-7.690774282836913,-7.569717461395263,0.9796773918151855
1788860604925283000,7.959282958984375,-8.140884194946288,-8.054992210388184,0.7728782234191894
1788860604935289300,7.969289306640625,-8.664615808105468,-8.537274207305908,0.7344213592529296
1788860604945296400,7.97929638671875,-9.1676974319458,-9.133580058288574,0.8747814315795898
1788860604955303200,7.98930322265625,-9.847351428222655,-9.588179098510741,0.9482534950256347
1788860604965309400,7.999309326171875,-10.422857652282714,-10.01689083328247,1.0532990928649901
1788860604975316200,8.009316162109375,-10.602273139190673,-10.411036281585693,1.143380930328369
1788860604985323300,8.0193232421875,-10.331129801177978,-10.613795234680175,1.1249755050659178
1788860604995329300,8.029329345703125,-9.609427638244629,-10.669460423278808,1.2024877838134764
1788860605005336300,8.03933642578125,-8.781333139038086,-10.380061297607421,1.0932523330688475
1788860605015343000,8.049343017578124,-7.846846303558349,-9.899275676727294,0.8785223716735839
1788860605025349400,8.059349365234375,-7.059602870178222,-9.429413600921631,0.7562684494018554
1788860605035356200,8.069356201171875,-6.7477581039428705,-9.025691345977783,0.7279869422912597
1788860605045363200,8.07936328125,-6.858938843536377,-8.712499841308594,0.6299743118286133
1788860605055369500,8.089369384765625,-6.711545803833007,-8.692298764801025,0.6296750366210937
1788860605065376300,8.099376220703125,-6.393116983032226,-8.670601312255858,0.6112696113586426
1788860605075383300,8.10938330078125,-6.3055789848327635,-8.532785079193115,0.4445733207702636
1788860605085389300,8.119389404296875,-6.445041231536865,-8.513032915496826,0.25034371109008785
1788860605095396400,8.129396240234374,-6.48020606842041,-8.626458219146729,0.32007483444213863
1788860605105403100,8.139403076171876,-6.556521246337891,-8.697984993743896,0.5319616813659668
1788860605115409400,8.149409423828125,-6.51881257019043,-8.730456353759765,0.7691372833251953
1788860605125416200,8.159416259765624,-6.414066247558593,-8.658630303955078,0.9271545928955077
1788860605135423200,8.16942333984375,-6.3901242309570305,-8.469638010406493,1.031003089904785
1788860605145429200,8.17942919921875,-6.250512346649169,-8.347384088134765,0.9914987625122069
1788860605155436300,8.189436279296874,-6.1070098846435545,-8.220341762542724,0.7510311332702636
1788860605165443000,8.199443115234375,-5.982511398315429,-8.154501216888427,0.4381389038085937
1788860605175449300,8.209449462890625,-6.061520053100586,-8.115296164703368,0.20096330184936523
1788860605185456400,8.219456298828124,-6.323385859680175,-8.09464617538452,0.17956512451171874
1788860605195463200,8.229463134765625,-6.277147840118408,-8.134300140380859,0.34326866302490233
1788860605205469400,8.239469482421875,-6.105812783813477,-8.116642903137206,0.3829226280212402
1788860605215476200,8.249476318359376,-6.330718102264404,-8.007407452392577,0.3595791618347168
1788860605225483300,8.259483154296875,-7.152677459716797,-7.923460756683349,0.4955997436523437
1788860605235489300,8.2694892578125,-8.327183011627197,-7.848492317199707,0.8728361427307129
1788860605245496300,8.279496337890626,-8.977508037567139,-7.914632138061523,1.3061866432189941
1788860605255503000,8.289503173828125,-8.74616830215454,-7.952041539001464,1.308131932067871
1788860605265509400,8.29950927734375,-8.222287051391602,-7.808389439392089,0.7326257080078125
1788860605275516200,8.30951611328125,-7.696759786987304,-7.586027960205078,0.2856581855773926
1788860605285523200,8.319523193359375,-7.275679570007323,-7.286004564666747,0.39968203964233395
1788860605295529500,8.329529541015624,-7.167042669677734,-6.826766758728027,0.6955155822753906
1788860605305536300,8.339536376953125,-7.14399847869873,-6.270713423156738,0.9020154754638672
1788860605315543300,8.349543212890625,-7.2529346542358395,-5.926397296905518,1.099387474822998
1788860605325549300,8.35954931640625,-7.779509381866455,-5.9771244445800775,1.3009493270874022
1788860605335556400,8.369556396484375,-8.581866213226318,-6.122721833038329,1.246780514526367
1788860605345563100,8.379563232421875,-9.106046739196778,-6.203825414276123,0.8081926979064941
1788860605355569400,8.3895693359375,-8.939350448608398,-6.232106921386718,0.46896425018310545
1788860605365576200,8.399576171875,-8.545055362701415,-6.231658008575439,0.46372693405151366
1788860605375582200,8.409582275390624,-8.211363506317138,-6.197241359710693,0.4617816452026367
1788860605385589200,8.41958935546875,-7.801057196807861,-6.057928750610351,0.30780455093383785
1788860605395596300,8.42959619140625,-7.517942850494384,-5.877016887664794,0.2558803024291992
1788860605405602300,8.439602294921874,-7.576151878356933,-5.692214447021484,0.2748842781066894
1788860605415609300,8.449609375,-7.93588067779541,-5.5798366065979,0.3705027069091797
1788860605425616400,8.459616455078125,-8.13370158996582,-5.4792801368713375,0.48886605148315426
1788860605435622100,8.4696220703125,-8.43372498550415,-5.343858105468749,0.21143793411254883
1788860605445629400,8.47962939453125,-8.664765445709229,-5.084536138153076,-0.25258827514648435
1788860605455636200,8.48963623046875,-8.221688500976562,-4.701314234924316,-0.6323685134887695
1788860605465642200,8.499642333984376,-7.352892573547363,-4.2396822273254395,-0.8634089736938476
1788860605475649300,8.509649169921875,-7.17602092590332,-3.863792566680908,-0.7544727981567383
1788860605485656300,8.51965625,-7.483825476837158,-3.6490626052856445,-0.6862380508422851
1788860605495662300,8.529662353515626,-7.760355768585205,-3.52396556854248,-0.6718728408813476
1788860605505669400,8.53966943359375,-7.625382649993896,-3.3481413841247556,-0.6177040283203125
1788860605515676200,8.54967626953125,-7.429507026672363,-3.0502129150390624,-0.7425017898559569
1788860605525682200,8.55968212890625,-7.868693393707275,-2.9420249275207517,-0.9109937316894531
1788860605535689500,8.569689453125,-8.128913186645507,-3.027318361663818,-0.9967360786437988
1788860605545696300,8.5796962890625,-8.419210137939453,-3.1043817276000976,-0.9923965881347656
1788860605555702800,8.589702880859376,-8.627804957580565,-3.23067586517334,-1.0684124908447266
1788860605565709600,8.59970947265625,-8.532785079193115,-3.348590296936035,-1.2357073318481444
1788860605575716600,8.609716552734374,-8.366238426208495,-3.4509424179077146,-1.37906015625
1788860605585722600,8.61972265625,-8.574683608245849,-3.352480874633789,-1.585859324645996
1788860605595729700,8.629729736328125,-8.913313505554198,-3.0014310562133786,-1.6730980476379393
1788860605605736700,8.63973681640625,-8.390778993225098,-2.619406253814697,-1.4387655601501463
1788860605615742700,8.64974267578125,-7.922263655853271,-2.523787825012207,-1.1927613395690917
1788860605625749500,8.65974951171875,-8.117989641571045,-2.7480945930480956,-1.5165771141052244
1788860605635756800,8.6697568359375,-8.26732797012329,-2.590675833892822,-1.9895815795898437
1788860605645762600,8.679762451171875,-7.7407532424926755,-1.9042881454467773,-1.7966987083435058
1788860605655769600,8.68976953125,-6.837241390991211,-1.4296376663208008,-1.2707225311279295
1788860605665776600,8.699776611328126,-6.6401686668396,-1.4836568412780762,-1.3627496574401854
1788860605675782700,8.70978271484375,-6.892607304382324,-1.478569162750244,-1.760785683441162
1788860605685789700,8.719789794921875,-7.141155364227295,-1.020229182434082,-1.680430290222168
1788860605695795500,8.72979541015625,-6.759729112243652,-0.6349123527526855,-1.3575123413085937
1788860605705802800,8.739802734375,-6.591536445617676,-0.6657376991271973,-1.3844471099853515
1788860605715809500,8.7498095703125,-6.9816416786193845,-0.9047089523315429,-1.4603133750915527
1788860605725815600,8.759815673828125,-7.072322066497803,-1.2346598686218262,-1.1825859825134277
1788860605735822600,8.769822509765625,-7.269993341064453,-1.3494319107055663,-1.1103110198974608
1788860605745829600,8.77982958984375,-7.616105118560791,-1.2146084297180175,-1.1903671379089356
1788860605755835600,8.789835693359375,-7.787440174865722,-1.2056301734924315,-1.0779892974853515
1788860605765842700,8.7998427734375,-7.724293106079101,-1.3862427612304686,-0.8728361427307129
1788860605775849500,8.809849365234374,-7.612663453674316,-1.5723919403076172,-0.6693290016174316
1788860605785855500,8.81985546875,-7.583035208129882,-1.8062755149841307,-0.5306149429321289
1788860605795862800,8.82986279296875,-7.7204025283813476,-2.0424036537170407,-0.5283703788757323
1788860605805869600,8.83986962890625,-7.870189769744872,-2.1637597503662107,-0.49380409240722656
1788860605815875600,8.84987548828125,-7.85941586227417,-2.2231658790588376,-0.32456396255493164
1788860605825882600,8.859882568359374,-7.755417727661133,-2.403030278778076,-0.15113397979736326
1788860605835889700,8.8698896484375,-7.652167781066894,-2.69407541809082,-0.06464344482421874
1788860605845895400,8.8798955078125,-7.546972545623779,-3.1139585342407226,-0.01810615005493164
1788860605855902700,8.88990283203125,-7.4314523155212395,-3.6815339653015133,-0.025438392639160156
1788860605865909500,8.899909423828126,-7.39928023071289,-4.234893824005127,-0.2545335639953613
1788860605875915500,8.90991552734375,-7.552209861755371,-4.549432067108154,-0.6163572898864745
1788860605885922600,8.919922607421874,-7.666084078216552,-4.687248300170898,-0.6628945846557617
1788860605895929600,8.9299296875,-7.826495589447021,-4.706701188659668,-0.46372693405151366
1788860605905935600,8.939935546875,-7.8639049903869624,-4.7846623802185055,-0.20290859069824219
1788860605915942700,8.949942626953124,-7.838616235351562,-4.975899237823486,0.08424597091674804
1788860605925949700,8.95994970703125,-7.7973162567138665,-5.39473489074707,0.3968389251708984
1788860605935955500,8.96995556640625,-7.744344544982909,-5.8445455276489255,0.5931634613037109
1788860605945962800,8.979962646484376,-7.728782234191894,-6.091297936248779,0.514603719329834
1788860605955969500,8.989969482421875,-7.767239098358154,-6.274304725646973,0.31693244476318355
1788860605965975600,8.9999755859375,-7.826345951843261,-6.481253531646728,0.12195464706420897
1788860605975982600,9.009982666015626,-7.727136220550537,-6.787561706542968,0.05102642288208008
1788860605985988600,9.019988525390625,-7.526172918701171,-7.2063973594665525,0.18899229354858396
1788860605995995600,9.02999560546875,-7.5159975616455075,-7.606827587127685,0.49904140853881834
1788860606006002700,9.040002685546876,-7.84669666595459,-7.887098818969726,0.6826467483520507
1788860606016008700,9.0500087890625,-8.136395066833495,-8.189067503356933,0.7565677246093749
1788860606026015500,9.060015380859374,-8.208221116638184,-8.488342710876465,0.6994061599731445
1788860606036022800,9.070022705078125,-8.245031967163085,-8.724470849609375,0.52986675491333
1788860606046028500,9.080028564453125,-8.354267417907714,-8.88757583770752,0.35134909362792965
1788860606056035600,9.09003564453125,-8.399757249450683,-9.100659785461426,0.41359833679199215
1788860606066042600,9.100042724609375,-8.375515957641602,-9.390208548736572,0.7442974411010742
1788860606076048600,9.110048583984375,-8.49717132949829,-9.591321488189697,1.018283893585205
1788860606086055400,9.120055419921876,-8.7470661277771,-9.608230537414551,1.0857704528808594
1788860606096062700,9.130062744140625,-8.822034567260742,-9.451111053466796,1.1451765815734862
1788860606106068700,9.14006884765625,-8.680627031707763,-9.15587606124878,1.1219827529907227
1788860606116075500,9.150075439453126,-8.265681956481933,-8.888922576141358,1.0634744499206543
1788860606126082600,9.16008251953125,-7.858218761444092,-8.72776287689209,1.0170867927551268
1788860606136088600,9.170088623046874,-7.756165915679931,-8.76502264022827,0.9545382743835449
1788860606146095600,9.180095703125,-7.626729388427734,-9.102605074310302,0.9386766883850097
1788860606156102700,9.1901025390625,-7.569867098999023,-9.409511799621582,0.7103297050476074
1788860606166108700,9.200108642578124,-7.500435250854491,-9.429413600921631,0.3366846084594726
1788860606176115500,9.210115478515625,-7.071274603271484,-9.32810894317627,0.31229367904663086
1788860606186122800,9.220122802734375,-6.608894407653808,-9.132233319854736,0.3607762626647949
1788860606196128500,9.23012841796875,-6.572831745147704,-8.754398370361328,0.21353286056518553
1788860606206135600,9.240135498046875,-6.67802698059082,-8.582464763641356,0.19183540802001953
1788860606216142600,9.250142578125,-6.508188300323486,-8.738536784362793,0.45280338897705075
1788860606226148600,9.260148681640626,-6.264877556610107,-8.76502264022827,0.6510732139587402
1788860606236155400,9.2701552734375,-6.252756910705566,-8.553285430908202,0.4921580787658691
1788860606246162700,9.28016259765625,-6.448482896423339,-8.147917162322997,0.10699088668823241
1788860606256168700,9.290168701171876,-6.215347509765625,-8.028356716918944,0.18375497741699218
1788860606266175500,9.300175537109375,-6.131700089263916,-8.008305278015136,0.3699041564941406
1788860606276181800,9.310181640625,-6.471676725006103,-7.8639049903869624,0.4355950645446777
1788860606286188500,9.3201884765625,-6.628796208953857,-7.926154233551025,0.5930138236999511
1788860606296195600,9.330195556640625,-6.6060512931823725,-8.281693180084227,0.8405144203186035
1788860606306201600,9.34020166015625,-6.752546507263183,-8.473678225708007,0.9795277542114257
1788860606316208600,9.350208740234375,-6.9989996406555175,-8.450634034729003,1.020827732849121
1788860606326215400,9.36021533203125,-7.2444053108215325,-8.281693180084227,1.086518640899658
1788860606336221700,9.3702216796875,-7.451354116821289,-8.117989641571045,1.2086229255676268
1788860606346228500,9.380228515625,-7.7699325752258295,-7.82080936050415,1.298555125427246
1788860606356235500,9.390235595703125,-7.990199127960205,-7.448211727142334,1.1974001052856444
1788860606366241800,9.40024169921875,-8.193406993865967,-7.239167994689941,1.1347019493103028
1788860606376248600,9.41024853515625,-8.621819453430176,-7.237372343444823,1.3165116378784179
1788860606386255600,9.420255615234375,-8.962245001983643,-7.474847220611572,1.5269021087646484
1788860606396261600,9.43026171875,-9.109189128875732,-7.7416510681152335,1.5295955856323242
1788860606406268700,9.4402685546875,-8.923189587402343,-7.808389439392089,1.3889362380981445
1788860606416275500,9.450275390625,-8.444947805786132,-7.611017440032959,1.1731588134765625
1788860606426281700,9.46028173828125,-7.850437606048583,-7.1032970504760735,1.0217255584716796
1788860606436288500,9.47028857421875,-7.441478034973144,-6.484994471740722,0.8951321456909179
1788860606446295600,9.480295654296874,-7.470657367706298,-6.053589260101318,0.8280944992065429
1788860606456301600,9.490301513671875,-7.734917375946044,-5.756708254241943,0.8234557334899902
1788860606466308600,9.50030859375,-7.870788320159912,-5.38845011138916,0.7836521308898925
1788860606476315400,9.5103154296875,-7.8812629524230955,-5.002834006500244,0.6717232032775878
1788860606486321700,9.52032177734375,-7.931541187286377,-4.755034134674072,0.4553472282409668
1788860606496328700,9.53032861328125,-8.136395066833495,-4.677072943115234,0.14619593887329102
1788860606506334500,9.54033447265625,-8.304438095855712,-4.66076244430542,-0.048183308410644526
1788860606516341800,9.550341796875,-8.16557439956665,-4.7946880996704095,0.033518823242187495
1788860606526348500,9.5603486328125,-8.199841410827636,-4.878335520172119,0.23523031311035156
1788860606536354600,9.5703544921875,-8.546402101135254,-4.707150101470947,0.3265092514038086
1788860606546361600,9.580361572265625,-8.685116159820556,-4.349067315673828,0.086191259765625
1788860606556368000,9.590367919921874,-8.228721468353271,-3.97123236618042,-0.21263503494262695
1788860606566374000,9.600373779296875,-7.799710458374023,-3.6516064445495604,-0.3097498397827148
1788860606576381000,9.610380859375,-7.85896694946289,-3.4632127014160154,-0.2180219886779785
1788860606586388000,9.620387939453124,-7.982118697357177,-3.618386896514892,-0.17073650588989256
1788860606596393700,9.630393798828125,-8.016684983825684,-3.8516719207763668,-0.2859574607849121
1788860606606401000,9.640401123046875,-8.270470359802246,-4.035726173400879,-0.46716859893798823
1788860606616407800,9.65040771484375,-8.192509168243408,-4.125957648468018,-0.6739677673339843
1788860606626413800,9.660413818359375,-8.168567151641845,-4.1280525749206545,-0.8672995513916015
1788860606636420900,9.6704208984375,-8.296656940460204,-4.040664214324951,-1.0694599540710448
1788860606646428000,9.680427978515626,-8.194753732299803,-3.9639001235961913,-1.3103764961242674
1788860606656434000,9.690433837890625,-7.567023984527587,-3.7063738075256345,-1.6279074913024902
1788860606666441000,9.70044091796875,-7.472453018951415,-3.2396541213989254,-2.0911855125427246
1788860606676447700,9.71044775390625,-7.854328183746337,-2.7439047401428223,-2.310703877258301
1788860606686453800,9.720453857421875,-7.979425220489501,-2.4343045379638673,-2.048688433074951
1788860606696461000,9.7304609375,-8.143428034210205,-2.30471837310791,-1.7776947326660155
1788860606706466800,9.740466796875,-8.40828659286499,-2.0596119781494138,-1.7360954788208007
1788860606716473900,9.750473876953125,-8.430283320617676,-1.5601216567993164,-1.54500825881958
1788860606726481000,9.76048095703125,-7.669076830291748,-1.1068693550109863,-1.3593079925537108
1788860606736487000,9.77048681640625,-7.011868474578857,-1.0090063621520995,-1.3497311859130858
1788860606746493700,9.78049365234375,-7.338677001190185,-1.1164461616516113,-1.5514426757812498
1788860606756501000,9.7905009765625,-7.5156982864379875,-1.3708300880432127,-1.5179238525390624
1788860606766507000,9.800507080078125,-7.167940495300293,-1.513584362030029,-1.4339771568298338
1788860606776513800,9.810513671875,-7.257124507141113,-1.234809506225586,-1.7491139503479003
1788860606786520800,9.820520751953126,-7.845798840332031,-0.758513013458252,-2.139368820953369
1788860606796526800,9.83052685546875,-8.175450481414794,-1.0652701011657715,-1.8014871116638183
1788860606806534000,9.840533935546874,-8.28722977142334,-1.3202525779724121,-1.594837580871582
1788860606816541000,9.850541015625,-7.765892359924316,-1.1167454368591307,-1.7494132255554198
1788860606826547000,9.860546875,-7.249044076538086,-0.7493851196289062,-1.7949030570983886
1788860606836553700,9.8705537109375,-6.931363443756103,-0.7537246101379395,-1.6098013412475585
1788860606846561000,9.88056103515625,-7.132626020812988,-1.052850180053711,-1.3786112434387205
1788860606856566800,9.89056689453125,-7.557746453094482,-1.2165537185668944,-1.1852794593811034
1788860606866573800,9.90057373046875,-7.6933181221008295,-1.2538134819030762,-1.08532154006958
1788860606876579800,9.910579833984375,-7.475445771026611,-1.2699743431091308,-1.0136451278686522
1788860606886587000,9.9205869140625,-7.126341241455077,-1.3492822731018066,-0.9250596664428711
1788860606896594000,9.930593994140626,-7.15058253326416,-1.5508441253662109,-1.0832266136169433
1788860606906599700,9.940599609375,-7.292887894439697,-1.790114653778076,-1.33431851272583
1788860606916607000,9.95060693359375,-7.620893521881103,-2.0361188743591305,-1.4425065002441406
1788860606926613800,9.96061376953125,-7.711274634552002,-2.244863331604004,-1.2759598472595215
1788860606936619800,9.970619873046875,-7.530961322021484,-2.4747066909790036,-1.1188403633117676
1788860606946626800,9.980626708984374,-7.400626969146728,-2.61761060256958,-1.0287585258483887
1788860606956633900,9.9906337890625,-7.349750183868408,-2.7597663261413574,-0.9617208793640136
1788860606966639900,10.000639892578125,-7.182156067657471,-3.028066549682617,-0.8316858016967773
1788860606976647000,10.01064697265625,-6.983736605072021,-3.43493119430542,-0.6248866333007812
1788860606986653700,10.02065380859375,-7.040449256896972,-3.9016508804321286,-0.4599859939575195
1788860606996659700,10.03065966796875,-7.222109307861328,-4.3555017326354974,-0.3833715408325195
1788860607006667000,10.0406669921875,-7.27822340927124,-4.756829785919189,-0.19153613281249998
1788860607016673800,10.050673828125,-7.276278120422363,-5.219808531951904,0.11192892761230468
1788860607026679800,10.0606796875,-7.446715351104736,-5.673509746551513,0.2834136215209961
1788860607036686800,10.070686767578126,-7.710825721740722,-5.971438215637207,0.27263971405029297
1788860607046692900,10.08069287109375,-7.9478516860961905,-6.122721833038329,0.1771709228515625
1788860607056699600,10.09069970703125,-8.00576143875122,-6.281936243438721,0.07796119155883789
1788860607066707000,10.10070703125,-7.874978173065185,-6.619518677520752,0.07407061386108398
1788860607076713000,10.110712890625,-7.888894470214844,-7.062894897460937,0.1984194625854492
1788860607086719700,10.1207197265625,-8.038831349182129,-7.555950801849365,0.31393969268798827
1788860607096726800,10.130726806640626,-8.274809850311279,-8.043320477294921,0.35838206100463865
1788860607106732800,10.14073291015625,-8.428338031768797,-8.411279344940185,0.2798223190307617
1788860607116739800,10.15073974609375,-8.558672384643554,-8.627804957580565,0.11252747802734374
1788860607126747000,10.160746826171875,-8.686612535858155,-8.7853733543396,-0.05297171173095703
1788860607136753000,10.1707529296875,-8.787767555999755,-8.908974015045166,-0.17567454681396483
1788860607146759700,10.180759765625,-8.807370082092284,-9.058461981201171,-0.18121113815307616
1788860607156767000,10.19076708984375,-8.76502264022827,-9.208548497772217,0.03501519927978516
1788860607166772700,10.200772705078125,-8.792855234527588,-9.337236837005614,0.49724575729370113
1788860607176780000,10.210780029296876,-8.863035270690917,-9.41070890045166,0.9708487731933593
1788860607186786800,10.220786865234375,-8.79719472503662,-9.458892208862304,1.3702315376281737
1788860607196792800,10.230792724609374,-8.737638958740234,-9.476100533294677,1.4905401710510253
1788860607206800000,10.2407998046875,-8.901791410064696,-9.23144305114746,1.0875661041259765
1788860607216806000,10.250805908203125,-8.654590088653563,-8.891316777801514,0.7838017684936524
1788860607226813000,10.26081298828125,-7.69286920928955,-8.66386762008667,0.8228571830749511
1788860607236820000,10.270820068359376,-6.733692169189453,-8.560168760681151,0.9145850341796874
1788860607246826000,10.280825927734375,-6.513275978851318,-8.320299681854248,0.598849690246582
1788860607256832800,10.290832763671874,-6.623708530426025,-8.062324452972412,0.22700024490356444
1788860607266840000,10.300840087890625,-6.605003829956054,-8.093748349761963,0.273238264465332
1788860607276845800,10.310845703125,-6.6057520179748535,-8.243535591125488,0.6067804832458495
1788860607286852900,10.320852783203126,-7.04793113708496,-8.282740643310547,0.8289923248291016
1788860607296860000,10.33085986328125,-7.764096708679198,-8.447342007446288,1.01514150390625
1788860607306866000,10.340865966796875,-8.154650854492187,-8.95670841064453,1.2497732666015624
1788860607316873000,10.350873046875,-8.36968009109497,-9.304466201782226,1.0823287879943848
1788860607326880000,10.3608798828125,-8.425494917297362,-9.226654647827148,0.42811318435668944
1788860607336886000,10.370885986328124,-8.035389684295653,-9.045443509674072,-0.1441010124206543
1788860607346892800,10.380892822265626,-7.30381143951416,-9.062801471710204,-0.24361001892089842
1788860607356898800,10.39089892578125,-6.666804160308837,-8.945784865570069,-0.2603694305419922
1788860607366905900,10.40090576171875,-6.04625701751709,-8.63842922744751,-0.28446108474731446
1788860607376913000,10.410912841796875,-5.652859757232665,-8.272864561462402,-0.04908113403320312
1788860607386918700,10.420918701171875,-5.812822355651855,-8.099135303497315,0.5925649108886718
1788860607396926000,10.430926025390624,-6.25694676361084,-8.094047624969482,1.0954968971252441
1788860607406932700,10.4409326171875,-6.627748745727539,-8.080879515838623,1.2280758140563963
1788860607416938800,10.450938720703125,-6.985083343505859,-8.001870861053467,1.2401964599609374
1788860607426946000,10.460946044921876,-7.09297205581665,-7.932887925720214,1.3748703033447265
1788860607436952800,10.470952880859375,-7.153724922943115,-7.881711865234375,1.599326708984375
1788860607446958800,10.480958740234374,-7.597998968505859,-7.69945326385498,1.486200680541992
1788860607456966000,10.4909658203125,-8.168417514038085,-7.471555193328857,1.21939683303833
1788860607466973000,10.500972900390625,-8.470236560821533,-7.324611066436767,1.00870708694458
1788860607476978700,10.510978759765624,-8.461856855010986,-7.242609659576416,0.8794201972961425
1788860607486986000,10.520986083984376,-8.223783427429199,-7.160009702301025,0.8195651557922363
1788860607496992000,10.530991943359375,-7.733720275115966,-7.068880401611327,0.8084919731140137
1788860607506998800,10.540998779296874,-7.444620424652099,-7.021146006011962,0.769286920928955
1788860607517005800,10.551005859375,-7.477241422271728,-7.03566085357666,0.6832452987670898
1788860607527011800,10.56101171875,-7.810634003448486,-6.9348051086425775,0.5155015449523925
1788860607537019000,10.571018798828124,-8.123825508117676,-6.656329528045654,0.47494975433349607
1788860607547026000,10.58102587890625,-8.35112502822876,-6.4369608009338375,0.4337994132995605
1788860607557032200,10.5910322265625,-8.50435393447876,-6.290016674041747,0.5210381362915039
1788860607567039000,10.6010390625,-8.571990131378174,-6.045658467102051,0.6184522163391113
1788860607577046000,10.6110458984375,-8.640673791503906,-5.654655408477783,0.5770026000976562
1788860607587052000,10.621052001953124,-8.496572779083252,-5.364807369995117,0.6542156036376953
1788860607597059000,10.63105908203125,-8.21690009765625,-5.264999088287353,0.9675567459106444
1788860607607065900,10.64106591796875,-8.207024015808106,-5.126733942413329,1.1387421646118163
1788860607617072000,10.651072021484374,-8.103624431610108,-4.957942725372314,0.9705494979858398
1788860607627079000,10.661078857421876,-7.602937009429931,-4.802020342254639,0.5349544334411621
1788860607637085000,10.6710849609375,-7.73147571105957,-4.55212554397583,0.005985504150390624
1788860607647092200,10.68109228515625,-8.646360020446776,-4.361337599182129,-0.22176292877197265
1788860607657099000,10.69109912109375,-9.054870678710937,-4.279934742736816,-0.1541267318725586
1788860607667105000,10.70110498046875,-8.626458219146729,-4.21334600906372,-0.2705447875976562
1788860607677112000,10.711112060546874,-8.040477362823486,-4.157980095672607,-0.5698199951171875
1788860607687119000,10.721119140625,-7.953986827850342,-4.023605527496338,-0.7330746208190918
1788860607697124900,10.731124755859375,-7.767837648773193,-3.8893805969238278,-0.6127659873962402
1788860607707132200,10.741132080078126,-7.596203317260742,-3.7569513175964353,-0.4282628219604492
1788860607717139000,10.751138916015625,-7.855824559783935,-3.478026824188232,-0.4655225852966308
1788860607727145000,10.76114501953125,-8.213159157562256,-3.1371523628234863,-0.6813000099182128
1788860607737152000,10.771152099609376,-8.532934716796875,-3.014748802947998,-0.8372223930358886
1788860607747158000,10.781157958984375,-8.431181146240235,-3.159448365783691,-1.0914566818237303
1788860607757165000,10.7911650390625,-7.964012547302246,-3.2130186279296873,-1.4864999557495115
1788860607767172000,10.801172119140626,-7.666084078216552,-3.2140660911560057,-1.6672621810913084
1788860607777178000,10.81117822265625,-7.385363933563232,-3.4653076278686523,-1.5218144302368164
1788860607787185000,10.821184814453124,-7.499088512420654,-3.636941959381103,-1.4356231704711913
1788860607797192200,10.831192138671875,-8.100482041931151,-3.432836267852783,-1.6442179901123046
1788860607807198000,10.841197998046875,-8.569895204925537,-3.070114716339111,-1.9156606033325194
1788860607817205000,10.851205078125,-8.409483693695067,-2.6421511695861817,-1.9883844787597655
1788860607827212000,10.8612119140625,-7.822305736541748,-2.1423615730285643,-1.9615993476867675
1788860607837218000,10.871218017578125,-7.000795291900634,-1.4435539634704588,-2.0591630653381348
1788860607847224800,10.881224853515626,-6.386682566070556,-0.5256769020080566,-2.085200008392334
1788860607857230800,10.89123095703125,-6.521057134246826,0.5457283409118652,-2.005892078399658
1788860607867238100,10.901238037109374,-6.798185976409911,0.6471826362609863,-1.4287398406982421
1788860607877245000,10.911244873046876,-7.481730550384521,-0.1406593475341797,-1.166425121307373
1788860607887251000,10.9212509765625,-7.759457942962646,-0.709880792236328,-1.25770405960083
1788860607897258000,10.931258056640624,-7.612813091278076,-0.8053495834350586,-1.486948868560791
1788860607907265000,10.94126513671875,-7.527220381927489,-0.7634510543823242,-2.139518458557129
1788860607917270800,10.951270751953125,-7.53964030303955,-0.9762357269287109,-2.3624784881591796
1788860607927278000,10.961278076171874,-7.959972332000732,-1.3986626823425292,-1.7871219017028808
1788860607937284900,10.971284912109375,-8.034042945861817,-1.5822680221557617,-1.3174094635009765
1788860607947291000,10.981290771484375,-7.858218761444092,-1.411531516265869,-1.350180098724365
1788860607957298000,10.9912978515625,-7.669376105499267,-1.2363058822631836,-1.1981482933044434
1788860607967304000,11.001303955078125,-7.352144385528564,-1.342698218536377,-0.978031378173828
1788860607977311000,11.01131103515625,-6.972962697601318,-1.5257050079345702,-0.9504980590820312
1788860607987318000,11.021318115234376,-7.155071661376953,-1.5227122558593749,-1.210418576812744
1788860607997324000,11.031323974609375,-7.416189279937743,-1.4043489112854004,-1.4945803863525389
1788860608007330800,11.041330810546874,-7.185597732543945,-1.5140332748413086,-1.3394061912536621
1788860608017338000,11.051338134765626,-7.215375615692138,-1.792808130645752,-1.0944494338989257
1788860608027344000,11.06134375,-7.461230198669433,-1.9487305137634277,-0.921917276763916
1788860608037351000,11.071350830078124,-7.586626510620117,-2.0415058280944822,-0.7209539749145507
1788860608047358000,11.08135791015625,-7.420229495239258,-2.1643583007812497,-0.34237083740234375
1788860608057364000,11.091364013671875,-7.0373068672180175,-2.4254759193420408,-0.06314706878662109
1788860608067371000,11.10137109375,-6.803572930145263,-2.7953800758361815,-0.14544775085449219
1788860608077377000,11.111376953125,-7.041047807312012,-3.1766566902160642,-0.4725555526733398
1788860608087384000,11.121384033203125,-7.3934443641662595,-3.6742017227172847,-0.7787140899658203
1788860608097390800,11.131390869140626,-7.483825476837158,-4.364479988861084,-0.917428148651123
1788860608107397000,11.141397216796875,-7.713369561004638,-5.023633633422851,-1.042674822998047
1788860608117404000,11.15140380859375,-7.9761331932067865,-5.463268913269043,-1.0474632263183594
1788860608127411000,11.161410888671876,-8.136993617248535,-5.806387938690185,-0.8016086433410644
1788860608137417000,11.1714169921875,-7.951143713378905,-6.0808233039855955,-0.47928924484252927
1788860608147424000,11.181424072265624,-7.498938874816894,-6.258293502044677,-0.21906945190429686
1788860608157430800,11.1914306640625,-7.240963645935058,-6.40314270248413,-0.042646717071533204
1788860608167437000,11.20143701171875,-7.509712782287597,-6.519560758209228,-0.06509235763549805
1788860608177444000,11.211444091796874,-7.802553572845459,-6.679523356628418,-0.16011223602294922
1788860608187449900,11.221449951171875,-7.666383353424072,-7.095964807891845,0.0008978256225585938
1788860608197457200,11.23145703125,-7.417835293579101,-7.523479441833496,0.2763806541442871
1788860608207464000,11.2414638671875,-7.672668132781982,-7.660248211669922,0.42063130416870115
1788860608217470000,11.251469970703125,-8.273313474273682,-7.670273931121826,0.48347909774780273
1788860608227477000,11.26147705078125,-8.600720551300048,-7.93573104019165,0.5759551368713378
1788860608237484000,11.271484130859376,-8.837746515655517,-8.394370295715332,0.6139630882263183
1788860608247490000,11.281489990234375,-9.13612389755249,-8.833855937957763,0.6257844589233398
1788860608257497000,11.2914970703125,-9.351153134155274,-9.409661437225342,0.7498340324401855
1788860608267503000,11.301503173828126,-9.348908570098876,-9.925312619781494,0.8961796089172362
1788860608277510000,11.311510009765625,-9.20615429611206,-10.235212097167969,1.1130044967651367
1788860608287517200,11.32151708984375,-9.229497762298584,-10.230872606658934,1.2497732666015624
1788860608297523000,11.33152294921875,-9.547178395080566,-9.922619142913819,1.0416273597717285
1788860608307530000,11.341530029296875,-9.656264208221435,-9.679308399200439,0.9102455436706542
1788860608317537000,11.351537109375,-9.291896643066405,-9.685742816162108,0.9831190567016601
1788860608327543000,11.36154296875,-8.629450971221923,-9.592967501831055,0.9472060317993164
1788860608337549800,11.3715498046875,-8.12786572341919,-9.147496355438232,0.6200982299804687
1788860608347557000,11.38155712890625,-7.540987041473389,-8.8229323928833,0.6262333717346191
1788860608357563100,11.391563232421875,-6.809708071899414,-8.70830998840332,0.9473556694030761
1788860608367570000,11.40156982421875,-6.353762293243408,-8.526201024627685,0.9126397453308105
1788860608377576000,11.411575927734376,-6.114791040039062,-8.335263442230223,0.6931213806152343
1788860608387583000,11.4215830078125,-5.951237139129638,-8.33152250213623,0.45025954971313475
1788860608397590000,11.431590087890624,-6.1161377784729,-8.366388063812256,0.17387889556884764
1788860608407596000,11.441595947265625,-6.498461856079101,-8.38898334197998,-0.058957215881347655
1788860608417603000,11.45160302734375,-6.544999150848389,-8.525752111816406,-0.010773907470703125
1788860608427609900,11.46160986328125,-6.6802715446472165,-8.577077809906005,0.03845686416625976
1788860608437616000,11.4716162109375,-6.996006888580322,-8.296806578063965,-0.201112939453125
1788860608447623000,11.481622802734375,-7.067982575988769,-8.034042945861817,-0.4492120864868164
1788860608457630000,11.4916298828125,-6.890213102722168,-7.978826670074462,-0.20605098037719724
1788860608467636200,11.50163623046875,-6.9606924140930175,-7.945008571624755,0.1039981346130371
1788860608477643000,11.51164306640625,-6.95919603805542,-8.017882084655762,0.1967734489440918
1788860608487649000,11.52164892578125,-6.788459532165527,-8.298901504516602,0.39968203964233395
1788860608497656000,11.531656005859375,-6.59497811050415,-8.620921627807617,0.6417956825256347
1788860608507663000,11.5416630859375,-6.331017377471923,-8.685415435028075,0.6235398948669433
1788860608517668900,11.5516689453125,-6.279990954589843,-8.549095578002929,0.4553472282409668
1788860608527676200,11.56167626953125,-6.853701527404785,-8.342146772003174,0.282815071105957
1788860608537683000,11.571682861328124,-7.660547486877441,-8.295160564422607,0.3429693878173828
1788860608547689000,11.58168896484375,-8.591742295074463,-8.257302250671387,0.3272574394226074
1788860608557696300,11.5916962890625,-9.214234726715087,-8.15958889541626,0.3155857063293457
1788860608567702300,11.601702392578124,-8.775197997283936,-8.135796516418457,0.354341845703125
1788860608577709300,11.611709228515625,-7.999027746582031,-8.077288213348389,0.2877531120300293
1788860608587716400,11.62171630859375,-7.523928354644775,-7.771129676055907,0.2109890213012695
1788860608597722400,11.631722412109376,-6.902333748626709,-7.38072516784668,0.24480711975097655
1788860608607729200,11.641729248046875,-6.7088523269653315,-6.927921778869629,0.37933132553100585
1788860608617736400,11.651736328125,-6.963385890960693,-6.4555158638000485,0.865054987335205
1788860608627742200,11.6617421875,-7.579743180847167,-6.068553020477294,1.3675380607604979
1788860608637749200,11.671749267578125,-8.17844323348999,-5.820753148651122,1.7675193756103516
1788860608647755300,11.68175537109375,-8.611045545959472,-5.74593434677124,2.139219183349609
1788860608657762300,11.69176220703125,-8.78507407913208,-5.806986489105224,2.1971289360046384
1788860608667769000,11.70176904296875,-8.61179373397827,-5.7435401451110835,1.9726725303649901
1788860608677775400,11.711775390625,-8.276006951141357,-5.5918076148986815,1.5973814201354979
1788860608687782400,11.721782470703126,-8.287977959442138,-5.431994654083252,1.2033856094360351
1788860608697789200,11.7317890625,-8.755296195983886,-5.175066888427734,0.7838017684936524
1788860608707795500,11.74179541015625,-8.93171893081665,-4.868758713531494,0.38367081604003905
1788860608717802200,11.75180224609375,-8.745869026947021,-4.6164697135925294,0.14948796615600585
1788860608727808300,11.761808349609375,-8.612990834808349,-4.538658159637451,0.031124621582031248
1788860608737815300,11.771815185546876,-8.502707920837402,-4.501398396301269,-0.21697452545166016
1788860608747822300,11.781822265625,-8.435221361541748,-4.4187984390258785,-0.2614168937683105
1788860608757828400,11.791828369140624,-8.372223930358887,-4.300285456848144,-0.09696516723632811
1788860608767835400,11.80183544921875,-8.080729878234862,-4.236240562438964,0.09337386474609374
1788860608777842200,11.81184228515625,-8.045864316558838,-4.005050464630127,0.22535423126220702
1788860608787848200,11.82184814453125,-8.097040377044678,-3.7000890281677243,0.1897404815673828
1788860608797855500,11.83185546875,-7.7507789619445795,-3.3928830276489257,0.005237316131591796
1788860608807861200,11.841861328125,-7.715763762664794,-3.1298201202392577,-0.1541267318725586
1788860608817868300,11.851868408203124,-8.17844323348999,-3.05185892868042,-0.3703530693054199
1788860608827875300,11.861875244140625,-8.566603177642822,-3.1358056243896484,-0.527322915649414
1788860608837881300,11.87188134765625,-8.726565776062012,-3.4671032791137693,-0.4661211357116699
1788860608847888100,11.88188818359375,-8.474426413726807,-4.078223252868652,-0.4510077377319336
1788860608857895400,11.8918955078125,-8.271517823028564,-4.4279263328552245,-0.7496843948364257
1788860608867901400,11.9019013671875,-8.147617887115478,-4.311059364318847,-1.2152069801330565
1788860608877908200,11.911908203125,-8.187271852111817,-3.7970541954040526,-1.48754741897583
1788860608887914200,11.921914306640625,-8.547599201965332,-2.9349919601440426,-1.6359879219055176
1788860608897921300,11.93192138671875,-9.023297144317626,-2.2062568298339844,-1.6772879005432129
1788860608907928300,11.94192822265625,-9.010278672790527,-1.8604443275451659,-1.5469535476684568
1788860608917934000,11.95193408203125,-8.284536294555664,-1.7317559883117675,-1.322197866821289
1788860608927941400,11.96194140625,-7.68628515472412,-1.4363713584899902,-1.2931681716918944
1788860608937948200,11.9719482421875,-7.652018143463135,-1.3208511283874511,-1.5408184059143066
1788860608947954200,11.9819541015625,-7.5631334068298335,-1.5701473762512206,-1.7893664657592772
1788860608957961200,11.991961181640624,-6.855497178649902,-1.5499462997436522,-1.9039888702392578
1788860608967967200,12.00196728515625,-6.578218698883056,-1.3871405868530273,-1.5921441040039062
1788860608977974300,12.011974365234375,-6.424391242218017,-1.3474866218566894,-1.3914800773620604
1788860608987981300,12.021981201171876,-6.366631127166747,-0.9454103805541991,-1.8212392753601072
1788860608997987300,12.0319873046875,-7.028478248596191,-0.34431612625122066,-2.4564509033203126
1788860609007994000,12.041994140625,-7.031171725463866,-0.32082302246093747,-2.740163800048828
1788860609018001400,12.05200146484375,-7.15641839981079,-0.4465186096191406,-2.5158570320129394
1788860609028007200,12.062007080078125,-7.675211972045898,-0.4538508522033691,-1.6958429634094236
1788860609038014200,12.07201416015625,-7.522880891418456,-0.28311434631347654,-1.006163247680664
1788860609048020500,12.0820205078125,-7.019948905181884,0.09576806640624999,-0.4978443077087402
1788860609058027300,12.09202734375,-7.117362985229492,0.3091512893676758,-0.13871405868530273
1788860609068034000,12.102033935546874,-7.119906824493408,0.3381809844970703,-0.3447650390625
1788860609078040300,12.112040283203125,-6.892906579589844,0.2807201446533203,-0.9074024291992187
1788860609088047400,12.12204736328125,-7.085490175628662,-0.1475426773071289,-1.2538134819030762
1788860609098054100,12.13205419921875,-7.2720882675170895,-1.0146925910949707,-1.3678373359680176
1788860609108060400,12.142060302734375,-7.262810736083984,-1.8338088340759275,-1.4565724349975586
1788860609118067200,12.152067138671875,-7.717559413909911,-2.372204932403564,-1.4146739059448241
1788860609128073200,12.1620732421875,-8.193706269073486,-2.836530416870117,-1.0491092399597168
1788860609138080300,12.172080322265625,-8.181735260772705,-3.1856349464416502,-0.6947673942565917
1788860609148087300,12.18208740234375,-7.838017684936523,-3.3638533325195312,-0.5434837768554687
1788860609158093300,12.19209326171875,-7.335384973907471,-3.6547488342285153,-0.43364977569580077
1788860609168100400,12.202100341796875,-7.072621341705322,-4.088099334716796,-0.5268740028381347
1788860609178106400,12.2121064453125,-7.605780123901367,-4.302679658508301,-0.8345289161682128
1788860609188113200,12.222113037109375,-8.263886305236817,-4.392911133575439,-1.0646715507507323
1788860609198120400,12.232120361328125,-8.069058145141602,-4.440944804382324,-1.0492588775634766
1788860609208126200,12.242126220703126,-7.57824680480957,-4.393659321594238,-0.8514379653930664
1788860609218133200,12.25213330078125,-7.672518495178222,-4.30282929611206,-0.45415012741088867
1788860609228140300,12.262140380859375,-7.951592626190185,-4.403385765838623,0.1031003089904785
1788860609238146300,12.272146240234376,-7.847444853973388,-4.698171845245361,0.47809214401245115
1788860609248153000,12.282153076171875,-7.76963330001831,-5.084087225341796,0.6655880615234374
1788860609258159400,12.292159423828124,-7.5631334068298335,-5.555595314788818,0.668431175994873
1788860609268166400,12.30216650390625,-7.358129889678954,-5.9962780578613275,0.4707599014282226
1788860609278173200,12.312173095703125,-7.388955236053467,-6.328174263000488,0.2723404388427734
1788860609288179500,12.322179443359374,-7.452102304840087,-6.744765351867676,0.26440964584350585
1788860609298186200,12.332186279296875,-7.5810899192810055,-7.120206099700927,0.41793782730102536
1788860609308193300,12.342193359375,-7.853430358123779,-7.323563603210449,0.5515642074584961
1788860609318199300,12.35219921875,-8.15285520324707,-7.570166374206543,0.6621463966369628
1788860609328206300,12.362206298828125,-8.340201483154296,-8.014141144561767,0.8438064476013183
1788860609338212400,12.37221240234375,-8.60550895462036,-8.456170626068115,0.8491934013366699
1788860609348219400,12.382219482421876,-8.924685963439941,-8.772803795623778,0.6395511184692383
1788860609358226200,12.39222607421875,-8.992022885131835,-9.03317322616577,0.4608838195800781
1788860609368232200,12.402232177734374,-8.866925848388671,-9.32137525100708,0.43350013809204097
1788860609378239500,12.412239501953126,-8.875604829406738,-9.481487487030028,0.5654805046081542
1788860609388245200,12.422245361328125,-9.04020619354248,-9.597606267547606,0.6961141326904297
1788860609398252300,12.432252197265624,-9.183559017944335,-9.76774422302246,0.7802104660034179
1788860609408259300,12.44225927734375,-9.194332925415038,-9.981725996398925,0.8457517364501953
1788860609418265300,12.452265380859375,-9.077316319274901,-10.187627339172362,1.0283096130371092
1788860609428272000,12.462272216796874,-8.655487914276122,-10.238504124450683,1.0922048698425293
1788860609438279400,12.472279541015626,-8.28049607925415,-9.918429290008545,0.6476315490722656
1788860609448285400,12.482285400390625,-7.801805384826659,-9.282319836425781,0.05132569808959961
1788860609458292200,12.492292236328124,-7.205948446655273,-8.859892881011962,-0.07197568740844726
1788860609468298200,12.50229833984375,-6.815394300842285,-8.715193318176269,0.1188122573852539
1788860609478305300,12.51230517578125,-6.7848682296752925,-8.67598826599121,0.26007015533447264
1788860609488312300,12.522312255859376,-7.053467728424072,-8.673444426727295,0.40237551651000975
1788860609498318000,12.532318115234375,-7.3760864021301265,-8.805125518035888,0.471807364654541
1788860609508325400,12.542325439453125,-7.6990043510437,-8.820089278411865,0.31977555923461914
1788860609518331400,12.552331298828125,-7.605480848693847,-8.75948604888916,0.23657705154418943
1788860609528338200,12.562338134765625,-7.241412558746338,-8.559719847869873,0.07751227874755859
1788860609538345200,12.57234521484375,-6.751199768829346,-8.386888415527343,0.0579097526550293
1788860609548351200,12.582351318359375,-6.120626906585693,-8.240991751861571,0.1005564697265625
1788860609558358500,12.592358642578125,-5.719298853302002,-7.986158912658691,-0.10235212097167969
1788860609568365300,12.602365234375,-5.27352843170166,-7.855076371765136,-0.18091186294555664
1788860609578371300,12.612371337890625,-4.53267265548706,-7.845349927520751,0.18270751419067383
1788860609588378400,12.62237841796875,-4.103512007904053,-7.812280017089844,0.8059481338500976
1788860609598384400,12.63238427734375,-5.091269830322266,-7.75691410369873,1.1616367179870606
1788860609608391200,12.64239111328125,-7.1692872337341305,-7.679252187347411,1.1137526847839354
1788860609618398500,12.6523984375,-8.593687583923339,-7.650671405029296,1.0712556053161622
1788860609628404500,12.662404541015626,-9.29593685836792,-7.716063037872314,1.1804910560607909
1788860609638411300,12.672411376953125,-9.61496422958374,-7.875427085876464,1.113453409576416
1788860609648417500,12.68241748046875,-9.829394915771484,-8.04511612854004,0.7876923461914062
