time,seconds_elapsed,z,y,x
1788861658384127200,0.039127197265625,10.046818354034423,1.8953098892211913,0.6022913551330566
1788861658394133000,0.049133056640625,9.8825162651062,2.0100819313049314,0.4842272857666015
1788861658404140000,0.05914013671875,9.887753581237792,1.832911008453369,0.4155436256408691
1788861658414146000,0.06914599609375,9.950751012420653,1.753154165649414,0.203656778717041
1788861658424152000,0.079152099609375,10.085574493408203,1.931821464538574,0.02498947982788086
1788861658434159000,0.0891591796875,10.121936431121826,2.073528275299072,-0.0570119270324707
1788861658444164900,0.099164794921875,9.962422745513916,2.185457202911377,-0.030526071166992186
1788861658454171000,0.1091708984375,9.94057565536499,2.29828395614624,-0.07631517791748046
1788861658464178200,0.11917822265625,10.270676209259033,2.2560861518859863,-0.3386298973083496
1788861658474184000,0.129183837890625,9.743951844024657,2.4206875160217285,-0.38247371520996093
1788861658484190000,0.13918994140625,8.627954595184326,2.4293664970397946,-0.6236895324707031
1788861658494196000,0.149196044921875,8.007108177185058,2.3986907882690427,-1.1680711349487305
1788861658504203000,0.159203125,7.127239067077636,2.8262054222106934,-1.6820763038635254
1788861658514209000,0.169208984375,5.779153894805908,3.3452982696533202,-2.2680571601867676
1788861658524215000,0.179215087890625,6.323685134887695,3.616142332458496,-2.2833201957702633
1788861658534222000,0.18922216796875,6.488885049438476,3.9362171669006347,-1.9889830291748045
1788861658544228000,0.19922802734375,6.716932757568359,3.988291053009033,-1.5930419296264648
1788861658554234000,0.209234130859375,7.420379132843017,3.6516064445495604,-1.3742717529296875
1788861658564241200,0.2192412109375,7.911789023590088,3.6674680305480956,-1.5192705909729003
1788861658574247200,0.2292470703125,8.347384088134765,3.7753567428588863,-1.365592771911621
1788861658584253200,0.239253173828125,8.984989917755126,3.412335916137695,-0.849791951751709
1788861658594259000,0.249259033203125,9.298630335235595,2.8036101440429686,-0.5427355888366698
1788861658604266200,0.259266357421875,9.637858782958984,2.392106733703613,-0.1349731185913086
1788861658614272000,0.26927197265625,9.952247388458252,2.3110031524658203,0.2275987953186035
1788861658624278000,0.279278076171875,9.687688105010986,2.5074773262023924,-0.12165537185668944
1788861658634285000,0.28928515625,9.483732051086426,2.8730419921875,-0.9501987838745116
1788861658644291000,0.299291015625,9.204508282470703,3.70951619720459,-2.3133973541259762
1788861658654297000,0.309297119140625,9.199570241546631,4.387374542236328,-3.3113305335998535
1788861658664303000,0.31930322265625,9.036315615844726,4.645200133514404,-3.4325369926452636
1788861658674310000,0.329309814453125,8.97601166152954,4.222473902893066,-3.086125939941406
1788861658684316200,0.339316162109375,9.582193594360351,3.201646170043945,-2.4693197372436524
1788861658694322200,0.349322265625,10.30404539489746,3.1006407875061033,-1.3174094635009765
1788861658704329000,0.359328857421875,10.768071604156493,3.636493046569824,-0.5198410354614258
1788861658714335000,0.3693349609375,10.275913525390624,4.450521611022949,-0.2467524085998535
1788861658724341200,0.37934130859375,8.871564614105225,4.797381576538085,-0.26560674667358397
1788861658734348000,0.38934814453125,7.3754878517150875,4.449324510192871,-0.5017348854064941
1788861658744354000,0.39935400390625,6.3132105026245116,3.9395091941833495,-0.4215291297912597
1788861658754360000,0.409360107421875,5.821351699066161,3.868281694793701,0.14888941574096679
1788861658764366000,0.419365966796875,6.221781926727295,3.9209541313171385,0.4466682472229004
1788861658774373000,0.429373046875,7.300818687438964,3.838354174041748,0.6376058296203613
1788861658784379000,0.43937890625,8.092700886535644,3.752761464691162,0.6637924102783203
1788861658794385000,0.449385009765625,8.582614401245117,3.445555464172363,0.8806172981262207
1788861658804392200,0.45939208984375,8.950273993682861,3.1028853515624997,1.4839561164855957
1788861658814398000,0.46939794921875,9.14210940170288,3.0624831985473633,2.08130943069458
1788861658824404000,0.479404052734375,8.901641772460938,3.0948049209594726,2.514061380767822
1788861658834411300,0.489411376953125,8.398709786224364,3.0741549316406247,2.896385458374023
1788861658844417000,0.4994169921875,7.537695014190674,3.259855197906494,3.5654151847839355
1788861658854423000,0.509423095703125,7.156568037414551,3.017741555023193,3.8244378768920897
1788861658864429000,0.519428955078125,7.020996368408203,2.430413960266113,4.2019735511779785
1788861658874436000,0.52943603515625,6.960991689300537,2.0509329971313477,5.0191445053100585
1788861658884442000,0.539442138671875,6.95904640045166,1.610100616455078,5.466860215759277
1788861658894448600,0.54944873046875,7.193378887939453,1.2820949890136717,5.372139612579345
1788861658904455400,0.559455322265625,6.966079367828368,0.24181436767578124,5.469404055023193
1788861658914461400,0.56946142578125,7.383119369506836,-0.7769184387207031,4.378396286010742
1788861658924467500,0.579467529296875,7.462128024291991,-1.3461398834228515,3.6617818016052244
1788861658934474500,0.589474609375,6.007351240539551,-1.1974001052856444,4.3369466697692864
1788861658944480500,0.59948046875,4.519504546356201,-0.6021417175292968,6.056133099365234
1788861658954486300,0.609486328125,3.373430139160156,-0.3441664886474609,8.037334973144532
1788861658964492500,0.619492431640625,3.0448259613037107,-0.6150105514526367,8.937105884552002
1788861658974499600,0.62949951171875,3.6451720275878903,-1.0322001907348632,9.044844959259033
1788861658984505300,0.63950537109375,5.001337630462646,-1.746719748687744,8.570044842529297
1788861658994511400,0.649511474609375,6.961440602111816,-2.4946084922790526,7.213131051635742
1788861659004518400,0.659518310546875,9.35249987258911,-2.5822961280822754,5.84155277557373
1788861659014524400,0.6695244140625,10.871171913146972,-2.5987562644958495,5.371989974975586
1788861659024530400,0.679530517578125,11.325322040557861,-2.8574796813964842,5.877765075683594
1788861659034536400,0.689536376953125,10.59853219909668,-3.030610388946533,7.785195610809326
1788861659044543500,0.69954345703125,8.571690856170655,-3.2050878349304197,10.206930590057372
1788861659054549500,0.709549560546875,6.32697716217041,-3.2556653450012205,11.819275770568847
1788861659064555500,0.719555419921875,4.803367080688476,-2.6879402763366698,12.776507521820067
1788861659074562600,0.7295625,3.652653907775879,-1.468992356109619,13.540257851409912
1788861659084568600,0.739568603515625,3.2659903396606444,-0.436043977355957,14.04468621368408
1788861659094574300,0.74957421875,2.7431565521240233,0.1997662010192871,14.169633612823485
1788861659104581400,0.759581298828125,2.0973206542968748,0.6503250259399413,14.417433484649658
1788861659114587600,0.769587646484375,2.1977274864196774,0.9168295982360839,14.430152680969238
1788861659124593400,0.779593505859375,1.8846856193542478,1.1634323692321777,14.111574222564697
1788861659134600400,0.789600341796875,1.1366472381591797,1.294664547729492,13.737031300354003
1788861659144606500,0.7996064453125,0.3660135787963867,1.2910732452392577,12.649465196228027
1788861659154612500,0.809612548828125,-0.5762544120788574,1.9062334342956542,11.142764163970947
1788861659164618500,0.819618408203125,-1.025316860961914,2.8063036209106444,10.886285311126707
1788861659174625300,0.829625244140625,-1.9416975463867185,2.8986300224304196,11.188852545928954
1788861659184631600,0.839631591796875,-4.57756393661499,3.2836475769042965,11.654375131225585
1788861659194637600,0.849637451171875,-8.543409349060058,4.065055143737792,12.177358556365967
1788861659204644400,0.859644287109375,-10.683825633239746,4.105906209564209,12.91522158050537
1788861659214650400,0.869650390625,-11.211597461700439,3.8435914901733397,11.923722817993163
1788861659224656600,0.87965673828125,-9.507524430084228,3.286191416168213,8.868571862030029
1788861659234662700,0.88966259765625,-7.436539994049072,2.4423849685668944,7.391499075317382
1788861659244669400,0.89966943359375,-5.562329006958008,0.7656956184387207,7.891737584686279
1788861659254675500,0.909675537109375,-3.731512924957275,-0.35359365768432616,7.893982148742675
1788861659264681500,0.919681396484375,-3.0542531303405758,-0.8155249404907227,7.998878108978271
1788861659274688500,0.9296884765625,-2.1709423553466793,-1.250671092224121,9.37838717803955
1788861659284694500,0.939694580078125,-2.0011036750793454,-1.2801497001647948,10.022427424621581
1788861659294700300,0.9497001953125,-3.714454238128662,-0.9614216041564941,8.351873216247558
1788861659304706600,0.95970654296875,-5.555445677185058,-0.2570774032592773,7.072621341705322
1788861659314713600,0.969713623046875,-5.960365032958984,-0.04339490509033203,7.247398062896728
1788861659324719400,0.97971923828125,-5.279065023040771,-0.6524199523925781,7.718307601928711
1788861659334725400,0.989725341796875,-5.170727397918701,-2.9240684150695797,8.244583054351805
1788861659344732400,0.999732421875,-5.568015235900878,-6.271012698364258,10.103979918670653
1788861659354738400,1.009738525390625,-3.3219548034667965,-2.9403789138793943,7.75706374130249
1788861659364744400,1.019744384765625,-4.304325672149658,-4.025999729156494,8.245480879974364
1788861659374751500,1.02975146484375,-4.632630574798584,-4.235791649627686,9.045144234466552
1788861659384757500,1.039757568359375,-4.824017070007324,-4.37989266204834,8.887875112915038
1788861659394763500,1.049763427734375,-3.7633857345581054,-4.834342064666748,9.412205276489257
1788861659404769500,1.05976953125,-2.5444378143310544,-5.162198054504394,8.530839790344238
1788861659414776600,1.069776611328125,-1.9319711021423338,-5.4333413925170895,7.64827720336914
1788861659424782600,1.079782470703125,-2.0483891578674314,-5.591957252502441,7.582735932922363
1788861659434788400,1.089788330078125,-1.3593079925537108,-5.856965448760986,7.02279201965332
1788861659444795400,1.09979541015625,-1.9214964698791503,-6.222081201934814,6.764667153167724
1788861659454801700,1.1098017578125,-2.3356933570861815,-6.617423751068115,6.061819328308105
1788861659464807400,1.119807373046875,-2.175132208251953,-7.199813304901123,5.355230563354492
1788861659474814500,1.129814453125,-1.3914800773620604,-6.8207812545776365,5.223699109649658
1788861659484820500,1.139820556640625,-1.264737026977539,-5.314978047943115,5.030068050384521
1788861659494826500,1.149826416015625,-3.554042726898193,-3.4386721343994138,3.716249889373779
1788861659504832500,1.15983251953125,-6.406883642578125,-3.765630298614502,4.264073156738281
1788861659514839300,1.16983935546875,-4.802319617462158,-4.233846360778808,6.087556996154785
1788861659524845300,1.17984521484375,-3.961505921936035,-3.778648770141601,7.633463080596924
1788861659534851600,1.1898515625,-5.441122547912597,-4.07298593673706,7.792677490997314
1788861659544858400,1.1998583984375,-5.544821407318115,-2.8453590354919434,6.008997254180908
1788861659554864400,1.209864501953125,-5.078700271606445,-2.020107650756836,4.454112913513184
1788861659564870400,1.219870361328125,-4.563797277069091,-1.988085203552246,4.0161236473083495
1788861659574876700,1.229876708984375,-3.7084687339782714,-1.0711059677124022,1.2448352256774902
1788861659584883500,1.239883544921875,-3.8634932914733886,-1.524507907104492,3.22394217300415
1788861659594889500,1.249889404296875,-2.5559599098205563,-1.456871710205078,9.657910221862792
1788861659604895200,1.259895263671875,-3.086125939941406,-0.5536591339111328,11.75283667449951
1788861659614902500,1.269902587890625,-4.492270502471923,-1.5644611473083496,11.637316444396973
1788861659624908500,1.279908447265625,-3.1103672317504882,-2.2845172966003418,10.159345832061767
1788861659634914300,1.289914306640625,-1.56416187210083,-3.869628433227539,10.256909549713134
1788861659644921600,1.299921630859375,-0.09472060317993164,-5.133467634582519,8.79824218826294
1788861659654927600,1.309927734375,0.8011597305297851,-4.813093524932861,8.088361396026611
1788861659664933400,1.319933349609375,1.288978318786621,-4.400393013763427,8.194604094696045
1788861659674939400,1.329939453125,2.2095488571166992,-6.169259127807617,6.16087942199707
1788861659684946400,1.339946533203125,2.391508183288574,-6.5209074966430665,4.993706112670898
1788861659694952400,1.349952392578125,0.89378540725708,-6.076334175872803,4.825663083648681
1788861659704958500,1.35995849609375,1.4986206016540526,-8.066065393066406,4.920682962036133
1788861659714965500,1.369965576171875,0.5360018966674804,-10.213065731811524,4.94791700592041
1788861659724971500,1.379971435546875,-1.5631144088745117,-10.794707097625732,5.023633633422851
1788861659734977500,1.3899775390625,-7.570465649414062,-12.446855880737305,6.7459624526977535
1788861659744984300,1.399984375,-10.453982273864746,-13.796138153839111,8.288576509857178
1788861659754990600,1.409990478515625,-9.868899243164062,-14.297124851226807,7.79522133026123
1788861659764996600,1.41999658203125,-8.309825049591064,-13.924826493072509,6.05852730102539
1788861659775002400,1.43000244140625,-5.308094718170166,-13.488632878112792,4.197933335876464
1788861659785009400,1.440009521484375,-1.7090110725402832,-13.070994326019287,2.6560674667358395
1788861659795015700,1.450015625,0.589272883605957,-12.281356690979003,1.9491794265747069
1788861659805021400,1.460021484375,2.4314614234924314,-10.466402194976807,2.588730545043945
1788861659815028500,1.470028564453125,-0.43080666122436523,-9.027935910034179,3.0725089179992673
1788861659825034500,1.480034423828125,-3.2124200775146483,-8.04466721572876,3.6590883247375485
1788861659835040500,1.49004052734375,-3.2604537483215332,-7.890241208648681,3.475183709716797
1788861659845047600,1.500047607421875,-1.9815011489868164,-8.094945450592041,2.730437355804443
1788861659855053300,1.51005322265625,-0.148739778137207,-8.609399532318115,1.8864812705993652
1788861659865059300,1.520059326171875,0.8143278396606445,-9.30910496749878,0.8337807281494141
1788861659875066600,1.530066650390625,0.31064766540527344,-9.616909518432617,0.09038111267089843
1788861659885072400,1.540072265625,-1.311872872161865,-8.305335921478271,0.4750993919372558
1788861659895078400,1.550078369140625,-1.9403508079528808,-1.209071838378906,2.5781062751770016
1788861659905084400,1.56008447265625,-7.775469166564941,23.111976813507077,9.973196652984619
1788861659915091200,1.57009130859375,-3.1579519897460937,13.103016773223876,7.560589567565917
1788861659925097200,1.58009716796875,-7.63585728225708,-5.555445677185058,3.3176153129577637
1788861659935103500,1.590103515625,-11.26142678375244,-9.638906246185302,2.1766285842895505
1788861659945110300,1.6001103515625,-1.9431939224243162,-14.10289524154663,1.7820342231750488
1788861659955116300,1.6101162109375,-3.8175545471191406,-17.665916224670408,3.3041479286193844
1788861659965122600,1.62012255859375,-5.7897781646728514,-22.161628392028806,5.446659139251708
1788861659975129300,1.63012939453125,-4.892551092529296,-24.56585577163696,9.175927500152588
1788861659985135400,1.64013525390625,-3.790320503234863,-24.323293215942382,11.314847408294677
1788861659995141400,1.650141357421875,-1.549497386932373,-9.26466259918213,12.396428008270263
1788861660005147400,1.6601474609375,0.5615899269104003,24.501511602020262,12.83905604019165
1788861660015154400,1.670154541015625,-4.62873999710083,-16.743699672698973,12.110021634674071
1788861660025160200,1.68016015625,-10.684573821258544,-10.679635780334472,8.730605991363525
1788861660035166200,1.690166259765625,-3.266289614868164,-14.574702606201171,3.6028245857238765
1788861660045173500,1.700173583984375,0.5002385093688965,-19.967192932891844,2.079813054656982
1788861660055179300,1.71017919921875,0.49904140853881834,-14.564078336334228,4.0349779853820795
1788861660065185300,1.720185302734375,-1.6425719764709472,-14.687230084228515,5.9193643295288085
1788861660075192600,1.730192626953125,-3.8609494522094723,-15.441403607177733,5.342960279846191
1788861660085198300,1.7401982421875,-4.7007156845092775,-16.38965710220337,5.016750303649902
1788861660095204400,1.750204345703125,-4.756829785919189,-16.441880625915527,6.274005450439453
1788861660105210400,1.76021044921875,-4.883123923492431,-14.910339751434325,7.273584643554687
1788861660115217400,1.770217529296875,-4.478952755737304,-13.655628443908691,6.820631616973877
1788861660125223400,1.780223388671875,-3.8423943893432613,-12.153865452575683,5.391293225860595
1788861660135229400,1.7902294921875,-2.9768904891967773,-11.336993773651123,4.609736021423339
1788861660145236200,1.800236328125,-2.5303718795776367,-10.20782841567993,4.118625405883789
1788861660155242500,1.810242431640625,-2.2967875801086426,-8.884583085632324,4.343829999542236
1788861660165248500,1.82024853515625,-2.2945430160522458,-8.189965328979492,4.790049333953857
1788861660175255300,1.83025537109375,-2.765452555084228,-7.230189738464355,4.915445645904541
1788861660185261300,1.84026123046875,-3.433584455871582,-6.924629751586914,5.575646753692626
1788861660195267300,1.850267333984375,-3.033303865814209,-6.238242063140869,6.395960097503662
1788861660205273300,1.8602734375,-0.4203320289611816,-8.705766149139404,9.099612322235107
1788861660215280400,1.8702802734375,-0.6471826362609863,-9.55136824798584,9.830741654205323
1788861660225286100,1.8802861328125,-1.4257470886230468,-5.135861836242675,6.541707123565674
1788861660235292400,1.89029248046875,-1.6250643768310546,0.9246107536315917,5.42645806274414
1788861660245299500,1.900299560546875,-2.608632346343994,3.621080373382568,8.531587978363037
1788861660255305200,1.91030517578125,-4.78196890335083,3.9637504859924313,7.392396900939941
1788861660265311200,1.920311279296875,-2.4582465545654295,3.3171664001464842,2.6159645889282226
1788861660275318300,1.930318359375,-0.8879495407104492,0.18525135345458985,3.1747114013671873
1788861660285324300,1.94032421875,-1.6068085891723631,-2.074426100921631,5.679794525909424
1788861660295330300,1.950330322265625,-3.409941714477539,-3.345896820068359,7.286154202270508
1788861660305336300,1.96033642578125,-4.633977313232422,-3.762188633728027,7.039252156066894
1788861660315343400,1.97034326171875,-3.880851253509521,-3.7110125732421873,5.3405660781860345
1788861660325349400,1.980349365234375,-3.4255040252685545,-3.0448259613037107,3.170521548461914
1788861660335355400,1.99035546875,-3.9104794990539546,-1.6210241615295409,1.846976943206787
1788861660345362400,2.000362548828125,-3.770568339538574,-1.4359224456787107,1.0504559783935545
1788861660355368400,2.010368408203125,-4.157680820465088,-2.6601076820373533,1.370680450439453
1788861660365374200,2.020374267578125,-4.678569319152832,-3.1748610389709473,3.183839295196533
1788861660375381200,2.03038134765625,-4.161122485351562,-2.3841759407043455,4.792293898010254
1788861660385387500,2.040387451171875,-3.4899978324890135,-2.595164962005615,5.50950693283081
1788861660395393300,2.050393310546875,-3.3291374084472656,-1.9128174888610838,5.8631005905151365
1788861660405399300,2.0603994140625,-3.5711014137268062,-1.8432360031127928,6.512527790832519
1788861660415406300,2.07040625,-3.5084032577514646,-3.1028853515624997,6.36498511352539
1788861660425412400,2.080412353515625,-2.9713538978576657,-3.2857425033569334,5.709422771453857
1788861660435418400,2.09041845703125,-2.9448680419921875,-3.0377929939270016,5.65031591796875
1788861660445425200,2.100425048828125,-3.4961329742431637,-3.051110740661621,5.581482620239258
1788861660455431400,2.110431396484375,-3.699789752960205,-2.9034184257507323,5.628618465423584
1788861660465437400,2.1204375,-3.299209887695312,-2.8540380165100094,5.900061078643798
1788861660475444200,2.1304443359375,-2.684797886657715,-2.8912977798461914,6.206668528747558
1788861660485450200,2.1404501953125,-2.7042507751464844,-3.116203098297119,6.528688652038574
1788861660495456500,2.15045654296875,-3.1393969268798827,-3.4669536415100097,6.6343328002929685
1788861660505462500,2.160462646484375,-3.538181140899658,-3.8417958389282223,6.5497875541687005
1788861660515469300,2.17046923828125,-3.216909205627441,-4.340388334655762,6.235847861480712
1788861660525475300,2.180475341796875,-3.6686651313781735,-4.907664490509033,6.055085636138916
1788861660535481300,2.1904814453125,-4.618863915252685,-5.255422281646728,5.692064809417724
1788861660545488400,2.20048828125,-4.640860643005371,-5.760598831939697,5.8262897399902345
1788861660555494400,2.210494384765625,-4.089296435546875,-6.395960097503662,6.565200227355956
1788861660565500200,2.220500244140625,-4.050390658569336,-6.84352617034912,7.439832021331787
1788861660575506400,2.23050634765625,-4.13703083114624,-7.38671067199707,8.29994896774292
1788861660585513500,2.240513427734375,-4.103362370300292,-8.016385708618163,8.639327053070067
1788861660595519200,2.250519287109375,-4.032733421325683,-8.566902452850341,8.450783672332763
1788861660605525200,2.260525146484375,-3.9510312896728514,-9.048735536956787,8.439261576843261
1788861660615532300,2.2705322265625,-4.200177899932861,-9.204807557678222,9.00204860458374
1788861660625538300,2.280538330078125,-4.810998598480224,-9.099612322235107,9.924414794158935
1788861660635544300,2.29054443359375,-5.585822110748291,-8.844929120635985,10.468197846221923
1788861660645551400,2.30055126953125,-5.419275457763671,-8.795249436187744,10.68128179397583
1788861660655557400,2.310557373046875,-4.4756607284545895,-9.032574675750732,10.670956799316405
1788861660665563400,2.3205634765625,-3.8084266532897946,-9.095721744537354,10.269928021240235
1788861660675570200,2.330570068359375,-3.929483474731445,-8.898798657989502,9.599401918792724
1788861660685576400,2.340576416015625,-4.291456838226318,-8.661772693634033,9.023746057128905
1788861660695582500,2.35058251953125,-4.149899665069579,-8.491485100555419,8.590096281433105
1788861660705588200,2.360588134765625,-3.7304654617309567,-8.70771143798828,8.22258632659912
1788861660715595300,2.37059521484375,-3.8042368003845213,-9.192387636566162,7.653813794708252
1788861660725601500,2.3806015625,-4.025999729156494,-9.765499658966064,7.224503509521484
1788861660735607300,2.390607177734375,-4.2119992706298826,-10.169670826721191,6.905775413513183
1788861660745614300,2.4006142578125,-4.244171355438232,-10.18942299041748,6.553079581451415
1788861660755620400,2.410620361328125,-4.272153587341308,-9.947907897949218,6.259041690063476
1788861660765626400,2.42062646484375,-4.478054930114745,-9.693523971557617,6.235398948669433
1788861660775632400,2.43063232421875,-4.3807904876708985,-9.6028435836792,6.7179802207946775
1788861660785639200,2.44063916015625,-3.765031748199463,-9.593416414642334,7.4874167793273925
1788861660795645200,2.450645263671875,-3.1193454879760742,-9.297732509613036,7.907299895477294
1788861660805651500,2.4606513671875,-2.8107927490234372,-8.641571617126464,7.6108678024291985
1788861660815658200,2.470658203125,-2.644395733642578,-7.780257569885253,6.877793181610107
1788861660825664300,2.480664306640625,-2.367266891479492,-6.816292126464844,5.947496199035644
1788861660835670300,2.490670166015625,-1.9092261863708495,-6.085013156890869,5.537189889526367
1788861660845677300,2.50067724609375,-1.3709797256469727,-5.779153894805908,6.064512805175781
1788861660855683300,2.510683349609375,-1.46839380569458,-5.907542958831787,7.205649171447753
1788861660865689300,2.520689453125,-2.01112939453125,-6.380996337127685,8.453626786804199
1788861660875695000,2.530695068359375,-2.524236737823486,-6.884676511383057,9.574562076568602
1788861660885702400,2.540702392578125,-2.842216645812988,-7.2243538719177245,10.330680888366699
1788861660895708200,2.550708251953125,-2.84086990737915,-7.2821139869689935,10.550498528289795
1788861660905714200,2.560714111328125,-2.823212670135498,-6.884975786590576,10.463559080505371
1788861660915721200,2.57072119140625,-2.757372124481201,-6.316652167510986,10.180893647003174
1788861660925727200,2.580727294921875,-2.825756509399414,-5.916371577453613,9.531167171478272
1788861660935733000,2.59073291015625,-2.844910122680664,-5.8731263099670405,8.41487064743042
1788861660945740300,2.600740234375,-2.865260836791992,-6.008847616577148,7.1121256690979
1788861660955746000,2.61074609375,-2.8259061470031734,-6.170905141448975,6.169109490203857
1788861660965752000,2.620751953125,-2.7994202911376953,-6.193201144409179,5.786935050201416
1788861660975758000,2.630758056640625,-2.709338453674316,-5.961262858581542,5.815066919708252
1788861660985765000,2.64076513671875,-2.5776573623657226,-5.489754769134521,6.136039579772949
1788861660995771100,2.650771240234375,-2.8259061470031734,-4.764910216522217,6.6246063560485835
1788861661005777200,2.660777099609375,-3.03255567779541,-4.173392768859863,7.312041507720947
1788861661015784200,2.6707841796875,-3.0144495277404784,-3.8781577766418454,8.003816149902343
1788861661025790200,2.680790283203125,-2.7889456588745114,-3.8658874931335445,8.526649937438965
1788861661035796200,2.690796142578125,-2.5828946784973144,-3.884741831207275,8.586953891754149
1788861661045803000,2.700802978515625,-2.459892568206787,-3.713107499694824,8.365639875793457
1788861661055809300,2.710809326171875,-2.3295582153320313,-3.456030096435547,8.1341505027771
1788861661065815300,2.720815185546875,-2.3364415451049805,-3.1248820793151855,7.88500389251709
1788861661075821000,2.730821044921875,-3.0538042175292968,-2.7940333374023436,7.523928354644775
1788861661085828000,2.740828125,-4.68006569519043,-2.8694506896972656,6.865971810913085
1788861661095834400,2.75083447265625,-4.453065450286865,-3.3641526077270507,6.29510435256958
1788861661105840000,2.760840087890625,-1.893514237976074,-3.755155666351318,6.355258669281006
1788861661115847200,2.77084716796875,-2.080710880279541,-3.9428012214660644,6.637774465179443
1788861661125853200,2.780853271484375,-3.005920184326172,-3.8979099403381343,5.748478186035156
1788861661135859200,2.790859130859375,-2.410811434173584,-3.3295863212585446,3.7261259712219235
1788861661145866200,2.8008662109375,-1.16193599319458,-3.145083155822754,3.546560846710205
1788861661155872000,2.8108720703125,-4.00265626296997,-3.2276831130981445,5.600037683105469
1788861661165878300,2.820878173828125,-4.094384114074707,-2.5890298202514646,5.7697267257690426
1788861661175884300,2.83088427734375,-3.8277299041748045,-1.6316484313964843,4.886415950775146
1788861661185891000,2.84089111328125,-5.332635285186767,-0.9882067352294921,4.281580756378173
1788861661195897000,2.85089697265625,-4.152593141937255,-1.7488146751403808,4.712237779998779
1788861661205903400,2.8609033203125,-3.6514568069458004,-3.464709077453613,5.787982513427734
1788861661215910100,2.87091015625,-3.9447465103149413,-4.320486533355712,4.814290625762939
1788861661225916200,2.880916259765625,-4.324227473449707,-4.051288484191894,3.7351042274475095
1788861661235922200,2.890922119140625,-4.651036000061035,-3.3967736053466795,4.338891958618164
1788861661245929200,2.90092919921875,-3.466055815887451,-3.126378455352783,5.454889207458495
1788861661255935200,2.910935302734375,-3.235613906097412,-2.989759323120117,5.915324114227294
1788861661265941200,2.920941162109375,-3.6577415863037106,-2.361580662536621,5.749376011657715
1788861661275947000,2.930947021484375,-3.506009056091308,-1.894262425994873,5.038148480987549
1788861661285954300,2.940954345703125,-3.666570204925537,-1.5861585998535155,4.767454055786133
1788861661295960000,2.9509599609375,-3.8896798721313472,-1.2026374214172362,4.7369279846191406
1788861661305966000,2.960966064453125,-4.427776695251465,-1.1258733306884765,4.741566750335693
1788861661315973400,2.970973388671875,-5.0391959442138665,-1.2831424522399901,5.260210684967041
1788861661325979100,2.980979248046875,-4.652981288909912,-1.7473182991027831,5.972934591674805
1788861661335985200,2.990985107421875,-3.9309798507690425,-2.6295816108703614,5.986701251220703
1788861661345992200,3.0009921875,-3.8468835174560545,-3.7734114540100094,5.6492684547424314
1788861661355998200,3.010998291015625,-4.265569532775879,-4.871601828002929,5.667075329589843
1788861661366004200,3.021004150390625,-3.83072265625,-5.8271875656127925,5.95632481765747
1788861661376010200,3.03101025390625,-3.674052085113525,-6.527641188812256,6.5111810523986815
1788861661386017000,3.04101708984375,-3.5187282524108885,-6.85070877532959,7.104045238494873
1788861661396023300,3.051023193359375,-3.0850784767150876,-6.856095729064941,7.5204866897583
1788861661406029300,3.061029296875,-3.2932243835449215,-6.684760672760009,7.912986124420166
1788861661416036000,3.0710361328125,-3.3979707061767574,-6.466289771270752,8.422202890014647
1788861661426042000,3.0810419921875,-3.153313224029541,-6.148609138488769,8.634987562561035
1788861661436048400,3.09104833984375,-3.232920429229736,-5.989245090484618,8.636483938598632
1788861661446055200,3.10105517578125,-3.5787329315185543,-5.996726970672607,8.383446750640868
1788861661456061200,3.111061279296875,-3.746925598144531,-6.2110080192565915,8.150461001586914
1788861661466067200,3.121067138671875,-3.802590786743164,-6.641515405273437,8.377161971282959
1788861661476074200,3.13107421875,-3.9674914260864256,-7.260865447235107,9.111732968139648
1788861661486080300,3.141080322265625,-4.165910888671875,-8.12711753540039,10.18224038543701
1788861661496086000,3.1510859375,-4.235791649627686,-9.140762663269042,11.017218214416504
1788861661506092000,3.161092041015625,-3.976020769500732,-9.963919121551513,11.239729331207275
1788861661516099300,3.171099365234375,-3.2561142578125,-10.357017106628417,10.91067624053955
1788861661526105000,3.18110498046875,-2.750488794708252,-10.13794765472412,10.320206256103514
1788861661536111000,3.191111083984375,-3.378068904876709,-9.645639938354492,9.863213014221191
1788861661546118100,3.2011181640625,-4.280682930755615,-9.136572810363768,9.734524674987792
1788861661556124200,3.211124267578125,-4.519055633544921,-8.875305554199219,9.813234054565429
1788861661566130200,3.221130126953125,-4.830451486968994,-8.930671467590331,9.560496141815184
1788861661576137000,3.231136962890625,-5.389647212219238,-9.02150149307251,8.691251301574706
1788861661586143200,3.241143310546875,-5.747430722808837,-9.120262311553955,8.030302005767822
1788861661596149200,3.251149169921875,-5.691615896606445,-8.967631955718993,7.84669666595459
1788861661606155300,3.2611552734375,-5.297320810699462,-8.711751653289795,8.03838243637085
1788861661616162000,3.271162109375,-4.55197590637207,-8.560468035888672,8.614337573242187
1788861661626168300,3.281168212890625,-3.801992236328125,-8.543708624267577,9.32032778778076
1788861661636174000,3.291174072265625,-3.482815227508545,-8.643367268371582,9.625139586639404
1788861661646181000,3.30118115234375,-3.2399533966064453,-8.857349041748046,9.522937103271484
1788861661656187400,3.3111875,-3.310133432769775,-9.012373599243164,8.897003006744384
1788861661666193200,3.321193115234375,-3.0475194381713866,-9.057564155578612,8.042422651672362
1788861661676200200,3.3312001953125,-2.0847510955810544,-8.93770443496704,6.996306163787842
1788861661686206200,3.341206298828125,-1.4252981758117675,-8.458115914916991,5.345204843902588
1788861661696212200,3.351212158203125,-0.6391022056579589,-7.7699325752258295,4.154538430786133
1788861661706219300,3.36121923828125,0.4101566719055176,-7.083095973968505,4.433762199401855
1788861661716225000,3.37122509765625,0.40671500701904295,-6.125714585113525,5.7335144256591795
1788861661726231000,3.38123095703125,-1.3397054664611816,-5.315127685546875,7.708730795288085
1788861661736237300,3.3912373046875,-3.8239889640808102,-5.015104290008544,9.81906992111206
1788861661746244000,3.401244140625,-5.0471267372131345,-5.424512773895263,11.456404581451416
1788861661756250000,3.41125,-4.198980799102783,-6.12242255783081,12.140846981048583
1788861661766256000,3.421256103515625,-3.404554760742187,-6.495768379211426,11.697321123504638
1788861661776263200,3.43126318359375,-3.310731983184814,-6.732195793151855,10.337115305328368
1788861661786269200,3.441269287109375,-3.273172944641113,-6.890362740325927,8.730905266571044
1788861661796275200,3.451275146484375,-3.0195372062683106,-6.950217781829833,7.532906610870361
1788861661806282200,3.4612822265625,-2.495506317901611,-6.879439195251464,6.918943522644042
1788861661816288300,3.471288330078125,-2.1187188316345216,-6.552929943847656,6.676081691741943
1788861661826294300,3.481294189453125,-2.064550019073486,-5.950638588714599,6.649296560668945
1788861661836301000,3.491301025390625,-2.147000338745117,-5.326500143432617,6.90787033996582
1788861661846307300,3.501307373046875,-2.3988404258728027,-4.897489133453369,7.416189279937743
1788861661856313300,3.511313232421875,-2.5751135231018063,-4.772392096710205,7.995137168884277
1788861661866319000,3.521319091796875,-3.1603461914062496,-4.6733320030212395,8.163030560302733
1788861661876326100,3.531326171875,-3.614346681213379,-4.490474851226806,7.97388862915039
1788861661886332200,3.541332275390625,-3.4688989303588866,-4.394108234405517,7.5348518997192375
1788861661896337400,3.55133740234375,-3.00053323059082,-4.373757520294189,7.126790154266357
1788861661906344700,3.5613447265625,-2.286612223052978,-4.331559716033936,6.881085208892822
1788861661916350700,3.571350830078125,-1.3459902458190918,-4.347870214843749,6.827365309143066
1788861661926356500,3.5813564453125,-1.6980875274658203,-4.305073860168457,6.935702934265136
1788861661936363500,3.591363525390625,-3.2140660911560057,-4.215440935516357,6.613084260559082
1788861661946369500,3.60136962890625,-3.4118870033264157,-3.611503566741943,5.436483782196045
1788861661956375600,3.61137548828125,-3.059939359283447,-2.9828759933471676,4.301931470489501
1788861661966381600,3.621381591796875,-2.925265515899658,-2.391508183288574,3.650708618927002
1788861661976388400,3.631388427734375,-3.3171664001464842,-1.7868226264953613,3.5200749908447264
1788861661986394600,3.64139453125,-3.893720087432861,-1.6727987724304199,4.220977526855468
1788861661996400600,3.651400634765625,-3.60058002166748,-1.6500538566589356,4.491372676849365
1788861662006407400,3.661407470703125,-3.2439936119079587,-1.4245499877929686,3.752013276672363
1788861662016413400,3.671413330078125,-3.566313010406494,-0.9513958847045898,2.916885810089111
1788861662026419700,3.681419677734375,-3.8404491004943844,-0.48931496429443355,2.5101708030700682
1788861662036426500,3.691426513671875,-3.6523546325683593,-0.5020341606140136,2.3523031311035156
1788861662046432500,3.7014326171875,-3.503315579223633,-0.8289923248291016,2.605340319061279
1788861662056438500,3.7114384765625,-3.838354174041748,-1.1119570335388183,3.2612019363403317
1788861662066445600,3.721445556640625,-3.8687306076049803,-1.4323311431884764,4.1572319076538085
1788861662076451600,3.73145166015625,-3.0386908195495606,-1.7411831573486327,4.8512511138916015
1788861662086457600,3.74145751953125,-2.536656658935547,-1.9288287124633787,5.296572622680664
1788861662096463400,3.75146337890625,-2.5986066268920895,-2.309806051635742,5.861903489685059
1788861662106470700,3.761470703125,-2.4148516494750973,-2.6460417472839355,5.8631005905151365
1788861662116476400,3.771476318359375,-2.1716905433654783,-2.638859142303467,5.294028783416747
1788861662126482400,3.781482421875,-2.541445062255859,-2.369212180328369,4.5331215682983395
1788861662136489700,3.79148974609375,-3.4478000282287597,-1.916558428955078,4.410718008422851
1788861662146495500,3.80149560546875,-3.67749375,-1.737142942047119,5.3850084465026855
1788861662156501500,3.81150146484375,-3.2606033859252928,-1.8879776466369629,6.443095942687988
1788861662166508500,3.821508544921875,-3.2372599197387695,-2.513313192749023,6.915801132965088
1788861662176514600,3.8315146484375,-3.0068180099487303,-3.7606922576904296,7.0950669822692864
1788861662186520600,3.8415205078125,-2.5692776565551756,-5.442618923950195,7.3365820747375485
1788861662196527400,3.85152734375,-2.5303718795776367,-7.07366880493164,7.454047593688965
1788861662206533600,3.86153369140625,-3.191620450592041,-8.44614490661621,7.513603359985352
1788861662216539600,3.87153955078125,-3.1227871528625486,-9.584587796020507,7.637204020690917
1788861662226546400,3.88154638671875,-2.5145102935791015,-10.084078117370606,7.697059062194824
1788861662236552400,3.891552490234375,-2.544886727142334,-10.256011724090575,8.161384546661376
1788861662246558700,3.901558837890625,-3.0123546012878415,-10.09993970336914,8.846126221466063
1788861662256564700,3.911564697265625,-3.4008138206481933,-9.432705628204346,9.520093988800049
1788861662266571500,3.921571533203125,-3.9044939949035644,-8.722824835968018,10.04906291809082
1788861662276577500,3.93157763671875,-4.40518141708374,-8.291120349121094,10.280701928710936
1788861662286583600,3.94158349609375,-4.813392800140381,-8.17185917892456,10.384849700927735
1788861662296590600,3.951590576171875,-4.769997895050048,-8.396016309356689,10.408492442321776
1788861662306596600,3.9615966796875,-4.394257872009277,-8.757391122436523,10.411036281585693
1788861662316602400,3.971602294921875,-4.122815258789062,-8.903287786102295,10.341454795837402
1788861662326609700,3.981609619140625,-4.2305543334960936,-8.85555339050293,10.19645595779419
1788861662336615700,3.99161572265625,-4.426280319213867,-8.780136038208008,10.042029950714111
1788861662346621400,4.001621337890625,-4.399195912933349,-8.760683149719238,9.880570976257324
1788861662356628700,4.011628662109375,-4.366574915313721,-8.839542166900634,9.46158568572998
1788861662366634500,4.021634521484375,-4.537760334014893,-8.983493541717529,8.52934341430664
1788861662376640500,4.031640625,-4.412812934875488,-9.037811991882323,7.701398552703857
1788861662386647600,4.0416474609375,-4.100519255828857,-8.964938478851318,7.407211023712158
1788861662396653600,4.051653564453125,-3.9085342102050777,-8.819490727996826,7.709778258514404
1788861662406659600,4.06165966796875,-3.987093952178955,-8.658181391143799,7.990797678375244
1788861662416666600,4.07166650390625,-4.09213955001831,-8.737339683532714,8.073547273254395
1788861662426672400,4.08167236328125,-3.933374052429199,-8.792256684112548,8.301744618988037
1788861662436678700,4.0916787109375,-3.6023756729125975,-8.800935665130615,8.692598040008544
1788861662446684700,4.1016845703125,-3.303100465393066,-8.611344821166991,8.934711682891844
1788861662456691500,4.11169140625,-3.206733848571777,-8.174552655792235,8.82891789703369
1788861662466697500,4.121697509765625,-2.829946362304687,-7.962516171264648,8.589497731018065
1788861662476703700,4.131703857421875,-1.956062756347656,-8.091653423309326,8.266130869293212
1788861662486710500,4.14171044921875,-1.260247898864746,-8.134749053192138,7.78893655090332
1788861662496716500,4.151716552734375,-1.0525509048461914,-7.879766576385498,7.351396197509765
1788861662506722600,4.16172265625,-0.8481459381103515,-7.562684494018554,7.445218975067138
1788861662516729600,4.1717294921875,-0.8233060958862304,-7.38072516784668,7.886949181365966
1788861662526735600,4.181735595703125,-1.4936825607299804,-6.980294940185546,8.137442530059815
1788861662536741400,4.191741455078125,-2.459144380187988,-6.4284314575195305,8.310124324798583
1788861662546748700,4.201748779296875,-3.3969232429504395,-5.919214691925048,8.41472100982666
1788861662556754700,4.211754638671875,-3.8609494522094723,-5.291185668945312,8.537423844909668
1788861662566760400,4.221760498046875,-4.092738100433349,-4.895992757415772,8.79809255065918
1788861662576767500,4.231767578125,-4.19449167098999,-5.210830275726318,9.029133010864257
1788861662586773800,4.241773681640625,-3.657591948699951,-5.963357785034179,9.106046739196778
1788861662596779500,4.251779541015625,-2.792985874176025,-6.559364360809326,8.77205560760498
1788861662606786600,4.26178662109375,-2.201318788909912,-6.745812815093994,8.150610639190674
1788861662616792300,4.271792236328125,-2.138171720123291,-6.5312324913024895,7.575852603149413
1788861662626798600,4.281798583984375,-2.395548398590088,-6.042067164611816,7.363816118621826
1788861662636805600,4.2918056640625,-2.6390087799072264,-5.581781895446777,7.547421458435058
1788861662646811400,4.301811279296875,-2.9619267288208007,-5.42675733795166,7.789385463714599
1788861662656817400,4.3118173828125,-3.163488581085205,-5.317821162414551,7.6844895034790035
1788861662666823700,4.32182373046875,-3.0060698219299313,-5.141248789978027,7.452551217651367
1788861662676830500,4.33183056640625,-2.3000796073913574,-4.888510877227783,7.145195579528808
1788861662686836500,4.34183642578125,-1.5035586425781249,-4.496310717773437,6.90742142715454
1788861662696842800,4.3518427734375,-1.396867031097412,-4.058920001983642,7.034164477539062
1788861662706849500,4.361849609375,-2.0706851608276367,-3.745728497314453,6.966528280639648
1788861662716855600,4.37185546875,-3.158700177764892,-3.3349732749938963,6.436661525726318
1788861662726861600,4.381861572265625,-3.7379473419189453,-2.899677485656738,5.6006362335205075
1788861662736868600,4.39186865234375,-3.4452561889648434,-2.715473595428467,4.538508522033691
1788861662746874600,4.40187451171875,-3.0092122116088866,-2.64304899520874,3.582024958801269
1788861662756880600,4.411880615234375,-2.8993782104492185,-2.4616882194519043,2.805405795288086
1788861662766887700,4.4218876953125,-2.963423104858398,-2.271049912261963,2.645592834472656
1788861662776893700,4.431893798828125,-3.2978631492614743,-2.344821250915527,2.8329391143798826
1788861662786899500,4.4418994140625,-3.3918355644226073,-2.290652438354492,2.8350340408325194
1788861662796906500,4.451906494140625,-3.2562638954162595,-1.806125877380371,2.5719711334228514
1788861662806912800,4.461912841796875,-3.12173968963623,-1.2147580673217773,2.3012767082214354
1788861662816918500,4.47191845703125,-3.4467525650024413,-0.8641571617126464,2.2423194923400875
1788861662826925600,4.481925537109375,-3.7050270690917966,-0.5301660301208496,2.6599580444335937
1788861662836931600,4.491931640625,-3.8206969367980954,-0.3924994346618652,3.188328423309326
1788861662846937600,4.5019375,-3.782240072631836,-0.45774142990112304,3.6367923217773437
1788861662856944600,4.511944580078125,-3.649810793304443,-0.5153519073486328,4.183717763519287
1788861662866950400,4.521950439453125,-3.494187685394287,-0.7535749725341796,4.925920278167724
1788861662876956400,4.531956298828125,-3.393930490875244,-1.3346177879333496,5.636399620819091
1788861662886963700,4.541963623046875,-3.342155879974365,-2.016665985870361,6.200234111785888
1788861662896970200,4.55197021484375,-3.444956913757324,-2.825157958984375,6.553079581451415
1788861662906976300,4.561976318359375,-3.5289036094665525,-3.575889817047119,6.667402710723876
1788861662916983300,4.5719833984375,-3.4555811836242674,-4.261678955078125,6.758980924224853
1788861662926989300,4.5819892578125,-3.2977135116577148,-5.133916547393799,6.92088881149292
1788861662936995300,4.591995361328125,-3.3233015419006344,-6.144868198394775,6.880636296081542
1788861662947002400,4.60200244140625,-3.487603630828857,-7.127239067077636,6.539013646697998
1788861662957008400,4.61200830078125,-3.677942662811279,-7.817367695617675,6.1441200103759765
1788861662967014400,4.622014404296875,-3.77326181640625,-7.969698776245116,6.234351485443115
1788861662977020200,4.632020263671875,-4.155136981201172,-7.962665808868408,7.012317387390136
1788861662987027500,4.64202734375,-4.491372676849365,-8.297554766082763,8.30563519668579
1788861662997033500,4.652033447265625,-3.8016929611206054,-8.793753060150147,9.425523023223876
1788861663007039200,4.662039306640625,-2.729838805389404,-9.118915573120116,9.784204359436034
1788861663017046300,4.67204638671875,-2.5570073730468748,-8.838195428466797,9.257779269409179
1788861663027052300,4.68205224609375,-2.583792504119873,-7.723544918060302,7.927500971984863
1788861663037058300,4.692058349609375,-2.439990766906738,-6.446238332366943,6.644957070159911
1788861663047065300,4.7020654296875,-2.7259482276916502,-5.66917025604248,6.102221481323242
1788861663057071000,4.712071044921875,-3.2701801925659177,-5.888987895965576,6.4278329071044915
1788861663067077400,4.722077392578125,-3.6640263656616208,-7.00348876876831,7.202057868957519
1788861663077084400,4.73208447265625,-3.994725469970703,-8.511536539459229,7.911340110778808
1788861663087090200,4.742090087890625,-4.917390934753418,-10.014795906829834,8.38329711303711
1788861663097096200,4.75209619140625,-6.499808594512939,-11.58718784713745,8.913762418365478
1788861663107103200,4.762103271484375,-7.313388246154784,-13.107954814147948,9.539995790100097
1788861663117109200,4.772109130859375,-6.864924347686767,-13.628394400024414,9.801562321472167
1788861663127115300,4.782115234375,-5.880907465362548,-12.811971633911131,10.040383937072754
1788861663137122300,4.792122314453125,-4.765957679748535,-11.326519141387939,10.669310785675048
1788861663147128300,4.80212841796875,-3.177255240631103,-9.36596725692749,11.56893205947876
1788861663157134300,4.81213427734375,-1.7923592178344725,-7.210886487579345,12.841001329040527
1788861663167141000,4.82214111328125,-1.4468459907531737,-5.487061292266845,13.63078860168457
1788861663177147400,4.8321474609375,-1.8843863441467283,-4.602104503631591,12.812570184326171
1788861663187153400,4.8421533203125,-2.583044316101074,-4.686350474548339,10.705373448181152
1788861663197160200,4.85216015625,-3.040785746002197,-5.5540989387512205,8.335861992645263
1788861663207166200,4.862166259765625,-3.103932814788818,-6.61428136138916,6.490082150268554
1788861663217172500,4.87217236328125,-3.0665234138488766,-7.516745749664306,5.613205792236328
1788861663227179300,4.88217919921875,-3.125181354522705,-8.12741681060791,5.570858350372314
1788861663237185300,4.892185302734375,-3.323600817108154,-8.48549959640503,5.8226984375
1788861663247191300,4.90219140625,-3.2609026611328122,-8.83639977722168,6.074837799835205
1788861663257198300,4.9121982421875,-2.652027251434326,-9.081206896972656,6.418705013275146
1788861663267204400,4.922204345703125,-1.6609774017333983,-8.960000437927246,6.713491092681885
1788861663277210000,4.932210205078125,-1.3443442321777344,-8.385242401885986,6.76122548828125
1788861663287217400,4.942217529296875,-1.932569652557373,-7.594108390808105,6.8309566116333
1788861663297223400,4.952223388671875,-2.1437083114624023,-6.757484548187255,7.2243538719177245
1788861663307229200,4.962229248046875,-2.445826633453369,-6.239439163970947,7.953687552642822
1788861663317236200,4.972236328125,-2.8664579376220702,-6.087706633758544,8.525303199005126
1788861663327242500,4.982242431640625,-2.7169699714660642,-6.040421150970459,9.073725016784667
1788861663337248300,4.992248291015625,-2.492363928222656,-6.150554427337646,9.48178676223755
1788861663347255300,5.00225537109375,-2.1848586524963376,-6.385784740447997,9.407716148376464
1788861663357261300,5.01226123046875,-2.3427263244628906,-6.3892264053344725,8.677335004425048
1788861663367267300,5.022267333984375,-3.0514100158691404,-5.972934591674805,7.660098574066161
1788861663377274400,5.0322744140625,-3.2755671463012694,-5.342062454223632,7.021744556427001
1788861663387280100,5.042280029296875,-3.4611177749633786,-4.804264906311035,6.960243501281738
1788861663397286400,5.052286376953125,-3.480570663452148,-4.632331299591065,7.406762110900878
1788861663407293400,5.06229345703125,-2.7844565307617186,-5.074211143493652,8.081777341461182
1788861663417299200,5.07229931640625,-2.1793220611572264,-5.739350292205811,8.578274910736084
1788861663427305200,5.08230517578125,-2.337489008331299,-6.107758072662353,8.470685473632813
1788861663437312300,5.092312255859375,-2.5061305877685545,-6.172850430297851,7.876474549102783
1788861663447318300,5.102318359375,-3.123834616088867,-5.888987895965576,7.419481307220458
1788861663457324300,5.11232421875,-3.141641490936279,-5.595249279785156,7.562385218811035
1788861663467331300,5.122331298828125,-2.5876830818176266,-5.440374359893799,8.05065271987915
1788861663477337300,5.13233740234375,-2.2411223915100096,-5.334281298828125,8.426243105316162
1788861663487343400,5.14234326171875,-2.198326036834717,-5.180453842163086,8.524255735778809
1788861663497350100,5.15235009765625,-2.4625860450744628,-5.024082546234131,7.952191176605224
1788861663507356400,5.1623564453125,-3.1108161445617672,-4.639813179779052,7.079504671478271
1788861663517363200,5.17236328125,-4.216039485931396,-4.227711219024658,6.454019487762451
1788861663527369200,5.182369140625,-4.510825565338134,-3.8660371307373045,5.820753148651122
1788861663537375200,5.192375244140625,-3.646518766021728,-3.5742438034057615,5.2742766197204585
1788861663547382300,5.20238232421875,-2.423530630493164,-3.3162685745239258,5.24779076385498
1788861663557388300,5.21238818359375,-2.048239520263672,-3.2906805442810056,5.907692596435546
1788861663567394300,5.222394287109375,-2.8770822074890137,-3.491643846130371,6.62670128250122
1788861663577401300,5.2324013671875,-4.247912295532227,-3.384204046630859,6.40972675704956
1788861663587407400,5.242407470703125,-5.080495922851562,-2.9308021072387693,5.754164414978027
1788861663597413400,5.252413330078125,-4.129848226165771,-2.3808839134216306,5.670217719268798
1788861663607420200,5.262420166015625,-2.395548398590088,-2.2939444656372068,5.638195272064209
1788861663617426400,5.272426513671875,-1.455076058959961,-2.0958242782592773,5.212177014160156
1788861663627432400,5.282432373046875,-1.9265841484069823,-1.881393592071533,5.061940859985351
1788861663637439200,5.292439208984375,-3.1387983764648437,-2.180369524383545,5.668870980834961
1788861663647445200,5.3024453125,-3.780145146179199,-2.3567922592163084,6.312462314605712
1788861663657451300,5.312451171875,-4.46877739868164,-2.143857949066162,6.202628313446045
1788861663667458300,5.322458251953125,-4.98023872833252,-1.6807295654296874,5.581781895446777
1788861663677464300,5.33246435546875,-4.408024531555175,-1.7148469390869139,4.8618753837585444
1788861663687470000,5.342469970703125,-3.6659716545104977,-2.0747253761291504,4.546439315032958
1788861663697477400,5.352477294921875,-4.163815962219238,-2.382679564666748,4.757129061126709
1788861663707483400,5.3624833984375,-4.0903438987731935,-2.4678233612060545,5.131073432922363
1788861663717489200,5.3724892578125,-3.9929298187255857,-2.5577555610656737,5.917419040679931
1788861663727496400,5.382496337890625,-4.051288484191894,-2.648884861755371,6.6711436508178705
1788861663737502500,5.39250244140625,-3.4579753852844237,-2.8260557846069334,6.973411610412597
1788861663747508200,5.40250830078125,-2.91748436050415,-3.1458313438415524,7.031770275878906
1788861663757515300,5.412515380859375,-2.63047943649292,-3.3934815780639647,6.443694493103027
1788861663767521300,5.422521240234375,-2.718466347503662,-3.318363500976562,5.520580115509033
1788861663777527300,5.43252734375,-3.2421979606628417,-2.874239093017578,4.983680393218994
1788861663787534300,5.442534423828125,-3.4911949333190915,-2.2752397651672362,5.213823027801514
1788861663797540000,5.4525400390625,-3.5295021598815914,-1.834856297302246,5.818508584594726
1788861663807546400,5.46254638671875,-3.5939959671020505,-1.9536685546875,6.337751069641113
1788861663817553400,5.472553466796875,-3.270629105377197,-2.4762030670166015,6.388927130126953
1788861663827559200,5.48255908203125,-3.319111688995361,-3.2695816421508788,6.391321331787109
1788861663837565200,5.492565185546875,-3.8435914901733397,-4.43032053451538,6.5503861045837395
1788861663847572200,5.502572265625,-4.101267443847656,-5.6754550354003905,6.668150898742676
1788861663857578200,5.512578125,-3.934122240447998,-6.814945388031005,6.960991689300537
1788861663867584300,5.522584228515625,-3.323002266693115,-7.6187985954284665,7.232733577728271
1788861663877591300,5.53259130859375,-2.9128455947875973,-7.913435037231445,7.432799053955078
1788861663887597300,5.542597412109375,-3.0172926422119137,-7.864204265594482,7.942315094757079
1788861663897603000,5.55260302734375,-3.01355170211792,-7.461230198669433,8.389282617187499
1788861663907609900,5.56260986328125,-2.8975825592041016,-7.045088022613525,8.664166895294189
1788861663917616000,5.5726162109375,-3.0419828468322754,-6.9342065582275385,8.850316074371337
1788861663927622100,5.5826220703125,-3.3289877708435056,-7.031022087860107,8.723872299194335
1788861663937629000,5.59262890625,-3.4509424179077146,-7.125443415832519,8.422651802825927
1788861663947635000,5.602635009765625,-3.6520553573608394,-7.411101601409912,8.249371457672119
1788861663957642000,5.61264208984375,-3.8296751930236814,-7.561786668395996,8.097339652252197
1788861663967648000,5.62264794921875,-3.7843349990844724,-7.782951046752929,8.113500513458252
1788861663977654000,5.632654052734375,-3.7397429931640622,-8.090007409667969,8.517372406005858
1788861663987661000,5.6426611328125,-3.552695988464355,-8.441805416107178,9.181164816284179
1788861663997667000,5.6526669921875,-3.214365366363525,-8.857648316955565,9.725097505950927
1788861664007673000,5.662673095703125,-3.228431301116943,-9.177274238586426,9.702951140594482
1788861664017680100,5.67268017578125,-3.6152445068359373,-9.30760859146118,9.157372437286377
1788861664027686100,5.68268603515625,-4.113986640167236,-9.252990866088867,8.7210291847229
1788861664037692200,5.692692138671875,-4.519654183959961,-9.081955084991455,8.825775507354736
1788861664047699000,5.702698974609375,-4.610633847045898,-8.947730154418945,9.37240167388916
1788861664057705200,5.712705322265625,-4.515763606262206,-8.942941751098632,9.740809454345703
1788861664067711200,5.722711181640625,-4.420145177459717,-8.870517150878905,9.278129983520508
1788861664077718000,5.732718017578125,-3.964049761199951,-8.588599905395506,8.568099553680419
1788861664087724000,5.74272412109375,-3.5908535774230956,-8.085368643951416,8.0314991065979
1788861664097730000,5.75272998046875,-3.4331355430603026,-7.519289588928222,7.657704372406005
1788861664107737000,5.762737060546875,-3.3883938995361325,-7.227795536804199,7.5165961120605465
1788861664117743000,5.7727431640625,-3.343053705596924,-7.428459563446045,7.745840921020507
1788861664127748900,5.782748779296875,-3.4825159523010254,-7.899518740081787,8.025513602447509
1788861664137756200,5.792756103515625,-3.600131108856201,-8.415319560241699,8.214056983184815
1788861664147762200,5.80276220703125,-3.39647433013916,-8.890568589782715,8.062174815368651
1788861664157769000,5.81276904296875,-3.028515462493896,-9.011176498413086,7.480683087158202
1788861664167775200,5.822775146484375,-2.505083124542236,-8.611644096374512,6.687154874420165
1788861664177781000,5.832781005859375,-2.350058567047119,-7.934982852172851,5.685929667663574
1788861664187788000,5.8427880859375,-2.5767595367431637,-7.264007836914062,5.034557178497314
1788861664197794000,5.8527939453125,-2.664746447753906,-6.797737063598633,5.548263072204589
1788861664207800000,5.862800048828125,-2.807201446533203,-6.647351271820068,7.372046186828613
1788861664217807000,5.87280712890625,-2.5354595581054684,-6.748356654357909,9.466074813842773
1788861664227813000,5.882813232421875,-1.772906329345703,-6.858340293121337,10.486603271484375
1788861664237819000,5.89281884765625,-1.2268787132263184,-6.797587425994872,10.136750553894043
1788861664247826200,5.902826171875,-1.4938321983337401,-6.600514701843261,9.0397572807312
1788861664257832000,5.91283203125,-2.2399252906799316,-6.572682107543945,8.402600363922119
1788861664267838000,5.922837890625,-3.1528643112182615,-6.6528878631591795,8.397063772583007
1788861664277845200,5.93284521484375,-3.171868286895752,-6.7739446846008295,8.53667565689087
1788861664287851000,5.94285107421875,-2.201917339324951,-6.906972514343261,8.501211544799805
1788861664297857000,5.95285693359375,-1.22583125,-6.932261269378662,8.015038970184326
1788861664307864000,5.962864013671875,-1.301098964691162,-6.749254479980468,7.095366257476806
1788861664317870000,5.9728701171875,-2.0196587379455564,-6.386532928466797,6.536469807434082
1788861664327876000,5.9828759765625,-2.8577789566040037,-6.0890533721923825,6.572532469940185
1788861664337883000,5.9928828125,-3.614047406005859,-5.8445455276489255,6.697928781890869
1788861664347889000,6.002888916015625,-3.524713756561279,-5.727977834320068,6.969969945526123
1788861664357896200,6.012896240234375,-2.9468133308410644,-5.625924988555908,7.259518708801269
1788861664367902000,6.02290185546875,-2.593369310760498,-5.423166035461425,7.5528084121704095
1788861664377908000,6.032907958984375,-2.530671154785156,-5.302408489227295,7.868394118499755
1788861664387915000,6.0429150390625,-2.391657820892334,-5.186888259124755,8.074145823669433
1788861664397921000,6.052921142578125,-2.4042273796081544,-5.101744462585449,8.340051845550537
1788861664407927000,6.062927001953125,-2.6179098777770995,-5.217563967895508,8.539369133758544
1788861664417933800,6.072933837890625,-2.8507459892272946,-5.354332737731934,8.42788911895752
1788861664427940000,6.082940185546875,-2.7136779441833494,-5.2618566986083986,7.906252432250976
1788861664437946000,6.092946044921875,-2.4123078102111815,-4.805312369537353,7.381772631072997
1788861664447953000,6.102952880859375,-2.544737089538574,-4.087201509094238,7.530961322021484
1788861664457959000,6.112958984375,-3.1381998260498043,-3.612102117156982,8.008155640411376
1788861664467965200,6.122965087890625,-3.9912838050842283,-3.4775779113769527,8.231863858032225
1788861664477972000,6.132971923828125,-4.693233804321289,-3.3080385063171387,8.183081999206543
1788861664487978000,6.14297802734375,-4.707299739074707,-3.0125042388916015,7.557297540283202
1788861664497985000,6.152985107421875,-4.555417571258545,-2.906560815429687,6.932710182189941
1788861664507991000,6.162990966796875,-4.165162700653076,-2.7756279121398926,6.297348916625976
1788861664517997000,6.1729970703125,-2.8936919815063473,-2.702455123901367,5.333533110809326
1788861664528004000,6.183004150390625,-2.344372338104248,-2.692878317260742,4.712985968017578
1788861664538010000,6.193010009765625,-3.0265701736450192,-2.8719945289611815,4.8786347953796385
1788861664548016000,6.20301611328125,-3.299359525299072,-3.2800562744140622,5.06897382736206
1788861664558023000,6.21302294921875,-2.7635072662353513,-3.505410505676269,4.921580787658691
1788861664568029200,6.223029296875,-2.606537419891357,-3.2954689476013184,4.126406561279297
1788861664578035200,6.23303515625,-3.334524362182617,-2.1912930694580077,3.088220866394043
1788861664588042000,6.2430419921875,-4.3369466697692864,-0.7356184600830078,2.9085061042785645
1788861664598048000,6.253048095703125,-4.482992971038818,0.03591302490234375,3.5984850952148437
1788861664608054300,6.26305419921875,-4.262726418304443,-0.14215572357177733,4.531475554656982
1788861664618061000,6.27306103515625,-3.9468414367675777,-0.8053495834350586,5.115511122131347
1788861664628067000,6.283067138671875,-3.4968811622619627,-1.3229460548400878,5.438578708648682
1788861664638074000,6.29307421875,-3.4570775596618653,-1.643320164489746,5.442319648742675
1788861664648080100,6.303080078125,-3.459471761322021,-2.0388123512268064,5.549310535430908
1788861664658086100,6.313086181640625,-3.6610336135864254,-2.5245360130310055,6.06466244277954
1788861664668093000,6.323093017578125,-3.552247075653076,-3.01340206451416,6.405985816955566
1788861664678099200,6.33309912109375,-2.6511294258117672,-3.362207318878174,6.182726512145996
1788861664688105200,6.343105224609375,-2.31130242767334,-3.4482489410400388,5.653308670043945
1788861664698112000,6.353112060546875,-2.818124991607666,-3.4391210472106932,5.185391883087158
1788861664708118000,6.363117919921875,-3.4050036735534666,-3.3946786788940426,5.076754982757568
1788861664718124000,6.3731240234375,-3.5420717185974118,-3.425952938079834,5.527912358093261
1788861664728131000,6.383131103515625,-3.4687492927551267,-3.7401919059753417,6.268618496704101
1788861664738137000,6.39313720703125,-3.2607530235290527,-4.311508277130127,6.742221512603759
1788861664748142800,6.403142822265625,-3.099593324279785,-5.1410991523742675,6.982988417053222
1788861664758150100,6.413150146484375,-2.8055554328918455,-5.798157870483398,6.994360874938964
1788861664768156200,6.42315625,-2.7129297561645505,-6.020070436859131,6.900089184570312
1788861664778163000,6.433162841796875,-3.0961516593933105,-6.081421854400634,6.97790073852539
1788861664788169200,6.443169189453125,-3.414879755401611,-6.148309863281249,7.264007836914062
1788861664798175000,6.453175048828125,-3.303998291015625,-6.337451794433593,7.650072854614257
1788861664808182000,6.46318212890625,-3.2399533966064453,-6.861333045196533,7.94859987411499
1788861664818188000,6.47318798828125,-3.1364041748046874,-7.288249128723144,7.91029264755249
1788861664828194000,6.483194091796875,-3.0557495063781737,-7.581538832092285,7.717709051513672
1788861664838201000,6.493201171875,-3.1694740852355956,-7.792976766204833,7.706037318420409
1788861664848207000,6.50320703125,-3.4388217720031737,-7.967154936981201,8.052747646331786
1788861664858212900,6.513212890625,-3.756502404785156,-8.125770796966552,8.635137200164795
1788861664868220200,6.52322021484375,-3.986196126556396,-8.351723578643798,9.111433692932128
1788861664878226000,6.533225830078125,-4.133589166259766,-8.68990456314087,9.339032488250732
1788861664888232000,6.54323193359375,-4.274547789001464,-9.136872085571289,9.497049797821044
1788861664898239500,6.553239501953125,-4.123114533996582,-9.441534246826171,9.625438861846924
1788861664908245500,6.56324560546875,-4.020612775421142,-9.439439320373534,9.90271734161377
1788861664918252500,6.57325244140625,-4.103362370300292,-9.19343509979248,10.27217258529663
1788861664928258300,6.58325830078125,-3.889829509735107,-8.826224420166016,10.319009155273436
1788861664938264300,6.593264404296875,-3.4925416717529294,-8.396315584564208,9.700108026123047
1788861664948271600,6.603271728515625,-3.10931976852417,-8.09554400100708,8.808866458129883
1788861664958277400,6.61327734375,-3.132663234710693,-7.95518392868042,7.991845141601562
1788861664968283400,6.623283447265625,-3.589806114196777,-7.7884876380920405,7.312789695739745
1788861664978290400,6.63329052734375,-3.9145197143554684,-7.496544673156738,6.688651250457763
1788861664988296400,6.64329638671875,-3.7261259712219235,-7.350498371887206,6.4646437576293945
1788861664998302500,6.653302490234375,-3.3469442832946776,-7.470058817291259,7.091774954986572
1788861665008309200,6.663309326171875,-3.1765070526123047,-7.673266683197021,8.409334056091309
1788861665018315500,6.6733154296875,-3.188777336120605,-8.059182063293457,9.275586144256591
1788861665028322600,6.683322509765625,-3.3206080650329586,-8.419509413146972,9.035567427825928
1788861665038328300,6.693328369140625,-3.3337761741638183,-8.452579323577881,8.187571127319336
1788861665048334300,6.703334228515625,-3.243843974304199,-8.49732096710205,7.432948691558837
1788861665058341400,6.71334130859375,-3.094356008148193,-8.627356044769286,6.9707181335449215
1788861665068347400,6.723347412109375,-3.0864252151489255,-8.712948754119873,6.508637213134765
1788861665078353400,6.733353515625,-2.9581857887268064,-8.661174143218993,6.046556292724609
1788861665088360400,6.7433603515625,-2.5547628089904784,-8.347833000946045,5.907243683624268
1788861665098366500,6.753366455078125,-2.148347077178955,-7.881113314819335,6.335356867980956
1788861665108372500,6.76337255859375,-1.9048866958618162,-7.58453158416748,7.101651036834716
1788861665118379300,6.773379150390625,-1.9283797996520995,-7.40526573486328,7.509862419891357
1788861665128385500,6.783385498046875,-2.274192301940918,-7.273734281158447,7.448211727142334
1788861665138392600,6.793392578125,-2.579901926422119,-7.222707858276367,7.1212535629272455
1788861665148398300,6.8033984375,-2.795679351043701,-7.277475221252441,6.883629048156738
1788861665158404400,6.813404296875,-2.777872476196289,-7.343315766906738,7.031620638275146
1788861665168411400,6.823411376953125,-2.7252000396728513,-7.356483876037597,7.441926947784423
1788861665178417400,6.83341748046875,-2.84086990737915,-7.246500237274169,8.092251973724364
1788861665188423400,6.84342333984375,-2.6554689163208005,-6.9989996406555175,8.696189342498778
1788861665198430500,6.853430419921875,-2.5866356185913086,-6.667552348327637,9.162609753417968
1788861665208436500,6.8634365234375,-2.540247961425781,-6.523451335906982,9.529820433044433
1788861665218442500,6.8734423828125,-2.658012755584717,-6.706907038116455,9.578901567077637
1788861665228449500,6.883449462890625,-3.1414918533325196,-6.982838779449462,9.230844500732422
1788861665238455600,6.89345556640625,-3.237559194946289,-6.994211237335205,8.668506385803223
1788861665248462300,6.90346240234375,-3.1193454879760742,-6.542604949188232,8.204929089355469
1788861665258468400,6.91346826171875,-3.024475247192383,-5.952883152770996,8.264484855651855
1788861665268474600,6.923474609375,-2.87917713394165,-5.575197840881347,8.558073834228516
1788861665278481400,6.9334814453125,-2.814683326721191,-5.395183803558349,8.531288703155518
1788861665288487400,6.9434873046875,-2.6536732650756836,-5.287444728851318,8.308328673553467
1788861665298493400,6.953493408203125,-2.4959552307128905,-5.127033217620849,8.109759573364258
1788861665308500500,6.96350048828125,-2.5770588119506836,-4.847061260986328,7.883208241271972
1788861665318506500,6.973506591796875,-2.5891794578552245,-4.630535648345947,7.637802571105957
1788861665328512500,6.983512451171875,-2.4447791702270507,-4.592976609802246,7.2720882675170895
1788861665338519600,6.99351953125,-2.4646809715270996,-4.588936394500732,6.599317601013183
1788861665348525600,7.003525634765625,-2.5761609863281247,-4.574720822143554,5.93103606262207
1788861665358532400,7.013532470703125,-2.6650457229614255,-4.509478826904297,5.568464148712158
1788861665368538400,7.023538330078125,-2.893392706298828,-4.376301359558105,5.622632961273193
1788861665378544600,7.033544677734375,-3.2405519470214843,-4.229806145477295,5.849483568572998
1788861665388551400,7.043551513671875,-3.528005783843994,-4.004751189422607,5.980715747070312
1788861665398557400,7.053557373046875,-4.026897554779053,-3.54311918182373,6.03937368774414
1788861665408563500,7.0635634765625,-4.299237993621826,-2.9091046546936035,6.109254448699951
1788861665418570500,7.073570556640625,-4.061164566040039,-2.338686109161377,6.509834313964843
1788861665428576500,7.083576416015625,-3.864241479492187,-2.353200956726074,6.767959180450439
1788861665438583300,7.093583251953125,-3.7310640121459957,-2.872293804168701,6.497713668060302
1788861665448589600,7.103589599609375,-3.4708442192077635,-3.3592145668029785,5.9108349861145015
1788861665458595600,7.113595703125,-3.4543840827941894,-3.571999239349365,5.22235237121582
1788861665468602400,7.123602294921875,-3.742586107635498,-3.546411209106445,4.918438397979736
1788861665478608400,7.1336083984375,-3.7771523941040037,-3.380612744140625,5.148581032562255
1788861665488614700,7.14361474609375,-3.4530373443603515,-3.065027037811279,5.4786815864562985
1788861665498621400,7.153621337890625,-3.286789966583252,-2.509721890258789,5.483469989776611
1788861665508627500,7.16362744140625,-3.4112884529113767,-1.7923592178344725,5.147683206939697
1788861665518633500,7.173633544921875,-3.5722985145568846,-1.2729670951843262,5.1042883018493646
1788861665528640500,7.183640625,-3.5509003372192383,-1.2927192588806151,5.266345826721191
1788861665538646500,7.193646484375,-3.493589134979248,-1.520168416595459,5.17761072769165
1788861665548653300,7.2036533203125,-3.4706945816040036,-1.5761328804016113,5.105635040283203
1788861665558659600,7.21365966796875,-3.331980522918701,-1.5994763465881348,5.040692320251464
1788861665568665600,7.22366552734375,-3.165433869934082,-1.7317559883117675,4.9914615486145015
1788861665578672400,7.23367236328125,-3.205387110137939,-1.9544167427062986,4.988319158935546
1788861665588678400,7.243678466796875,-3.3801638313293454,-2.174982570648193,4.849754737854004
1788861665598684700,7.2536845703125,-3.437475033569336,-2.291550263977051,4.6918870658874505
1788861665608691500,7.26369140625,-3.2366613693237305,-2.2583307159423827,4.859930094909668
1788861665618697500,7.273697509765625,-3.2350153556823726,-2.445676995849609,5.485864191436767
1788861665628704500,7.28370458984375,-3.227383837890625,-3.0123546012878415,6.215646784973144
1788861665638710500,7.29371044921875,-3.047669075775146,-3.6228760246276854,6.534075605773926
1788861665648716500,7.303716552734375,-2.7542297348022458,-4.096628678131103,6.528389376831054
1788861665658723300,7.313723388671875,-2.578405550384521,-4.496609992980956,6.663512133026122
1788861665668729600,7.3237294921875,-2.765602192687988,-4.927715929412842,7.102848137664795
1788861665678735600,7.333735595703125,-2.937386161804199,-5.338620789337158,7.529913858795165
1788861665688742400,7.343742431640625,-2.746298941802978,-5.610063402557373,7.686135517120361
1788861665698748400,7.35374853515625,-2.592621122741699,-5.869086094665527,7.620893521881103
1788861665708754400,7.36375439453125,-2.8616695343017575,-6.3138090530395505,7.635109094238281
1788861665718761500,7.373761474609375,-3.161992205047607,-6.972813059997558,7.809436902618407
1788861665728767500,7.383767578125,-3.322403716278076,-7.588272524261474,7.958924868774414
1788861665738774500,7.3937744140625,-3.4576761100769042,-8.020126648712157,8.034192583465575
1788861665748780500,7.403780517578125,-3.5794811195373533,-8.530390877532959,8.053196559143066
1788861665758786600,7.41378662109375,-3.6647745536804197,-8.90583162536621,8.047061417388916
1788861665768793600,7.423793701171875,-3.7250785079956055,-9.143605777740477,8.054244022369383
1788861665778799600,7.433799560546875,-3.721337567901611,-9.223512258148192,7.902511492156982
1788861665788805400,7.443805419921875,-3.741688282012939,-9.032425038146972,7.575254052734374
1788861665798812400,7.4538125,-3.782838623046875,-8.500313719177246,7.20759446029663
1788861665808818700,7.463818603515625,-3.7856817375183103,-7.953089002227783,7.211634675598144
1788861665818825500,7.473825439453125,-3.918709567260742,-7.731774986267089,7.859864775085449
1788861665828831500,7.48383154296875,-3.8543653976440426,-7.9849618118286125,9.332298796081542
1788861665838837500,7.49383740234375,-3.6079122642517087,-8.488492348480223,11.176582262420654
1788861665848844500,7.503844482421875,-3.261650849151611,-8.903287786102295,12.23242519454956
1788861665858850600,7.5138505859375,-3.393631215667724,-8.877101205444335,11.662156286621093
1788861665868856300,7.523856201171875,-3.6029742233276365,-8.434622811126708,10.075848049163818
1788861665878863600,7.533863525390625,-3.8251860649108886,-7.977928844451903,8.521861534118651
1788861665888869600,7.54386962890625,-4.0155250968933105,-7.835174570465087,7.511209158325195
1788861665898877000,7.553876953125,-4.006247565460205,-8.108861747741699,6.969969945526123
1788861665908883000,7.563883056640625,-3.647865504455566,-8.417115211486816,6.635080988311767
1788861665918888700,7.573888671875,-2.8431144714355465,-8.213159157562256,6.5756748596191406
1788861665928895700,7.583895751953125,-2.420837153625488,-7.669226467895507,7.037755780029296
1788861665938902000,7.593902099609375,-2.570175482177734,-7.459584185028076,7.643488800048828
1788861665948907800,7.60390771484375,-2.9308021072387693,-7.6990043510437,7.7503300491333
1788861665958914800,7.613914794921875,-3.1194951255798338,-7.931990100097655,7.4128972526550285
1788861665968920800,7.6239208984375,-3.3726819511413573,-8.20373198852539,7.329998020172119
1788861665978927900,7.633927978515625,-3.582174596405029,-8.492532563781738,7.376684952545165
1788861665988934000,7.643933837890625,-3.5283050590515135,-8.609249894714354,7.361870829772949
1788861665998939600,7.653939697265625,-3.3698388366699215,-8.563460787963868,7.254281392669677
1788861666008947000,7.663947021484375,-3.1911715377807615,-8.225579078674317,7.068431488800049
1788861666018953000,7.673952880859375,-2.752284445953369,-7.889493020629883,6.992714861297607
1788861666028958700,7.683958740234375,-2.31115279006958,-7.85941586227417,7.015310139465331
1788861666038965800,7.6939658203125,-1.9149124153137207,-7.992742967224121,6.8679170997619625
1788861666048971800,7.7039716796875,-2.1607669982910154,-8.146570423889159,6.519111845397949
1788861666058977800,7.713977783203125,-2.5495254928588866,-8.206874378204345,6.145466748809814
1788861666068984800,7.72398486328125,-2.354547695159912,-8.180238884735108,5.997026245880127
1788861666078990600,7.733990478515625,-1.865382368469238,-7.8912886718749995,6.342838748168945
1788861666088998000,7.743997802734375,-1.6356886466979979,-7.4405802093505855,7.306654553985595
1788861666099004000,7.75400390625,-1.790713204193115,-7.039252156066894,8.399009061431885
1788861666109009700,7.764009765625,-2.513313192749023,-6.707954501342773,9.197774590301513
1788861666119017000,7.774016845703125,-3.0707132667541504,-6.394463721466064,9.669432317352294
1788861666129022700,7.784022705078125,-3.245789263153076,-6.203975051879882,10.033051694488524
1788861666139028700,7.79402880859375,-3.30070626373291,-6.153098266601562,10.231920069885254
1788861666149035800,7.804035888671875,-2.8303952751159667,-6.152050803375244,10.063428128051758
1788861666159041800,7.814041748046875,-2.579752288818359,-6.201131937408447,9.695169985198975
1788861666169048800,7.824048828125,-2.27284556350708,-6.427084719085693,9.20031842956543
1788861666179054800,7.834054931640625,-2.394949848175049,-6.669048724365234,8.56136586151123
1788861666189060600,7.844060546875,-2.707542802429199,-6.854599353027344,7.779659019470214
1788861666199068000,7.85406787109375,-2.606687057495117,-6.784718592071533,7.127239067077636
1788861666209073700,7.86407373046875,-2.333448793029785,-6.290465586853027,6.782773303222656
1788861666219079700,7.87407958984375,-2.0757728393554684,-5.445312400817871,6.781127289581298
1788861666229087000,7.8840869140625,-2.420986791229248,-4.474912540435791,7.252186466217041
1788861666239092700,7.8940927734375,-3.2089784126281735,-3.668515493774414,8.143428034210205
1788861666249099800,7.904099853515625,-3.5939959671020505,-3.4298435157775877,9.02733735961914
1788861666259106000,7.91410595703125,-3.2095769630432125,-3.7975031082153317,9.37763899002075
1788861666269111800,7.92411181640625,-2.8835166244506834,-4.226065205383301,9.085696025085449
1788861666279118800,7.934118896484375,-2.672976515960693,-4.54524221420288,8.279897528839111
1788861666289124600,7.94412451171875,-2.439392216491699,-4.731391393280029,7.230638651275634
1788861666299131000,7.954130859375,-2.7670985687255856,-4.69248561630249,6.575375584411621
1788861666309138000,7.964137939453125,-3.127725193786621,-4.595221173858643,6.34613077545166
1788861666319143700,7.974143798828125,-3.1199440383911132,-4.510526290130615,6.144269647979736
1788861666329151000,7.98415087890625,-3.0747534820556637,-4.152293866729736,6.216544610595703
1788861666339157000,7.994156982421875,-3.161393654632568,-3.8057331764221187,6.342838748168945
1788861666349162800,8.004162841796875,-3.5271079582214355,-3.56885684967041,6.228515618896484
1788861666359169800,8.014169677734374,-3.609707915496826,-3.2411504974365233,6.097732353210449
1788861666369175800,8.02417578125,-3.563020983123779,-2.981978167724609,5.609015939331054
1788861666379181800,8.034181884765625,-4.180276098632812,-2.43235924911499,4.6055461685180665
1788861666389188900,8.04418896484375,-4.388422005462647,-1.8052280517578123,3.853617209625244
1788861666399194600,8.054194580078125,-3.5863644493103024,-1.328632283782959,3.902099793243408
1788861666409202000,8.064201904296874,-2.581248664855957,-1.2122142280578612,4.600009577178954
1788861666419208000,8.0742080078125,-2.4568998161315916,-1.601271997833252,5.215020128631592
1788861666429213700,8.084213623046875,-3.358765653991699,-1.9508254402160643,5.574599290466308
1788861666439221000,8.094220947265624,-3.884741831207275,-1.7705121276855467,5.548861622619628
1788861666449226800,8.104226806640625,-3.353827613067627,-1.880795041656494,5.181800580596923
1788861666459232800,8.114232666015624,-3.2823008384704586,-2.1429601234436033,4.862025021362304
1788861666469239800,8.12423974609375,-4.1177275802612305,-1.7518074272155761,4.490025938415527
1788861666479245800,8.134245849609375,-4.008492129516601,-1.4251485382080078,4.510825565338134
1788861666489252900,8.1442529296875,-3.5015199279785154,-1.3307272102355956,5.3761798278808595
1788861666499259000,8.1542587890625,-3.262847949981689,-1.467795255279541,6.226570330047607
1788861666509264600,8.1642646484375,-3.3068414054870603,-1.6201263359069824,6.365434026336669
1788861666519272000,8.17427197265625,-3.2640450508117675,-1.6692074699401855,6.163722536468505
1788861666529277700,8.184277587890625,-2.9664158569335934,-1.779340746307373,5.855618710327148
1788861666539283700,8.19428369140625,-2.916287259674072,-1.965789200592041,5.741594856262207
1788861666549291000,8.204291015625,-3.2486323776245114,-2.270152086639404,6.00136573638916
1788861666559296800,8.214296875,-3.427299676513672,-2.6020482917785643,6.264578281402588
1788861666569303800,8.2243037109375,-3.349787397766113,-3.136703450012207,6.5683426170349115
1788861666579309800,8.234309814453125,-3.1380501884460448,-3.9312791259765625,6.616974838256835
1788861666589315800,8.24431591796875,-3.266738527679443,-4.7387236358642575,6.706009212493896
1788861666599323000,8.254322998046876,-3.3660978965759276,-5.3764791030883785,7.108085453796386
1788861666609328600,8.26432861328125,-3.4075475128173824,-5.853074871063232,7.438784558105469
1788861666619334700,8.274334716796876,-3.2748189582824705,-6.115090315246582,7.375936764526367
1788861666629342000,8.284342041015625,-3.2076316741943356,-5.924003095245361,7.115866609191894
1788861666639347700,8.29434765625,-3.6002807464599607,-5.519083739471435,7.2054995338439936
1788861666649354800,8.304354736328126,-3.9393595565795896,-5.000140529632568,7.770980038452148
1788861666659360800,8.31436083984375,-3.5968390815734863,-4.74994645614624,8.419808688354491
1788861666669366800,8.32436669921875,-3.0729578308105467,-4.853794953155517,8.773851258850097
1788861666679373800,8.334373779296875,-2.848501425170898,-5.293729508209228,8.928576541137694
1788861666689379600,8.344379638671874,-2.888305027770996,-6.019621524047851,8.895356993103027
1788861666699385900,8.3543857421875,-3.2167595680236816,-6.854300077819824,8.58680425415039
1788861666709393000,8.364392822265625,-3.615394144439697,-7.684040590667724,8.181435985565185
1788861666719398700,8.374398681640624,-3.893720087432861,-8.4391119392395,7.850138330841064
1788861666729406000,8.384406005859375,-3.966443962860107,-9.105298551177977,7.708281882476806
1788861666739411700,8.39441162109375,-3.8926726242065426,-9.669133042144775,7.59096600112915
1788861666749417700,8.404417724609376,-3.77326181640625,-9.853785845184326,7.264905662536621
1788861666759424800,8.4144248046875,-3.5130420234680173,-9.463680612182616,6.833949363708496
1788861666769430800,8.4244306640625,-3.40949280166626,-8.716390419006347,6.8882678138732905
1788861666779437800,8.434437744140626,-3.5007717399597165,-8.162880922698974,7.818115883636474
1788861666789443800,8.44444384765625,-3.907337109375,-8.073098360443115,9.37210239868164
1788861666799449900,8.454449951171876,-4.250456134796142,-8.35711053237915,10.658686515808105
1788861666809457000,8.464456787109375,-4.455010739135742,-8.73988352279663,11.010334884643553
1788861666819462700,8.474462646484374,-4.37974302444458,-8.856600853729248,10.62367131652832
1788861666829468700,8.48446875,-4.28382532043457,-8.551639417266845,10.127622660064697
1788861666839476000,8.49447607421875,-4.077624702453613,-7.997232095336914,9.687239192199707
1788861666849481700,8.504481689453126,-3.224690361022949,-7.513603359985352,9.087790951538086
1788861666859488800,8.51448876953125,-2.774430811309814,-7.448062089538574,8.456020988464354
1788861666869495000,8.5244951171875,-2.693476867675781,-7.567323259735107,7.913734312438964
1788861666879500800,8.534500732421876,-2.6836007858276365,-7.600692445373535,7.554903338623046
1788861666889507800,8.5445078125,-3.014000614929199,-7.694964135742187,7.324311791229247
1788861666899513000,8.55451318359375,-3.4344822814941405,-7.736264114379883,7.244554948425293
1788861666909518800,8.564518798828125,-3.6086604522705077,-7.6108678024291985,7.377582778167724
1788861666919526100,8.574526123046875,-3.6168905204772948,-7.604732660675048,7.839364423370361
1788861666929532200,8.5845322265625,-3.3898902755737303,-7.717858689117431,8.315810553741455
1788861666939539000,8.5945390625,-3.2098762382507324,-7.803601036071777,8.547599201965332
1788861666949545200,8.604545166015624,-3.076549133300781,-7.978078482055664,8.629750246429444
1788861666959551000,8.614551025390625,-2.8363807792663573,-8.119934930419921,8.281543542480469
1788861666969558000,8.62455810546875,-2.6864439002990723,-8.048707431030273,7.57809716720581
1788861666979564000,8.63456396484375,-2.5007436340332028,-7.809436902618407,6.915801132965088
1788861666989570000,8.644570068359375,-2.1191677444458006,-7.56567724609375,6.736086370849609
1788861666999577000,8.6545771484375,-1.843834553527832,-7.347655257415771,6.764367877960205
1788861667009583000,8.6645830078125,-1.4469956283569334,-7.139958263397216,6.861033769989013
1788861667019590100,8.674590087890625,-0.9873089096069335,-7.174973462677001,7.146243042755127
1788861667029596200,8.68459619140625,-0.8445546356201171,-7.113472407531738,7.302015788269043
1788861667039602000,8.694601806640625,-1.0416273597717285,-6.799981627655029,7.5351511749267575
1788861667049609000,8.70460888671875,-1.5714941146850585,-6.311115576171875,8.022670487976074
1788861667059615200,8.714615234375,-2.34287596206665,-5.877615438079833,8.826822970581054
1788861667069621000,8.72462109375,-3.3647511581420897,-5.749376011657715,9.872041632843017
1788861667079628000,8.7346279296875,-3.9878421401977535,-5.91831686630249,10.721235034179687
1788861667089634000,8.744634033203125,-3.3584663787841795,-6.124517484283447,10.901249071502685
1788861667099641000,8.75464111328125,-2.0644003814697265,-6.28208588104248,10.481665230560303
1788861667109647000,8.764647216796876,-1.7718588661193846,-6.194547882843017,9.36521906890869
1788861667119652900,8.77465283203125,-2.246060432434082,-6.074837799835205,7.988104201507568
1788861667129660200,8.78466015625,-2.6158149513244626,-6.044611003875732,6.870161663818359
1788861667139666200,8.794666259765625,-2.684648249053955,-6.0321910827636716,6.2958525405883785
1788861667149673000,8.8046728515625,-2.546682378387451,-6.011241818237305,6.186916365051269
1788861667159679000,8.814678955078126,-2.2692542610168456,-5.9950809570312495,6.37755467224121
1788861667169685200,8.824685302734375,-2.1440075866699217,-5.851428857421874,6.846219647216796
1788861667179692000,8.834692138671874,-2.592621122741699,-5.483320352172851,7.381174080657958
1788861667189698000,8.844697998046875,-2.9900585983276367,-5.0960582336425775,7.950694800567627
1788861667199704000,8.8547041015625,-3.040785746002197,-4.800224691009521,8.291419624328613
1788861667209711000,8.864711181640626,-2.9213749382019043,-4.637269340515137,8.191012792205811
1788861667219717000,8.874717041015625,-2.7748797241210936,-4.396652073669434,8.000673760223389
1788861667229724200,8.88472412109375,-2.8507459892272946,-4.218433687591553,7.767987286376953
1788861667239730200,8.894730224609376,-3.061435735321045,-4.016572560119629,7.435642168426513
1788861667249736200,8.904736083984375,-3.028665100097656,-3.7770027565002438,7.11870972366333
1788861667259743000,8.914742919921874,-2.860622071075439,-3.573794890594482,6.955604735565185
1788861667269749200,8.924749267578125,-3.190273712158203,-3.4530373443603515,7.1029977752685545
1788861667279755000,8.934755126953124,-3.5317467239379883,-3.550301786804199,7.119757186889648
1788861667289762000,8.944761962890626,-3.4925416717529294,-3.785382462310791,6.670096187591552
1788861667299768000,8.95476806640625,-3.4165257690429685,-3.961655559539795,6.296600728607177
1788861667309775000,8.964775146484374,-3.7172973526000974,-3.9312791259765625,6.082020404815673
1788861667319781000,8.974781005859375,-3.616291970062256,-3.4837130531311034,5.947196923828125
1788861667329787100,8.984787109375,-3.3904888259887693,-2.7275942413330077,5.970839665222168
1788861667339794200,8.994794189453126,-3.398419618988037,-2.2738930267333983,5.357774402618408
1788861667349800200,9.00480029296875,-3.7454292221069334,-2.071732624053955,4.714931256866455
1788861667359806000,9.014805908203124,-3.49852717590332,-1.899350104522705,4.701463872528076
1788861667369813000,9.02481298828125,-2.9501053581237793,-1.6166846710205076,4.6815620712280275
1788861667379819300,9.0348193359375,-4.137330106353759,-1.237951895904541,4.822221418762207
1788861667389826000,9.044825927734376,-4.553023369598389,-1.112106671142578,5.20933389968872
1788861667399832000,9.05483203125,-3.4733880584716794,-1.6686089195251463,5.388599748992919
1788861667409838000,9.064838134765624,-3.331381972503662,-2.2426187675476075,5.140051689147949
1788861667419845000,9.07484521484375,-3.458873210906982,-2.4914661026000977,4.790498246765137
1788861667429851100,9.08485107421875,-3.3963246925354,-2.532466806030273,4.740968199920654
1788861667439858000,9.09485791015625,-3.426551488494873,-2.3216274223327638,4.891802904510498
1788861667449864200,9.1048642578125,-3.5883097381591793,-2.0210054763793943,4.797381576538085
1788861667459870200,9.1148701171875,-3.4721909576416015,-1.7048212196350097,4.735431608581543
1788861667469877000,9.124876953125,-3.5645173591613766,-1.403301448059082,5.328894345092773
1788861667479883000,9.134883056640625,-3.578433656311035,-1.211166764831543,6.425289067840576
1788861667489889000,9.144888916015624,-3.3643022453308102,-1.1282675323486326,7.320720488739013
1788861667499896000,9.15489599609375,-3.857358149719238,-1.1942577156066894,7.681646389007568
1788861667509902000,9.164902099609375,-3.358915291595459,-1.52585464553833,7.697358337402343
1788861667519909000,9.1749091796875,-2.4263737449645997,-1.957409494781494,7.455244694519043
1788861667529915100,9.1849150390625,-2.837278604888916,-2.741360900878906,6.972813059997558
1788861667539921200,9.194921142578124,-3.705326344299316,-3.7247792327880855,6.336254693603515
1788861667549928000,9.204927978515625,-3.9604584587097165,-4.597166462707519,5.9485436622619625
1788861667559934200,9.214934326171875,-3.7400422683715817,-5.349245059204101,6.080374391174316
1788861667569940000,9.22493994140625,-3.465008352661133,-5.774964041900635,6.693140378570556
1788861667579947000,9.234947021484375,-3.2555157073974605,-6.0507461456298826,7.4311530403137205
1788861667589953000,9.244953125,-3.2007483444213864,-6.209810918426514,7.932738288116455
1788861667599960000,9.2549599609375,-3.1542110496520994,-6.110301911926269,8.148814987945556
1788861667609966000,9.264966064453125,-3.158849815368652,-5.9629088722229,8.188169677734374
1788861667619972000,9.27497216796875,-3.0386908195495606,-5.8831520294189446,7.996932820129394
1788861667629979100,9.284979248046875,-2.7638065414428707,-5.751022025299072,7.536946826171874
1788861667639985200,9.294985107421875,-2.727145328521728,-5.863848778533935,7.218218730163573
1788861667649992000,9.304991943359376,-3.023727059173584,-6.4089785690307615,7.269095515441894
1788861667659998000,9.314998046875,-3.2487820152282714,-7.111676756286621,7.555202613830566
1788861667670004200,9.325004150390624,-3.51783042678833,-7.805396687316894,7.948899149322509
1788861667680011000,9.335010986328125,-3.8220436752319333,-8.349329376983642,8.252364209747315
1788861667690017000,9.34501708984375,-4.016871835327148,-8.892513878631592,8.442703241729737
1788861667700023000,9.35502294921875,-4.046200805664062,-9.709984107971191,8.691101663970947
1788861667710030000,9.365030029296875,-4.099322154998779,-10.351779790496826,8.756942209625244
1788861667720036000,9.3750361328125,-4.079420353698731,-10.432733734130858,8.689754925537109
1788861667730043000,9.38504296875,-4.045003704833984,-9.898377851104735,8.572439044189453
1788861667740049200,9.395049072265625,-4.040664214324951,-8.977508037567139,8.461108666992187
1788861667750055200,9.40505517578125,-4.106504759979248,-8.304288458251953,8.615833949279784
1788861667760062000,9.41506201171875,-4.146009087371826,-7.932439012908935,9.215880740356445
1788861667770068200,9.425068115234374,-4.076128326416016,-7.753023526000976,9.984269835662841
1788861667780075000,9.435074951171876,-4.221875352478027,-7.881412590026855,10.518924993896483
1788861667790081000,9.4450810546875,-4.270507573699951,-8.234258059692383,10.242993252563476
1788861667800087000,9.455087158203124,-3.6688147689819335,-8.392425006866455,9.185205031585692
1788861667810094000,9.465093994140625,-2.9843723693847655,-8.313565989685058,8.131457025909423
1788861667820100000,9.47510009765625,-2.667290287017822,-8.125321884155273,7.662642413330078
1788861667830106000,9.485106201171876,-2.637512403869629,-7.918522715759277,7.69930362625122
1788861667840113200,9.495113037109375,-2.975693388366699,-7.9283987976074215,7.841608987426757
1788861667850119200,9.505119140625,-3.0609868225097654,-8.134449777984619,7.934533939361572
1788861667860126000,9.5151259765625,-2.9876643966674803,-8.361898935699463,7.727435495758056
1788861667870132000,9.525132080078125,-2.9625252792358396,-8.409782968902588,7.297975572967529
1788861667880138200,9.53513818359375,-2.761861252593994,-8.310573237609862,6.872855140686035
1788861667890145000,9.54514501953125,-2.567781280517578,-8.011746942901611,6.757035635375976
1788861667900151600,9.555151611328125,-2.5659856292724608,-7.683591677856445,6.902034473419189
1788861667910157600,9.565157470703125,-2.601150466156006,-7.612962728881835,7.1029977752685545
1788861667920164400,9.575164306640625,-2.8760347442626952,-7.696310874176025,7.39269617614746
1788861667930170600,9.585170654296874,-2.8420670082092285,-8.026112152862549,8.048258518218994
1788861667940177400,9.595177490234375,-2.3044190979003907,-8.26837543334961,8.572289406585693
1788861667950183400,9.605183349609375,-1.913266401672363,-8.125172246551513,8.24233849029541
1788861667960189400,9.615189453125,-1.430685129547119,-7.910591922760009,7.464971138763428
1788861667970196500,9.625196533203125,-0.9279027809143066,-7.626729388427734,6.944381915283203
1788861667980202500,9.635202392578124,-0.9395745140075683,-7.204302433013916,6.952911258697509
1788861667990209300,9.645209228515625,-1.100584575653076,-6.87569825515747,7.336133161926269
1788861668000215600,9.655215576171875,-1.8433856407165525,-6.5677440666198725,7.726238394927978
1788861668010221600,9.6652216796875,-2.651877613830566,-6.038326224517822,8.114847251892089
1788861668020228400,9.675228271484375,-3.4905963829040525,-5.488108755493164,8.527847038269043
1788861668030234400,9.685234375,-3.7006875785827633,-5.280411761474609,9.05307502746582
1788861668040240600,9.69524072265625,-3.337068201446533,-5.368398672485351,9.35309842300415
1788861668050247400,9.705247314453125,-3.0719103675842283,-5.565471396636963,9.280673822784424
1788861668060253400,9.71525341796875,-2.5219921737670896,-5.905148757171631,8.86153889465332
1788861668070260500,9.725260498046875,-2.2526444869995115,-6.222679752349853,8.087313932800292
1788861668080266500,9.7352666015625,-2.246658982849121,-6.332214478302002,7.36112264175415
1788861668090272500,9.7452724609375,-2.0952257278442383,-6.168062026977538,7.122001750946045
1788861668100279300,9.755279296875,-2.2296002960205077,-5.820902786254883,7.285705289459228
1788861668110285600,9.76528564453125,-2.449717211151123,-5.351489623260497,7.697059062194824
1788861668120292400,9.775292236328125,-2.6044424934387207,-5.010166249084472,8.085817556762695
1788861668130298400,9.78529833984375,-2.7659014678955076,-4.863371759796142,8.410231881713866
1788861668140304400,9.795304443359376,-3.021632132720947,-4.705953000640869,8.691700214385985
1788861668150311400,9.8053115234375,-3.124433166503906,-4.50768317565918,8.63827958984375
1788861668160317400,9.8153173828125,-3.1209915016174317,-4.261230042266845,8.462605043029784
1788861668170323500,9.825323486328125,-2.8842648124694823,-4.067449345397949,8.311471063232421
1788861668180330500,9.83533056640625,-2.503137835693359,-3.911078049468994,8.086865019989013
1788861668190336500,9.84533642578125,-2.433257074737549,-3.589207563781738,7.828291240692138
1788861668200343300,9.85534326171875,-2.7717373344421383,-3.3295863212585446,7.407061386108398
1788861668210349300,9.865349365234374,-3.6616321640014644,-3.245190712738037,6.870012026214599
1788861668220355600,9.87535546875,-3.8679824195861814,-3.1446342430114744,6.285527545928955
1788861668230362400,9.8853623046875,-3.666570204925537,-3.2026936332702634,6.080075115966797
1788861668240368400,9.895368408203124,-3.6768951995849606,-3.4944869606018063,6.523002423095702
1788861668250374400,9.90537451171875,-3.5830724220275876,-3.773860366821289,6.875398979949951
1788861668260381400,9.91538134765625,-2.823063032531738,-3.6762966491699216,6.1942486076354975
1788861668270387500,9.925387451171876,-2.74525147857666,-3.268384541320801,5.308094718170166
1788861668280394200,9.935394287109375,-2.9970915657043453,-3.287238879394531,5.240458521270751
1788861668290400500,9.945400390625,-2.3222259727478027,-3.033154228210449,5.042188696289062
1788861668300406500,9.955406494140625,-2.8151322395324705,-2.030881558227539,4.5802574134826655
1788861668310413300,9.965413330078125,-4.192546382141113,-0.881664761352539,3.9196073928833006
1788861668320419300,9.97541943359375,-4.319139794921875,-0.3956418243408203,3.697844464111328
1788861668330426400,9.98542626953125,-4.027346467590331,-0.25303718795776364,4.628141446685791
1788861668340432400,9.995432373046874,-4.191050006103516,-0.5410895751953124,5.491999333190917
1788861668350438400,10.0054384765625,-3.1844378456115723,-1.357961254119873,5.253476992797851
1788861668360445400,10.015445556640625,-2.8383260681152342,-1.8873790962219237,4.638915354156494
1788861668370451500,10.025451416015626,-3.3201591522216796,-1.993771432495117,4.524741862487793
1788861668380457500,10.03545751953125,-3.5434184570312497,-2.090138049316406,5.314229859924316
1788861668390464500,10.045464599609375,-3.6002807464599607,-2.3343466186523436,6.232555834197997
1788861668400470500,10.055470458984376,-3.5615246070861812,-2.4884733505249024,6.320991658020019
1788861668410477300,10.065477294921875,-3.519626078033447,-2.620902629852295,6.3064768104553215
1788861668420483300,10.0754833984375,-3.3592145668029785,-2.7060464263916013,6.214300046539306
1788861668430489600,10.085489501953125,-3.2249896362304686,-2.7199627235412596,6.069750121307373
1788861668440496400,10.095496337890625,-3.3289877708435056,-2.564040340423584,6.108356623077392
1788861668450502400,10.10550244140625,-3.3654993461608886,-2.377142973327637,6.2970496414184565
1788861668460509400,10.115509521484375,-3.125929542541504,-2.195034009552002,6.517016918945312
1788861668470515500,10.125515380859374,-2.8752865562438963,-2.176329309082031,6.721122610473633
1788861668480521500,10.135521484375,-2.827851435852051,-2.484732410430908,6.561459287261963
1788861668490528300,10.1455283203125,-3.031807489776611,-2.9884125846862792,6.304830796813964
1788861668500534500,10.155534423828126,-3.4202667091369627,-3.6924575103759762,6.3061775352478024
1788861668510540500,10.16554052734375,-3.4088942512512204,-4.4859857231140134,6.379200685882568
1788861668520547300,10.17554736328125,-3.164087131500244,-5.186289708709716,6.386832203674316
1788861668530553300,10.18555322265625,-3.2513258544921873,-5.786935050201416,6.807912420654296
1788861668540560400,10.195560302734375,-3.0157962661743163,-6.285377908325195,7.447463539123535
1788861668550566400,10.20556640625,-2.5870845314025877,-6.641066492462158,7.981220871734618
1788861668560572400,10.215572509765625,-2.595763512420654,-6.968772844696044,8.473528588104248
1788861668570579500,10.225579345703125,-2.769043857574463,-7.306804191589355,8.911517854309082
1788861668580585500,10.23558544921875,-2.788197470855713,-7.690475007629394,9.029731561279297
1788861668590591500,10.245591552734375,-2.8392238937377927,-7.974786454772949,8.692448402404784
1788861668600598300,10.255598388671874,-2.9990368545532227,-7.775768441772461,8.08806212081909
1788861668610604500,10.2656044921875,-3.370437387084961,-7.269694065856934,7.746439471435546
1788861668620611300,10.275611328125,-3.954472954559326,-6.80551821899414,7.850587243652344
1788861668630617300,10.285617431640626,-4.263324968719482,-7.013963401031494,8.33735836868286
1788861668640623400,10.295623291015625,-4.133439528656005,-8.094197262573243,8.897751194763183
1788861668650630400,10.30563037109375,-3.964049761199951,-9.58339069519043,9.364171605682373
1788861668660636400,10.315636474609375,-3.9905356170654294,-10.92923130340576,9.434351641845703
1788861668670643500,10.3256435546875,-4.106654397583007,-11.528529906463623,9.18041662826538
1788861668680649500,10.3356494140625,-3.97751714553833,-11.190648197174072,8.96344210281372
1788861668690655500,10.345655517578125,-3.6200329101562496,-10.452186622619628,9.077316319274901
1788861668700662300,10.355662353515624,-3.573345977783203,-9.613168578338623,9.180117353057861
1788861668710668300,10.365668212890625,-3.772363990783691,-8.783428065490723,8.918550821685791
1788861668720674600,10.375674560546875,-3.684975630187988,-8.143428034210205,8.390479718017577
1788861668730681300,10.385681396484374,-3.577835105895996,-7.696161236572265,8.111704862213134
1788861668740687400,10.395687255859375,-3.620332185363769,-7.506420755004882,8.22961929397583
1788861668750694400,10.4056943359375,-3.717147714996338,-7.757512654113769,8.475024964141845
1788861668760700400,10.415700439453126,-3.3764228912353516,-8.26224029159546,8.238148637390136
1788861668770706400,10.42570654296875,-3.1405940277099607,-8.479214817047119,7.452102304840087
1788861668780713200,10.435713134765624,-3.2085294998168945,-8.4015529006958,6.642113955688476
1788861668790719500,10.445719482421875,-3.2421979606628417,-8.417713761901854,6.477512591552734
1788861668800726500,10.4557265625,-3.1952117530822752,-8.431779696655273,6.489184324645996
1788861668810732300,10.465732177734376,-3.2384570205688474,-8.31850403060913,6.3256304237365715
1788861668820738300,10.47573828125,-2.779967402648926,-8.15928962020874,6.32682752456665
1788861668830745300,10.485745361328124,-2.4253262817382812,-8.052448371124267,6.5589154479980465
1788861668840751400,10.49575146484375,-2.45151286239624,-8.059331700897216,6.839186679840087
1788861668850757400,10.50575732421875,-2.5472809288024902,-8.09479581298828,6.794594673919677
1788861668860764400,10.515764404296876,-2.429815409851074,-7.8535799957275385,6.525246987152099
1788861668870770400,10.5257705078125,-2.3931541969299315,-7.529913858795165,6.535422344207763
1788861668880777500,10.535777587890625,-2.4904186393737793,-7.236624155426025,6.846219647216796
1788861668890783200,10.545783203125,-2.6927286796569825,-7.115866609191894,7.500135975646972
1788861668900789000,10.5557890625,-2.193537633514404,-7.200711130523681,8.448988021087645
1788861668910796300,10.56579638671875,-1.356015965270996,-7.166444119262695,9.124751439666747
1788861668920802000,10.575802001953125,-1.2726678199768067,-7.020697093200683,9.477297634124755
1788861668930809000,10.58580908203125,-1.5946879432678223,-6.7739446846008295,9.575459902191161
1788861668940814800,10.59581494140625,-1.80029001083374,-6.483647733306884,9.394847314453125
1788861668950821000,10.605821044921875,-1.9072808975219726,-6.02051934967041,9.00249751739502
1788861668960828200,10.615828125,-2.114678616333008,-5.61784455795288,8.64501328201294
1788861668970834000,10.625833984375,-2.4308628730773925,-5.406705899047851,8.467243808746337
1788861668980840000,10.63583984375,-2.750937707519531,-5.281309587097168,8.731503816986084
1788861668990847200,10.64584716796875,-3.2474352767944334,-5.399373656463623,9.1163717338562
1788861669000853000,10.65585302734375,-3.949983826446533,-5.753416226959228,9.340528864288329
1788861669010860000,10.665860107421874,-2.9273604423522945,-5.909488247680664,9.709086282348633
1788861669020866000,10.675865966796875,-2.6677391998291013,-6.196343534088134,9.962273107910155
1788861669030872000,10.6858720703125,-3.0086136611938477,-6.900538097381592,9.427169036865234
1788861669040879000,10.695879150390626,-2.1493945404052734,-6.903381211853027,7.884854254913329
1788861669050884900,10.705884765625,-1.992574331665039,-5.8469397293090815,6.059275489044189
1788861669060892200,10.71589208984375,-2.03671742477417,-4.786308393859863,5.45877978515625
1788861669070898200,10.725898193359376,-2.1293431015014646,-4.160823210144042,6.373364819335937
1788861669080904000,10.735904052734375,-2.577806999969482,-3.8768110382080074,8.22857183074951
1788861669090911200,10.7459111328125,-2.9791350532531737,-4.230703971099853,9.67811129837036
1788861669100917000,10.7559169921875,-3.0358477050781247,-4.9072155776977535,9.484629876708984
1788861669110923000,10.765923095703124,-3.056796969604492,-5.199757093048095,8.346935175323486
1788861669120930000,10.775929931640626,-2.9255647911071776,-5.054309342193603,7.215974166107177
1788861669130936000,10.78593603515625,-2.501940734863281,-4.774487023162841,6.517016918945312
1788861669140943000,10.795943115234374,-2.33030640335083,-4.388122730255127,6.450128910064697
1788861669150949000,10.80594921875,-2.6454431968688965,-4.02180987625122,6.931812356567383
1788861669160955000,10.815954833984375,-3.529801435089111,-3.4015620086669918,7.613860554504394
1788861669170962200,10.825962158203126,-4.096628678131103,-2.693626505279541,8.167220413208007
1788861669180968000,10.835968017578125,-4.1760862457275385,-2.527678402709961,8.254010223388672
1788861669190975000,10.84597509765625,-3.946093248748779,-2.5944167739868162,7.908496996307373
1788861669200981200,10.855981201171875,-3.7961563697814937,-2.9138930580139157,7.119008998870849
1788861669210987000,10.865987060546875,-3.2849943153381345,-3.2818519256591796,6.081421854400634
1788861669220994000,10.875994140625,-2.3325509674072262,-3.5591304054260253,5.085882876586914
1788861669231000000,10.886,-2.634669289398193,-3.7222353935241697,4.683806635284424
1788861669241006000,10.896006103515624,-3.3822587577819823,-3.5238159309387207,4.636670790100097
1788861669251013000,10.90601318359375,-3.6037224113464355,-2.8458079483032224,4.706701188659668
1788861669261019000,10.916018798828125,-3.7292683609008788,-2.1059996353149413,4.595819724273682
1788861669271026200,10.926026123046874,-3.6424785507202144,-1.4752771354675291,3.9131729759216305
1788861669281032200,10.9360322265625,-3.8735190109252926,-0.8889970039367675,3.741688282012939
1788861669291038000,10.946037841796874,-3.9695863525390624,-0.8821136741638184,4.307617699432373
1788861669301045000,10.956044921875,-3.733009300994873,-1.453729320526123,4.7746366607666015
1788861669311051000,10.966051025390625,-3.5702035881042478,-1.6395792243957519,4.5778632118225095
1788861669321058000,10.97605810546875,-3.1866824096679687,-1.426944189453125,4.1383775695800775
1788861669331064000,10.98606396484375,-3.1042320899963376,-1.2623428253173827,4.448875597381591
1788861669341069800,10.99606982421875,-3.3330279861450194,-1.2933178092956543,5.090970555114746
1788861669351077000,11.0060771484375,-3.1290719322204588,-1.328632283782959,5.456984133911132
1788861669361083100,11.016083251953125,-3.0627824737548828,-1.338209090423584,5.905896945190429
1788861669371089000,11.0260888671875,-3.3659482589721677,-1.5937901176452636,6.413617334747314
1788861669381096200,11.03609619140625,-3.069516165924072,-2.0319290214538572,6.585700579071045
1788861669391102000,11.04610205078125,-3.1994016059875485,-2.3964462242126463,6.479008967590332
1788861669401109000,11.05610888671875,-3.6777930252075195,-2.7584195877075195,6.484994471740722
1788861669411115300,11.066115234375,-3.3527801498413083,-3.0870237655639645,6.733542531585693
1788861669421121000,11.07612109375,-3.2691327293395993,-3.3782185424804685,7.030423537445068
1788861669431128000,11.086128173828126,-3.580977495574951,-3.8187516479492185,7.239616907501221
1788861669441134000,11.096134033203125,-3.5883097381591793,-4.269011197662353,7.197419103240966
1788861669451140000,11.10614013671875,-3.527257595825195,-4.4568063903808595,7.198616204071045
1788861669461147100,11.116147216796875,-3.6783915756225585,-4.573224446105956,7.601290995788574
1788861669471153000,11.12615283203125,-3.7141549629211426,-4.7475522544860835,8.277054414367676
1788861669481160200,11.13616015625,-3.093607820129394,-5.020790518951416,8.633191911315917
1788861669491166200,11.146166259765625,-2.70036019744873,-5.415684155273437,8.474875326538086
1788861669501172000,11.156171875,-2.899677485656738,-5.903053830718994,8.264933768463134
1788861669511179000,11.166178955078125,-2.932298483276367,-6.260089153289795,8.107066096496581
1788861669521185300,11.176185302734375,-2.5221418113708496,-6.618920127105713,8.10227769317627
1788861669531192000,11.186192138671874,-2.047491332244873,-6.964433354187011,8.104971170043944
1788861669541198000,11.196197998046875,-2.0126257705688477,-7.368604521942138,7.913135762023925
1788861669551203800,11.206203857421874,-2.3324013298034667,-7.543830155944824,7.31682991104126
1788861669561211100,11.216211181640626,-2.8830677116394043,-7.483825476837158,6.804021842956542
1788861669571217200,11.226217041015625,-3.640383624267578,-7.324012516021728,6.739528035736083
1788861669581223000,11.236222900390626,-4.216039485931396,-7.312640058135986,7.161206803131103
1788861669591230200,11.246230224609375,-4.336797032165527,-7.920318367004394,8.131756301116942
1788861669601236200,11.256236328125,-4.3263223999023435,-8.95745659866333,9.363273780059814
1788861669611243000,11.266242919921876,-4.12446127243042,-10.022128149414062,10.312574738311767
1788861669621249000,11.2762490234375,-4.208707243347168,-10.688763674163818,10.541969184875487
1788861669631255000,11.286255126953124,-4.393659321594238,-10.618134725189208,9.883114815521239
1788861669641262000,11.296261962890625,-4.24581736907959,-10.042029950714111,8.88084214553833
1788861669651268000,11.30626806640625,-4.317493781280517,-9.478794010162353,8.277802602386474
1788861669661275100,11.316275146484376,-4.30926371307373,-8.970774345397949,8.211213868713378
1788861669671281200,11.32628125,-4.251204322814941,-8.526350662231446,8.492682201385497
1788861669681287200,11.336287109375,-3.8762124877929685,-8.042721926879882,8.611644096374512
1788861669691294000,11.3462939453125,-2.9117981315612793,-7.4119994270324705,8.323591709136963
1788861669701300200,11.35630029296875,-2.562843239593506,-7.205948446655273,7.830086891937255
1788861669711306000,11.366305908203126,-2.6138696624755857,-7.414094353485107,7.159111876678466
1788861669721313000,11.37631298828125,-2.623147193908691,-7.508665319061278,6.783222216033935
1788861669731319000,11.386319091796874,-2.6581623931884764,-7.517344300079345,7.146991230773925
1788861669741326000,11.396326171875,-2.614917125701904,-7.5731591262817375,7.710676084136963
1788861669751332000,11.40633203125,-2.538901222991943,-7.6647373397827145,7.949946612548827
1788861669761338000,11.416338134765626,-2.7823616043090817,-7.780407207489013,7.964162184906005
1788861669771345200,11.42634521484375,-2.8917466926574704,-7.867645930480957,7.875875998687744
1788861669781351200,11.43635107421875,-2.7350761215209958,-7.858368399047851,8.093897987365722
1788861669791358000,11.44635791015625,-2.709937004089355,-7.940220168304443,8.494328215026854
1788861669801364000,11.456364013671875,-2.4718635765075683,-7.945906397247314,8.230666757202147
1788861669811370200,11.466370361328124,-2.2704513618469235,-7.639747859954833,6.988225733184814
1788861669821377000,11.476376953125,-2.1525369300842283,-7.294833183288574,5.628468827819824
1788861669831383000,11.486383056640625,-1.7937059562683104,-7.068730764007568,4.971110834503174
1788861669841389000,11.49638916015625,-1.8305168067932127,-7.030872450256347,5.149927770996094
1788861669851396000,11.50639599609375,-1.9859902770996092,-7.240664370727538,6.129156249999999
1788861669861402000,11.516402099609374,-2.1040543464660644,-7.385962483978271,7.3365820747375485
1788861669871409000,11.526408935546876,-2.110488763427734,-7.238569444274902,8.510339438629149
1788861669881415200,11.536415283203125,-1.998859111022949,-6.994061599731445,9.674220720672606
1788861669891421200,11.546421142578126,-1.7995418228149413,-6.845471459197998,10.672902088165282
1788861669901428200,11.55642822265625,-1.936310592651367,-6.70989979019165,11.043255157470702
1788861669911434200,11.566434326171875,-2.1351789680480957,-6.439803915405273,10.530147814178466
1788861669921441300,11.576441162109376,-2.1250036109924317,-6.185868901824951,9.711031571197509
1788861669931447300,11.586447265625,-2.306514024353027,-6.185419989013671,9.335590823364257
1788861669941453300,11.596453369140624,-2.6562171043395995,-6.612934622955322,9.247753549957276
1788861669951460000,11.606460205078125,-2.811690574645996,-7.2258502479553215,8.781482776641845
1788861669961466400,11.61646630859375,-2.327164013671875,-7.363516843414306,7.719803977966309
1788861669971472400,11.626472412109376,-1.9232921211242675,-6.680421182250976,6.675782416534424
1788861669981479200,11.636479248046875,-2.3133973541259762,-5.617096369934082,6.272359436798095
1788861669991485200,11.646485107421874,-2.916287259674072,-4.94118331375122,6.726958477020263
1788861670001492200,11.6564921875,-3.343053705596924,-4.844068508911133,7.628375402069091
1788861670011498200,11.666498291015625,-3.5859155364990234,-5.133916547393799,8.43342571029663
1788861670021504300,11.676504150390626,-3.2052374725341797,-5.538835903167724,8.627804957580565
1788861670031511300,11.68651123046875,-2.521094348144531,-5.708375308227539,8.40185217590332
1788861670041517300,11.696517333984374,-2.4753052413940426,-5.520430477905273,8.168417514038085
1788861670051524000,11.706524169921876,-2.605340319061279,-5.213673390197753,8.009951291656494
1788861670061530000,11.716530029296875,-2.726696415710449,-4.784213467407226,7.896077075195312
1788861670071536400,11.726536376953124,-2.7636569038391112,-4.573374083709717,7.82709413986206
1788861670081543200,11.736543212890625,-2.57915373840332,-4.666299035644531,7.574954777526855
1788861670091549200,11.746549072265625,-2.638859142303467,-4.657919329833984,7.255777768707275
1788861670101555200,11.75655517578125,-2.7564742988586426,-4.391863670349121,6.955904010772705
1788861670111562200,11.766562255859375,-2.807351084136963,-3.8227918632507323,6.637475189971924
1788861670121568300,11.776568359375,-3.0521582038879393,-3.0909143432617188,6.730100866699218
1788861670131575000,11.786574951171875,-3.4108395401000973,-2.785952906799316,7.094019519042968
1788861670141581300,11.796581298828125,-3.8711248092651367,-2.659209856414795,7.265953125762939
1788861670151587300,11.80658740234375,-4.244620268249512,-2.583792504119873,7.474697583007812
1788861670161594000,11.816593994140625,-3.998017497253418,-2.685845349884033,7.120655012512207
1788861670171600100,11.82660009765625,-2.795529713439941,-2.5655367164611813,5.8654947921752925
1788861670181607200,11.836607177734376,-2.471564301300049,-2.473808865356445,4.795735562896728
1788861670191613200,11.84661328125,-2.494159579467773,-2.547879479217529,4.497956731414795
1788861670201619200,11.856619140625,-2.814084776306152,-2.4133552734375,4.979939453125
1788861670211626200,11.866626220703125,-3.7536592903137205,-2.156577145385742,5.156212550354003
1788861670221632300,11.87663232421875,-4.44303973083496,-1.9424457344055175,4.550629167938232
1788861670231638300,11.88663818359375,-3.8332664955139157,-1.5517419509887695,4.356549195861816
1788861670241645300,11.896645263671875,-3.5851673484802244,-1.2648866645812988,5.067627088928222
1788861670251651300,11.9066513671875,-3.4739866088867184,-1.5261539207458494,5.540781192016601
1788861670261658000,11.916658203125,-3.1057284660339355,-1.8094179046630858,5.543325031280517
1788861670271664000,11.9266640625,-3.436876483154297,-1.8095675422668456,5.487360567474365
1788861670281670400,11.93667041015625,-3.7325603881835936,-1.610100616455078,5.254674093627929
1788861670291677200,11.94667724609375,-3.8494273567199704,-1.186177285003662,5.217264692687988
1788861670301683200,11.95668310546875,-4.014477633666992,-0.7694365585327148,5.467907678985595
1788861670311689200,11.966689208984375,-3.5966894439697263,-0.7321767951965331,5.941809970092773
1788861670321696300,11.9766962890625,-3.183839295196533,-1.0271125122070313,6.544699875640869
1788861670331702300,11.986702392578126,-2.839523168945312,-1.6536451591491699,6.816741039276122
1788861670341709000,11.996708984375,-2.7884967460632324,-2.433257074737549,6.6437599693298335
1788861670351715300,12.00671533203125,-3.268234903717041,-3.1352070739746094,6.437110438537597
1788861670361721300,12.016721435546875,-3.3852515098571776,-3.482815227508545,6.417058999633789
1788861670371728100,12.02672802734375,-3.031957127380371,-3.5708021385192867,6.589291881561279
1788861670381734100,12.036734130859376,-2.860771708679199,-3.680486502075195,6.826617121124267
1788861670391741200,12.0467412109375,-2.739565249633789,-3.962852660369873,6.845321821594238
1788861670401747200,12.056747314453125,-3.0569466072082516,-4.247762657928466,6.67129328842163
1788861670411753200,12.066753173828126,-3.4008138206481933,-4.387973092651367,6.743717888641357
1788861670421760300,12.07676025390625,-3.2558149826049805,-4.331260440826416,7.098508647155762
1788861670431766300,12.086766357421874,-3.2420483230590817,-4.257189826965332,7.69286920928955
1788861670441772300,12.096772216796875,-3.0349498794555663,-4.342034348297119,8.182034535980224
1788861670451779000,12.106779052734375,-2.8248586837768555,-4.725106613922119,8.460659754180908
1788861670461785300,12.116785400390626,-3.090615068054199,-5.420023645782471,8.559270935058594
1788861670471792000,12.126792236328125,-3.015496990966797,-6.203226863861084,8.169764252471923
1788861670481798100,12.136798095703124,-2.8815713356018064,-6.956203285980224,7.798363719940185
1788861670491804200,12.14680419921875,-2.704550050354004,-7.498639599609374,7.682394577026367
1788861670501811200,12.156811279296875,-2.5987562644958495,-7.904905693817138,7.715314849853515
1788861670511817200,12.166817138671876,-2.532466806030273,-8.230367481994628,7.706336593627929
1788861670521823200,12.1768232421875,-2.5776573623657226,-8.467243808746337,7.738059765625
1788861670531830300,12.186830322265624,-2.906710453033447,-8.679878843688964,7.845499565124511
1788861670541836300,12.196836181640625,-3.282001563262939,-8.698433906555175,7.727884408569335
1788861670551843000,12.206843017578125,-3.5890579261779783,-8.679130655670166,7.588721437072754
1788861670561849000,12.21684912109375,-3.8236896888732907,-8.769811043548584,7.6231380859375
1788861670571855400,12.22685546875,-3.813514331817627,-9.043797496032715,8.10227769317627
1788861670581862100,12.236862060546875,-3.902698343658447,-9.321973801422118,8.955660947418213
1788861670591868200,12.2468681640625,-4.11787721786499,-9.472209955596924,9.617059156036376
1788861670601875200,12.256875244140625,-4.152443504333496,-9.460687860107422,9.8825162651062
1788861670611881200,12.266881103515624,-4.055179061889648,-9.335890098571777,9.856479322052001
1788861670621887200,12.27688720703125,-3.943699047088623,-9.038111267089842,9.668684129333496
1788861670631894000,12.28689404296875,-3.7261259712219235,-8.46499924468994,9.188497058868407
1788861670641900300,12.296900390625,-3.357418915557861,-7.780856120300292,8.387187690734862
1788861670651906300,12.30690625,-2.803161231231689,-7.155969486999512,7.521384515380859
1788861670661913000,12.3169130859375,-2.350058567047119,-6.796240687561035,7.237671618652343
1788861670671919000,12.326919189453125,-2.286761860656738,-6.788160256958007,7.6568065467834465
1788861670681926100,12.336926025390625,-2.5809493896484375,-7.213430326843262,8.485649234008788
1788861670691932200,12.34693212890625,-3.1953613906860348,-7.834576020050048,9.079411245727538
1788861670701938200,12.356938232421875,-3.6947020744323726,-8.19026460418701,8.960150075531006
1788861670711945200,12.3669453125,-3.662230714416504,-8.086116831970214,8.516474580383301
1788861670721951200,12.376951171875,-3.422660910797119,-7.749132948303222,8.37656342086792
1788861670731957200,12.386957275390625,-3.2659903396606444,-7.691522470855713,8.971971446228027
1788861670741964000,12.396964111328124,-3.1856349464416502,-7.868244480895996,9.66673884048462
1788861670751970300,12.40697021484375,-2.886808651733398,-8.078784589385986,9.485228427124023
1788861670761977000,12.41697705078125,-2.574814247894287,-8.067711406707764,8.486846334838866
1788861670771983000,12.426983154296876,-2.3618799377441406,-7.954435740661621,7.432350141143798
1788861670781989400,12.4369892578125,-1.8570026626586913,-7.7401546920776365,6.617423751068115
1788861670791996200,12.44699609375,-1.1662754837036131,-7.4609309234619134,6.021117900085449
1788861670802002200,12.457002197265625,-0.929548794555664,-7.331344758605956,5.715707550811767
1788861670812009200,12.46700927734375,-0.7731774986267089,-7.212083588409423,5.877316162872314
1788861670822015200,12.47701513671875,-0.7477391059875488,-6.930914530944824,6.537367633056641
1788861670832021200,12.487021240234375,-1.5212158798217772,-6.483647733306884,7.299621586608886
1788861670842028000,12.497028076171874,-2.302324171447754,-6.059275489044189,8.157493968963623
1788861670852034300,12.507034423828125,-2.5576059234619137,-5.825691189575195,9.385420145416258
1788861670862040300,12.517040283203125,-2.4904186393737793,-5.836465097045898,10.752060380554198
1788861670872047000,12.527047119140626,-2.0795137794494627,-6.248267782592773,11.388020196533203
1788861670882053000,12.53705322265625,-2.042254016113281,-6.666355247497558,10.87955161895752
1788861670892060200,12.54706005859375,-2.492812841033935,-6.741473324584961,9.392752388000488
1788861670902065700,12.557065673828125,-2.926462616729736,-6.481852082061767,8.033594033050537
1788861670912071700,12.56707177734375,-3.246387813568115,-6.166116738128662,7.556698989868163
1788861670922078700,12.57707861328125,-2.7301380805969235,-6.158784495544433,7.485920403289795
1788861670932084700,12.587084716796875,-2.0513819099426267,-6.310068112945556,7.232284664916992
1788861670942090800,12.5970908203125,-1.8800468536376953,-6.200683024597168,6.827514946746826
1788861670952097800,12.607097900390626,-2.0771195777893063,-5.698349588775635,6.7544917961120605
1788861670962103800,12.617103759765625,-2.5432407135009765,-5.108478154754638,7.057208668518066
1788861670972110800,12.62711083984375,-2.6975170829772948,-4.921730425262451,7.608024687957763
1788861670982116600,12.63711669921875,-2.8399720817565917,-5.005976396179199,8.059331700897216
1788861670992123000,12.647122802734375,-2.7864018196105955,-5.1231426399230955,8.400954350280761
1788861671002130000,12.6571298828125,-2.703801862335205,-5.196165790557861,8.840739267730712
1788861671012135700,12.6671357421875,-2.6439468208312986,-5.067776726531982,9.098564859008789
1788861671022141700,12.6771416015625,-2.4389433036804196,-4.955698161315918,9.044396046447753
1788861671032148700,12.687148681640625,-2.77098914642334,-4.811297873687744,8.681075944519042
1788861671042154800,12.69715478515625,-2.9984383041381832,-4.417451700592041,8.034192583465575
1788861671052161800,12.707161865234376,-2.8133365882873536,-3.8817490791320797,7.612813091278076
1788861671062167800,12.717167724609375,-2.1059996353149413,-3.604021686553955,7.519588864135741
1788861671072173800,12.727173828125,-2.3977929626464842,-3.5992332832336422,7.561786668395996
1788861671082180900,12.737180908203126,-2.8576293190002438,-3.5052608680725097,7.675511247253418
1788861671092186600,12.7471865234375,-3.1471780822753903,-3.1438860549926755,7.321019763946532
1788861671102194000,12.75719384765625,-3.163338943481445,-2.689586289978027,6.452223836517334
1788861671112199700,12.76719970703125,-3.6150948692321774,-2.361431024932861,5.59869094467163
1788861671122205700,12.777205810546874,-3.8596027137756344,-2.1999720504760742,5.113266558074951
1788861671132213000,12.787212890625,-3.1024364387512207,-1.972223617553711,5.201253469085693
1788861671142218800,12.79721875,-3.0898668800354003,-1.5818191093444822,5.737554640960693
1788861671152224800,12.807224853515624,-3.493738772583008,-1.637633935546875,5.922656356811523
1788861671162231800,12.817231689453125,-3.1823429191589354,-1.8849848945617675,5.4692544174194335
