time,seconds_elapsed,z,y,x
1789031151656502300,0.037502197265625,8.886378736877441,4.131045326995849,-0.9418190780639648
1789031151666508500,0.047508544921875,8.831761011505126,3.8863878448486324,-0.7758709754943848
1789031151676515300,0.057515380859375,8.873210627746582,3.610905016326904,-0.8598176712036132
1789031151686522400,0.0675224609375,8.998307664489746,3.4521395187377926,-1.1035773277282714
1789031151696529400,0.077529296875,8.536974932098389,3.349937035369873,-1.2912228828430174
1789031151706536200,0.0875361328125,8.540416596984862,3.7484219741821287,-1.2113164024353027
1789031151716542200,0.097542236328125,9.036016340637207,3.7599440696716306,-1.0187328063964842
1789031151726549500,0.107549560546875,8.996212738037109,3.374028689575195,-0.9638158058166504
1789031151736556300,0.117556396484375,8.692598040008544,3.451989881134033,-1.1623849060058593
1789031151746563300,0.127563232421875,8.570942668151854,3.8250364273071287,-1.5970821449279784
1789031151756570400,0.1375703125,8.247126893615722,4.054580511474609,-1.8926164123535154
1789031151766576400,0.147576416015625,7.73776049041748,4.070891010284424,-1.744774459838867
1789031151776583400,0.15758349609375,7.345261055755615,3.6927567855834957,-1.43008657913208
1789031151786590500,0.167590576171875,7.388955236053467,3.1337106979370115,-1.1538555625915528
1789031151796597200,0.17759716796875,7.5242276298522945,2.8037597816467286,-0.8828618621826171
1789031151806604300,0.187604248046875,8.22946965637207,2.940229276275635,-0.872087954711914
1789031151816610300,0.1976103515625,8.643666543579101,2.9550433990478515,-1.044470474243164
1789031151826617300,0.207617431640625,7.900865478515625,2.8886043029785156,-0.9237129280090332
1789031151836624400,0.217624267578125,8.35666161956787,2.697965995788574,-1.3275848205566405
1789031151846631200,0.227631103515625,9.003993893432616,2.661005507659912,-1.6657658050537107
1789031151856637200,0.23763720703125,8.53622674407959,2.7220576499938964,-1.6558897232055663
1789031151866644500,0.24764453125,8.183680549621581,2.5459341903686523,-1.6003741722106932
1789031151876651300,0.2576513671875,8.21585263442993,1.984942813873291,-1.0691606788635253
1789031151886658300,0.267658203125,7.78205322113037,1.0794856735229492,-0.17836802368164062
1789031151896665300,0.277665283203125,7.366659233093261,1.0799345863342285,-0.0004489128112792969
1789031151906671400,0.28767138671875,7.72534056930542,1.0461164878845215,0.049829322052001954
1789031151916678400,0.297678466796875,8.512284727478027,1.260247898864746,-0.203656778717041
1789031151926685400,0.307685546875,9.04634133529663,2.028936269378662,-0.7175123100280761
1789031151936692200,0.317692138671875,9.528024781799315,2.8808231475830075,-2.0638018310546875
1789031151946699300,0.32769921875,9.962722020721435,3.7639842849731444,-3.573944528198242
1789031151956705300,0.337705322265625,10.12492918319702,4.201524638366699,-3.9667432380676266
1789031151966712300,0.34771240234375,9.737068514251709,4.154688068389892,-3.303100465393066
1789031151976719400,0.35771923828125,9.399336442565918,3.519775715637207,-1.9388544319152832
1789031151986726400,0.367726318359375,9.346215093231201,2.7064953392028808,-0.03232172241210937
1789031151996732200,0.377732177734375,9.402179557037353,2.5157073944091795,1.4893430702209471
1789031152006739500,0.387739501953125,9.117868109893799,3.0940567329406736,2.336142269897461
1789031152016746200,0.397746337890625,9.228151023864745,3.8913258857727047,1.9149124153137207
1789031152026753500,0.40775341796875,9.075670305633544,4.127304386901855,1.025316860961914
1789031152036760300,0.41776025390625,8.730755628967284,4.178779722595214,0.09501987838745117
1789031152046766300,0.427766357421875,8.145074047851562,4.438400965118408,-1.1864765602111815
1789031152056773400,0.4377734375,7.866299192047118,4.759074349975585,-2.0958242782592773
1789031152066780400,0.447780517578125,7.940818718719482,4.942829327392578,-1.866729106903076
1789031152076787200,0.457787109375,8.43956085205078,4.9729064857482905,-1.4896423454284666
1789031152086794500,0.46779443359375,9.281721286010741,4.932953245544433,-0.1261444999694824
1789031152096800300,0.47780029296875,10.128071572875976,4.8032174430847165,1.2164040809631347
1789031152106807300,0.487807373046875,10.73874263381958,4.206462679290771,2.041056915283203
1789031152116814300,0.497814453125,10.576236196136474,3.801094410705566,2.410661796569824
1789031152126821400,0.5078212890625,9.832986218261718,3.676595924377441,2.353799507141113
1789031152136827100,0.5178271484375,9.00189896697998,3.7511154510498046,1.823334201812744
1789031152146834400,0.52783447265625,8.850465711975097,3.8070799148559566,1.4595651870727537
1789031152156841200,0.53784130859375,9.476699083709716,3.7557542167663573,1.401356159210205
1789031152166848500,0.5478486328125,10.088267970275878,3.757250592803955,1.2078747375488281
1789031152176855300,0.557855224609375,10.983100840759276,3.7605426200866696,1.1085153686523437
1789031152186861300,0.567861328125,11.185410881042479,3.609707915496826,1.1406874534606932
1789031152196868400,0.577868408203125,10.87880343093872,3.034500966644287,0.8346785537719726
1789031152206875400,0.58787548828125,10.205434214019775,1.3236942428588867,0.4691138877868652
1789031152216882200,0.597882080078125,7.470807005310058,1.1719617126464843,1.087865379333496
1789031152226889500,0.607889404296875,6.628646571350097,1.7482161247253416,0.8089408859252929
1789031152236895200,0.617895263671875,8.959252249908447,2.661454420471191,0.026036943054199218
1789031152246902300,0.62790234375,10.058190811920165,2.8598738830566406,-0.09068038787841796
1789031152256909300,0.637909423828125,9.247005361938475,2.283769108581543,1.1695675109863282
1789031152266916400,0.647916259765625,8.417863399505615,1.7693150268554687,2.542941438293457
1789031152276923400,0.65792333984375,7.920318367004394,1.4570213478088379,3.040785746002197
1789031152286929400,0.667929443359375,7.650821042633056,1.4044985488891601,3.4687492927551267
1789031152296936200,0.677936279296875,7.7799582946777335,1.376516316986084,3.513341298675537
1789031152306943500,0.687943603515625,7.823203562164307,1.5339350761413573,3.8865374824523924
1789031152316950300,0.6979501953125,7.56567724609375,1.5246575447082518,4.4005426513671875
1789031152326957300,0.707957275390625,6.4935238151550285,1.5529390518188475,4.415656049346923
1789031152336963300,0.71796337890625,4.779125788879394,1.5740379539489746,4.34128616027832
1789031152346970400,0.727970458984375,3.700388303375244,1.452382582092285,4.319738345336914
1789031152356977200,0.73797705078125,3.434183006286621,1.2837410026550293,4.931157594299316
1789031152366984400,0.747984375,4.3257238494873045,0.7556698989868164,5.540481916809082
1789031152376990200,0.757990234375,6.413018784332275,0.651821401977539,4.87100327758789
1789031152386997200,0.767997314453125,8.201337786865233,0.7457938171386719,4.140921408843994
1789031152397004300,0.77800439453125,9.160664464569091,0.4857236618041992,3.171868286895752
1789031152407011300,0.78801123046875,8.882937071990966,-0.06958148574829101,2.5315689804077146
1789031152417018400,0.798018310546875,6.777984899902344,-0.6465840858459472,3.4837130531311034
1789031152427024400,0.8080244140625,4.408623081970215,-1.0975918235778808,5.137058937072753
1789031152437031200,0.81803125,3.1488240959167477,-2.039410901641846,6.892756941986083
1789031152447038500,0.82803857421875,3.8435914901733397,-4.17533805770874,8.010250566864013
1789031152457045000,0.838044921875,4.751442832183837,-6.164620362091064,7.738359040832519
1789031152467052000,0.848052001953125,5.070320565795898,-6.4837973709106445,7.117362985229492
1789031152477058000,0.85805810546875,5.895422312927246,-6.426037255859375,7.158214051055908
1789031152487065000,0.868065185546875,5.102343013000488,-6.323984410095214,10.204237113189697
1789031152497071900,0.87807177734375,3.3903391883850094,-6.367828227996826,13.226767071533203
1789031152507079200,0.8880791015625,2.4829367591857907,-6.387730029296875,15.600618017578125
1789031152517086000,0.8980859375,1.8321628204345701,-6.555324145507812,16.473005247497557
1789031152527092000,0.908092041015625,0.9533411735534667,-5.132120896148681,16.099809063720702
1789031152537099000,0.91809912109375,0.436043977355957,-3.877110313415527,15.192256996917724
1789031152547106000,0.92810595703125,1.1079168182373047,-3.5392286041259764,15.451279689025878
1789031152557112800,0.93811279296875,2.440140404510498,-3.5134909362792968,17.69629265823364
1789031152567119000,0.948119140625,2.78355870513916,-3.4569279220581053,21.963657842254637
1789031152577126100,0.958126220703125,2.173785469818115,-3.1299697578430172,26.376919689941406
1789031152587133000,0.9681328125,1.5096937843322753,-2.5439889015197754,28.541726903533934
1789031152597140000,0.978139892578125,0.6624456718444823,-1.3456909706115723,27.040412825012204
1789031152607147000,0.98814697265625,-1.9099743743896482,0.34715924072265625,23.484424809265136
1789031152617153000,0.998153076171875,-3.822492588043213,2.0732290000915525,20.638766498565673
1789031152627160000,1.00816015625,-6.385784740447997,3.301155176544189,16.3073564201355
1789031152637167000,1.0181669921875,-7.427112825012206,2.5828946784973144,14.610017080688475
1789031152647174100,1.028174072265625,-5.455188482666015,-0.7962216896057128,12.971485319519042
1789031152657181000,1.038180908203125,-0.08798691101074219,-3.253420780944824,12.90938571395874
1789031152667187000,1.04818701171875,4.971260472106933,-2.8012159423828122,9.582043956756591
1789031152677194200,1.0581943359375,2.325218724822998,-1.7096096229553222,10.678737954711913
1789031152687201000,1.068200927734375,0.2914940521240234,0.02319382858276367,9.746794958496093
1789031152697207800,1.078207763671875,0.7646481552124023,2.0567688636779784,7.593360202789306
1789031152707215000,1.088215087890625,-5.005826758575439,0.9834183319091796,4.8117467864990235
1789031152717221000,1.09822119140625,-3.7452795845031734,0.8352771041870116,4.540304173278808
1789031152727228000,1.108227783203125,-1.8516157089233398,2.5707740325927735,0.2180219886779785
1789031152737235000,1.11823486328125,-3.9173628288269042,0.8147767524719238,0.7223007133483886
1789031152747242000,1.128241943359375,0.2685994987487793,-1.3548188644409178,3.5449148330688476
1789031152757249000,1.1382490234375,8.839691804504394,-2.0073884544372556,3.90075305480957
1789031152767255000,1.148255126953125,4.54569112701416,0.37708676147460934,3.662829264831543
1789031152777262000,1.158261962890625,-4.824017070007324,3.500622102355957,4.3923125831604
1789031152787269000,1.16826904296875,-7.981520146942138,3.165433869934082,4.4464813957214355
1789031152797276000,1.17827587890625,-4.479401668548584,0.5374982727050781,5.118952787017822
1789031152807282000,1.188281982421875,-1.4007576087951659,-1.7654244491577147,6.863577609252929
1789031152817289200,1.198289306640625,0.27308862686157226,-3.5468601219177245,7.308749480438232
1789031152827296000,1.2082958984375,1.173458088684082,-4.996549227142333,7.98690710067749
1789031152837303000,1.218302978515625,1.9463363121032713,-6.487089398193359,11.08290912246704
1789031152847310000,1.22831005859375,0.41808746490478516,-5.333084197998047,12.735806093597411
1789031152857316000,1.238316162109375,-0.33758243408203126,-4.097227228546142,12.74388652420044
1789031152867323000,1.248322998046875,-0.24660277099609373,-3.735553140258789,12.498480854034423
1789031152877330200,1.258330078125,-0.505625463104248,-3.928884924316406,11.677718597412108
1789031152887337000,1.2683369140625,0.10564414825439453,-3.901351605224609,10.957213535308837
1789031152897344000,1.278343994140625,0.3161842567443848,-4.952256496429443,10.640281090545654
1789031152907350000,1.28835009765625,0.09861118087768554,-5.006574946594238,8.955062397003173
1789031152917357000,1.298357177734375,-0.3386298973083496,-3.527856146240234,7.2441060356140135
1789031152927364000,1.308364013671875,-0.572663109588623,-4.658667517852783,8.781183501434326
1789031152937371100,1.31837109375,-0.2754828285217285,-4.854243865966796,8.90657981338501
1789031152947378000,1.3283779296875,0.4487631736755371,-4.193593845367431,8.189067503356933
1789031152957384200,1.33838427734375,1.3657424095153807,-4.400991564178467,9.192237998962401
1789031152967391000,1.348390869140625,2.288108599090576,-5.39488452835083,9.712976860046385
1789031152977398000,1.35839794921875,3.112312520599365,-4.969614458465576,9.140164112854004
1789031152987405000,1.368405029296875,2.250998473358154,-5.334730211639404,7.4506059288024895
1789031152997411800,1.378411865234375,0.9261071296691894,-5.003881469726562,5.8357169090270995
1789031153007418000,1.388418212890625,-1.0075099861145018,-4.951508308410644,4.327669138336181
1789031153017425200,1.398425048828125,-2.877830395507812,-4.469824861907958,4.552873731994628
1789031153027432000,1.408431884765625,-3.6366426841735837,-4.447528858947754,6.0351838348388664
1789031153037439200,1.418439208984375,-3.478625374603271,-5.521926853942871,7.567023984527587
1789031153047445000,1.428445068359375,-3.8525697463989257,-6.826168208312988,8.219743212127685
1789031153057452000,1.4384521484375,-4.178330809783935,-7.758560117340087,8.748562503814696
1789031153067459000,1.448458984375,-4.4279263328552245,-7.596951505279541,9.053374302673339
1789031153077466000,1.458466064453125,-4.578611399841308,-6.798185976409911,9.063100746917724
1789031153087473200,1.46847314453125,-3.6553473846435547,-5.650615193176269,9.617508068847656
1789031153097479200,1.478479248046875,-2.8624177223205565,-4.751293194580078,10.152612139892577
1789031153107486000,1.48848583984375,-2.137273894500732,-4.3156981300354005,10.575936920928955
1789031153117493200,1.4984931640625,-2.0988170303344726,-4.243572805023193,10.327837773895263
1789031153127500000,1.5085,-1.9713257919311522,-4.106055847167968,10.08123500289917
1789031153137507000,1.518507080078125,-1.3386580032348632,-4.316745593261719,9.427318674468994
1789031153147513000,1.52851318359375,-2.001552587890625,-3.8607998146057128,8.167669326019286
1789031153157520100,1.53852001953125,-2.807949634552002,-3.2698809173583983,6.747608466339111
1789031153167527000,1.54852685546875,-3.4392706848144527,-2.7834090675354,6.03982260055542
1789031153177534200,1.5585341796875,-3.2345664428710936,-2.7041011375427244,6.062118603515625
1789031153187541000,1.568541015625,-3.161992205047607,-2.773832260894775,7.013514488220214
1789031153197547000,1.578547119140625,-2.9824270805358886,-3.190124074554443,7.459883460235595
1789031153207554000,1.588553955078125,-2.8067525337219235,-3.6358944961547848,7.272237905120849
1789031153217561000,1.59856103515625,-3.164685681915283,-5.01779776687622,7.4438722366333
1789031153227568000,1.608568115234375,-3.0033763450622555,-6.309768837738036,7.607126862335204
1789031153237575200,1.6185751953125,-3.3782185424804685,-6.321440570831299,8.829666085052489
1789031153247581000,1.628580810546875,-4.742015663146972,-5.305550878906249,9.37868645324707
1789031153257588200,1.638588134765625,-4.882824648284912,-4.790797521972656,9.267206438446044
1789031153267595000,1.648594970703125,-3.953874404144287,-4.802618892669678,9.65970587310791
1789031153277602000,1.65860205078125,-3.482067039489746,-4.793939911651611,9.46098713531494
1789031153287609000,1.668609130859375,-2.417545126342773,-4.8983869590759275,9.386916521453857
1789031153297615000,1.678614990234375,-1.2003928573608398,-4.509778102111816,10.256460636901854
1789031153307622000,1.688621826171875,-0.7020996368408202,-3.1482255455017087,9.744251119232176
1789031153317629200,1.698629150390625,-0.28580782318115233,-1.792658493041992,8.021922299957275
1789031153327636000,1.708635986328125,1.9879355659484863,-1.9111714752197264,7.972392253112792
1789031153337643300,1.718643310546875,3.889829509735107,-3.0747534820556637,7.1775173019409175
1789031153347649000,1.72864892578125,2.98122997970581,-4.064306955718994,7.115268058776855
1789031153357656000,1.738656005859375,0.429011009979248,-4.4659342842102046,7.576600791168213
1789031153367663000,1.7486630859375,-2.7501895195007324,-4.311358639526367,7.147739418792725
1789031153377670100,1.758670166015625,-5.480926150512695,-4.566790029144287,6.56310530090332
1789031153387677000,1.768677001953125,-6.356306132507324,-4.5221980232238765,7.066935112762451
1789031153397683200,1.77868310546875,-5.043984347534179,-4.828356560516357,7.768585836791992
1789031153407690000,1.78868994140625,-2.836680054473877,-4.519504546356201,7.592761652374267
1789031153417697000,1.798697021484375,-1.237203707885742,-3.21152225189209,8.78447552871704
1789031153427704000,1.8087041015625,0.0570119270324707,-2.3440730628967286,9.424325922393798
1789031153437711000,1.818711181640625,0.7465420051574707,-2.910002480316162,9.532813185119629
1789031153447716900,1.828716796875,1.5352818145751952,-3.7401919059753417,11.015123287963867
1789031153457724700,1.838724609375,0.8436568099975585,-5.131821620941162,12.376226931762695
1789031153467731500,1.8487314453125,-0.15427636947631834,-6.226570330047607,12.950984967803954
1789031153477738500,1.858738525390625,0.06554127044677734,-4.7631145652771,12.032509355926512
1789031153487745500,1.86874560546875,0.05027823486328125,-4.618265364837646,11.979388006591796
1789031153497751600,1.87875146484375,0.0022445640563964844,-5.386055909729004,11.756727252197265
1789031153507758300,1.88875830078125,0.2814683326721191,-6.25694676361084,10.429740982055664
1789031153517765600,1.898765625,-0.030825346374511717,-7.366509595489502,9.150040194702148
1789031153527772400,1.9087724609375,-0.15472528228759766,-7.812878567504883,7.989600577545166
1789031153537779500,1.918779541015625,-0.3703530693054199,-7.793126403808594,6.898892083740234
1789031153547785500,1.928785400390625,-0.13078326568603516,-7.438634920501708,6.121824007415771
1789031153557792500,1.93879248046875,0.15218144302368164,-6.960991689300537,6.389076767730712
1789031153567799600,1.948799560546875,-0.1292868896484375,-6.181679048919677,6.757484548187255
1789031153577806600,1.958806640625,-0.6522703147888184,-6.012738194274902,7.231985389709473
1789031153587813400,1.9688134765625,-1.3386580032348632,-6.092794312286377,7.9183730781555175
1789031153597819600,1.978819580078125,-1.9717747047424314,-5.456684858703613,7.466916427612304
1789031153607826400,1.988826416015625,-2.731335181427002,-5.140799877166748,6.655880615234374
1789031153617833500,1.99883349609375,-2.9670144073486324,-5.093364756774902,6.224924316406249
1789031153627840500,2.008840576171875,-2.639457692718506,-5.22265164642334,6.107458797454834
1789031153637846500,2.018846435546875,-2.318784307861328,-5.581033707427978,6.8822823097229
1789031153647853300,2.028853271484375,-2.5938182235717773,-5.659443811798095,7.423072609710693
1789031153657860600,2.038860595703125,-3.163338943481445,-5.537040251922607,6.979097839355468
1789031153667867400,2.048867431640625,-3.227234200286865,-6.038026949310303,6.498312218475341
1789031153677874700,2.058874755859375,-2.488772625732422,-6.573729570770263,7.051073526763916
1789031153687880400,2.06888037109375,-1.5306430488586424,-6.318896731567382,7.538742477416991
1789031153697887500,2.078887451171875,-1.859097589111328,-5.696853212738037,6.417358274841308
1789031153707894500,2.08889453125,-2.905363714599609,-5.660940187835693,4.756979423522949
1789031153717901600,2.098901611328125,-2.814234413909912,-5.622184048461913,4.098125054168701
1789031153727908400,2.108908447265625,-1.8529624473571775,-5.247192213439941,4.2600329414367675
1789031153737914600,2.11891455078125,-0.5196913978576659,-5.3205146392822265,4.500051657867432
1789031153747921400,2.12892138671875,0.8418611587524414,-5.29238276977539,4.515913243865967
1789031153757928400,2.138928466796875,2.019509100341797,-5.1325698089599605,6.4655415832519525
1789031153767935500,2.148935546875,1.4995184272766113,-3.9571664314270016,7.770082212829589
1789031153777942500,2.158942626953125,-1.0715548805236816,-2.6294319732666014,8.85495484008789
1789031153787948300,2.1689482421875,-3.9926305435180662,-0.8910919303894043,10.588805754852295
1789031153797955600,2.17895556640625,-6.234650760650634,0.7332242584228515,13.041665355682373
1789031153807962400,2.18896240234375,-6.868366012573242,0.20350714111328125,12.754959706878662
1789031153817969700,2.1989697265625,-5.4810757881164545,-1.5052046562194823,10.526855786895752
1789031153827976400,2.2089765625,-3.066224138641357,-3.521571366882324,9.64653776397705
1789031153837982500,2.218982421875,-1.5128361740112304,-2.953995935821533,10.36105732192993
1789031153847989500,2.228989501953125,-0.8984241729736328,-1.6121955429077148,11.17239240951538
1789031153857996500,2.23899658203125,-2.1326351287841794,-2.7322330070495604,11.716175461578368
1789031153868003300,2.24900341796875,-3.689464758300781,-3.7193922790527343,11.776030503082275
1789031153878010600,2.2590107421875,-4.554968658447265,-3.8525697463989257,11.128548591613768
1789031153888016400,2.269016357421875,-4.305073860168457,-3.7728129035949705,10.169221913909912
1789031153898023400,2.2790234375,-3.3764228912353516,-4.377348822784423,8.6689552986145
1789031153908030500,2.289030517578125,-2.5056816749572755,-5.43289247970581,7.269544428253173
1789031153918037500,2.29903759765625,-1.898003366088867,-6.026205578613281,6.4932245399475095
1789031153928044500,2.30904443359375,-1.1985972061157226,-5.587468124389648,6.308122824096679
1789031153938050600,2.319050537109375,-0.8346785537719726,-4.884321024322509,5.723937619018554
1789031153948057300,2.329057373046875,-1.7534534408569336,-4.684105910491943,5.928342585754394
1789031153958064600,2.339064697265625,-4.16306777420044,-4.469525586700439,6.865822173309326
1789031153968071400,2.349071533203125,-5.960065757751464,-3.99667075881958,7.069478952026366
1789031153978078500,2.359078369140625,-6.4225955909729,-3.2658407020568845,7.042843458557129
1789031153988084500,2.36908447265625,-5.417779081726074,-2.672527603149414,7.576451153564452
1789031153998091500,2.379091552734375,-4.4565071151733395,-2.51555775680542,7.6856866043090815
1789031154008098300,2.389098388671875,-3.8708255340576168,-2.248454634094238,7.761552869415283
1789031154018105600,2.399105712890625,-3.414131567382812,-4.407126705932617,8.705616511535643
1789031154028111400,2.409111328125,-3.2543186065673826,-5.491550420379638,8.936507334136962
1789031154038118400,2.419118408203125,-4.658667517852783,-4.486434635925293,9.345167630004882
1789031154048125400,2.42912548828125,-6.72261898651123,-4.198232611083984,9.496600885009766
1789031154058132500,2.439132568359375,-7.112724219512939,-4.286518797302246,9.310002793121336
1789031154068139500,2.449139404296875,-6.235698223876953,-4.699967496490478,8.585158240509033
1789031154078145500,2.4591455078125,-4.487332461547851,-3.5330934623718258,7.487566416931152
1789031154088152300,2.46915234375,-2.4829367591857907,-3.229927677154541,7.212831776428223
1789031154098159600,2.47915966796875,-2.118868469238281,-3.5666122856140134,6.298246742248534
1789031154108166400,2.48916650390625,-1.541716231536865,-3.9158664527893063,5.8086325027465815
1789031154118173400,2.49917333984375,-1.415272456359863,-5.896619413757324,5.662286926269531
1789031154128179500,2.509179443359375,-3.1147067222595215,-7.381174080657958,5.812523080444335
1789031154138186500,2.5191865234375,-6.310068112945556,-8.27391202468872,5.710919147491455
1789031154148193300,2.529193359375,-7.158513326263427,-7.583484120941161,5.590311238861084
1789031154158200600,2.53920068359375,-7.369651985168456,-5.585672473144531,5.1514241470336914
1789031154168207400,2.549207275390625,-7.62927322769165,-3.821894037628174,4.642207381439209
1789031154178213400,2.55921337890625,-5.849333930969238,-3.672406071472168,3.590554302215576
1789031154188220400,2.569220458984375,-3.990834892272949,-4.7670051429748534,3.509450720977783
1789031154198227500,2.5792275390625,-3.769221601104736,-5.275324082946777,4.443937556457519
1789031154208234500,2.589234375,-5.041590145874023,-5.95632481765747,5.238962145233154
1789031154218241500,2.599241455078125,-6.7465610031127925,-6.903979762268066,5.155464362335205
1789031154228247300,2.609247314453125,-7.363217568206787,-6.485443384552002,5.215469041442871
1789031154238254600,2.619254638671875,-7.073219892120361,-5.880757827758789,6.213252583312988
1789031154248261400,2.629261474609375,-7.077559382629394,-5.965751986694335,7.358728440093993
1789031154258268400,2.639268310546875,-6.956652198791503,-5.187935722351074,7.773823152923583
1789031154268274400,2.6492744140625,-6.263830093383788,-3.3276410324096677,9.026888446807861
1789031154278281500,2.659281494140625,-6.925677214813232,-3.160944741821289,10.197353783416748
1789031154288288300,2.669288330078125,-6.4746694770812985,-2.7823616043090817,10.477176102447508
1789031154298295600,2.679295654296875,-4.150647853088379,-4.806509470367431,9.106645289611816
1789031154308302300,2.68930224609375,-3.1420904037475585,-5.316025511169434,6.8314055244445795
1789031154318308400,2.699308349609375,-0.5038298118591308,-5.0106151618957515,5.199607455444336
1789031154328315400,2.7093154296875,0.7257423782348632,-4.438849877929687,5.174318700408935
1789031154338322400,2.719322509765625,0.2528875503540039,-5.687426043701172,4.120720332336425
1789031154348329500,2.72932958984375,-1.1459247695922852,-6.497115117645263,2.327014376068115
1789031154358336500,2.73933642578125,-2.1007623191833495,-5.457133771514893,0.8972270721435547
1789031154368342300,2.74934228515625,-3.540724980163574,-4.6532805641174315,0.30735563812255856
1789031154378349600,2.759349609375,-3.5788825691223143,-4.687248300170898,-0.9320926338195801
1789031154388356400,2.7693564453125,-3.0515596534729004,-4.297591979980469,-1.102529864501953
1789031154398363400,2.77936328125,-3.781491884613037,-4.154688068389892,-0.9187748870849609
1789031154408370400,2.789370361328125,-5.251830979156494,-4.208407968139648,-0.9356839363098144
1789031154418376400,2.79937646484375,-5.672013370513915,-4.597465737915039,-0.9029133010864258
1789031154428383200,2.80938330078125,-6.48634121017456,-5.598242031860352,-0.3829226280212402
1789031154438390500,2.819390625,-7.090278578948975,-6.93959351196289,-0.037708676147460936
1789031154448397300,2.829397216796875,-4.18177247467041,-7.30994658126831,-0.2654571090698242
1789031154458404900,2.83940478515625,-1.9638439117431639,-7.53320588607788,-0.37843349990844727
1789031154468410600,2.84941064453125,-0.3012204963684082,-8.17889214630127,0.3193266464233398
1789031154478417700,2.859417724609375,0.318578458404541,-9.40457375869751,0.8295908752441405
1789031154488424700,2.8694248046875,-2.009034468078613,-11.739668565368651,1.5951368560791015
1789031154498431700,2.879431640625,-4.636820427703857,-17.731906407928467,2.3868694175720213
1789031154508438500,2.8894384765625,-2.646341022491455,-22.264429425811766,2.8989292976379395
1789031154518444800,2.89944482421875,-5.764639047241211,-25.756222909545897,2.746448579406738
1789031154528451600,2.90945166015625,-5.425560237121582,-25.380333248901366,3.130119395446777
1789031154538458600,2.919458740234375,-2.1054010848999023,-22.301539551544188,3.7735610916137694
1789031154548465700,2.929465576171875,-0.2750339157104492,-16.865055769348142,3.7400422683715817
1789031154558472700,2.93947265625,0.23732523956298826,-11.341482901763916,3.9309798507690425
1789031154568478500,2.949478515625,-0.08245031967163086,-7.7587097549438475,6.032340720367431
1789031154578485800,2.95948583984375,-2.1396680961608885,-5.743390507507324,8.844180932617187
1789031154588492500,2.969492431640625,-4.542249462127685,-5.232228453063964,10.461015241241455
1789031154598499800,2.979499755859375,-6.594529197692871,-5.444863488006591,10.428843156433105
1789031154608506600,2.989506591796875,-7.048978600311279,-5.620837310028076,9.34127705230713
1789031154618512600,2.9995126953125,-5.494692810058593,-5.861155301666259,7.90340931777954
1789031154628519700,3.009519775390625,-3.7481226989746093,-6.380846699523925,7.006182245635986
1789031154638526700,3.019526611328125,-3.1815947311401365,-6.899041721343994,6.413916609954834
1789031154648533500,3.029533447265625,-3.079092972564697,-7.622539535522461,6.156689569091797
1789031154658539800,3.039539794921875,-2.778471026611328,-7.973140441131592,6.030844344329834
1789031154668546600,3.049546630859375,-3.333177623748779,-7.889343383026122,5.8283846664428705
1789031154678553600,3.0595537109375,-3.9613562843322754,-7.499687062835693,5.623381149291992
1789031154688560600,3.069560546875,-4.088997160339355,-6.800879453277587,5.7843912109375
1789031154698567700,3.079567626953125,-3.9639001235961913,-6.015880583953857,6.0142345703124995
1789031154708573700,3.08957373046875,-4.145111261749268,-5.5552960395812985,6.317101080322265
1789031154718580700,3.099580810546875,-4.6604631690979,-5.397129092407226,6.515819818115234
1789031154728587500,3.10958740234375,-4.8903065284729,-5.734561888885498,7.136366960906982
1789031154738594800,3.1195947265625,-5.818807859802246,-6.268319221496582,7.739855416870117
1789031154748601600,3.1296015625,-6.477512591552734,-5.219209981536865,7.621940985107422
1789031154758607600,3.139607666015625,-7.508515681457519,-4.075978688812255,7.310994044494628
1789031154768614700,3.14961474609375,-8.677634279632567,-3.953874404144287,6.667851623535156
1789031154778621700,3.15962158203125,-7.660846762084961,-4.5121723037719725,5.960664308166503
1789031154788628500,3.16962841796875,-5.6295162910461425,-4.833893151855468,5.1231426399230955
1789031154798635800,3.1796357421875,-4.505288973999023,-4.802618892669678,4.720467848205566
1789031154808641800,3.189641845703125,-3.5793314819335937,-4.492719415283203,5.023932908630371
1789031154818648600,3.199648681640625,-3.582174596405029,-3.7478234237670898,5.548562347412109
1789031154828655600,3.209655517578125,-4.676025479888915,-2.7582699501037595,6.470928536987304
1789031154838662700,3.21966259765625,-6.701220809173583,-1.8525135345458983,7.398681680297851
1789031154848669700,3.229669677734375,-7.9457567596435545,-1.7459715606689452,8.31296743927002
1789031154858675700,3.23967578125,-9.004742081451415,-2.248454634094238,8.801983128356934
1789031154868682500,3.2496826171875,-9.664643914031982,-3.5052608680725097,9.30147344970703
1789031154878689800,3.259689697265625,-9.395445864868163,-5.429151539611816,9.459939672088623
1789031154888696600,3.269696533203125,-7.719803977966309,-6.816591401672363,9.412654189300536
1789031154898703600,3.27970361328125,-5.316474423980712,-6.566098052978515,8.601618376922607
1789031154908710000,3.2897099609375,-4.327220225524902,-3.669712594604492,6.926425402832031
1789031154918716700,3.299716552734375,-7.018003616333007,-2.0992659431457517,7.3946414649963375
1789031154928723500,3.309723388671875,-8.36908154067993,-3.19236863861084,9.277531433105468
1789031154938730800,3.319730712890625,-2.360832474517822,-3.925892172241211,5.648220991516113
1789031154948737500,3.329737548828125,-7.029824987030029,-3.180547267913818,4.66659831085205
1789031154958743600,3.33974365234375,-8.181435985565185,-4.3436803619384765,6.432770948028564
1789031154968750600,3.34975048828125,-7.751527149963379,-5.188683910369873,8.628553145599366
1789031154978757600,3.359757568359375,-8.147468249511718,-5.552452925109863,10.004770187377929
1789031154988764700,3.3697646484375,-7.4821794631958,-5.238064319610595,9.402478832244872
1789031154998771700,3.379771728515625,-7.923161481475829,-4.336797032165527,8.523956460571288
1789031155008777700,3.38977783203125,-6.628646571350097,-3.8385038116455075,7.602488096618652
1789031155018784800,3.39978466796875,-5.3579240402221675,-2.8597242454528806,6.291961962890625
1789031155028791600,3.40979150390625,-4.468328485870361,-2.31743756942749,5.040093769836425
1789031155038798600,3.419798583984375,-4.099621430206299,-2.723554026031494,4.253149611663818
1789031155048804900,3.429804931640625,-3.9462428863525387,-1.7561469177246092,4.461445156097412
1789031155058811600,3.439811767578125,-3.7433342956542965,-0.23119009780883787,4.8707040023803705
1789031155068818700,3.449818603515625,-5.624129337310791,-0.5274725532531738,5.350292522430419
1789031155078825700,3.45982568359375,-7.474099032592773,-0.9229647399902343,5.388599748992919
1789031155088832500,3.46983251953125,-8.412027532958984,-1.0694599540710448,5.806836851501465
1789031155098838500,3.479838623046875,-8.011148392486572,-1.6870143447875976,6.190208392333984
1789031155108845800,3.489845703125,-7.067982575988769,-2.4199393280029295,6.477512591552734
1789031155118852600,3.4998525390625,-6.353463018035888,-3.379116368103027,6.771849758148193
1789031155128859600,3.509859619140625,-5.613205792236328,-4.331110803222656,6.588244418334961
1789031155138866700,3.51986669921875,-6.814646112823486,-4.356100283050536,5.965452711486816
1789031155148872700,3.529872802734375,-7.5254247306823725,-3.8672342315673824,4.369418029785156
1789031155158879700,3.539879638671875,-8.059331700897216,-2.7925369613647457,2.744054377746582
1789031155168886800,3.54988671875,-8.627655319976807,-1.266682315826416,1.778742195892334
1789031155178893600,3.5598935546875,-6.476614765930176,-0.09157821350097656,2.4576480041503905
1789031155188900600,3.569900634765625,-7.4399816589355465,-0.3450643142700195,4.088398609924316
1789031155198906600,3.57990673828125,-8.231564582824706,-1.2972083869934081,5.29253240737915
1789031155208913700,3.58991357421875,-7.134421672058105,-1.8447323791503905,6.425139430236816
1789031155218920700,3.599920654296875,-7.236324880218506,-2.166752502441406,6.733243256378174
1789031155228927500,3.609927490234375,-7.454646144104004,-2.300229244995117,6.241534090423584
1789031155238934800,3.619934814453125,-7.661744587707519,-2.0102315689086914,5.970839665222168
1789031155248940800,3.62994091796875,-7.335085698699951,-1.3651438591003417,5.65001664276123
1789031155258947600,3.639947509765625,-7.652018143463135,-0.75971011428833,5.052962603759766
1789031155268955000,3.649954833984375,-8.50450357208252,-0.28161797027587887,3.800046947479248
1789031155278961700,3.659961669921875,-7.14414811630249,-0.1406593475341797,3.403507297515869
1789031155288968400,3.669968505859375,-6.996455801391601,-0.9485527702331542,3.6017771224975585
1789031155298974700,3.679974609375,-7.715314849853515,-2.473210314941406,4.9157449211120605
1789031155308981800,3.689981689453125,-8.179341059112549,-4.023006977081298,6.613682810974121
1789031155318988500,3.699988525390625,-7.325209616851806,-4.565742565917969,6.663362495422363
1789031155328995600,3.70999560546875,-7.039850706481933,-3.5631706207275387,4.30971262588501
1789031155339002600,3.720002685546875,-7.075614093780517,-2.2361843505859373,1.543062969970703
1789031155349008600,3.730008544921875,-7.723544918060302,-1.0966939979553223,1.5523405014038085
1789031155359015700,3.740015625,-8.81006355895996,-0.5231330627441406,3.406799324798584
1789031155369022700,3.750022705078125,-9.481637124633789,-1.1733084510803222,5.136610024261475
1789031155379029800,3.76002978515625,-10.228927317810058,-1.2164040809631347,4.940435125732422
1789031155389036500,3.77003662109375,-8.729259252929687,-1.0121487518310546,4.280383655548095
1789031155399042600,3.78004248046875,-7.801057196807861,-0.9124901077270507,4.704606262207031
1789031155409049900,3.7900498046875,-6.944381915283203,-0.9226654647827148,4.0060979278564455
1789031155419056600,3.800056640625,-6.615328824615478,-1.7983447219848632,3.0684687026977535
1789031155429063700,3.810063720703125,-7.1601593399047845,-1.9192519058227537,1.8724153358459472
1789031155439070700,3.82007080078125,-6.951414882659912,-0.7972691528320313,1.8062755149841307
1789031155449076700,3.83007666015625,-7.579593543243408,-0.043544542694091797,3.012055326080322
1789031155459083500,3.84008349609375,-8.200739236450195,-0.6955155822753906,4.44378791885376
1789031155469090600,3.850090576171875,-7.974487179565429,-1.034893667602539,4.405630329895019
1789031155479097600,3.86009765625,-8.145672598266602,-1.5237597190856933,3.0301614761352536
1789031155489103600,3.870103515625,-8.17799432067871,-0.9280524185180663,2.363525951385498
1789031155499110700,3.880110595703125,-7.907599170684814,0.7321767951965331,3.13460852355957
1789031155509117700,3.89011767578125,-7.5996449821472165,1.9795558601379393,4.733785594940185
1789031155519124500,3.90012451171875,-6.192153681182861,1.6792331893920898,5.8372132850646965
1789031155529131800,3.9101318359375,-5.743240869903564,0.16744447860717773,5.831676693725585
1789031155539138600,3.920138671875,-6.99076957244873,-0.9590274024963379,4.938938749694824
1789031155549144600,3.93014453125,-8.200290323638916,-1.1774983039855957,3.9917327178955078
1789031155559151600,3.940151611328125,-8.195352282714843,-0.7023989120483398,3.5392286041259764
1789031155569158700,3.95015869140625,-7.493551921081543,-0.0073322425842285155,3.6514568069458004
1789031155579165700,3.960165771484375,-6.654982789611816,-0.026785131072998045,4.038868563079833
1789031155589171700,3.970171630859375,-6.2015808502197265,-0.5134066184997559,4.282478582000732
1789031155599178500,3.980178466796875,-6.522254235076904,-1.7675193756103516,4.134786267089844
1789031155609185800,3.990185791015625,-7.0938698814392085,-2.7328315574645994,3.5428199066162107
1789031155619192600,4.000192626953125,-7.027281147766113,-3.407397875213623,3.1477766326904293
1789031155629199600,4.01019970703125,-7.867795568084716,-4.342782536315918,2.7350761215209958
1789031155639205600,4.02020556640625,-7.764695259094238,-4.891353991699218,1.8652327308654784
1789031155649212700,4.030212646484375,-5.424363136291504,-3.2468367263793945,2.18994633102417
1789031155659219500,4.040219482421875,-5.326799418640136,-2.5378537597656248,3.171569011688232
1789031155669226800,4.050226806640625,-5.4698529678344725,-1.9419968215942383,4.971559747314453
1789031155679233500,4.060233642578125,-5.878213988494872,-2.831442738342285,6.23120909576416
1789031155689239600,4.070239501953125,-6.86956311340332,-4.891353991699218,6.595726298522949
1789031155699246600,4.08024658203125,-7.953089002227783,-5.862801315307617,6.285677183532714
1789031155709253600,4.090253662109375,-7.474996858215332,-6.355408306884765,5.762244845581054
1789031155719260700,4.1002607421875,-6.2952539901733395,-6.227468155670166,5.555146401977539
1789031155729267700,4.110267822265625,-5.795763668823242,-5.867888993835449,5.466261665344238
1789031155739273500,4.1202734375,-5.034706816101074,-5.9498904006958,5.703137992095947
1789031155749280800,4.13028076171875,-4.342782536315918,-6.162226160430908,6.066458094024658
1789031155759287600,4.14028759765625,-4.447528858947754,-6.61383244857788,6.327725350189208
1789031155769294600,4.150294677734375,-5.689072057342529,-6.9804445777893065,6.323685134887695
1789031155779301600,4.160301513671875,-7.144597029113769,-7.281814711761474,6.502502071380615
1789031155789307600,4.1703076171875,-7.838915510559081,-7.353940036773682,6.749703392791748
1789031155799314400,4.180314453125,-7.615656205749511,-7.467814253234863,7.039401793670653
1789031155809321700,4.19032177734375,-6.697928781890869,-7.989002027130127,7.438934195709228
1789031155819328500,4.20032861328125,-6.048800856781005,-8.48475140838623,7.583933033752441
1789031155829335800,4.210335693359375,-5.604377173614502,-8.589647368621826,7.211933950805664
1789031155839342600,4.220342529296875,-5.990442191314697,-8.649053497314453,6.339845996093749
1789031155849348600,4.2303486328125,-6.205022515106201,-8.558822022247314,5.534646050262451
1789031155859355600,4.240355712890625,-5.979069733428955,-8.31251852645874,5.478531948852539
1789031155869362700,4.25036279296875,-5.461473262023925,-8.62511148071289,6.607846944427489
1789031155879369500,4.260369384765625,-4.199429711914062,-8.26792652053833,7.8624086143493646
1789031155889375700,4.270375732421875,-3.944297597503662,-7.462427299499511,8.380154723358153
1789031155899382500,4.280382568359375,-4.367023828124999,-6.430825659179687,8.122478769683838
1789031155909389600,4.2903896484375,-5.092167655944824,-5.205892234802246,7.504176190948486
1789031155919396600,4.300396728515625,-4.44962378540039,-4.859780457305908,6.858938843536377
1789031155929403600,4.310403564453125,-2.835482953643799,-5.913079550170898,6.45461803817749
1789031155939410700,4.32041064453125,-2.057816326904297,-6.370222429656982,5.7243865318298335
1789031155949416700,4.330416748046875,-1.9048866958618162,-7.133074933624267,4.96647206878662
1789031155959423500,4.340423583984375,-2.8217162940979,-9.328857131195068,4.540004898071289
1789031155969430800,4.3504306640625,-3.6137481307983395,-10.11909331665039,4.246864832305908
1789031155979437600,4.3604375,-5.025578922271729,-8.973318184661865,4.529081352996826
1789031155989444600,4.370444580078125,-5.370792874145508,-6.863876884460449,5.124938291168212
1789031155999450600,4.38045068359375,-4.907365215301513,-5.1422962532043455,5.552004012298584
1789031156009457700,4.390457763671875,-3.778199857330322,-7.247697338104247,5.294776971435547
1789031156019464400,4.40046435546875,-2.712630480957031,-7.669825018310546,4.145260899353027
1789031156029471700,4.4104716796875,-2.457348728942871,-11.521945851898193,3.5996821960449217
1789031156039478500,4.420478515625,-4.803367080688476,-28.0669267868042,6.733841806793213
1789031156049484500,4.430484619140625,-10.231620794677733,-24.544756869506834,4.991910461425781
1789031156059491600,4.44049169921875,-14.973037907409667,-27.744607388305663,6.695983493041992
1789031156069498600,4.45049853515625,-10.889427700805664,-15.147664990997313,4.773589197540283
1789031156079505700,4.460505615234375,-5.9208607055664055,-8.773701621246337,3.750067987823486
1789031156089512700,4.4705126953125,-0.6266822845458984,-5.290736756134033,2.8574796813964842
1789031156099518500,4.4805185546875,2.4774001678466795,-2.5740660598754883,2.654720728302002
1789031156109525800,4.49052587890625,2.6418518943786617,-0.702847824859619,2.8974329216003416
1789031156119532500,4.500532470703125,1.1546037506103515,0.39324762268066404,3.750816175842285
1789031156129539600,4.51053955078125,0.17791911087036133,0.8119336380004882,5.172822324371338
1789031156139546600,4.520546630859375,-1.0998363876342774,0.757166275024414,6.2681695838928215
1789031156149552600,4.530552734375,-1.8185457984924316,-0.050128597259521485,7.024438033294677
1789031156159559400,4.540559326171875,-3.264344326019287,-1.2530652938842772,7.314585346984863
1789031156169566700,4.550566650390625,-5.63729744644165,-2.357091534423828,7.3843164703369135
1789031156179573500,4.560573486328125,-8.03748461074829,-3.4856583419799803,7.630171053314209
1789031156189580800,4.570580810546875,-10.230573331451415,-5.023633633422851,8.167669326019286
1789031156199586600,4.580586669921875,-11.284022061920165,-6.809857709503174,8.966584492492675
1789031156209593600,4.590593505859375,-10.454281549072265,-8.34394242324829,9.55032078475952
1789031156219600600,4.6006005859375,-8.058882788085937,-9.166051418304443,9.737367789459228
1789031156229607700,4.610607666015625,-5.406406623840332,-9.041852207183837,9.51814869995117
1789031156239614500,4.620614501953125,-3.6004303840637206,-7.849090867614746,8.920047197723388
1789031156249621500,4.63062158203125,-3.039588645172119,-6.240636264801025,8.335263442230223
1789031156259627500,4.64062744140625,-3.6577415863037106,-5.223998384857177,8.186972576904296
1789031156269634600,4.650634521484375,-5.513098235321045,-4.414159673309326,7.5260232810974115
1789031156279641600,4.6606416015625,-6.897545345306396,-3.7898715904235836,6.931064168548583
1789031156289648600,4.670648681640625,-7.479934899139404,-4.230853608703613,6.911760917663574
1789031156299655700,4.68065576171875,-7.407061386108398,-5.055955355834961,6.950068144226074
1789031156309661700,4.69066162109375,-6.677578067779541,-5.474791008758545,7.000346379089355
1789031156319668500,4.70066845703125,-6.174047531127929,-5.022586170196533,6.89515114364624
1789031156329675800,4.71067578125,-5.533748224639893,-3.5131916610717773,6.98403588027954
1789031156339682600,4.7206826171875,-5.71361262435913,-1.9122189384460448,7.11870972366333
1789031156349689600,4.730689697265625,-5.953481703186035,-1.0193313568115234,7.483077288818359
1789031156359695600,4.740695556640625,-6.691195089721679,-0.9377788627624511,7.703792754364013
1789031156369702700,4.75070263671875,-7.510760245513915,-1.1273697067260742,7.570764924621582
1789031156379709400,4.76070947265625,-7.029824987030029,-1.8873790962219237,7.318176649475097
1789031156389716700,4.770716796875,-6.758681649017333,-3.4070986000061034,6.847416748046874
1789031156399723500,4.7807236328125,-7.094767707061767,-4.285321696472168,5.6964042999267575
1789031156409729500,4.7907294921875,-6.853402252197265,-4.000112423706055,5.410147563934326
1789031156419736600,4.800736572265625,-7.6568065467834465,-3.3261446563720702,5.8743234107971185
1789031156429743600,4.81074365234375,-8.493131114196776,-2.9097032051086424,6.4728738258361815
1789031156439750700,4.820750732421875,-7.375787126922607,-2.6900352027893066,6.686556324005126
1789031156449757700,4.8307578125,-8.065766117858887,-1.8315642700195311,7.1209542877197265
1789031156459764500,4.840764404296875,-8.798541463470459,-1.8620903411865233,8.092401611328125
1789031156469770500,4.8507705078125,-8.425943830108642,-2.990208235931396,7.882011140441894
1789031156479777500,4.860777587890625,-7.6196964210510245,-3.877110313415527,6.5695397178649895
1789031156489784600,4.87078466796875,-6.14157617111206,-4.414159673309326,4.498106369018554
1789031156499791600,4.88079150390625,-4.809352584838867,-3.3563714523315427,3.2124200775146483
1789031156509798400,4.89079833984375,-4.558111048126221,-1.3040917167663573,4.0261493667602535
1789031156519804400,4.900804443359375,-7.032069551086425,-0.0743698890686035,6.488735411834717
1789031156529811700,4.910811767578125,-8.603713303375244,-0.5936123741149902,7.277924134063721
1789031156539818500,4.920818603515625,-7.014561951446533,-2.0274398933410644,5.801898810577392
1789031156549825500,4.930825439453125,-4.817881928253174,-2.884414450073242,4.129698588562012
1789031156559832600,4.94083251953125,-3.141641490936279,-2.467524085998535,3.040785746002197
1789031156569838600,4.950838623046875,-2.932298483276367,-1.4080898513793945,1.5433622451782225
1789031156579845400,4.960845458984375,-4.622754492950439,-0.27099370040893556,0.5671265182495117
1789031156589852700,4.970852783203125,-6.518962207794189,-0.25363573837280273,1.4972738632202147
1789031156599859500,4.980859375,-6.068403382873535,-0.3504512680053711,3.5390789665222164
1789031156609866500,4.990866455078125,-5.831826331329346,-1.3037924415588378,4.985326406860351
1789031156619872500,5.00087255859375,-6.124517484283447,-2.1499930908203124,6.21819062423706
1789031156629879600,5.010879638671875,-5.12643466720581,-2.7578210372924805,6.593032821655273
1789031156639886600,5.020886474609375,-4.911704705810546,-2.1856068405151365,5.603778623199463
1789031156649893600,5.0308935546875,-5.743989057922363,-0.6965630455017089,4.048445369720459
1789031156659900400,5.040900390625,-5.674706847381591,0.5294178421020508,3.095702746582031
1789031156669907500,5.050907470703125,-7.176469838714599,1.374571028137207,2.8898014038085935
1789031156679913500,5.06091357421875,-7.685237691497802,1.7132009254455565,3.12847338180542
1789031156689920500,5.07092041015625,-7.6990043510437,1.421108322906494,4.076128326416016
1789031156699927600,5.080927490234375,-6.976703637695312,0.8864531646728515,4.253748162078857
1789031156709934600,5.0909345703125,-6.347926426696777,0.6842927619934082,3.4261025756835934
1789031156719941600,5.100941650390625,-6.4448915939331055,0.7558195365905761,2.550572956085205
1789031156729947600,5.11094775390625,-6.8122519111633295,0.7228992637634277,1.976563108062744
1789031156739954400,5.120954345703125,-6.181080498504638,0.636558366394043,2.0638018310546875
1789031156749961700,5.130961669921875,-6.367229677581787,0.340275910949707,2.264765132904053
1789031156759968500,5.140968505859375,-7.551012760925293,0.3275567146301269,2.5758617111206052
1789031156769975300,5.150975341796875,-8.125621159362792,0.07332242584228515,3.0639795745849607
1789031156779981600,5.160981689453125,-7.509712782287597,-0.18809446792602538,3.8028900619506834
1789031156789988600,5.170988525390625,-6.694487117004394,-0.47285482788085936,4.843469958496094
1789031156799995400,5.180995361328125,-6.8499605873107905,-0.960224503326416,5.366902296447754
1789031156810002700,5.191002685546875,-7.342866854095458,-1.3060370056152344,5.7897781646728514
1789031156820009500,5.201009521484375,-7.257872695159912,-1.7265186721801757,6.590189707183837
1789031156830016500,5.2110166015625,-6.878391732025146,-2.0239982284545897,6.706308487701415
1789031156840022500,5.2210224609375,-5.409848288726806,-2.5450363647460934,7.107337265777588
1789031156850029600,5.231029541015625,-4.981585466766357,-3.124582804107666,7.369651985168456
1789031156860036600,5.24103662109375,-5.718700302886963,-3.618386896514892,6.635679538726806
1789031156870043400,5.25104345703125,-6.621463966369628,-3.443759812927246,5.013907189178466
1789031156880050400,5.261050537109375,-7.897872726440429,-1.8058266021728515,2.9698575218200682
1789031156890056700,5.271056640625,-7.302015788269043,-0.4703109886169433,3.2323218788146972
1789031156900063500,5.2810634765625,-6.739228760528564,0.29927520751953124,3.8886324089050293
1789031156910070500,5.291070556640625,-4.985775319671631,-0.1541267318725586,4.608090007781982
1789031156920077600,5.30107763671875,-3.534739476013183,-2.1719898185729978,6.05897621383667
1789031156930084400,5.31108447265625,-4.368071291351318,-3.629908992004394,6.287921747589111
1789031156940090600,5.321090576171875,-4.145560174560547,-5.24794040145874,6.711096891021728
1789031156950097700,5.33109765625,-4.586093280029297,-6.6271501953125,7.082497423553466
1789031156960104400,5.3411044921875,-5.696703575134277,-7.3754878517150875,7.249642626953125
1789031156970111500,5.351111572265625,-7.0467340362548825,-7.045387297821044,7.196371640014648
1789031156980118500,5.361118408203125,-7.066486199951171,-5.606921012878417,7.434295429992676
1789031156990125600,5.37112548828125,-6.593781009674072,-3.235613906097412,6.900238822174072
1789031157000131600,5.381131591796875,-4.58354944076538,-3.2351649932861326,7.382969731903076
1789031157010138600,5.391138671875,-2.66220260848999,-5.001038355255127,8.743624462890624
1789031157020145700,5.401145751953125,-3.3186627761840817,-6.068253745269775,9.034819239807128
1789031157030152400,5.41115234375,-3.3571196403503416,-7.370699448394775,8.91885009689331
1789031157040159500,5.421159423828125,-4.3153988548278805,-8.558971659851073,8.019528098297119
1789031157050165800,5.431165771484375,-6.969221757507324,-8.604311853790282,5.429899727630615
1789031157060172500,5.441172607421875,-8.071153071594237,-9.438990407562255,5.087678527832031
1789031157070179600,5.4511796875,-8.183081999206543,-10.470143135070801,6.882880860137939
1789031157080186600,5.4611865234375,-8.113201238250731,-11.199027902984618,8.569147016906738
1789031157090193400,5.471193359375,-6.9819409538269035,-10.819995852661132,9.69112976989746
1789031157100200700,5.48120068359375,-5.858162549591064,-9.003395343017578,10.078391888427733
1789031157110206700,5.491206787109375,-5.456385583496093,-7.536049000549316,9.738115977478026
1789031157120213500,5.501213623046875,-5.099200623321533,-7.4821794631958,8.531887253570556
1789031157130220500,5.511220458984375,-4.945822079467773,-8.084171543121338,7.170633972167968
1789031157140227600,5.5212275390625,-5.015253927612305,-9.574711714172363,7.535001537322998
1789031157150234400,5.531234375,-5.5270145324707025,-10.857554891204833,8.968380143737793
1789031157160240600,5.54124072265625,-6.221931564331054,-11.488576666259766,10.24089832611084
1789031157170247700,5.55124755859375,-7.2900447799682615,-12.145485746765136,10.87281792678833
1789031157180254500,5.56125439453125,-8.492382926177978,-12.138003866577147,10.067468343353271
1789031157190261500,5.571261474609375,-8.143876947021484,-10.997017137908935,8.513332190704345
1789031157200268500,5.5812685546875,-6.591386808013915,-9.02808554763794,6.994660150146484
1789031157210275600,5.591275634765625,-5.560234080505371,-7.148487606811523,5.5163902626037595
1789031157220281600,5.601281494140625,-5.286696540832519,-5.882403841400146,4.193294570159912
1789031157230288400,5.611288330078125,-4.6246997817993165,-5.80354482421875,3.552695988464355
1789031157240295700,5.621295654296875,-2.3122002532958983,-7.142053189849853,4.0343794349670405
1789031157250302500,5.631302490234375,-1.906383071899414,-7.492055545043945,4.093037375640869
1789031157260309500,5.6413095703125,-3.7484219741821287,-6.685808135986328,4.339789784240723
1789031157270315500,5.6513154296875,-5.087678527832031,-6.669647274780273,5.821052423858642
1789031157280322600,5.661322509765625,-5.6191912963867185,-6.310816300964355,7.190236498260497
1789031157290329300,5.671329345703125,-4.777180500030517,-6.049100131988525,7.6014406333923334
1789031157300336600,5.681336669921875,-3.7831378982543944,-5.732018049621582,6.222679752349853
1789031157310343400,5.691343505859375,-0.8892962791442871,-4.99280828704834,4.636371514892578
1789031157320350700,5.701350830078125,1.8951602516174315,-5.044882173156738,4.820725042724609
1789031157330356500,5.7113564453125,-0.13033435287475587,-3.815160345458984,4.744709140014648
1789031157340363500,5.721363525390625,-1.6781857261657713,-3.242497235870361,5.750573112487793
1789031157350370600,5.73137060546875,-3.510797459411621,-3.574393441009521,7.206546997070312
1789031157360377600,5.741377685546875,-5.931933888244629,-3.5423709938049313,8.183231636810302
1789031157370384400,5.75138427734375,-7.155370936584473,-3.5185786148071285,8.901791410064696
1789031157380390700,5.761390625,-8.16587367477417,-3.734056764221191,9.574113163757323
1789031157390397400,5.7713974609375,-8.552686880493164,-3.878606689453125,10.506205797576904
1789031157400404500,5.781404541015625,-8.643516905975341,-4.016871835327148,10.784531740570067
1789031157410411500,5.79141162109375,-8.388684066772461,-3.7452795845031734,10.165331336212157
1789031157420418600,5.80141845703125,-7.9749360923767085,-3.23681100692749,9.092280079650878
1789031157430425600,5.811425537109375,-6.265027194213867,-2.9050644393920897,8.457816639709472
1789031157440431600,5.821431640625,-4.2122985458374025,-2.7180174346923827,8.170512440490722
1789031157450438400,5.8314384765625,-4.078073615264892,-2.4069208564758298,8.026112152862549
1789031157460445700,5.84144580078125,-4.762516014862061,-2.768295669555664,8.333617428588866
1789031157470452700,5.85145263671875,-5.374533814239502,-3.6930560607910152,8.774599446868896
1789031157480459800,5.861459716796875,-6.680121907043457,-4.442890093231201,9.029282648468017
1789031157490465500,5.871465576171875,-8.848071510314941,-3.6719571586608883,8.061576264953613
1789031157500472800,5.881472900390625,-7.776666267395019,-2.8526912780761715,8.244732691955566
1789031157510479600,5.891479736328125,-6.555623420715332,-3.065775225830078,9.619303720092773
1789031157520486700,5.901486572265625,-6.16716420135498,-3.8124668685913083,10.497077903747558
1789031157530493700,5.91149365234375,-5.587767399597167,-5.4227171226501465,11.318438710784912
1789031157540500700,5.921500732421875,-7.528267845153808,-5.551106186676025,9.696516723632811
1789031157550506500,5.931506591796875,-6.8596870315551755,-4.426130681610108,7.1592615142822265
1789031157560513800,5.941513671875,-4.7016135101318355,-3.9962218460083005,6.519411120605469
1789031157570520600,5.9515205078125,-4.346523476409912,-3.0919618064880368,6.242731191253662
1789031157580527900,5.96152783203125,-5.335328762054443,-1.3634978454589843,5.560982268524169
1789031157590534700,5.97153466796875,-7.358279527282715,-0.17268179473876952,4.051887034606933
1789031157600541700,5.981541748046875,-8.905382712554932,-0.7849988693237304,1.8529624473571775
1789031157610547700,5.991547607421875,-6.287173559570312,-2.2870611358642576,-0.19437924728393555
1789031157620554800,6.0015546875,-1.98554136428833,-2.7180174346923827,0.38621465530395505
1789031157630561500,6.0115615234375,-3.384353684234619,-3.33257907333374,4.918438397979736
1789031157640568800,6.02156884765625,-8.030002730560302,-4.510825565338134,9.775226103210448
1789031157650575600,6.03157568359375,-9.19986951675415,-4.458003491210937,11.812242803192138
1789031157660581600,6.04158154296875,-8.048258518218994,-3.6168905204772948,9.502586389160156
1789031157670588700,6.051588623046875,-7.180210778808593,-2.6530747146606446,6.51192924041748
1789031157680595700,6.061595703125,-6.12930588760376,-1.3958195678710936,5.163694430541992
1789031157690602800,6.071602783203125,-1.1839327209472656,-0.3616740882873535,3.822342950439453
1789031157700609800,6.08160986328125,1.2237363235473633,0.4649240348815918,1.8752584503173828
1789031157710616600,6.091616455078125,0.2950853546142578,-0.047884033203124995,0.5211877738952636
1789031157720622800,6.101622802734375,-6.048202306365966,-1.2617442749023438,-0.9379285003662109
1789031157730629600,6.111629638671875,-8.488492348480223,-0.37289690856933594,-2.9439702163696286
1789031157740636700,6.12163671875,-6.15459464263916,1.3774141426086426,-2.4245780937194823
1789031157750643700,6.131643798828125,-4.715529807281494,1.39177935256958,2.631077986907959
1789031157760650800,6.141650634765625,-2.9103017555236814,-0.5957073005676269,8.35112502822876
1789031157770657800,6.15165771484375,-2.577208449554443,-3.564367721557617,8.23560479812622
1789031157780663800,6.161663818359375,-4.580556688690185,-3.9823055488586423,2.19608147277832
1789031157790670600,6.171670654296875,-9.424924472808838,-2.543539988708496,-3.4675521919250487
1789031157800678000,6.181677978515625,-11.901875727844237,2.1122844146728514,-4.276941990661621
1789031157810684700,6.1916845703125,-9.427468312072753,5.792022728729248,0.8822633117675781
1789031157820691700,6.201691650390625,-4.613925874328613,5.481973613739013,7.32251613998413
1789031157830697700,6.21169775390625,-5.770175638580322,2.7653029174804686,10.124779545593261
1789031157840704800,6.221704833984375,-7.688828993988037,0.579696076965332,9.017461277770996
1789031157850711800,6.2317119140625,-7.369053434753417,0.05985504150390625,7.088782202911377
1789031157860718800,6.24171875,-8.494627490234375,0.6030395431518555,6.0622682411193844
1789031157870725600,6.2517255859375,-9.69696563644409,1.822137100982666,5.209034624481201
1789031157880732700,6.261732666015625,-10.090063621520995,2.25997672958374,5.27352843170166
1789031157890738700,6.27173876953125,-10.319757343292236,1.8926164123535154,7.936329590606689
1789031157900745700,6.281745849609375,-8.465897070312499,1.2412439231872558,10.698939031219481
1789031157910752800,6.291752685546875,-7.301566875457763,-0.40611645660400386,11.653028392791747
1789031157920759600,6.301759521484375,-7.482927651214599,-2.8878561149597166,12.31487551422119
1789031157930766800,6.311766845703125,-7.019799267578125,-5.137058937072753,12.511948238372803
1789031157940773600,6.321773681640625,-6.12930588760376,-6.312611952209473,11.666346139526366
1789031157950779600,6.331779541015625,-5.6878749565124505,-5.9783215454101555,9.843909763336182
1789031157960787000,6.341786865234375,-6.82512074508667,-2.609829447174072,5.785588311767578
1789031157970793700,6.351793701171875,-5.208735349273681,1.1605892547607422,1.9282301620483397
1789031157980800500,6.361800537109375,-3.2236428977966307,2.841618095397949,0.36795886764526364
1789031157990807800,6.371807861328125,-1.0199299072265624,3.3113305335998535,0.6039373687744141
1789031158000813800,6.381813720703125,-0.8225579078674315,2.8357822288513184,1.4344260696411133
1789031158010820600,6.391820556640625,-2.1493945404052734,1.617133583831787,2.3593360984802243
1789031158020827600,6.40182763671875,-3.0041245330810544,-0.06718728408813476,3.327491394805908
1789031158030834700,6.411834716796875,-3.3515830490112304,-1.6774375381469726,4.131045326995849
1789031158040841700,6.421841796875,-3.8275802665710446,-2.602197929382324,4.335300656127929
1789031158050848800,6.431848876953125,-3.575740179443359,-3.49224239654541,4.292205026245117
1789031158060854800,6.441854736328125,-3.753360015106201,-4.8500540130615235,4.634276588439941
1789031158070861800,6.45186181640625,-5.252878442382812,-6.366481489562988,5.242254172515869
1789031158080868600,6.46186865234375,-6.31425796585083,-7.681796026611328,5.903951656341552
1789031158090875600,6.471875732421875,-5.699696327209472,-8.686313260650634,6.636876639556885
1789031158100882700,6.481882568359375,-5.5549967643737785,-8.413673546600341,6.779331638336181
1789031158110889700,6.4918896484375,-5.941959607696533,-7.309048755645752,6.274454363250732
1789031158120895700,6.501895751953125,-6.350320628356934,-6.37755467224121,5.625326438140869
1789031158130902800,6.51190283203125,-7.286453477478027,-6.353911930847167,5.859060375213622
1789031158140909600,6.52190966796875,-7.20145931854248,-7.755866640472411,8.173056279754638
1789031158150916900,6.531916748046875,-8.176198669433592,-7.597699693298339,10.081983190917969
1789031158160923600,6.541923583984375,-7.214926702880859,-7.694365585327148,12.222100199890136
1789031158170930700,6.5519306640625,-8.208221116638184,-9.446173012542724,13.633033165740965
1789031158180936700,6.561936767578125,-11.691185981750488,-10.481665230560303,12.69944415588379
1789031158190943700,6.57194384765625,-12.364555198669432,-10.6624274559021,10.878354518127441
1789031158200950500,6.581950439453125,-10.404152951812744,-9.919925666046142,10.542567735290527
1789031158210957800,6.591957763671875,-8.876203379821776,-7.4417773101806635,11.60005668106079
1789031158220964600,6.601964599609375,-6.459107166290283,-5.96320814743042,13.688698354339598
1789031158230972000,6.611971923828125,-5.7583542678833,-5.780201358032226,14.028226077270507
1789031158240977700,6.621977783203125,-7.27193862991333,-6.424241604614258,11.907412319183349
1789031158250984700,6.631984619140625,-8.095992913818359,-7.27163935470581,8.408585868072509
1789031158260991700,6.64199169921875,-6.156988844299316,-7.307851654815673,4.825962358856201
1789031158270998800,6.651998779296875,-3.4606688621520996,-7.3274541809082026,4.241328240966797
1789031158281005600,6.662005615234375,-3.5700539505004882,-7.518990313720702,6.044611003875732
1789031158291012900,6.672012939453125,-3.2372599197387695,-7.561637030792236,7.5162968368530265
1789031158301018600,6.6820185546875,-2.947711156463623,-6.807912420654296,7.735366288757324
1789031158311025700,6.692025634765625,-3.0142998901367184,-6.389675318145752,7.5822870201110835
1789031158321032700,6.70203271484375,-4.029591031646729,-5.510404758453369,6.676530604553222
1789031158331039700,6.712039794921875,-4.003254813385009,-4.362684337615967,6.508487575531006
1789031158341046800,6.722046875,-3.784185361480713,-4.351760792541504,7.623287723541259
1789031158351052800,6.732052734375,-5.054608617401123,-5.076156432342529,8.573037594604491
1789031158361059600,6.7420595703125,-5.510404758453369,-5.623381149291992,8.776993648529052
1789031158371067000,6.75206689453125,-3.4002152702331543,-6.047753393554687,7.758260842132568
1789031158381073700,6.76207373046875,-2.3600842864990232,-6.289717398834228,6.553229219055176
1789031158391080700,6.772080810546875,-4.2119992706298826,-5.847687917327881,5.802946273803711
1789031158401087700,6.782087646484375,-6.529287202453613,-4.7478515296936035,5.769128175354004
1789031158411093800,6.79209375,-8.410231881713866,-4.356698833465576,6.562656388092041
1789031158421100500,6.8021005859375,-9.343671253967285,-4.730343930053711,8.497021691894531
1789031158431107800,6.81210791015625,-6.976703637695312,-6.241833365631103,10.976516786193846
1789031158441114600,6.822114501953125,-4.031386682891846,-7.018302891540527,11.674725845336914
1789031158451122000,6.832121826171875,-4.017919298553466,-6.247968507385253,10.311377637481689
1789031158461129200,6.842129150390625,-5.3095910942077635,-4.929062667846679,8.585307878112792
1789031158471135200,6.85213525390625,-5.562927557373047,-3.0365958930969237,6.719775872039794
1789031158481142000,6.86214208984375,-4.25180287322998,-1.8779519271850584,4.7101428535461425
1789031158491149300,6.8721494140625,-2.822314844512939,-2.131737303161621,3.6755484611511227
1789031158501156000,6.882156005859375,-2.230647759246826,-3.2625486747741697,4.1751884201049805
1789031158511163100,6.8921630859375,-2.57915373840332,-4.555417571258545,5.971737490844726
1789031158521170200,6.902170166015625,-4.801571429443359,-4.92232897567749,7.662043862915039
1789031158531176200,6.91217626953125,-7.3760864021301265,-4.825363808441161,9.474903432464599
1789031158541183200,6.922183349609375,-9.219920955657958,-4.6712370765686035,11.031583424377441
1789031158551190000,6.93218994140625,-9.944166957855224,-3.986345764160156,11.418246992492675
1789031158561197300,6.942197265625,-8.500762631988525,-2.309955689239502,10.516081879425048
1789031158571204000,6.9522041015625,-6.170755503845214,-0.5882254203796387,8.853608101654052
1789031158581211100,6.962211181640625,-3.5161844131469726,0.1897404815673828,7.894431061553955
1789031158591217200,6.972217041015625,-1.9415479087829588,-0.17896657409667968,7.939771255493164
1789031158601224200,6.98222412109375,-2.867655038452148,-1.473481484222412,7.9569795799255365
1789031158611231000,6.99223095703125,-4.306270960998535,-2.338087558746338,7.270741529083251
1789031158621238300,7.00223828125,-5.992986030578613,-2.0376152503967284,5.929838961791992
1789031158631245000,7.0122451171875,-7.060201420593262,-1.4841057540893554,5.275623358154297
1789031158641252400,7.02225244140625,-7.875127810668944,-0.4252700698852539,5.081094473266601
1789031158651258000,7.032258056640625,-7.1121256690979,-0.3848679168701172,5.5832782714843745
1789031158661265200,7.04226513671875,-5.907393321228027,-1.5644611473083496,6.412270596313476
1789031158671272200,7.052272216796875,-4.828206922912598,-3.1952117530822752,7.547421458435058
1789031158681279200,7.062279296875,-6.625504181671142,-3.5474586723327635,7.6997525390625
1789031158691286000,7.0722861328125,-7.8338278320312495,-1.951723265838623,6.844423995971679
1789031158701292300,7.082292236328125,-6.10955372390747,-0.45055882492065424,5.532700761413574
1789031158711299000,7.092299072265625,-5.234323379516601,0.7872434333801269,4.085405857849121
1789031158721306000,7.10230615234375,-4.806509470367431,0.872087954711914,4.1748891448974605
1789031158731313200,7.112313232421875,-4.5404538108825685,-0.036361937713623046,5.052962603759766
1789031158741320200,7.1223203125,-5.252728804779053,-1.4312836799621582,5.269039303588867
1789031158751327200,7.1323271484375,-6.419752476501465,-1.8644845428466796,4.150348577880859
1789031158761333200,7.142333251953125,-6.431124934387206,-0.6798036338806152,2.171391268157959
1789031158771340000,7.152340087890625,-6.33326194152832,1.4552256965637207,1.140837091064453
1789031158781347300,7.162347412109375,-4.620061016082763,2.5014918220520017,2.159719535064697
1789031158791354000,7.17235400390625,-4.284872783660888,2.061257991790771,3.469198205566406
1789031158801361200,7.182361083984375,-5.186140071105957,-0.14215572357177733,3.9528269409179684
1789031158811368200,7.1923681640625,-7.109731467437744,-1.4125789794921875,4.128501487731933
1789031158821374200,7.202374267578125,-6.276250014495849,-0.5621884773254394,3.98365228729248
1789031158831381000,7.212381103515625,-4.96063620223999,1.0690110412597655,3.3138743728637694
1789031158841388300,7.22238818359375,-4.190900368499755,1.6615759521484375,1.8586486763000487
1789031158851395000,7.23239501953125,-4.823268881988525,1.4832079284667967,1.2868833923339842
1789031158861402400,7.24240234375,-5.773168390655517,0.5208884986877441,3.149273008728027
1789031158871409200,7.2524091796875,-6.514622717285156,-0.23702596435546874,4.961683665466309
1789031158881415200,7.262415283203125,-7.039252156066894,0.26485855865478514,4.1569326324462885
1789031158891422200,7.272422119140625,-6.432471672821045,1.4918869094848632,2.5182512336730953
1789031158901429200,7.28242919921875,-6.152499716186523,2.8574796813964842,1.709160710144043
1789031158911436000,7.29243603515625,-5.887940432739257,3.723133219146728,2.5411457870483396
1789031158921443300,7.302443359375,-4.7010149597167965,3.0172926422119137,4.782717091369628
1789031158931450000,7.3124501953125,-4.02794501800537,0.7583633758544921,6.648847647857665
1789031158941456100,7.3224560546875,-4.665999760437011,-1.6180314094543455,7.12454559020996
1789031158951463200,7.332463134765625,-6.4920274391174315,-2.7820623291015623,6.487089398193359
1789031158961470200,7.34247021484375,-7.906551707458496,-2.4501661239624024,5.736357540130615
1789031158971477200,7.352477294921875,-7.471405555725097,-2.2922984519958494,5.092167655944824
1789031158981484300,7.362484375,-5.5270145324707025,-2.0266917053222655,4.370764768218994
1789031158991491000,7.372490966796875,-3.953425491333008,-1.703923394012451,4.27769017868042
1789031159001497300,7.382497314453125,-4.746055878448486,-1.5559318038940428,4.671985264587402
1789031159011504000,7.392504150390625,-6.092943949890136,-1.9991583862304687,5.758503905487061
1789031159021511200,7.40251123046875,-6.572981382751465,-2.726696415710449,6.882880860137939
1789031159031518200,7.412518310546875,-6.210559106445312,-3.577835105895996,7.876474549102783
1789031159041525200,7.422525146484375,-5.416432343292236,-4.0711902854919435,8.170362802886963
1789031159051532300,7.4325322265625,-4.44333900604248,-4.677222580718994,7.907299895477294
1789031159061538300,7.442538330078125,-4.704157349395752,-5.2633530746459956,7.2450038612365715
1789031159071545000,7.452545166015625,-5.116708222961425,-5.685929667663574,6.8505591377258295
1789031159081552400,7.462552490234375,-5.193771588897705,-6.2301616325378415,7.090877129364014
1789031159091559200,7.47255908203125,-4.407276343536377,-6.5303346656799315,6.9415388008117676
1789031159101566000,7.48256591796875,-4.866963062286377,-6.794594673919677,6.573430295562744
1789031159111573200,7.4925732421875,-6.318447818756103,-7.301716513061523,7.196371640014648
1789031159121579300,7.502579345703125,-6.37800358505249,-7.165247018432617,7.6084736007690426
1789031159131586000,7.5125859375,-7.502979090118408,-5.435436318969726,8.08881030883789
1789031159141593300,7.52259326171875,-6.334010129547119,-5.350741435241699,9.703250415802001
1789031159151600000,7.53260009765625,-6.111798287963867,-5.65615178451538,10.921749423217772
1789031159161607200,7.542607177734375,-7.052270627593994,-5.869385369873046,11.200823554229736
1789031159171614200,7.5526142578125,-8.24218885269165,-5.47808303604126,10.488398922729491
1789031159181620200,7.5626201171875,-8.157643606567383,-5.3484968711853025,10.447847132110596
1789031159191627300,7.572627197265625,-7.320570851135254,-5.432593204498291,11.008838508605956
1789031159201634000,7.582634033203125,-6.523301698303222,-6.440103190612793,11.665298676300049
1789031159211641000,7.59264111328125,-5.633706143951415,-8.28064571685791,12.795810772705078
1789031159221648100,7.602648193359375,-6.694038204193115,-9.111583330535888,12.510002949523924
1789031159231655200,7.6126552734375,-7.829039428710937,-8.795698348999023,10.850372286224365
1789031159241661200,7.6226611328125,-7.631517791748046,-8.517970956420898,9.572317512512207
1789031159251668200,7.632668212890625,-7.988104201507568,-7.883208241271972,9.045892422485352
1789031159261675000,7.642675048828125,-7.696161236572265,-7.5731591262817375,9.783605809020996
1789031159271682300,7.652682373046875,-7.040748532104492,-7.160608252716064,9.733477211761475
1789031159281689000,7.662689208984375,-5.448005877685547,-6.936301484680175,9.241019857788086
1789031159291696000,7.672696044921875,-5.125087928771972,-6.8487634864807125,8.495375678253174
1789031159301702100,7.6827021484375,-6.048052668762207,-6.514024166870117,6.8496613121032714
1789031159311709200,7.692709228515625,-5.172523049163818,-6.762721864318848,6.468384697723388
1789031159321716000,7.702716064453125,-4.810400048065185,-6.74820701675415,6.498162580871582
1789031159331723300,7.71272314453125,-4.6055461685180665,-6.533776330566406,6.577021598052978
1789031159341730000,7.72272998046875,-3.8742671989440916,-6.348973889923095,6.621613603973389
1789031159351737300,7.7327373046875,-3.5085528953552245,-6.14786095046997,6.238092425537109
1789031159361743000,7.7427431640625,-3.481318851470947,-5.670965907287598,5.927744035339355
1789031159371750100,7.752750244140625,-4.0447044296264645,-4.25180287322998,5.3676504844665525
1789031159381757200,7.762757080078125,-3.341557329559326,-3.7000890281677243,5.905148757171631
1789031159391764200,7.77276416015625,-3.125779904937744,-3.412335916137695,7.052719540405273
1789031159401771000,7.78277099609375,-2.907309003448486,-3.601178572082519,8.512135089874267
1789031159411778300,7.7927783203125,-2.7539304595947263,-4.279635467529297,9.157821350097656
1789031159421784000,7.8027841796875,-3.023128508758545,-4.723310962677002,8.831012823486327
1789031159431791000,7.812791015625,-3.6557962974548337,-4.926219553375244,8.99441708679199
1789031159441798100,7.822798095703125,-5.903802018737792,-4.6079403701782224,8.706364699554443
1789031159451805200,7.83280517578125,-7.023540207672118,-4.116081566619873,8.467393446350098
1789031159461811700,7.842811767578125,-7.086088726043701,-3.6260184143066403,8.610446995544432
1789031159471818800,7.85281884765625,-6.941389163208007,-2.955193036651611,9.126247815704344
1789031159481824500,7.862824462890625,-6.073341423797607,-2.2495020973205566,9.956287603759765
1789031159491831800,7.872831787109375,-5.894374849700927,-1.7362451164245605,10.55887823410034
1789031159501838600,7.882838623046875,-5.691017346191406,-1.7558476425170897,10.806229193115234
1789031159511845600,7.892845703125,-5.284152701568603,-2.792985874176025,10.737545532989502
1789031159521852700,7.902852783203125,-5.331288546752929,-3.9927801811218258,10.130465774536132
1789031159531859700,7.912859619140625,-5.597643481445312,-4.422988291931152,9.13612389755249
1789031159541865500,7.922865478515625,-5.7721209274291985,-4.018068936157226,8.94473740234375
1789031159551872800,7.932872802734375,-5.250633878326416,-3.3833062210083007,9.814281517791747
1789031159561879600,7.942879638671875,-4.815487726593017,-2.9141923332214352,10.254515348052978
1789031159571886800,7.952886962890625,-4.651933825683593,-2.8380267929077148,9.962273107910155
1789031159581893600,7.9628935546875,-5.467907678985595,-3.3207577026367185,8.738536784362793
1789031159591900700,7.972900634765625,-6.598719050598144,-2.69407541809082,5.7885810638427735
1789031159601906700,7.98290673828125,-4.934150346374511,-2.333299155426025,5.212476289367675
1789031159611913700,7.992913818359375,-4.370016580200195,-1.87061968460083,5.805939025878906
1789031159621920500,8.00292041015625,-2.8214170188903807,-1.6264111152648926,6.318747093963623
1789031159631927800,8.012927734375,-3.415029393005371,-1.9400515327453611,7.018901441955566
1789031159641934600,8.0229345703125,-6.266822845458984,-1.8740613494873046,6.9521630706787105
1789031159651942000,8.03294189453125,-6.975356899261474,-2.296338667297363,6.279542041778564
1789031159661948700,8.04294873046875,-6.268768134307861,-2.5733178718566894,4.855291329193115
1789031159671954700,8.05295458984375,-5.001337630462646,-1.6549918975830078,3.7575498680114743
1789031159681961700,8.062961669921876,-3.0781951469421385,-1.0070610733032226,3.545663021087646
1789031159691968800,8.07296875,-3.692607147979736,0.01062426986694336,2.7748797241210936
1789031159701975600,8.0829755859375,-4.263025693511962,-0.2223614791870117,4.496909268188476
1789031159711982800,8.09298291015625,-6.934056920623779,-0.0017956512451171875,5.708674583435058
1789031159721988600,8.102988525390625,-7.477540697479248,0.24944588546752927,5.98206248550415
1789031159731995600,8.11299560546875,-7.230339376068115,0.25827450408935543,5.628768103027343
1789031159742002700,8.123002685546876,-5.649717367553711,1.2000935821533203,3.7015854042053222
1789031159752009700,8.133009765625,-5.105784677886962,1.6582839248657226,1.5497966621398924
1789031159762016800,8.143016845703125,-6.084713881683349,1.02786070022583,2.4082675949096677
1789031159772023600,8.1530234375,-7.690475007629394,0.5003881469726562,5.254973368835449
1789031159782030600,8.163030517578125,-7.798363719940185,0.1292868896484375,7.231835752105712
1789031159792036900,8.173036865234375,-6.7645175155639645,-1.0660182891845702,7.592612014770507
1789031159802043600,8.183043701171876,-4.434809662628173,-1.0826280632019043,5.850531031799316
1789031159812050700,8.19305078125,-4.218134412384033,0.48108489608764643,2.79627790145874
1789031159822057700,8.2030576171875,-5.670666632080078,0.9855132583618164,1.2499229042053221
1789031159832064500,8.213064453125,-5.8828527542114255,0.4900631523132324,2.0521300979614256
1789031159842070500,8.223070556640625,-6.785915692901611,0.407313557434082,3.8830958175659176
1789031159852077800,8.233077880859375,-7.603834835052489,1.1291653579711913,4.482843333435058
1789031159862084600,8.243084716796876,-7.9743375419616696,1.3013982398986816,4.229057957458496
1789031159872091600,8.253091552734375,-8.749310691833495,2.1871032165527344,4.083909481811523
1789031159882098700,8.2630986328125,-7.119906824493408,3.097199122619629,4.636072239685058
1789031159892105500,8.27310546875,-3.8380548988342285,2.9460651428222655,6.418256100463867
1789031159902111700,8.28311181640625,-2.6868928131103513,1.9214964698791503,7.432200503540039
1789031159912118800,8.293118896484375,-3.3017537269592285,0.834379278564453,7.3551371376037595
1789031159922125600,8.30312548828125,-5.297171173095703,-0.050727147674560547,5.988945815277099
1789031159932132600,8.313132568359375,-6.107159522247314,-0.6212953308105469,4.781071077728271
1789031159942139600,8.3231396484375,-6.747608466339111,-0.8105868995666503,4.470872325134277
1789031159952146700,8.333146728515626,-6.5032502593994135,-0.5695207199096679,4.975001412200927
1789031159962153700,8.34315380859375,-4.5968671875,-0.4213794921875,5.658246710968017
1789031159972159700,8.35315966796875,-2.677166368865967,-0.258573779296875,5.9564744552612305
1789031159982166800,8.363166748046876,-3.342754430389404,0.3817255271911621,6.091447573852538
1789031159992173600,8.373173583984375,-5.473294632720947,0.3826233528137207,6.251110897064208
1789031160002180600,8.3831806640625,-7.329698744964599,-0.41793782730102536,6.545448063659667
1789031160012187600,8.393187744140626,-8.431929334259033,-1.2247837867736815,7.009474272918701
1789031160022193700,8.403193603515625,-7.165396656036377,-2.7590181381225585,7.231835752105712
1789031160032200400,8.413200439453124,-4.0915409996032714,-4.964975692749023,6.794445036315918
1789031160042207700,8.423207763671876,-2.7817630538940428,-5.466860215759277,5.6675242424011225
1789031160052214500,8.433214599609375,-3.0633810241699218,-5.224148022460938,4.3537060813903805
1789031160062221800,8.443221923828125,-3.746925598144531,-6.080972941589355,2.8009166671752928
1789031160072228600,8.453228515625,-5.2247465728759765,-5.831078143310546,1.664269429016113
1789031160082235600,8.463235595703125,-6.717082395172119,-5.031564426422118,1.2119149528503417
1789031160092241700,8.47324169921875,-7.907449533081055,-4.311957189941406,1.0848726272583007
1789031160102248700,8.483248779296876,-7.822455374145507,-4.266467358398438,1.7482161247253416
1789031160112255500,8.49325537109375,-6.199934836578369,-5.517737001037597,3.1194951255798338
1789031160122262800,8.5032626953125,-5.553051475524902,-7.08055213470459,4.0620623916625975
1789031160132269600,8.51326953125,-5.3384711517333985,-8.990676146697998,5.239560695648193
1789031160142276900,8.52327685546875,-6.358101783752441,-10.774954933929443,6.735787095642089
1789031160152282600,8.53328271484375,-7.551611311340332,-12.292878786468505,7.799111907958984
1789031160162289700,8.54328955078125,-8.05020380706787,-13.740622602844237,8.239345738220214
1789031160172296700,8.553296630859375,-7.488464242553711,-14.341417581939696,7.988403476715088
1789031160182303700,8.5633037109375,-6.529287202453613,-13.872154056549071,7.829039428710937
1789031160192310500,8.573310546875,-5.89916325302124,-12.107178520202636,8.039280261993408
1789031160202317800,8.58331787109375,-5.258564671325684,-10.45772321395874,7.997830645751953
1789031160212323600,8.593323486328124,-4.990114810180664,-9.705644617462157,7.119308274078369
1789031160222330600,8.60333056640625,-6.24377865447998,-9.252242678070068,6.143222184753418
1789031160232337700,8.613337646484375,-8.024466139221191,-8.814851962280272,6.1741971687316894
1789031160242344700,8.6233447265625,-7.835922758483886,-9.054571403503417,7.157914775848388
1789031160252351700,8.633351806640626,-6.8572928298950195,-9.884461553955077,7.607575775146484
1789031160262358800,8.64335888671875,-6.046107379913329,-10.863091482543945,7.465719326782226
1789031160272364500,8.653364501953124,-6.025906303405761,-11.020210966491698,6.36513475112915
1789031160282371800,8.663371826171876,-6.851008050537109,-9.789142400360106,4.022857339477539
1789031160292378600,8.673378662109375,-5.865943704986572,-8.998906214904785,2.4058733932495118
1789031160302385700,8.6833857421875,-5.156511825561523,-8.267178332519531,2.2321441352844236
1789031160312392700,8.693392822265626,-4.189104717254638,-8.081777341461182,3.0475194381713866
1789031160322399700,8.703399658203125,-4.00340445098877,-7.811082916259765,3.548506135559082
1789031160332405500,8.713405517578124,-4.039018200683594,-7.60982033920288,3.736151690673828
1789031160342412800,8.723412841796875,-4.083460569000244,-7.458087808990478,3.5977369071960448
1789031160352419600,8.733419677734375,-5.540033003997802,-6.562207475280761,2.8758851066589353
1789031160362427000,8.743427001953124,-6.7651160659790035,-5.493046796417236,2.3759458724975584
1789031160372433700,8.75343359375,-6.042067164611816,-6.003759938049316,3.3551743515014647
1789031160382440400,8.7634404296875,-5.000140529632568,-7.6856866043090815,5.494094259643554
1789031160392446700,8.77344677734375,-4.96647206878662,-9.094524643707274,7.429806301879882
1789031160402453800,8.783453857421875,-4.996249951934814,-10.244938541412353,8.019827373504638
1789031160412460500,8.79346044921875,-5.47733484802246,-10.484358707427978,8.052298733520507
1789031160422467600,8.803467529296874,-7.462576937103271,-9.057713793182373,7.5354504501342765
1789031160432474600,8.813474609375,-7.07396808013916,-7.93603031539917,7.414992179107665
1789031160442481700,8.823481689453125,-6.754940708923339,-7.404218271636963,7.555352251434326
1789031160452487700,8.83348779296875,-6.092495037078857,-7.330297295379638,7.554304788208007
1789031160462494700,8.84349462890625,-5.407753362274169,-7.254431030273437,7.398532042694091
1789031160472501500,8.85350146484375,-6.447285795593261,-6.1094040863037105,6.912060192871094
1789031160482508500,8.863508544921874,-6.091746849060058,-5.876119062042236,7.196970190429687
1789031160492515600,8.873515625,-6.705859574890137,-5.8828527542114255,7.536647550964355
1789031160502522400,8.8835224609375,-6.969371395111083,-5.9774237197875975,7.670872481536865
1789031160512528600,8.893528564453124,-6.433818411254882,-6.078878015136718,7.465420051574706
1789031160522535700,8.90353564453125,-5.976974806976318,-5.6051253616333,6.771400845336913
1789031160532542500,8.91354248046875,-4.789600421142578,-5.519083739471435,6.091746849060058
1789031160542549500,8.923549560546874,-3.9612066467285154,-5.718999578094482,5.66258620147705
1789031160552556500,8.933556640625,-4.07956999130249,-6.359448522186279,5.590760151672363
1789031160562563600,8.9435634765625,-5.185391883087158,-6.519860033416748,5.38231496963501
1789031160572569600,8.953569580078126,-6.0902504730224605,-6.2584431396484375,5.286995816040038
1789031160582576600,8.96357666015625,-6.745812815093994,-5.647622441101074,5.138555313110351
1789031160592583700,8.973583740234375,-6.565649140167236,-4.601954866027832,5.152621247863769
1789031160602590500,8.983590576171874,-5.6672249671936035,-4.0435073287963865,5.269188941192627
1789031160612597500,8.993597412109375,-4.4668321098327635,-4.10530765914917,5.2742766197204585
1789031160622604500,9.0036044921875,-4.1846155891418455,-4.448875597381591,4.722263499450683
1789031160632610600,9.013610595703126,-6.601711802673339,-3.2377088325500485,3.5447651954650876
1789031160642617300,9.023617431640625,-7.27852268447876,-1.6534955215454101,2.858078231811523
1789031160652624600,9.033624755859375,-5.9002107162475586,-1.313818161010742,3.545064470672607
1789031160662631400,9.04363134765625,-6.479906793212891,-1.9422960968017577,5.085733238983154
1789031160672638700,9.053638671875,-6.956203285980224,-3.094356008148193,6.14157617111206
1789031160682645500,9.0636455078125,-7.058256131744384,-4.386476716613769,5.980266834259033
1789031160692652500,9.073652587890624,-8.343194235229491,-4.318840519714355,4.518008170318604
1789031160702658600,9.083658447265625,-7.720552165985107,-2.4551041648864746,3.214963916778564
1789031160712665600,9.09366552734375,-6.36558366394043,-0.6605003829956054,3.0633810241699218
1789031160722672400,9.10367236328125,-5.358223315429687,-1.732055263519287,4.434660025024414
1789031160732679700,9.1136796875,-6.537816545867919,-3.0494647270202635,5.79037671508789
1789031160742686500,9.1236865234375,-6.368277140808105,-4.2034699272155756,5.7317187744140625
1789031160752693800,9.13369384765625,-6.212953308105468,-3.4331355430603026,2.7817630538940428
1789031160762699500,9.143699462890625,-6.483947008514404,-0.37184944534301756,-0.06404489440917968
1789031160772706600,9.15370654296875,-4.963628954315185,1.907580172729492,0.04369418029785156
1789031160782713600,9.163713623046876,-3.2191537696838375,2.8272528854370114,0.6323685134887695
1789031160792720600,9.173720703125,-1.497124225616455,1.9967641845703124,1.343296768951416
1789031160802727400,9.1837275390625,-2.644994284057617,-0.01975216369628906,1.7643769859313965
1789031160812734700,9.193734619140624,-8.53562819366455,-0.19123685760498046,1.115997248840332
1789031160822740500,9.203740478515625,-10.790517244720458,-0.014514847564697266,1.548150648498535
1789031160832747800,9.213747802734375,-9.980229620361328,0.7272387542724609,3.716998077392578
1789031160842754600,9.223754638671876,-5.8360161842346185,0.9135375709533691,5.650914468383789
1789031160852761600,9.23376171875,-3.006518734741211,0.3553893089294433,5.370493598937988
1789031160862768600,9.2437685546875,-2.7890952964782714,-0.07242460021972656,3.9567175186157226
1789031160872775700,9.253775634765624,-3.8660371307373045,-0.4391863670349121,2.643497908020019
1789031160882781400,9.263781494140625,-6.732644705963135,-1.1122563087463377,1.399410870361328
1789031160892788700,9.273788818359375,-9.423577734375,-2.1335329544067383,0.9922469505310058
1789031160902795500,9.28379541015625,-11.015871475982665,-1.7354969284057615,2.1480478019714355
1789031160912802800,9.293802734375,-9.49929436187744,-1.5376760162353516,4.224568829345703
1789031160922809600,9.3038095703125,-7.021744556427001,-2.912695957183838,6.1261634979248045
1789031160932816400,9.31381640625,-5.882553479003906,-4.330661890411377,6.83739102859497
1789031160942822700,9.32382275390625,-4.017470385742187,-5.687126768493652,6.235847861480712
1789031160952829700,9.33382958984375,-5.028122761535644,-5.161898779296875,4.547037865447998
1789031160962836500,9.34383642578125,-6.920290261077881,-4.0143279960632325,3.37732071685791
1789031160972843500,9.353843505859375,-7.9019129417419425,-3.1239842536926266,2.79014275970459
1789031160982850600,9.3638505859375,-8.240692476654052,-1.8541595481872557,2.2700024490356445
1789031160992857600,9.373857666015626,-6.779331638336181,-0.8456020988464354,2.5094226150512693
1789031161002863600,9.383863525390625,-4.857835168457031,-0.4860229370117187,3.093158907318115
1789031161012870700,9.39387060546875,-3.08343246307373,-1.0371382316589355,3.5983354576110838
1789031161022877700,9.403877685546876,-0.9882067352294921,-2.268206797790527,3.854814310455322
1789031161032884500,9.413884521484375,0.9135375709533691,-4.840626844024658,4.6544776649475095
1789031161042891500,9.4238916015625,-0.8930372192382812,-7.949647337341308,5.596745655822754
1789031161052898600,9.433898681640626,-6.749853030395507,-8.332719602966309,4.82012649230957
1789031161062904600,9.443904541015625,-9.019705841827392,-6.5786676116943354,2.973748099517822
1789031161072911600,9.45391162109375,-8.422651802825927,-6.579116524505615,2.5980080764770506
1789031161082918700,9.463918701171876,-9.036016340637207,-6.696582043457031,3.2460885383605955
1789031161092925400,9.473925537109375,-7.270741529083251,-6.232555834197997,4.499004194641113
1789031161102932700,9.4839326171875,-4.11129316329956,-6.229862357330322,5.707178207397461
1789031161112939500,9.493939453125,-1.8887258346557616,-7.5737576766967765,7.004236956787109
1789031161122945500,9.503945556640625,-2.67507144241333,-8.557924196624755,7.585728684997558
1789031161132952600,9.51395263671875,-5.466560940551758,-8.456170626068115,7.437138544464111
1789031161142959600,9.523959716796876,-8.949525805664061,-8.503306471252442,6.449979272460937
1789031161152966400,9.53396630859375,-12.12348901901245,-9.6020953956604,5.494692810058593
1789031161162973700,9.5439736328125,-12.409596117401122,-11.307964078521728,5.949591125488281
1789031161172980500,9.55398046875,-10.56022497253418,-12.694655752563476,7.219415830993652
1789031161182986500,9.563986572265625,-8.297554766082763,-14.433145433044432,9.982474184417724
1789031161192993500,9.57399365234375,-8.65010096054077,-14.400075522613525,11.81658229370117
1789031161203000600,9.58400048828125,-10.06731870574951,-13.344232590484618,11.981482933044433
1789031161213007600,9.594007568359375,-10.621576390075683,-12.487108396148681,11.327716242218017
1789031161223014700,9.6040146484375,-10.892270815277099,-12.508656211090088,9.719261639404296
1789031161233021400,9.614021484375,-9.503633852386473,-12.410493943023681,7.347056707000732
1789031161243027700,9.62402783203125,-7.034014839935303,-10.632051022338867,5.768080712127685
1789031161253034500,9.634034423828124,-4.798279402160644,-8.151358827209473,5.332485647583008
1789031161263041500,9.64404150390625,-2.6828525978088376,-6.3247325981140134,4.970362646484375
1789031161273048600,9.654048583984375,-1.5491981117248534,-5.134515097808838,4.122216708374023
1789031161283055600,9.6640556640625,-3.3481413841247556,-3.648015142059326,2.101660144805908
1789031161293062700,9.674062744140626,-4.593575160217285,-2.5043349365234375,0.8110358123779297
1789031161303068700,9.684068603515625,-4.8123453369140625,-3.365200070953369,1.8005892860412596
1789031161313075500,9.694075439453124,-5.549011260223389,-6.67159256362915,4.989216984558105
1789031161323082800,9.704082763671876,-6.163423261260986,-10.141239682006836,8.410082244110107
1789031161333089500,9.714089599609375,-5.761646295166015,-11.706897930145264,9.10425108795166
1789031161343096600,9.7240966796875,-4.8965913078308105,-11.065401522827148,7.479336348724365
1789031161353103600,9.734103515625,-5.740547393035889,-7.890540483856201,4.679467144775391
1789031161363109600,9.744109619140625,-5.288342554473877,-4.750844281768798,2.814982601928711
1789031161373116400,9.754116455078124,-3.3221044410705565,-3.214515003967285,1.8915689491271972
1789031161383123700,9.764123779296876,-2.30471837310791,-2.7837083427429197,1.8848352569580078
1789031161393130500,9.774130615234375,-1.4133271675109862,-4.986523507690429,3.437475033569336
1789031161403137800,9.7841376953125,-1.933168202972412,-7.4883146049499505,5.490802232360839
1789031161413144600,9.79414453125,-3.040935383605957,-8.601319101715088,7.2349781417846675
1789031161423150600,9.804150634765625,-5.377975479125976,-8.952518557739257,8.390180442810058
1789031161433157600,9.81415771484375,-9.612420390319823,-8.073547273254395,8.738237509155272
1789031161443164700,9.82416455078125,-12.586018852233886,-7.32266577758789,9.453954167938232
1789031161453171500,9.83417138671875,-12.598887686157227,-6.654384239196777,9.552864624023437
1789031161463178200,9.84417822265625,-9.051279376220702,-6.322188758850097,8.888024750518799
1789031161473185000,9.85418505859375,-4.953154322052002,-5.96275923461914,8.391976094055176
1789031161483191000,9.86419091796875,-2.6138696624755857,-5.4424692863464355,8.060229526519775
1789031161493198000,9.874197998046874,-3.476829723358154,-5.4972366493225095,7.709179708099365
1789031161503205000,9.884205078125,-5.766135423278809,-6.1176341545104975,7.673117045593261
1789031161513212000,9.8942119140625,-6.6151791870117185,-6.172551155090332,6.986130806732177
1789031161523219200,9.90421923828125,-5.711966610717773,-5.6012347839355465,6.117484516906738
1789031161533226000,9.91422607421875,-4.391714032745361,-5.1702784851074215,5.724536169433593
1789031161543232000,9.92423193359375,-3.725377783203125,-4.7393221862792965,5.56113190612793
1789031161553239000,9.934239013671874,-2.9179332733154295,-4.675576567077637,5.491700057983398
1789031161563246000,9.94424609375,-3.852869021606445,-4.580855963897704,5.06897382736206
1789031161573253000,9.954253173828125,-6.544250962829589,-2.971952448272705,3.9921816307067868
1789031161583260200,9.96426025390625,-6.76721099243164,-2.616263864135742,4.0732852119445795
1789031161593267000,9.974266845703125,-7.89742381362915,-1.5005658905029295,4.816086277008056
1789031161603273200,9.984273193359375,-7.054215916442871,-0.5862801315307616,5.858012911987305
1789031161613280000,9.994280029296876,-5.50935729522705,-1.664269429016113,6.63957011642456
1789031161623287000,10.004287109375,-5.417479806518554,-3.527856146240234,6.793996123504638
1789031161633294000,10.014294189453125,-6.497713668060302,-4.2880151733398435,5.990442191314697
1789031161643301000,10.024301025390624,-8.413224633789062,-3.2576106338500974,4.452915812683105
1789031161653308200,10.03430810546875,-7.909394821929931,-2.807949634552002,4.816235914611816
1789031161663314200,10.044314208984375,-7.4214265960693355,-2.786850732421875,5.717353564453124
1789031161673321000,10.054321044921876,-6.178237384033203,-3.533542375183105,6.383839451599121
1789031161683328300,10.064328369140625,-3.9839515624999997,-5.685031842041015,6.937797860717773
1789031161693335000,10.0743349609375,-3.67719447479248,-8.097040377044678,6.910414179229736
1789031161703342000,10.084342041015624,-9.101258335876464,-7.883657154083251,4.855440966796874
1789031161713349000,10.09434912109375,-12.073958972167969,-4.6897921394348145,2.883366986846924
1789031161723355100,10.104355224609375,-9.966911873626708,-1.1198878265380858,2.936039423370361
1789031161733362200,10.114362060546876,-8.15255592803955,2.549675130462646,2.140715559387207
1789031161743369200,10.124369140625,-2.520346160125732,3.2447417999267576,2.108693112182617
1789031161753376000,10.1343759765625,0.7359177352905273,2.073079362487793,2.3301567657470703
1789031161763383000,10.144383056640624,-0.06494272003173827,-0.6988076095581054,3.4118870033264157
1789031161773390000,10.15439013671875,-7.1498343452453605,-2.884564087677002,4.3999441009521485
1789031161783396000,10.16439599609375,-10.575338370513915,-3.1012393379211423,4.10500838394165
1789031161793403100,10.174403076171876,-7.579144630432128,-1.936310592651367,3.7931636177062984
1789031161803410200,10.18441015625,-4.542698374938965,0.3850175544738769,2.9478607940673824
1789031161813417200,10.194417236328125,-3.237559194946289,0.6802525466918945,2.3116017028808593
1789031161823424000,10.204424072265626,-5.280711036682129,-0.24645313339233396,2.0220529396057128
1789031161833431000,10.21443115234375,-5.091120192718505,-0.9528922607421875,1.2384008087158203
1789031161843437300,10.224437255859375,-3.0918121688842772,-1.7241244705200194,0.49320554199218747
1789031161853444000,10.234444091796876,-3.424456562042236,-1.8465280303955076,-0.33578678283691404
1789031161863451000,10.244450927734375,-5.2551230064392085,-1.138293251800537,-1.3385083656311034
1789031161873458200,10.254458251953125,-6.801478003692626,0.4382885414123535,-1.9289783500671385
1789031161883465000,10.26446484375,-6.827514946746826,1.878400839996338,-0.7181108604431152
1789031161893472300,10.27447216796875,-5.348347233581543,2.760514514160156,1.7524059776306151
1789031161903478300,10.284478271484375,-2.870498152923584,2.6039935806274412,3.5411738929748533
1789031161913485000,10.294485107421876,-2.7015572982788085,2.0254946044921875,3.686920919036865
1789031161923492000,10.3044921875,-6.579266162109374,1.3940239166259765,3.928136736297607
1789031161933499100,10.3144990234375,-12.480374703979491,0.6871358764648438,5.279364298248291
1789031161943506000,10.324505859375,-14.580688110351561,0.06479308242797852,7.395688928222656
1789031161953513200,10.33451318359375,-8.413673546600341,-1.7890671905517577,9.556007013702391
1789031161963519000,10.34451904296875,-2.414103461456299,-4.019266036987305,10.303147569274902
1789031161973526000,10.354526123046876,-2.0753239265441894,-7.026832234954834,10.52087028274536
1789031161983533000,10.364532958984375,-5.843797339630127,-8.88144069595337,10.688165123748778
1789031161993540000,10.3745400390625,-9.847800341033935,-8.358157995605469,9.120561586761474
1789031162003547100,10.384547119140626,-9.916035088348387,-6.6893994384765625,6.590638619995117
1789031162013554200,10.39455419921875,-9.377040439605713,-4.5596074241638185,4.369567667388916
1789031162023560000,10.404559814453124,-7.8052470497131345,-2.7214590995788575,3.2227450721740722
1789031162033567200,10.414567138671876,-5.303156677246093,-1.4018050720214843,3.0635306617736813
1789031162043574000,10.424573974609375,-3.407397875213623,-1.0934019706726072,4.088697885131836
1789031162053581000,10.4345810546875,-4.04171167755127,-2.977040126800537,6.538864009094238
1789031162063588000,10.444588134765626,-6.73563745803833,-6.098031628417968,8.918550821685791
1789031162073595100,10.45459521484375,-7.021894194030761,-9.286958602142333,9.975740492248535
1789031162083601000,10.464600830078124,-6.406434729766845,-12.489053684997558,10.107870496368408
1789031162093608200,10.474608154296876,-6.591386808013915,-13.043909919738768,8.607753518676757
1789031162103615000,10.484614990234375,-5.014056826782226,-12.64751990737915,6.948422130584716
1789031162113622300,10.494622314453125,-6.156988844299316,-10.929081665802002,5.242852722930908
1789031162123629000,10.504629150390626,-7.527669294738769,-8.496123866271972,4.588038568878174
1789031162133636000,10.514635986328125,-7.721449991607666,-6.813000099182129,5.478831224060058
1789031162143642000,10.52464208984375,-7.332691497039795,-6.012438919067383,6.584204203033447
1789031162153649200,10.534649169921876,-6.672041476440429,-6.126612410736084,6.911611280059814
1789031162163656000,10.544656005859375,-6.7365352836608885,-6.681917558288574,6.978948201751709
1789031162173663200,10.554663330078125,-6.806565682220459,-7.133673484039306,7.026233684539794
1789031162183670000,10.564669921875,-6.151302615356445,-7.442525498199463,6.849511674499511
1789031162193677300,10.57467724609375,-5.981763210296631,-7.700949639892578,6.362291636657715
1789031162203683000,10.58468310546875,-6.291363412475586,-7.962965084075927,5.884648405456542
1789031162213690000,10.594690185546876,-6.289567761230469,-8.52844558868408,6.120926181793212
1789031162223697200,10.604697265625,-6.481403169250488,-8.991723609924316,6.708403414154052
1789031162233704200,10.6147041015625,-5.9132291877746574,-9.468319377899169,7.378031690979004
1789031162243711000,10.6247109375,-5.535992788696289,-9.607781624603271,7.364564306640625
1789031162253717200,10.63471728515625,-5.875071598815918,-9.081206896972656,6.5375172706604
1789031162263724000,10.64472412109375,-6.208164904785156,-8.291569261932372,5.742791957092285
1789031162273731000,10.65473095703125,-7.313388246154784,-7.1230492141723625,4.698171845245361
1789031162283738000,10.664738037109375,-7.393893276977539,-5.864746604156494,4.007444666290283
1789031162293745200,10.6747451171875,-5.801599535369872,-5.8928784736633295,4.611531672668456
1789031162303752200,10.684752197265626,-5.322908840942382,-6.420949577331543,5.313780947113036
1789031162313758200,10.69475830078125,-5.300313562774658,-7.481580912780761,6.594080284881591
1789031162323765000,10.704764892578124,-5.045031810760498,-8.908076189422607,7.8639049903869624
1789031162333772300,10.714772216796876,-4.489277750396728,-9.93354268798828,8.697386443328856
1789031162343779000,10.724779052734375,-4.6481928855896,-9.830143103790283,8.79779327545166
1789031162353786000,10.7347861328125,-5.8277861160278315,-8.436119187164307,8.475024964141845
1789031162363793200,10.744793212890626,-6.3132105026245116,-7.408258486938476,9.114875357818603
1789031162373799200,10.754799072265625,-6.654833152008056,-6.7185787712097165,9.909451033782958
1789031162383806000,10.764805908203124,-6.847117472839355,-5.989694003295898,9.607781624603271
1789031162393813200,10.774813232421875,-6.279990954589843,-5.757905355072021,8.827870433807373
1789031162403820000,10.784820068359375,-5.459976885986328,-5.787832875823974,8.036886060333252
1789031162413827000,10.7948271484375,-5.186738621520996,-5.643282950592041,7.305906365966797
1789031162423834000,10.804834228515626,-4.682908809661865,-5.844246252441406,7.319673025512695
1789031162433840000,10.814840087890625,-4.900332247924805,-6.215646784973144,7.502230902099609
1789031162443847200,10.82484716796875,-5.121795901489257,-6.592284633636474,7.50776749343872
1789031162453854200,10.834854248046875,-5.359570053863525,-6.728305215454101,7.166144844055175
1789031162463861800,10.84486181640625,-6.02635521621704,-6.594080284881591,6.301089856719971
1789031162473868500,10.85486865234375,-6.610091508483887,-6.148609138488769,5.069871652984619
1789031162483875800,10.864875732421876,-6.509535038757324,-5.4501008041381835,4.150198940277099
1789031162493881600,10.874881591796875,-5.647173528289795,-4.999242704010009,4.1672576271057125
1789031162503888600,10.884888671875,-5.0866310646057125,-4.855590604400635,4.938639474487305
1789031162513895700,10.894895751953126,-4.943128602600098,-4.7764323120117185,5.904250931549072
1789031162523902700,10.90490283203125,-5.313182396697997,-4.631433473968506,6.54380205001831
1789031162533909500,10.914909423828124,-5.564274295806884,-4.708496839904785,6.7465610031127925
1789031162543916800,10.924916748046876,-5.9105357109069825,-4.915296008300781,6.239139888763427
1789031162553922600,10.934922607421875,-6.4266358062744136,-4.462342981719971,5.130025969696044
1789031162563929600,10.9449296875,-6.236596049499512,-3.506906881713867,4.705504087829589
1789031162573936600,10.9549365234375,-6.004358488464355,-2.370259643554687,5.3028574020385735
1789031162583943700,10.964943603515625,-5.476586660003662,-1.9402011703491209,6.559214723205566
1789031162593950700,10.97495068359375,-5.116857860565185,-2.4712650260925293,7.432799053955078
1789031162603957800,10.984957763671876,-5.174019425201416,-3.844040402984619,7.37384183807373
1789031162613963500,10.994963623046875,-6.284180807495117,-4.617068264007568,6.507140837097167
1789031162623970800,11.004970703125,-6.949619231414794,-4.170848929595947,5.501576139831543
1789031162633977600,11.0149775390625,-6.216394972991943,-3.430142790985107,5.209782812499999
1789031162643984600,11.024984619140625,-5.737853916168213,-2.5213936233520506,5.135712198638916
1789031162653991700,11.03499169921875,-5.175515801239014,-2.0733786376953125,5.1782092781066895
1789031162663997700,11.044997802734375,-5.445013125610351,-2.0581156021118163,4.989067346954346
1789031162674004500,11.05500439453125,-7.258321607971191,-1.5269021087646484,4.3065702362060545
1789031162684011800,11.06501171875,-8.825326594543457,-0.5385457359313964,3.812167593383789
1789031162694018600,11.0750185546875,-8.975413111114502,-0.033818098449707026,4.3531075309753415
1789031162704025900,11.08502587890625,-8.460659754180908,-0.14888941574096679,4.769848257446289
1789031162714032600,11.09503271484375,-6.843226895141601,-0.38411972885131834,4.528033889770508
1789031162724038700,11.10503857421875,-5.430049365234375,-1.2642881141662596,4.495263254547119
1789031162734045700,11.115045654296875,-4.526238238525391,-2.210895595550537,4.705803363037109
1789031162744052700,11.125052734375,-4.237288025665283,-2.1543325813293457,3.614945231628418
1789031162754059500,11.1350595703125,-5.577292767333984,-0.27563246612548825,1.9346645790100097
1789031162764066800,11.14506689453125,-5.364657732391357,1.8484733192443847,1.287182667541504
1789031162774073600,11.155073486328124,-5.191826300048827,1.6748936988830565,1.7348983779907226
1789031162784079600,11.16507958984375,-5.131223070526123,0.32501287536621093,2.3970447746276853
1789031162794086700,11.175086669921875,-5.75865354309082,-0.4765957679748535,3.166032420349121
1789031162804093700,11.18509375,-6.704363198852539,-0.07826046676635742,3.2173581184387205
1789031162814100700,11.195100830078125,-6.181379773712158,0.42706572113037106,2.699312734222412
1789031162824107500,11.205107421875,-4.897938046264648,-0.38232407760620113,3.535038751220703
1789031162834114600,11.215114501953124,-4.761019638824463,-1.334917063140869,3.7867292007446287
1789031162844120800,11.225120849609375,-5.038447756195068,-1.4980220512390137,2.8407202697753906
1789031162854127600,11.235127685546875,-6.120327631378173,-1.1864765602111815,1.7407342445373535
1789031162864134700,11.245134765625,-6.831555162048339,-0.6759130561828612,1.4836568412780762
1789031162874141700,11.2551416015625,-6.597970862579345,-0.00014963760375976562,1.972223617553711
1789031162884148500,11.2651484375,-5.718401027679443,0.44113165588378905,2.577208449554443
1789031162894155800,11.27515576171875,-4.813093524932861,0.4122515983581543,3.1860838592529297
1789031162904161800,11.285161865234375,-4.505737886810302,-0.10040683212280273,3.7764042060852048
1789031162914168600,11.29516845703125,-5.299565374755859,-0.6413467697143554,4.0261493667602535
1789031162924175600,11.305175537109376,-5.828085391235351,-1.1858780097961426,3.95192911529541
1789031162934182700,11.3151826171875,-5.545719232940674,-1.6452654533386228,3.7385458923339843
1789031162944189400,11.325189453125,-5.3658548332214355,-1.8933646003723144,3.780743696594238
1789031162954195700,11.33519580078125,-5.980266834259033,-2.1097405754089356,4.160224659729003
1789031162964202800,11.34520263671875,-6.209062730407714,-2.3511060302734372,4.636371514892578
1789031162974209500,11.35520947265625,-5.671863732910156,-2.7070938896179197,4.912303256225585
1789031162984216600,11.365216552734376,-5.383063157653808,-3.0870237655639645,5.027524211120605
1789031162994223600,11.3752236328125,-4.792593173217774,-3.665822016906738,5.355829113769531
1789031163004230700,11.385230712890625,-4.029441394042968,-4.313303928375244,5.5187844642639154
1789031163014236700,11.395236572265626,-3.9137715263366695,-4.914996733093261,5.553949301147461
1789031163024243700,11.40524365234375,-5.043984347534179,-5.390844313049316,5.511751496887206
1789031163034250800,11.415250732421875,-6.178237384033203,-5.700743790435791,5.560084442901611
1789031163044257500,11.425257568359376,-6.10970336151123,-6.373364819335937,5.87387449798584
1789031163054264600,11.4352646484375,-6.132747552490234,-7.40571464767456,6.367229677581787
1789031163064271600,11.445271728515625,-6.581660363769531,-8.166771500396727,6.911312004852294
1789031163074277600,11.455277587890626,-6.1626750732421876,-8.910470391082763,7.549965297698974
1789031163084284400,11.465284423828125,-6.707505588531494,-9.387365434265137,7.747337297058105
1789031163094291700,11.475291748046875,-7.494749021911621,-9.809044201660155,8.180238884735108
1789031163104298500,11.485298583984376,-7.241262921142578,-10.774805296325683,9.328557855987547
1789031163114305800,11.495305908203125,-7.192331424713134,-11.211447824096679,9.762506906890868
1789031163124311800,11.505311767578124,-6.610989334106445,-11.558906340026855,9.914239437103271
1789031163134318600,11.515318603515626,-7.883058603668212,-11.2485579498291,8.89984612121582
1789031163144325600,11.52532568359375,-9.107543115234375,-10.326191760253906,7.16943687133789
1789031163154332700,11.535332763671875,-8.38299783782959,-9.925911170196533,6.5403603851318355
1789031163164339700,11.545339599609376,-7.465270413970947,-9.43614729309082,6.540510022735595
1789031163174346800,11.5553466796875,-5.999719722747803,-8.88099178314209,6.940192062377929
1789031163184352500,11.5653525390625,-5.29238276977539,-8.639177415466309,7.301566875457763
1789031163194359800,11.57535986328125,-5.885246955871581,-8.442403966522216,7.1124249443054195
1789031163204366600,11.58536669921875,-6.637026277160644,-8.373121755981446,6.402544152069091
1789031163214373600,11.59537353515625,-6.546046614074706,-8.751704893493653,6.059574764251709
1789031163224380700,11.605380615234376,-6.414664797973632,-9.015515988922118,6.136937405395507
1789031163234387700,11.6153876953125,-6.290914499664306,-8.260444640350341,6.226869605255127
1789031163244393500,11.6253935546875,-5.856067623138427,-6.427982544708252,6.076334175872803
1789031163254400800,11.63540087890625,-4.863820672607422,-4.742464575958252,5.4990323005676265
1789031163264407600,11.645407470703125,-3.447051840209961,-4.1362826431274415,4.789151508331298
1789031163274414800,11.655414794921874,-2.8164789779663084,-3.9372646301269527,3.7665281242370603
1789031163284421600,11.665421630859376,-3.037044805908203,-3.722684306335449,2.7946318878173826
1789031163294427600,11.675427734375,-3.3910873764038083,-4.247463382720947,2.8781296707153317
1789031163304434700,11.6854345703125,-4.249857584381103,-5.871031383514404,4.11144280090332
1789031163314441700,11.695441650390626,-5.762244845581054,-7.831882543182372,5.5844753723144525
1789031163324448500,11.705448486328125,-6.369324604034423,-9.41085853805542,6.800280902862548
1789031163334455800,11.715455810546874,-5.830329955291748,-10.31077908706665,7.639298947143554
1789031163344462600,11.725462646484376,-6.075137075042724,-10.04217958831787,7.67416450881958
1789031163354468600,11.735468505859375,-6.7365352836608885,-8.872462439727782,7.388955236053467
1789031163364475600,11.7454755859375,-7.624634461975098,-7.002441305541992,6.800879453277587
1789031163374482700,11.755482666015626,-7.310545131683349,-6.297498554229736,7.505223654174804
1789031163384489700,11.76548974609375,-7.422324421691894,-6.554127044677734,9.204508282470703
1789031163394496800,11.775496826171874,-7.336731712341308,-7.101950312042236,10.996119312286377
1789031163404503600,11.785503662109376,-6.585102028656006,-7.943212920379638,11.909507245635986
1789031163414509800,11.795509765625,-7.211036125183105,-8.381351824188233,11.510423756408692
1789031163424516600,11.8055166015625,-8.48460177078247,-8.232911321258545,10.762684650421141
1789031163434523600,11.815523681640625,-9.005340631866455,-8.316708379364012,10.941052674102783
1789031163444530700,11.82553076171875,-9.041403294372557,-8.167968601226805,11.168651469421386
1789031163454537700,11.835537841796874,-7.285854927062988,-7.569118910980224,10.499472105407714
1789031163464543200,11.845543212890625,-4.92247861328125,-7.062745259857177,9.226056097412108
1789031163474550500,11.855550537109375,-4.381538675689697,-6.512527790832519,7.933336838531494
1789031163484557300,11.865557373046874,-3.8112697677612304,-5.938817218017578,6.616525925445556
1789031163494564600,11.875564697265625,-2.4353520011901852,-5.791573815917968,5.517737001037597
1789031163504571400,11.8855712890625,-2.9287071807861325,-5.067327813720703,4.051887034606933
1789031163514578400,11.895578369140624,-3.5960908935546874,-4.0924388252258295,3.142389678955078
1789031163524584400,11.90558447265625,-3.971830916595459,-3.558082942199707,2.953247747802734
1789031163534591500,11.915591552734375,-4.831199674987793,-3.106626291656494,3.0603882720947264
1789031163544598300,11.925598388671874,-4.912602531433105,-2.976591213989258,3.510198908996582
1789031163554605600,11.93560546875,-5.982960311126709,-2.8956372703552242,4.026299004364013
1789031163564612400,11.9456123046875,-7.535300812530517,-2.3325509674072262,4.438999515533447
1789031163574619600,11.95561962890625,-7.631068878936767,-1.9173066169738768,5.409249738311767
1789031163584625400,11.96562548828125,-7.034314115142822,-1.9295769004821777,6.5309332160949705
1789031163594632400,11.975632568359375,-5.064335061645507,-2.901772412109375,7.110030742645264
1789031163604639500,11.985639404296874,-3.582922784423828,-4.12476054763794,7.0355112159729
1789031163614646500,11.995646484375,-3.1597476409912106,-4.753537758636474,6.587945143127441
1789031163624653300,12.0056533203125,-3.150619747161865,-4.502595497131347,5.415534517669677
1789031163634659600,12.01565966796875,-3.658938687133789,-3.974674031066894,3.8434418525695797
1789031163644666400,12.025666259765625,-4.591929146575928,-3.1105168693542478,2.4009353523254395
1789031163654673400,12.03567333984375,-6.054935998535156,-1.8593968643188477,2.2281039199829102
1789031163664680400,12.045680419921876,-8.735095119476318,-0.15113397979736326,2.8788778587341306
1789031163674687500,12.0556875,-9.611073651885986,0.7923311119079589,3.5443162826538086
1789031163684694500,12.065694580078125,-9.668684129333496,0.5098153160095215,4.032284508514404
1789031163694700500,12.075700439453126,-10.34235262145996,0.2593219673156738,4.671386714172363
1789031163704707300,12.085707275390625,-8.26179137878418,-0.3324947555541992,5.692364084625244
1789031163714714600,12.095714599609375,-5.693561185455322,-0.960823053741455,5.862801315307617
1789031163724721400,12.105721435546876,-4.008492129516601,-0.6313210502624511,5.111919819641113
1789031163734728400,12.115728515625,-5.7040358177185055,-0.6479308242797851,4.8415246696472165
1789031163744734500,12.125734375,-7.861959701538085,0.3570353225708008,4.730343930053711
1789031163754741500,12.135741455078126,-8.212261331939697,0.08559270935058594,4.515763606262206
1789031163764748500,12.14574853515625,-7.664587702178955,-0.48033670806884765,4.2521021484374995
1789031163774755600,12.155755615234375,-4.939088387298583,-0.6856395004272461,4.145560174560547
1789031163784762400,12.165762451171876,-4.899135147094726,-0.6862380508422851,3.5933974166870115
1789031163794769400,12.175769287109375,-5.397877280426025,-0.10654197387695312,2.38118318862915
1789031163804775400,12.185775390625,-4.938040924072265,-1.1198878265380858,2.320879234313965
1789031163814782500,12.195782470703126,-5.193472313690185,-2.411409984588623,2.6261399459838866
1789031163824789500,12.20578955078125,-3.612251754760742,-3.214963916778564,2.8585271446228027
1789031163834796500,12.215796630859375,-3.2884359802246093,-3.164236769104004,2.323273435974121
1789031163844803600,12.225803466796876,-5.031564426422118,-0.4736030158996582,-0.10848726272583008
1789031163854809600,12.2358095703125,-4.969015908050537,1.663670878601074,-1.8272247795104979
1789031163864816400,12.24581640625,-5.768230349731445,2.833986577606201,-2.0138228713989257
1789031163874823700,12.25582373046875,-5.182249493408203,3.1286230194091793,-0.07721300354003906
1789031163884830500,12.26583056640625,-3.4127848289489746,1.9584569580078124,3.103483901977539
1789031163894837500,12.27583740234375,-4.025700453948974,0.5722141967773438,4.7949873748779295
1789031163904844500,12.285844482421876,-4.853944590759277,-0.6183025787353515,5.300014287567138
1789031163914850600,12.2958505859375,-5.481973613739013,-2.366219428253174,5.964405248260498
1789031163924857300,12.305857421875,-6.719476596832275,-3.538779691314697,6.024409927368164
1789031163934864600,12.31586474609375,-5.673509746551513,-4.148852201843262,5.5415293800354
1789031163944871400,12.325871337890625,-4.467580297851562,-4.4841900718688965,5.03725065536499
1789031163954878500,12.33587841796875,-4.7937902740478515,-4.302380383300781,4.745606965637207
1789031163964884500,12.345884521484376,-5.495889910888671,-4.0812160049438475,4.683208084869385
1789031163974891500,12.3558916015625,-6.4655415832519525,-3.847182792663574,4.585345092010498
1789031163984898600,12.365898681640624,-7.061697796630859,-3.1926679138183593,4.531026641845703
1789031163994905300,12.3759052734375,-6.867019274139404,-2.937984712219238,4.998344878387451
1789031164004912400,12.385912353515625,-6.706607762908935,-3.0903157928466793,5.889736083984375
1789031164014919400,12.39591943359375,-5.634304694366454,-3.985747213745117,7.203703882598877
1789031164024925400,12.405925537109376,-5.416881256103515,-5.004180744934081,7.95518392868042
1789031164034932500,12.415932373046875,-5.96919365158081,-5.580584794616699,8.14627114868164
1789031164044939500,12.425939453125,-5.307196892547607,-6.844124720764159,8.923638500213622
1789031164054946300,12.4359462890625,-6.450128910064697,-8.447491645050048,9.702951140594482
1789031164064953600,12.44595361328125,-7.454945419311523,-9.917232189178467,10.135403815460204
1789031164074959600,12.455959716796874,-7.634660181427002,-10.778695874023438,9.64578957595825
1789031164084966400,12.46596630859375,-8.581566938018799,-10.338761318969725,7.811681466674804
1789031164094973400,12.475973388671875,-8.867075485992432,-10.293870037841796,6.649146923065185
1789031164104980500,12.48598046875,-8.876801930236816,-10.064026678466796,6.4734723762512205
1789031164114987300,12.4959873046875,-7.968950588226318,-9.35938320236206,7.0367083168029785
1789031164124994600,12.50599462890625,-6.751798319244385,-8.560318398284911,7.905504244232177
1789031164135000600,12.51600048828125,-6.462099918365478,-8.17784468307495,8.604012578582763
1789031164145007400,12.52600732421875,-6.9141551193237305,-8.169165702056885,8.858995055389403
1789031164155014400,12.536014404296875,-7.746439471435546,-8.311321425628662,8.496123866271972
1789031164165021400,12.546021484375,-8.47876590423584,-8.673743701934814,7.697807250213622
1789031164175028500,12.556028564453126,-8.19759684677124,-9.209296685791015,7.829338703918457
1789031164185034500,12.566034423828125,-7.595305491638183,-9.102754711914063,8.809315370941162
1789031164195041500,12.57604150390625,-6.591536445617676,-8.372972118377685,9.747393508911133
1789031164205048600,12.586048583984375,-5.692812997436523,-7.84594847793579,9.515754498291015
1789031164215055400,12.596055419921875,-5.601085146331787,-6.994510512542724,7.630470328521728
1789031164225062400,12.6060625,-5.3287447074890135,-6.503399897003173,5.389946487426758
1789031164235069400,12.6160693359375,-5.297769723510742,-6.70989979019165,3.576488367462158
1789031164245075500,12.626075439453125,-5.222801284027099,-7.408557762145995,3.0986954986572264
1789031164255082500,12.63608251953125,-5.357175852203369,-8.035838597106933,3.681384327697754
1789031164265089500,12.646089599609375,-5.019294142913818,-8.115296164703368,4.461445156097412
1789031164275096300,12.656096435546875,-4.191947831726074,-7.583184845733642,5.132120896148681
1789031164285103600,12.666103515625,-4.163815962219238,-6.8296098731994626,5.28579871520996
1789031164295109600,12.676109619140625,-4.8603790077209466,-6.148908413696288,5.354183100128173
1789031164305116400,12.686116455078125,-5.789927802276611,-6.1358899421691895,6.272957987213134
1789031164315123500,12.69612353515625,-7.521234877777099,-7.350498371887206,8.01803172225952
1789031164325130500,12.706130615234375,-9.37868645324707,-8.621819453430176,9.674519995880127
1789031164335137300,12.71613720703125,-8.68930601272583,-9.392902025604247,10.60526589126587
1789031164345144600,12.72614453125,-6.862081233215331,-9.255983618164063,9.970652813720703
1789031164355150300,12.736150390625,-5.70164161605835,-8.553435068511963,8.901043222045898
1789031164365157400,12.746157470703125,-5.354183100128173,-7.133523846435547,8.052149095916748
1789031164375164400,12.756164306640626,-5.092466931152344,-5.9376201171875,7.741501430511474
1789031164385171500,12.76617138671875,-4.962581491088867,-5.6383449096679685,8.254010223388672
1789031164395178500,12.776178466796875,-4.9993923416137696,-5.451447542572021,8.762628438568115
1789031164405184500,12.7861845703125,-4.45635747756958,-5.691915171813965,9.361178853607177
1789031164415191300,12.79619140625,-5.575197840881347,-5.753416226959228,9.53805050125122
1789031164425198600,12.806198486328125,-6.028001229858398,-5.576993492126465,9.536105212402344
1789031164435205400,12.816205322265626,-6.553678131866454,-5.671115544891357,9.017910190582274
