time,seconds_elapsed,z,y,x
1789031151656502300,0.037502197265625,-0.060886550694704056,-0.3113264739513397,-0.3000086843967438
1789031151666508500,0.047508544921875,-0.021307451650500298,-0.19274042546749115,-0.3830881416797638
1789031151676515300,0.057515380859375,0.05258903279900551,-0.09237022697925568,-0.4953840970993042
1789031151686522400,0.0675224609375,0.211829274892807,0.0014508028980344534,-0.5770694017410278
1789031151696529400,0.077529296875,0.3706311881542206,0.16711553931236267,-0.558442234992981
1789031151706536200,0.0875361328125,0.41331177949905396,0.19692005217075348,-0.4886746406555176
1789031151716542200,0.097542236328125,0.27688130736351013,-0.0314074382185936,-0.3857381343841553
1789031151726549500,0.107549560546875,0.06710409373044968,-0.3544270396232605,-0.3201404809951782
1789031151736556300,0.117556396484375,-0.0782240703701973,-0.6381276249885559,-0.3289676308631897
1789031151746563300,0.127563232421875,-0.11550167202949524,-0.8131303191184998,-0.40782225131988525
1789031151756570400,0.1375703125,-0.05086845904588699,-0.7594394683837891,-0.5233009457588196
1789031151766576400,0.147576416015625,0.10306118428707123,-0.4437195658683777,-0.6603362560272217
1789031151776583400,0.15758349609375,0.2748801112174988,-0.03709857165813446,-0.8277015089988708
1789031151786590500,0.167590576171875,0.4520847201347351,0.2958919107913971,-0.9626633524894714
1789031151796597200,0.17759716796875,0.526788592338562,0.5137187242507935,-1.035510778427124
1789031151806604300,0.187604248046875,0.45536133646965027,0.3958786129951477,-1.0510908365249634
1789031151816610300,0.1976103515625,0.2723316252231598,0.28096628189086914,-0.999485969543457
1789031151826617300,0.207617431640625,0.06082417443394661,0.20958450436592102,-0.9457095265388489
1789031151836624400,0.217624267578125,-0.14934630692005157,-0.19647568464279175,-0.9071668386459351
1789031151846631200,0.227631103515625,-0.32018646597862244,-0.6467267274856567,-0.8261875510215759
1789031151856637200,0.23763720703125,-0.4365215003490448,-0.8726929426193237,-0.6908147931098938
1789031151866644500,0.24764453125,-0.5189913511276245,-0.9683286547660828,-0.5571507215499878
1789031151876651300,0.2576513671875,-0.6167383790016174,-1.0225255489349365,-0.45516645908355713
1789031151886658300,0.267658203125,-0.7232669591903687,-0.9091506004333496,-0.4319838881492615
1789031151896665300,0.277665283203125,-0.836062490940094,-0.6781526207923889,-0.4253520965576172
1789031151906671400,0.28767138671875,-0.8176413774490356,-0.47100427746772766,-0.31857770681381226
1789031151916678400,0.297678466796875,-0.7476561069488525,-0.36281847953796387,-0.141207754611969
1789031151926685400,0.307685546875,-0.6587139368057251,-0.2772497832775116,0.022586503997445107
1789031151936692200,0.317692138671875,-0.43100616335868835,-0.37215152382850647,0.19820791482925415
1789031151946699300,0.32769921875,-0.009259194135665894,-0.6973088383674622,0.386173278093338
1789031151956705300,0.337705322265625,0.4685947597026825,-1.1654192209243774,0.582279622554779
1789031151966712300,0.34771240234375,0.8596338629722595,-1.4690089225769043,0.7302877306938171
1789031151976719400,0.35771923828125,0.982314944267273,-1.5215802192687988,0.839434802532196
1789031151986726400,0.367726318359375,0.8478335738182068,-1.3566906452178955,0.864911675453186
1789031151996732200,0.377732177734375,0.5836650133132935,-1.0310832262039185,0.8340437412261963
1789031152006739500,0.387739501953125,0.443225622177124,-0.48799484968185425,0.7698978185653687
1789031152016746200,0.397746337890625,0.5327463746070862,0.07775647938251495,0.729669988155365
1789031152026753500,0.40775341796875,0.7872793078422546,0.603973925113678,0.649054229259491
1789031152036760300,0.41776025390625,1.1326463222503662,0.9816930890083313,0.4877055585384369
1789031152046766300,0.427766357421875,1.515281081199646,1.2076252698898315,0.25150156021118164
1789031152056773400,0.4377734375,1.824384093284607,1.119802474975586,-0.0613529309630394
1789031152066780400,0.447780517578125,1.9714107513427734,0.7149767279624939,-0.3863848149776459
1789031152076787200,0.457787109375,1.890016794204712,0.1991303265094757,-0.6013292670249939
1789031152086794500,0.46779443359375,1.6993908882141113,-0.23278219997882843,-0.5569628477096558
1789031152096800300,0.47780029296875,1.4787005186080933,-0.47679948806762695,-0.3165445327758789
1789031152106807300,0.487807373046875,1.2002500295639038,-0.5732652544975281,-0.02575264312326908
1789031152116814300,0.497814453125,0.9761998653411865,-0.43976956605911255,0.22005872428417206
1789031152126821400,0.5078212890625,0.8996962904930115,-0.11901097744703293,0.3490537106990814
1789031152136827100,0.5178271484375,0.9756668210029602,0.1912768930196762,0.29203128814697266
1789031152146834400,0.52783447265625,1.043245553970337,0.29346612095832825,0.09046647697687149
1789031152156841200,0.53784130859375,1.0171680450439453,0.3148981034755707,-0.05593882128596306
1789031152166848500,0.5478486328125,0.8928879499435425,0.13225719332695007,-0.07722626626491547
1789031152176855300,0.557855224609375,0.7464349865913391,-0.187692791223526,0.03276505321264267
1789031152186861300,0.567861328125,0.6120526790618896,-0.5277001857757568,0.2404564619064331
1789031152196868400,0.577868408203125,0.6259130835533142,-0.9456477165222168,0.4554652273654938
1789031152206875400,0.58787548828125,0.7957401871681213,-1.3359103202819824,0.5346881151199341
1789031152216882200,0.597882080078125,0.9366514682769775,-1.17722487449646,0.35596963763237
1789031152226889500,0.607889404296875,1.1234935522079468,-1.391076922416687,-0.04325365275144577
1789031152236895200,0.617895263671875,1.3912513256072998,-2.154362916946411,-0.47320592403411865
1789031152246902300,0.62790234375,1.565847635269165,-2.7448418140411377,-0.6391722559928894
1789031152256909300,0.637909423828125,1.604190468788147,-2.6280782222747803,-0.6266458630561829
1789031152266916400,0.647916259765625,1.548846960067749,-2.046072483062744,-0.4493322968482971
1789031152276923400,0.65792333984375,1.4286651611328125,-1.5056744813919067,-0.19525431096553802
1789031152286929400,0.667929443359375,1.2602460384368896,-1.1155784130096436,0.09871658682823181
1789031152296936200,0.677936279296875,1.0769678354263306,-0.9734574556350708,0.35697993636131287
1789031152306943500,0.687943603515625,0.8616794347763062,-1.1144263744354248,0.5254989266395569
1789031152316950300,0.6979501953125,0.6058068871498108,-1.5943918228149414,0.5792379379272461
1789031152326957300,0.707957275390625,0.3089403510093689,-2.1791937351226807,0.4492088258266449
1789031152336963300,0.71796337890625,0.05467233434319496,-2.6599504947662354,0.16311436891555786
1789031152346970400,0.727970458984375,-0.07307257503271103,-3.049220561981201,-0.23396986722946167
1789031152356977200,0.73797705078125,-0.08312356472015381,-3.3200838565826416,-0.7121701240539551
1789031152366984400,0.747984375,0.09480036795139313,-3.565896511077881,-1.0928325653076172
1789031152376990200,0.757990234375,0.5162487030029297,-4.052611827850342,-1.2141036987304688
1789031152386997200,0.767997314453125,1.1915851831436157,-4.695602893829346,-1.0675419569015503
1789031152397004300,0.77800439453125,2.138969659805298,-5.256475448608398,-0.6825573444366455
1789031152407011300,0.78801123046875,3.2229208946228027,-5.68146276473999,-0.12532630562782288
1789031152417018400,0.798018310546875,4.058789253234863,-5.63720703125,0.41917741298675537
1789031152427024400,0.8080244140625,4.388587951660156,-5.03090238571167,0.7621665000915527
1789031152437031200,0.81803125,4.247157573699951,-4.370534896850586,0.8180278539657593
1789031152447038500,0.82803857421875,3.9974420070648193,-4.634541034698486,0.6334079504013062
1789031152457045000,0.838044921875,3.9793808460235596,-5.507217884063721,0.4968244731426239
1789031152467052000,0.848052001953125,4.313021183013916,-6.583461761474609,0.755598783493042
1789031152477058000,0.85805810546875,4.718158721923828,-7.396937847137451,1.4965533018112183
1789031152487065000,0.868065185546875,4.876379489898682,-7.31887149810791,2.4144275188446045
1789031152497071900,0.87807177734375,4.60808801651001,-6.452084541320801,2.974729537963867
1789031152507079200,0.8880791015625,4.277652263641357,-5.618628025054932,2.969008445739746
1789031152517086000,0.8980859375,4.207040309906006,-4.948592662811279,2.5271103382110596
1789031152527092000,0.908092041015625,4.44586706161499,-4.109518051147461,1.8636592626571655
1789031152537099000,0.91809912109375,4.845211029052734,-3.257640838623047,1.310130000114441
1789031152547106000,0.92810595703125,5.143468856811523,-2.6354386806488037,1.0121352672576904
1789031152557112800,0.93811279296875,5.090115547180176,-2.527590274810791,1.0222781896591187
1789031152567119000,0.948119140625,4.371719837188721,-2.3759171962738037,1.2448140382766724
1789031152577126100,0.958126220703125,3.1732940673828125,-1.9167393445968628,1.5082619190216064
1789031152587133000,0.9681328125,2.0677103996276855,-1.1414813995361328,1.622078776359558
1789031152597140000,0.978139892578125,1.3873672485351562,-0.20764315128326416,1.3983834981918335
1789031152607147000,0.98814697265625,1.0526220798492432,0.39304056763648987,0.6387988328933716
1789031152617153000,0.998153076171875,0.8602027297019958,0.8819279670715332,0.15692992508411407
1789031152627160000,1.00816015625,0.6060333251953125,0.11853495240211487,-0.5872411727905273
1789031152637167000,1.0181669921875,0.3763689398765564,-0.6312379240989685,-0.8814940452575684
1789031152647174100,1.028174072265625,0.5070867538452148,-0.2356773018836975,-0.28885868191719055
1789031152657181000,1.038180908203125,0.8716934323310852,1.105581521987915,0.709304928779602
1789031152667187000,1.04818701171875,1.195090889930725,1.1430517435073853,1.2495465278625488
1789031152677194200,1.0581943359375,0.6909687519073486,0.44977250695228577,0.8525213003158569
1789031152687201000,1.068200927734375,0.18497000634670258,-0.26731422543525696,0.7778393626213074
1789031152697207800,1.078207763671875,-0.5800341367721558,-2.4066011905670166,-0.3041611611843109
1789031152707215000,1.088215087890625,-1.0803883075714111,-2.0552010536193848,-0.3869923949241638
1789031152717221000,1.09822119140625,-0.6203253865242004,-0.7388891577720642,0.24446488916873932
1789031152727228000,1.108227783203125,0.19363254308700562,-1.1082059144973755,-0.8363233804702759
1789031152737235000,1.11823486328125,0.3574661314487457,-0.6015257239341736,-1.4142208099365234
1789031152747242000,1.128241943359375,0.39966684579849243,1.2012593746185303,0.06093074753880501
1789031152757249000,1.1382490234375,0.19020438194274902,1.2002168893814087,0.6794794797897339
1789031152767255000,1.148255126953125,-0.41881290078163147,0.2205221951007843,-0.23735660314559937
1789031152777262000,1.158261962890625,-0.7635881900787354,0.6186718940734863,-0.9811050891876221
1789031152787269000,1.16826904296875,-0.6318660974502563,0.7493380308151245,-1.6405181884765625
1789031152797276000,1.17827587890625,-0.4081350564956665,0.9484120011329651,-1.6278282403945923
1789031152807282000,1.188281982421875,-0.27312830090522766,0.5009873509407043,-1.3979042768478394
1789031152817289200,1.198289306640625,-0.043102722615003586,-0.29469573497772217,-1.2759636640548706
1789031152827296000,1.2082958984375,0.10239829123020172,-0.9377505779266357,-0.9274793863296509
1789031152837303000,1.218302978515625,0.057767804712057114,-1.182665228843689,-0.353039413690567
1789031152847310000,1.22831005859375,0.14615358412265778,-1.3444538116455078,0.03182090073823929
1789031152857316000,1.238316162109375,0.3683640658855438,-1.431543231010437,0.19620591402053833
1789031152867323000,1.248322998046875,0.5779359340667725,-1.3185510635375977,0.33949515223503113
1789031152877330200,1.258330078125,0.7461562752723694,-1.2072664499282837,0.42211320996284485
1789031152887337000,1.2683369140625,0.8219165802001953,-1.1194404363632202,0.5628466606140137
1789031152897344000,1.278343994140625,0.9280941486358643,-1.1317001581192017,0.5913612842559814
1789031152907350000,1.28835009765625,1.2408277988433838,-1.2195868492126465,0.5202389359474182
1789031152917357000,1.298357177734375,1.5343079566955566,-1.387660264968872,0.34168487787246704
1789031152927364000,1.308364013671875,1.3848567008972168,-1.5520989894866943,0.2359565645456314
1789031152937371100,1.31837109375,1.3162736892700195,-1.64797043800354,0.2615024149417877
1789031152947378000,1.3283779296875,1.1211838722229004,-2.1557674407958984,0.2550485134124756
1789031152957384200,1.33838427734375,0.8718146681785583,-2.2799339294433594,0.3461412787437439
1789031152967391000,1.348390869140625,0.579393744468689,-2.153804302215576,0.4655856788158417
1789031152977398000,1.35839794921875,0.41208934783935547,-1.579185962677002,0.6270738840103149
1789031152987405000,1.368405029296875,0.4668460488319397,-0.806597888469696,0.766646146774292
1789031152997411800,1.378411865234375,0.6664914488792419,-0.23406602442264557,0.7398611307144165
1789031153007418000,1.388418212890625,0.8299187421798706,0.005243489518761635,0.5016906261444092
1789031153017425200,1.398425048828125,0.7520641088485718,-0.151117205619812,0.27623024582862854
1789031153027432000,1.408431884765625,0.46089163422584534,-0.48773515224456787,0.27629920840263367
1789031153037439200,1.418439208984375,0.11500199884176254,-0.7949748039245605,0.5273035764694214
1789031153047445000,1.428445068359375,-0.07653626799583435,-0.8514769673347473,0.7882273197174072
1789031153057452000,1.4384521484375,-0.1665915548801422,-0.7539383172988892,0.941666841506958
1789031153067459000,1.448458984375,-0.12735547125339508,-0.6146448254585266,0.8924189209938049
1789031153077466000,1.458466064453125,-0.01109997183084488,-0.6354497075080872,0.7587388753890991
1789031153087473200,1.46847314453125,0.04156750068068504,-0.9146257042884827,0.685756266117096
1789031153097479200,1.478479248046875,0.031014762818813324,-1.382869839668274,0.6652571558952332
1789031153107486000,1.48848583984375,0.07331481575965881,-1.679189920425415,0.788398802280426
1789031153117493200,1.4984931640625,0.06380512565374374,-1.7479842901229858,0.8825892806053162
1789031153127500000,1.5085,-0.07005280256271362,-1.79848051071167,1.0015065670013428
1789031153137507000,1.518507080078125,-0.3037731945514679,-1.820284128189087,1.1739922761917114
1789031153147513000,1.52851318359375,-0.4466975927352905,-1.719123363494873,1.1993050575256348
1789031153157520100,1.53852001953125,-0.38705888390541077,-1.505123257637024,0.9836260676383972
1789031153167527000,1.54852685546875,-0.23903639614582062,-1.080280065536499,0.7278363704681396
1789031153177534200,1.5585341796875,-0.19530034065246582,-0.7316082715988159,0.5264163613319397
1789031153187541000,1.568541015625,-0.3484581708908081,-0.555719792842865,0.3463302254676819
1789031153197547000,1.578547119140625,-0.5487909913063049,-0.48432525992393494,0.25757235288619995
1789031153207554000,1.588553955078125,-0.6516281962394714,-0.31973445415496826,0.302626371383667
1789031153217561000,1.59856103515625,-0.47313040494918823,-0.16495734453201294,0.417241632938385
1789031153227568000,1.608568115234375,-0.20758871734142303,0.07708163559436798,0.6377342939376831
1789031153237575200,1.6185751953125,-0.0694206953048706,0.3896262049674988,0.8372375965118408
1789031153247581000,1.628580810546875,0.017909949645400047,0.7742921710014343,0.7671709060668945
1789031153257588200,1.638588134765625,-0.037283867597579956,1.106640100479126,0.6805217862129211
1789031153267595000,1.648594970703125,-0.2742609977722168,1.4243837594985962,0.6240542531013489
1789031153277602000,1.65860205078125,-0.6084126830101013,1.8859132528305054,0.5768851041793823
1789031153287609000,1.668609130859375,-0.9894763827323914,2.1614139080047607,0.5422812700271606
1789031153297615000,1.678614990234375,-1.3491559028625488,2.1350719928741455,0.47036510705947876
1789031153307622000,1.688621826171875,-1.4911530017852783,1.9242734909057617,0.17534200847148895
1789031153317629200,1.698629150390625,-1.2487828731536865,1.4744610786437988,-0.1018209457397461
1789031153327636000,1.708635986328125,-0.9484885334968567,1.0584683418273926,0.03668953478336334
1789031153337643300,1.718643310546875,-0.6827974915504456,0.7417705059051514,0.4499092400074005
1789031153347649000,1.72864892578125,-0.5677055716514587,0.6644959449768066,0.8347290754318237
1789031153357656000,1.738656005859375,-0.5279600620269775,0.7052425146102905,0.9323632717132568
1789031153367663000,1.7486630859375,-0.45872747898101807,0.5977658629417419,0.6125032305717468
1789031153377670100,1.758670166015625,-0.36475470662117004,0.7191886901855469,0.26298555731773376
1789031153387677000,1.768677001953125,-0.20599062740802765,0.882061243057251,-0.01980723813176155
1789031153397683200,1.77868310546875,-0.11057212203741074,0.7781170010566711,-0.32256340980529785
1789031153407690000,1.78868994140625,0.03682611510157585,0.49654385447502136,-0.5109403133392334
1789031153417697000,1.798697021484375,-0.04298216477036476,0.09862126410007477,-0.5187297463417053
1789031153427704000,1.8087041015625,-0.030302854254841805,-0.17817863821983337,-0.4732988774776459
1789031153437711000,1.818711181640625,0.08832438290119171,-0.47010475397109985,-0.3447735011577606
1789031153447716900,1.828716796875,0.25745081901550293,-0.6673603057861328,-0.13001753389835358
1789031153457724700,1.838724609375,0.40070879459381104,-0.638410747051239,-0.017484379932284355
1789031153467731500,1.8487314453125,0.5595386624336243,-0.5698396563529968,-0.11784613877534866
1789031153477738500,1.858738525390625,0.8502225279808044,-0.7122144103050232,-0.2617376148700714
1789031153487745500,1.86874560546875,0.8255776762962341,-0.9115632176399231,-0.3368699252605438
1789031153497751600,1.87875146484375,0.5879532098770142,-1.0703972578048706,-0.3322768807411194
1789031153507758300,1.88875830078125,0.23819175362586975,-1.1741507053375244,-0.3582645356655121
1789031153517765600,1.898765625,-0.039258066564798355,-1.0992258787155151,-0.45499488711357117
1789031153527772400,1.9087724609375,-0.22090083360671997,-1.0085972547531128,-0.6176711320877075
1789031153537779500,1.918779541015625,-0.19837123155593872,-1.003528356552124,-0.7896391153335571
1789031153547785500,1.928785400390625,-0.10492250323295593,-1.1977046728134155,-0.9057012796401978
1789031153557792500,1.93879248046875,-0.14196725189685822,-1.4605859518051147,-0.990725040435791
1789031153567799600,1.948799560546875,-0.20684584975242615,-1.530483365058899,-1.1390410661697388
1789031153577806600,1.958806640625,-0.2400720864534378,-1.2951791286468506,-1.3120397329330444
1789031153587813400,1.9688134765625,-0.20825956761837006,-0.874077558517456,-1.4640218019485474
1789031153597819600,1.978819580078125,-0.04804901033639908,-0.547993004322052,-1.6655787229537964
1789031153607826400,1.988826416015625,0.1749478578567505,-0.4475470185279846,-1.8984516859054565
1789031153617833500,1.99883349609375,0.43294820189476013,-0.536346435546875,-2.0427138805389404
1789031153627840500,2.008840576171875,0.6075215935707092,-0.6655794978141785,-2.0697286128997803
1789031153637846500,2.018846435546875,0.579539954662323,-0.6193149089813232,-1.9790794849395752
1789031153647853300,2.028853271484375,0.4249168336391449,-0.4725118577480316,-1.8883432149887085
1789031153657860600,2.038860595703125,0.4209821820259094,-0.4129924178123474,-1.8008183240890503
1789031153667867400,2.048867431640625,0.43199434876441956,-0.4043712317943573,-1.6740108728408813
1789031153677874700,2.058874755859375,0.27834492921829224,-0.24729962646961212,-1.383427619934082
1789031153687880400,2.06888037109375,0.12998822331428528,-0.16295039653778076,-1.034122347831726
1789031153697887500,2.078887451171875,0.35199764370918274,-0.08677788078784943,-0.8558210730552673
1789031153707894500,2.08889453125,0.7787238955497742,0.0426538810133934,-0.8981056809425354
1789031153717901600,2.098901611328125,1.1038658618927002,0.04988894984126091,-1.0825341939926147
1789031153727908400,2.108908447265625,1.1763869524002075,-0.15426072478294373,-1.1891213655471802
1789031153737914600,2.11891455078125,1.0821257829666138,-0.27422916889190674,-1.1277539730072021
1789031153747921400,2.12892138671875,0.8297032713890076,-0.06381547451019287,-0.7671641707420349
1789031153757928400,2.138928466796875,0.5330163836479187,-0.0023758900351822376,-0.36544883251190186
1789031153767935500,2.148935546875,0.24444742500782013,0.2208516001701355,-0.28357502818107605
1789031153777942500,2.158942626953125,0.029581218957901,0.7879721522331238,-0.543875515460968
1789031153787948300,2.1689482421875,-0.2561488151550293,1.7883710861206055,-1.103271722793579
1789031153797955600,2.17895556640625,-0.44932428002357483,2.729306697845459,-1.8276984691619873
1789031153807962400,2.18896240234375,-0.37016767263412476,3.3151068687438965,-2.4136126041412354
1789031153817969700,2.1989697265625,0.04658157378435135,3.0067641735076904,-2.435296058654785
1789031153827976400,2.2089765625,0.26090317964553833,2.165867328643799,-1.8674206733703613
1789031153837982500,2.218982421875,0.18743282556533813,0.9205584526062012,-0.9991168975830078
1789031153847989500,2.228989501953125,0.1741577684879303,0.035932507365942,-0.22142088413238525
1789031153857996500,2.23899658203125,0.34586113691329956,-0.17014268040657043,0.22443446516990662
1789031153868003300,2.24900341796875,0.5346643924713135,0.06306315958499908,0.307009220123291
1789031153878010600,2.2590107421875,0.7017664313316345,0.46005797386169434,0.08076106011867523
1789031153888016400,2.269016357421875,0.7929373383522034,0.7719362378120422,-0.26100531220436096
1789031153898023400,2.2790234375,0.7595542073249817,0.9497388005256653,-0.5310821533203125
1789031153908030500,2.289030517578125,0.6099936962127686,0.805492639541626,-0.6138073801994324
1789031153918037500,2.29903759765625,0.35433778166770935,0.34044012427330017,-0.4867416322231293
1789031153928044500,2.30904443359375,0.0852530375123024,-0.46525609493255615,-0.23197218775749207
1789031153938050600,2.319050537109375,-0.06097957864403725,-1.244110107421875,0.11639043688774109
1789031153948057300,2.329057373046875,-0.10736198723316193,-1.7401412725448608,0.3717372417449951
1789031153958064600,2.339064697265625,-0.08368880301713943,-1.8104404211044312,0.35764002799987793
1789031153968071400,2.349071533203125,0.005867178086191416,-1.5682793855667114,0.05302898958325386
1789031153978078500,2.359078369140625,0.10221384465694427,-1.0543577671051025,-0.33283567428588867
1789031153988084500,2.36908447265625,0.11492617428302765,-0.7004694938659668,-0.5807863473892212
1789031153998091500,2.379091552734375,0.12822911143302917,-0.6603553295135498,-0.7066980600357056
1789031154008098300,2.389098388671875,0.12367857992649078,-0.6720386147499084,-0.7166457772254944
1789031154018105600,2.399105712890625,0.19590677320957184,-0.5513882637023926,-0.5610380172729492
1789031154028111400,2.409111328125,0.37179842591285706,-0.5066311955451965,-0.4808276295661926
1789031154038118400,2.419118408203125,0.5660660862922668,-0.4105207324028015,-0.4926435947418213
1789031154048125400,2.42912548828125,0.8234158754348755,-0.18457014858722687,-0.5144056677818298
1789031154058132500,2.439132568359375,1.1002990007400513,-0.1321197897195816,-0.4511966109275818
1789031154068139500,2.449139404296875,1.315507411956787,-0.30789855122566223,-0.3223124146461487
1789031154078145500,2.4591455078125,1.439574956893921,-0.6260064244270325,-0.06449535489082336
1789031154088152300,2.46915234375,1.497530221939087,-1.1354444026947021,0.10848254710435867
1789031154098159600,2.47915966796875,1.7111660242080688,-1.3953410387039185,0.1677880734205246
1789031154108166400,2.48916650390625,2.0189731121063232,-1.648743987083435,0.1620446890592575
1789031154118173400,2.49917333984375,2.414257526397705,-1.8296723365783691,0.19737344980239868
1789031154128179500,2.509179443359375,2.5736982822418213,-1.5751553773880005,0.1235271766781807
1789031154138186500,2.5191865234375,2.487334728240967,-1.159083366394043,-0.009881425648927689
1789031154148193300,2.529193359375,2.2970523834228516,-0.8952085971832275,-0.021696271374821663
1789031154158200600,2.53920068359375,2.185345411300659,-0.7359520792961121,-0.0006667803972959518
1789031154168207400,2.549207275390625,2.107555866241455,-0.7739143967628479,0.09905155748128891
1789031154178213400,2.55921337890625,1.9742209911346436,-1.0901496410369873,0.18524710834026337
1789031154188220400,2.569220458984375,1.7002376317977905,-1.2300398349761963,0.12797130644321442
1789031154198227500,2.5792275390625,1.4268511533737183,-0.9770967364311218,-0.08508793264627457
1789031154208234500,2.589234375,1.2738903760910034,-0.5524288415908813,-0.5102903842926025
1789031154218241500,2.599241455078125,1.294656753540039,-0.13068391382694244,-0.9140440225601196
1789031154228247300,2.609247314453125,1.4386656284332275,0.22495834529399872,-0.9106349349021912
1789031154238254600,2.619254638671875,1.5159897804260254,0.1344318389892578,-0.39981353282928467
1789031154248261400,2.629261474609375,1.4049702882766724,-0.13784575462341309,0.12351945042610168
1789031154258268400,2.639268310546875,1.2619571685791016,-0.2698124051094055,0.4004431962966919
1789031154268274400,2.6492744140625,1.1239417791366577,-0.09450715780258179,0.49656468629837036
1789031154278281500,2.659281494140625,0.9508922100067139,0.6096190214157104,0.413340300321579
1789031154288288300,2.669288330078125,0.6464766263961792,1.0923686027526855,0.475388765335083
1789031154298295600,2.679295654296875,0.6148360967636108,1.1076080799102783,0.5390686392784119
1789031154308302300,2.68930224609375,0.9637495875358582,0.42066460847854614,0.7051782608032227
1789031154318308400,2.699308349609375,1.4653081893920898,-0.663891613483429,1.1982866525650024
1789031154328315400,2.7093154296875,1.7146375179290771,-2.1745970249176025,1.6969050168991089
1789031154338322400,2.719322509765625,1.7673324346542358,-3.666590452194214,1.9030342102050781
1789031154348329500,2.72932958984375,1.8327828645706177,-4.566160202026367,1.855139970779419
1789031154358336500,2.73933642578125,1.8500932455062866,-4.499251365661621,1.6542855501174927
1789031154368342300,2.74934228515625,1.8287529945373535,-3.895432949066162,1.4331976175308228
1789031154378349600,2.759349609375,1.6929537057876587,-3.2176387310028076,1.3332061767578125
1789031154388356400,2.7693564453125,1.3861191272735596,-2.395004987716675,1.3469014167785645
1789031154398363400,2.77936328125,1.1030148267745972,-1.2058266401290894,1.4736813306808472
1789031154408370400,2.789370361328125,0.8088088035583496,0.08853857964277267,1.4560365676879883
1789031154418376400,2.79937646484375,0.48011720180511475,1.177679419517517,1.3033735752105713
1789031154428383200,2.80938330078125,0.13521705567836761,2.0929925441741943,0.7835552096366882
1789031154438390500,2.819390625,-0.1780422329902649,2.5654351711273193,0.04097279533743858
1789031154448397300,2.829397216796875,-0.42821556329727173,2.356826066970825,-0.5720183849334717
1789031154458404900,2.83940478515625,-0.5569097399711609,1.9611772298812866,-0.7741339206695557
1789031154468410600,2.84941064453125,-0.707322895526886,1.6926097869873047,-0.39726966619491577
1789031154478417700,2.859417724609375,-0.8841907382011414,1.2352097034454346,0.09732167422771454
1789031154488424700,2.8694248046875,-1.2284342050552368,0.7221576571464539,0.33983951807022095
1789031154498431700,2.879431640625,-1.8720678091049194,0.14897632598876953,0.47550567984580994
1789031154508438500,2.8894384765625,-2.6672072410583496,-0.04834873229265213,0.7874614596366882
1789031154518444800,2.89944482421875,-3.5084755420684814,0.5707182288169861,0.6362082958221436
1789031154528451600,2.90945166015625,-4.242932319641113,1.236687183380127,0.36487534642219543
1789031154538458600,2.919458740234375,-4.646358966827393,1.3644391298294067,0.08793066442012787
1789031154548465700,2.929465576171875,-4.286290645599365,1.1250782012939453,-0.36349111795425415
1789031154558472700,2.93947265625,-3.2884089946746826,0.7492743134498596,-0.9230085015296936
1789031154568478500,2.949478515625,-2.175224781036377,0.5068947076797485,-1.5156667232513428
1789031154578485800,2.95948583984375,-1.3214579820632935,0.5453947186470032,-2.0628128051757812
1789031154588492500,2.969492431640625,-0.9723561406135559,0.8685136437416077,-2.300450563430786
1789031154598499800,2.979499755859375,-0.9856644868850708,1.3639938831329346,-2.143247365951538
1789031154608506600,2.989506591796875,-1.0491881370544434,1.682228922843933,-1.7405749559402466
1789031154618512600,2.9995126953125,-1.0586316585540771,1.4234259128570557,-1.3541018962860107
1789031154628519700,3.009519775390625,-0.9722592234611511,0.754599928855896,-1.146894097328186
1789031154638526700,3.019526611328125,-0.864456832408905,0.11425134539604187,-1.1928904056549072
1789031154648533500,3.029533447265625,-0.8115395307540894,-0.3825125992298126,-1.3890421390533447
1789031154658539800,3.039539794921875,-0.7565584182739258,-0.6895306706428528,-1.6038872003555298
1789031154668546600,3.049546630859375,-0.7325758337974548,-0.59993976354599,-1.7586826086044312
1789031154678553600,3.0595537109375,-0.7054913640022278,-0.43085354566574097,-1.7507084608078003
1789031154688560600,3.069560546875,-0.7355150580406189,-0.45109274983406067,-1.5755038261413574
1789031154698567700,3.079567626953125,-0.7864079475402832,-0.5740506649017334,-1.4263397455215454
1789031154708573700,3.08957373046875,-0.7256133556365967,-0.5893555879592896,-1.4436452388763428
1789031154718580700,3.099580810546875,-0.5583593249320984,-0.5338692665100098,-1.5799987316131592
1789031154728587500,3.10958740234375,-0.2562341094017029,-0.47254762053489685,-1.6846867799758911
1789031154738594800,3.1195947265625,-0.1233820766210556,-0.5891582369804382,-1.5438921451568604
1789031154748601600,3.1296015625,-0.06469320505857468,-0.6911812424659729,-1.2651023864746094
1789031154758607600,3.139607666015625,-0.038500480353832245,-0.5443710684776306,-0.9318668246269226
1789031154768614700,3.14961474609375,-0.12163984030485153,-0.11676859855651855,-0.6359113454818726
1789031154778621700,3.15962158203125,-0.186367928981781,0.07157932221889496,-0.49676764011383057
1789031154788628500,3.16962841796875,-0.16454333066940308,0.029134128242731094,-0.5700823068618774
1789031154798635800,3.1796357421875,-0.1265820860862732,-0.16971492767333984,-0.7284886240959167
1789031154808641800,3.189641845703125,-0.0725468248128891,-0.42405375838279724,-0.7782489657402039
1789031154818648600,3.199648681640625,-0.014868653379380703,-0.5657815337181091,-0.6506242156028748
1789031154828655600,3.209655517578125,0.00548695120960474,-0.5352691411972046,-0.398722767829895
1789031154838662700,3.21966259765625,-0.025981372222304344,-0.36545267701148987,-0.13694466650485992
1789031154848669700,3.229669677734375,-0.11481111496686935,-0.2591853439807892,0.09007276594638824
1789031154858675700,3.23967578125,-0.20260676741600037,-0.17380636930465698,0.16897337138652802
1789031154868682500,3.2496826171875,-0.3123268783092499,-0.1522398293018341,0.06696552038192749
1789031154878689800,3.259689697265625,-0.519262969493866,-0.5254490971565247,-0.4211317300796509
1789031154888696600,3.269696533203125,-0.6808041930198669,-1.204379677772522,-1.061030387878418
1789031154898703600,3.27970361328125,-0.8287667036056519,-2.123736619949341,-1.4654830694198608
1789031154908710000,3.2897099609375,-0.952860414981842,-0.41822588443756104,-1.7684040069580078
1789031154918716700,3.299716552734375,-0.5611457824707031,0.900255560874939,-1.4484730958938599
1789031154928723500,3.309723388671875,-0.6253852248191833,0.9877654910087585,-0.6519732475280762
1789031154938730800,3.319730712890625,-0.8224921822547913,-0.5940498113632202,0.5386906266212463
1789031154948737500,3.329737548828125,-0.8121620416641235,-0.6728410720825195,0.7136861681938171
1789031154958743600,3.33974365234375,-0.8054535984992981,-0.6553669571876526,0.5437138676643372
1789031154968750600,3.34975048828125,-0.7849373817443848,-0.3259480595588684,0.23134903609752655
1789031154978757600,3.359757568359375,-0.899381160736084,-0.2590344250202179,-0.102598637342453
1789031154988764700,3.3697646484375,-1.1260182857513428,-0.2553137242794037,-0.4660809636116028
1789031154998771700,3.379771728515625,-1.4169081449508667,-0.05362117663025856,-0.7608506679534912
1789031155008777700,3.38977783203125,-1.6134452819824219,-0.07227262109518051,-0.6930956244468689
1789031155018784800,3.39978466796875,-1.6050268411636353,-0.14298418164253235,-0.516116738319397
1789031155028791600,3.40979150390625,-1.497457504272461,-0.48909497261047363,-0.3807048201560974
1789031155038798600,3.419798583984375,-1.3051241636276245,-0.8123906850814819,-0.30825504660606384
1789031155048804900,3.429804931640625,-0.9599276185035706,-1.230970859527588,-0.2613333463668823
1789031155058811600,3.439811767578125,-0.6239294409751892,-1.6494948863983154,-0.08533033728599548
1789031155068818700,3.449818603515625,-0.4665653109550476,-1.826034426689148,-0.017100147902965546
1789031155078825700,3.45982568359375,-0.3265630900859833,-1.864637851715088,-0.12808753550052643
1789031155088832500,3.46983251953125,-0.17825591564178467,-1.991864800453186,-0.3004632890224457
1789031155098838500,3.479838623046875,-0.10064702481031418,-2.107238292694092,-0.4439607560634613
1789031155108845800,3.489845703125,-0.12159651517868042,-2.1076807975769043,-0.5652365684509277
1789031155118852600,3.4998525390625,-0.3218906819820404,-2.249039649963379,-0.6010629534721375
1789031155128859600,3.509859619140625,-0.5736203789710999,-2.289628505706787,-0.5709271430969238
1789031155138866700,3.51986669921875,-0.6401509642601013,-1.797151803970337,-0.6729990839958191
1789031155148872700,3.529872802734375,-0.5670482516288757,-1.3586134910583496,-0.7452988624572754
1789031155158879700,3.539879638671875,-0.4344694912433624,-0.718600869178772,-0.8710313439369202
1789031155168886800,3.54988671875,-0.30092766880989075,-0.6454374194145203,-0.9926185011863708
1789031155178893600,3.5598935546875,-0.2557849884033203,-0.9876959919929504,-0.970065176486969
1789031155188900600,3.569900634765625,-0.2649039328098297,-1.1001852750778198,-0.9145201444625854
1789031155198906600,3.57990673828125,-0.35823002457618713,-1.1791836023330688,-0.8910340070724487
1789031155208913700,3.58991357421875,-0.4530912935733795,-1.1005327701568604,-0.8739207983016968
1789031155218920700,3.599920654296875,-0.5218299627304077,-0.9639263153076172,-0.9145844578742981
1789031155228927500,3.609927490234375,-0.5243157148361206,-0.8713367581367493,-0.9927820563316345
1789031155238934800,3.619934814453125,-0.45183464884757996,-0.8217141628265381,-1.0351521968841553
1789031155248940800,3.62994091796875,-0.32824426889419556,-1.0284091234207153,-0.9407135844230652
1789031155258947600,3.639947509765625,-0.2068810611963272,-1.1162199974060059,-0.890056848526001
1789031155268955000,3.649954833984375,-0.1419212371110916,-1.011370301246643,-0.8035866618156433
1789031155278961700,3.659961669921875,-0.17700514197349548,-0.6729910969734192,-0.7158460021018982
1789031155288968400,3.669968505859375,-0.286319375038147,-0.35796016454696655,-0.6958637833595276
1789031155298974700,3.679974609375,-0.4712231159210205,-0.14058072865009308,-0.6775151491165161
1789031155308981800,3.689981689453125,-0.6956160068511963,-0.01676717959344387,-0.6582610607147217
1789031155318988500,3.699988525390625,-0.8389450311660767,0.08642172068357468,-0.6308389902114868
1789031155328995600,3.70999560546875,-0.693889856338501,0.4411078989505768,-0.6701776385307312
1789031155339002600,3.720002685546875,-0.4989965558052063,0.557188868522644,-0.6795394420623779
1789031155349008600,3.730008544921875,-0.37079545855522156,0.552186906337738,-0.6277180314064026
1789031155359015700,3.740015625,-0.32191190123558044,0.5991002321243286,-0.526253879070282
1789031155369022700,3.750022705078125,-0.30409005284309387,0.7269974946975708,-0.4659609794616699
1789031155379029800,3.76002978515625,-0.20701928436756134,0.8388941287994385,-0.41173699498176575
1789031155389036500,3.77003662109375,-0.15852604806423187,0.6563078165054321,-0.19713468849658966
1789031155399042600,3.78004248046875,-0.09654732793569565,0.5701678991317749,-0.04097378998994827
1789031155409049900,3.7900498046875,0.044018834829330444,0.42855802178382874,0.10561298578977585
1789031155419056600,3.800056640625,0.1842382848262787,0.5357860326766968,0.18632706999778748
1789031155429063700,3.810063720703125,0.3221929371356964,0.5860529541969299,0.25050339102745056
1789031155439070700,3.82007080078125,0.5539729595184326,0.5793983340263367,0.33915674686431885
1789031155449076700,3.83007666015625,0.7869707942008972,0.6272878646850586,0.6059392094612122
1789031155459083500,3.84008349609375,0.8894382119178772,0.6831446290016174,0.8004800081253052
1789031155469090600,3.850090576171875,1.038651704788208,0.9150396585464478,0.8801580667495728
1789031155479097600,3.86009765625,1.1883957386016846,1.229932188987732,0.819750189781189
1789031155489103600,3.870103515625,1.2690315246582031,1.3335132598876953,0.8237103223800659
1789031155499110700,3.880110595703125,1.4133609533309937,1.1558979749679565,0.9046406745910645
1789031155509117700,3.89011767578125,1.6365444660186768,1.0277793407440186,1.037221074104309
1789031155519124500,3.90012451171875,1.7888389825820923,1.0078574419021606,1.084000825881958
1789031155529131800,3.9101318359375,1.80665922164917,1.1014281511306763,1.0508308410644531
1789031155539138600,3.920138671875,1.835649013519287,0.9858365058898926,0.9815502166748047
1789031155549144600,3.93014453125,1.9513846635818481,0.9821360111236572,0.9467823505401611
1789031155559151600,3.940151611328125,2.120236396789551,1.0728302001953125,0.9645811319351196
1789031155569158700,3.95015869140625,2.2492568492889404,0.9175004959106445,0.9640828967094421
1789031155579165700,3.960165771484375,2.308980703353882,0.7072107195854187,1.0515304803848267
1789031155589171700,3.970171630859375,2.291593551635742,0.45747971534729004,1.2267358303070068
1789031155599178500,3.980178466796875,2.2109975814819336,0.4570292532444,1.2875254154205322
1789031155609185800,3.990185791015625,2.124904155731201,0.6818077564239502,1.288232684135437
1789031155619192600,4.000192626953125,2.0378451347351074,0.9451715350151062,1.2598797082901
1789031155629199600,4.01019970703125,1.8630194664001465,1.6100438833236694,1.1057143211364746
1789031155639205600,4.02020556640625,1.5809448957443237,1.4650110006332397,1.0507874488830566
1789031155649212700,4.030212646484375,1.6701738834381104,0.8039946556091309,1.1192528009414673
1789031155659219500,4.040219482421875,1.8329074382781982,0.5894908308982849,1.2779978513717651
1789031155669226800,4.050226806640625,1.9705196619033813,0.7595168948173523,1.3745996952056885
1789031155679233500,4.060233642578125,1.8405191898345947,0.8828169107437134,1.5181236267089844
1789031155689239600,4.070239501953125,1.5192484855651855,0.8120450377464294,1.6068737506866455
1789031155699246600,4.08024658203125,1.2838068008422852,0.9755926728248596,1.6336513757705688
1789031155709253600,4.090253662109375,1.169572114944458,1.0592193603515625,1.6756802797317505
1789031155719260700,4.1002607421875,1.1573032140731812,0.9749323129653931,1.6525059938430786
1789031155729267700,4.110267822265625,1.176581859588623,0.9182407855987549,1.6044672727584839
1789031155739273500,4.1202734375,1.2299317121505737,0.762194812297821,1.5771809816360474
1789031155749280800,4.13028076171875,1.2344950437545776,0.551937460899353,1.5504703521728516
1789031155759287600,4.14028759765625,1.181252360343933,0.43020468950271606,1.5082972049713135
1789031155769294600,4.150294677734375,1.155173420906067,0.47713518142700195,1.4499106407165527
1789031155779301600,4.160301513671875,1.1123989820480347,0.5967419743537903,1.4203511476516724
1789031155789307600,4.1703076171875,1.1061517000198364,0.748889148235321,1.3673278093338013
1789031155799314400,4.180314453125,1.1141765117645264,0.794622004032135,1.2743208408355713
1789031155809321700,4.19032177734375,1.0867183208465576,0.7927223443984985,1.241174340248108
1789031155819328500,4.20032861328125,0.9562507271766663,0.719912052154541,1.212479591369629
1789031155829335800,4.210335693359375,0.75729900598526,0.5850980281829834,1.25184965133667
1789031155839342600,4.220342529296875,0.5552716255187988,0.5968207120895386,1.3086470365524292
1789031155849348600,4.2303486328125,0.521342396736145,0.6344567537307739,1.2650468349456787
1789031155859355600,4.240355712890625,0.6330755949020386,0.6447127461433411,1.0460584163665771
1789031155869362700,4.25036279296875,0.6614715456962585,0.5252915620803833,0.8825563192367554
1789031155879369500,4.260369384765625,0.6420882940292358,0.30606526136398315,0.8870168328285217
1789031155889375700,4.270375732421875,0.5811514854431152,0.1109413206577301,0.913881242275238
1789031155899382500,4.280382568359375,0.5026019811630249,0.009851740673184395,0.9362077116966248
1789031155909389600,4.2903896484375,0.3223065733909607,0.08363994210958481,0.8910282254219055
1789031155919396600,4.300396728515625,-0.028752349317073822,-0.044278763234615326,0.8402693271636963
1789031155929403600,4.310403564453125,-0.4480856955051422,-0.360805869102478,0.7093949317932129
1789031155939410700,4.32041064453125,-0.7620391845703125,-0.6648579835891724,0.6026939153671265
1789031155949416700,4.330416748046875,-0.9214317798614502,-0.8905395865440369,0.5759387016296387
1789031155959423500,4.340423583984375,-0.9292641878128052,-1.07517671585083,0.6612709760665894
1789031155969430800,4.3504306640625,-0.7523083090782166,-1.2682087421417236,0.6887097954750061
1789031155979437600,4.3604375,-0.5565623641014099,-1.3986461162567139,0.3946630656719208
1789031155989444600,4.370444580078125,-0.38261401653289795,-1.5469930171966553,-0.5854864716529846
1789031155999450600,4.38045068359375,-0.41696223616600037,-1.3497976064682007,-0.613284707069397
1789031156009457700,4.390457763671875,-0.7281747460365295,-1.7147397994995117,-0.6063773036003113
1789031156019464400,4.40046435546875,-0.9992771744728088,-2.0848259925842285,-1.295677900314331
1789031156029471700,4.4104716796875,-2.0190768241882324,-2.594860792160034,-2.6889936923980713
1789031156039478500,4.420478515625,-2.4827494621276855,-0.914137601852417,-2.106383800506592
1789031156049484500,4.430484619140625,-2.463682174682617,1.850439429283142,-1.1063077449798584
1789031156059491600,4.44049169921875,-1.7768338918685913,3.806476354598999,-0.9658569693565369
1789031156069498600,4.45049853515625,-1.345974087715149,3.8870961666107178,-1.557332992553711
1789031156079505700,4.460505615234375,-1.2156766653060913,2.8130404949188232,-1.8507311344146729
1789031156089512700,4.4705126953125,-1.0697658061981201,1.2037025690078735,-1.8009332418441772
1789031156099518500,4.4805185546875,-0.8046423196792603,-0.2856553792953491,-1.6646391153335571
1789031156109525800,4.49052587890625,-0.5163838863372803,-1.03639817237854,-1.4560768604278564
1789031156119532500,4.500532470703125,-0.2916335463523865,-1.120129942893982,-1.2670611143112183
1789031156129539600,4.51053955078125,-0.12185890227556229,-0.9655088782310486,-1.120561122894287
1789031156139546600,4.520546630859375,0.04041464999318123,-0.659813404083252,-0.9231168627738953
1789031156149552600,4.530552734375,0.18539687991142273,-0.4212231934070587,-0.6097448468208313
1789031156159559400,4.540559326171875,0.25700467824935913,-0.27178454399108887,-0.31079304218292236
1789031156169566700,4.550566650390625,0.21013383567333221,-0.18003492057323456,-0.13760152459144592
1789031156179573500,4.560573486328125,0.024205077439546585,-0.1939087063074112,-0.15552467107772827
1789031156189580800,4.570580810546875,-0.2681351900100708,-0.16668693721294403,-0.35231414437294006
1789031156199586600,4.580586669921875,-0.6464331150054932,0.016763009130954742,-0.6040506362915039
1789031156209593600,4.590593505859375,-0.9985858201980591,0.19577749073505402,-0.7939308285713196
1789031156219600600,4.6006005859375,-1.2424077987670898,0.016503065824508667,-0.8951435089111328
1789031156229607700,4.610607666015625,-1.2966617345809937,-0.5359020829200745,-0.894009530544281
1789031156239614500,4.620614501953125,-1.131105661392212,-1.1391545534133911,-0.8330221772193909
1789031156249621500,4.63062158203125,-0.9126535654067993,-1.5083197355270386,-0.7906693816184998
1789031156259627500,4.64062744140625,-0.9007301926612854,-1.4072390794754028,-0.8308352828025818
1789031156269634600,4.650634521484375,-0.9053917527198792,-0.9085205793380737,-1.0045827627182007
1789031156279641600,4.6606416015625,-0.8864285349845886,-0.5271437764167786,-1.0987544059753418
1789031156289648600,4.670648681640625,-0.9258084297180176,-0.4314116835594177,-1.094710350036621
1789031156299655700,4.68065576171875,-1.0190255641937256,-0.6397614479064941,-1.0781350135803223
1789031156309661700,4.69066162109375,-1.0969693660736084,-0.9008631110191345,-1.033040165901184
1789031156319668500,4.70066845703125,-1.1163371801376343,-0.9708124995231628,-1.0741480588912964
1789031156329675800,4.71067578125,-1.1051876544952393,-0.9932573437690735,-1.1474648714065552
1789031156339682600,4.7206826171875,-1.0672696828842163,-0.9778825640678406,-1.2177376747131348
1789031156349689600,4.730689697265625,-1.0884168148040771,-1.0869994163513184,-1.1965609788894653
1789031156359695600,4.740695556640625,-1.1184335947036743,-0.9831591844558716,-1.1709362268447876
1789031156369702700,4.75070263671875,-1.1331634521484375,-0.8070946931838989,-1.172966718673706
1789031156379709400,4.76070947265625,-1.1117783784866333,-0.9105966687202454,-1.1883642673492432
1789031156389716700,4.770716796875,-1.1127419471740723,-1.0423851013183594,-1.3266476392745972
1789031156399723500,4.7807236328125,-1.0416524410247803,-1.0174716711044312,-1.451858639717102
1789031156409729500,4.7907294921875,-0.9830419421195984,-1.0912702083587646,-1.4534592628479004
1789031156419736600,4.800736572265625,-0.9606890678405762,-1.1198917627334595,-1.4410146474838257
1789031156429743600,4.81074365234375,-0.9236921668052673,-1.2797902822494507,-1.3406821489334106
1789031156439750700,4.820750732421875,-0.8618695735931396,-1.8365205526351929,-1.1548718214035034
1789031156449757700,4.8307578125,-0.7457738518714905,-1.9477137327194214,-1.0073564052581787
1789031156459764500,4.840764404296875,-0.7557296752929688,-1.8078306913375854,-0.8939172029495239
1789031156469770500,4.8507705078125,-0.8433852195739746,-1.4833463430404663,-0.8687071800231934
1789031156479777500,4.860777587890625,-0.892995297908783,-1.229111671447754,-0.8915671706199646
1789031156489784600,4.87078466796875,-0.8078628182411194,-1.0858514308929443,-0.9269565939903259
1789031156499791600,4.88079150390625,-0.6087168455123901,-1.1206083297729492,-1.0249571800231934
1789031156509798400,4.89079833984375,-0.4892410635948181,-0.8778217434883118,-1.0498979091644287
1789031156519804400,4.900804443359375,-0.5414357781410217,-0.26807981729507446,-1.0365575551986694
1789031156529811700,4.910811767578125,-0.6722374558448792,0.11986897885799408,-0.9795089364051819
1789031156539818500,4.920818603515625,-0.715050220489502,-0.08263419568538666,-0.8049424290657043
1789031156549825500,4.930825439453125,-0.7514330148696899,-0.4644545316696167,-0.73599773645401
1789031156559832600,4.94083251953125,-0.7653524875640869,-0.43485763669013977,-0.7049746513366699
1789031156569838600,4.950838623046875,-0.6799255013465881,0.03370319679379463,-0.7447298169136047
1789031156579845400,4.960845458984375,-0.6104671955108643,0.2524082064628601,-0.7986931204795837
1789031156589852700,4.970852783203125,-0.5834444165229797,0.33200129866600037,-0.7501253485679626
1789031156599859500,4.980859375,-0.5818098187446594,0.652850329875946,-0.5055442452430725
1789031156609866500,4.990866455078125,-0.5941799879074097,1.0194714069366455,-0.3417912721633911
1789031156619872500,5.00087255859375,-0.6421840190887451,0.8843472003936768,-0.2617962956428528
1789031156629879600,5.010879638671875,-0.7008244395256042,0.4720187783241272,-0.11744310706853867
1789031156639886600,5.020886474609375,-0.714568018913269,0.45094549655914307,-0.08979865163564682
1789031156649893600,5.0308935546875,-0.5952796936035156,0.698787271976471,-0.0640871599316597
1789031156659900400,5.040900390625,-0.41779544949531555,0.7993667125701904,0.019879169762134552
1789031156669907500,5.050907470703125,-0.2598572075366974,0.8898191452026367,0.11527998745441437
1789031156679913500,5.06091357421875,-0.1287408471107483,0.8308233618736267,0.21614912152290344
1789031156689920500,5.07092041015625,-0.03912787511944771,0.7757071256637573,0.33402568101882935
1789031156699927600,5.080927490234375,0.04788198322057724,0.7486980557441711,0.46823009848594666
1789031156709934600,5.0909345703125,0.1513708233833313,0.6447482109069824,0.5680946707725525
1789031156719941600,5.100941650390625,0.30114367604255676,0.5623711347579956,0.6349112391471863
1789031156729947600,5.11094775390625,0.4805118143558502,0.6218739151954651,0.6936648488044739
1789031156739954400,5.120954345703125,0.650101900100708,0.8562379479408264,0.7742393016815186
1789031156749961700,5.130961669921875,0.8483596444129944,1.2364883422851562,0.8297001719474792
1789031156759968500,5.140968505859375,1.0417451858520508,1.5279788970947266,0.8160719871520996
1789031156769975300,5.150975341796875,1.1754415035247803,1.6318533420562744,0.8851085305213928
1789031156779981600,5.160981689453125,1.211132526397705,1.4701039791107178,1.026492714881897
1789031156789988600,5.170988525390625,1.2438015937805176,1.2744343280792236,1.155527949333191
1789031156799995400,5.180995361328125,1.30372953414917,1.1964131593704224,1.1628036499023438
1789031156810002700,5.191002685546875,1.3465144634246826,1.130612850189209,1.1488503217697144
1789031156820009500,5.201009521484375,1.4107850790023804,1.0353107452392578,1.206781268119812
1789031156830016500,5.2110166015625,1.535739541053772,0.7377448678016663,1.2553471326828003
1789031156840022500,5.2210224609375,1.6050291061401367,0.2027914673089981,1.353557825088501
1789031156850029600,5.231029541015625,1.5767793655395508,0.004486098885536194,1.404279112815857
1789031156860036600,5.24103662109375,1.5528169870376587,0.14024685323238373,1.3786731958389282
1789031156870043400,5.25104345703125,1.576171636581421,0.46168428659439087,1.2758829593658447
1789031156880050400,5.261050537109375,1.6930818557739258,0.6736838221549988,1.1880323886871338
1789031156890056700,5.271056640625,1.8236736059188843,0.6416447162628174,1.24494469165802
1789031156900063500,5.2810634765625,2.0377063751220703,0.7032075524330139,1.3210883140563965
1789031156910070500,5.291070556640625,2.080310583114624,0.48767924308776855,1.5516104698181152
1789031156920077600,5.30107763671875,1.982039451599121,0.48167693614959717,1.7704302072525024
1789031156930084400,5.31108447265625,1.7779605388641357,0.6373762488365173,1.913914680480957
1789031156940090600,5.321090576171875,1.587030291557312,0.7075631022453308,2.0527451038360596
1789031156950097700,5.33109765625,1.458661437034607,0.6803093552589417,2.1250338554382324
1789031156960104400,5.3411044921875,1.4272077083587646,0.6590359210968018,2.0258684158325195
1789031156970111500,5.351111572265625,1.4073137044906616,0.5618433356285095,1.8046172857284546
1789031156980118500,5.361118408203125,1.462706208229065,0.4768221080303192,1.5685079097747803
1789031156990125600,5.37112548828125,1.614894151687622,0.3938084542751312,1.4186168909072876
1789031157000131600,5.381131591796875,1.5691736936569214,0.19224487245082855,1.5661780834197998
1789031157010138600,5.391138671875,1.333077311515808,0.12117443233728409,1.8272647857666016
1789031157020145700,5.401145751953125,1.0418376922607422,0.420665979385376,2.010004758834839
1789031157030152400,5.41115234375,0.8043124675750732,0.8717138767242432,2.1304993629455566
1789031157040159500,5.421159423828125,0.8952774405479431,1.3279876708984375,2.140960454940796
1789031157050165800,5.431165771484375,1.3653637170791626,1.3747621774673462,1.848809003829956
1789031157060172500,5.441172607421875,1.6309757232666016,1.1110904216766357,1.6077665090560913
1789031157070179600,5.4511796875,1.4860901832580566,1.0808137655258179,1.6892973184585571
1789031157080186600,5.4611865234375,1.1095702648162842,1.1493752002716064,1.9766639471054077
1789031157090193400,5.471193359375,0.6895163059234619,0.7558835744857788,1.7445961236953735
1789031157100200700,5.48120068359375,0.4105927348136902,0.43907806277275085,0.9915043115615845
1789031157110206700,5.491206787109375,0.22455443441867828,0.7034207582473755,0.36351659893989563
1789031157120213500,5.501213623046875,0.18082638084888458,0.8983926773071289,0.09971492737531662
1789031157130220500,5.511220458984375,0.27162447571754456,0.679993748664856,0.021146617829799652
1789031157140227600,5.5212275390625,0.16851377487182617,0.17285051941871643,-0.02377888932824135
1789031157150234400,5.531234375,-0.08329609781503677,-0.42200618982315063,-0.15379707515239716
1789031157160240600,5.54124072265625,-0.37089282274246216,-0.9521838426589966,-0.44202518463134766
1789031157170247700,5.55124755859375,-0.6977422833442688,-1.058323860168457,-0.8717864155769348
1789031157180254500,5.56125439453125,-0.9736543297767639,-0.6720797419548035,-1.361008882522583
1789031157190261500,5.571261474609375,-1.1857367753982544,-0.36842215061187744,-1.7218530178070068
1789031157200268500,5.5812685546875,-1.3413515090942383,-0.3378306031227112,-1.8677728176116943
1789031157210275600,5.591275634765625,-1.4449223279953003,-0.27987784147262573,-1.9053263664245605
1789031157220281600,5.601281494140625,-1.4864351749420166,0.08816280215978622,-1.9608010053634644
1789031157230288400,5.611288330078125,-1.603346347808838,0.433538556098938,-2.0396199226379395
1789031157240295700,5.621295654296875,-1.7834428548812866,0.21821849048137665,-1.9584846496582031
1789031157250302500,5.631302490234375,-1.6560872793197632,-0.03154446557164192,-1.8166803121566772
1789031157260309500,5.6413095703125,-1.2679307460784912,-0.1381596326828003,-1.6487003564834595
1789031157270315500,5.6513154296875,-0.9395767450332642,-0.0421377569437027,-1.4548063278198242
1789031157280322600,5.661322509765625,-0.7935451865196228,0.25028687715530396,-1.244500994682312
1789031157290329300,5.671329345703125,-0.9535753726959229,0.8258348703384399,-1.1486685276031494
1789031157300336600,5.681336669921875,-0.9981194138526917,1.5384629964828491,-1.1532313823699951
1789031157310343400,5.691343505859375,-0.9577632546424866,1.2071186304092407,-0.8321294188499451
1789031157320350700,5.701350830078125,-0.827792227268219,0.34446388483047485,-0.43713635206222534
1789031157330356500,5.7113564453125,-0.524885356426239,-0.3378520905971527,-0.30950862169265747
1789031157340363500,5.721363525390625,-0.2963109016418457,-0.8549370765686035,-0.2892789840698242
1789031157350370600,5.73137060546875,-0.295093297958374,-0.8799582719802856,-0.38255834579467773
1789031157360377600,5.741377685546875,-0.45274579524993896,-0.4647337794303894,-0.5704783797264099
1789031157370384400,5.75138427734375,-0.6987936496734619,0.026122476905584335,-0.7139096260070801
1789031157380390700,5.761390625,-1.002354621887207,0.35819023847579956,-0.7429972887039185
1789031157390397400,5.7713974609375,-1.3149242401123047,0.19733290374279022,-0.6524964570999146
1789031157400404500,5.781404541015625,-1.3889802694320679,-0.2033080905675888,-0.5163303017616272
1789031157410411500,5.79141162109375,-1.181113600730896,-0.5508196949958801,-0.43591904640197754
1789031157420418600,5.80141845703125,-0.8550567626953125,-0.42205265164375305,-0.4917636215686798
1789031157430425600,5.811425537109375,-0.7923880815505981,-0.3492884337902069,-0.5217079520225525
1789031157440431600,5.821431640625,-0.8781436085700989,-0.7310060262680054,-0.443742036819458
1789031157450438400,5.8314384765625,-0.9683957099914551,-1.2332472801208496,-0.3759006857872009
1789031157460445700,5.84144580078125,-1.0594996213912964,-1.5888036489486694,-0.3142513632774353
1789031157470452700,5.85145263671875,-1.1373668909072876,-1.6244087219238281,-0.31379568576812744
1789031157480459800,5.861459716796875,-1.162126064300537,-1.2363885641098022,-0.47043943405151367
1789031157490465500,5.871465576171875,-1.013895869255066,-0.751255452632904,-0.7740631699562073
1789031157500472800,5.881472900390625,-1.0520778894424438,-1.1082580089569092,-0.7830130457878113
1789031157510479600,5.891479736328125,-1.1668915748596191,-1.4280248880386353,-0.565973162651062
1789031157520486700,5.901486572265625,-1.3683559894561768,-1.686737298965454,-0.2951214909553528
1789031157530493700,5.91149365234375,-1.5828797817230225,-1.723435878753662,-0.25706014037132263
1789031157540500700,5.921500732421875,-1.46183443069458,-1.3275705575942993,-0.6536912322044373
1789031157550506500,5.931506591796875,-1.1973422765731812,-1.395455241203308,-0.989125669002533
1789031157560513800,5.941513671875,-1.1862876415252686,-1.9100134372711182,-0.9838493466377258
1789031157570520600,5.9515205078125,-1.4062410593032837,-2.164155960083008,-0.7669239640235901
1789031157580527900,5.96152783203125,-1.5133196115493774,-1.7000905275344849,-0.587017297744751
1789031157590534700,5.97153466796875,-1.3943839073181152,-0.7900723814964294,-0.4955422580242157
1789031157600541700,5.981541748046875,-1.1870471239089966,-0.3621525466442108,-0.6432061195373535
1789031157610547700,5.991547607421875,-1.0015329122543335,-1.1124933958053589,-0.9371544122695923
1789031157620554800,6.0015546875,-0.9084440469741821,-2.0478928089141846,-1.1535459756851196
1789031157630561500,6.0115615234375,-1.0669931173324585,-1.516448974609375,-1.3302325010299683
1789031157640568800,6.02156884765625,-1.334901213645935,-0.3300006091594696,-1.3744345903396606
1789031157650575600,6.03157568359375,-1.5227235555648804,0.21931950747966766,-1.2377175092697144
1789031157660581600,6.04158154296875,-1.4204083681106567,-0.1557249128818512,-1.0949350595474243
1789031157670588700,6.051588623046875,-1.2389565706253052,-0.4788726270198822,-1.162356972694397
1789031157680595700,6.061595703125,-1.214294195175171,-0.4316847026348114,-1.3176482915878296
1789031157690602800,6.071602783203125,-1.203485131263733,-0.527533769607544,-1.234228253364563
1789031157700609800,6.08160986328125,-1.0852526426315308,-0.8292739391326904,-1.00075364112854
1789031157710616600,6.091616455078125,-0.8343101739883423,-0.835658609867096,-0.896726667881012
1789031157720622800,6.101622802734375,-0.5994909405708313,0.1932913064956665,-1.279124140739441
1789031157730629600,6.111629638671875,-0.3335263729095459,0.9040956497192383,-1.4896467924118042
1789031157740636700,6.12163671875,-0.11358334124088287,0.9187385439872742,-1.2408941984176636
1789031157750643700,6.131643798828125,-0.09904620796442032,0.16898490488529205,-0.7723211050033569
1789031157760650800,6.141650634765625,-0.10968797653913498,-0.5098558664321899,-0.43048161268234253
1789031157770657800,6.15165771484375,-0.15412601828575134,-0.007926201447844505,-0.4080812335014343
1789031157780663800,6.161663818359375,-0.17199358344078064,1.3022739887237549,-0.832361102104187
1789031157790670600,6.171670654296875,-0.08166074752807617,2.1290318965911865,-1.1582708358764648
1789031157800678000,6.181677978515625,0.38658466935157776,2.394428014755249,-1.0878170728683472
1789031157810684700,6.1916845703125,0.802557110786438,1.8569854497909546,-0.4939238131046295
1789031157820691700,6.201691650390625,1.0453048944473267,0.9594399333000183,0.09359881281852722
1789031157830697700,6.21169775390625,1.1249842643737793,0.9383796453475952,0.22843946516513824
1789031157840704800,6.221704833984375,1.1256111860275269,0.9866474270820618,0.28891104459762573
1789031157850711800,6.2317119140625,1.1535747051239014,0.9281236529350281,0.40583741664886475
1789031157860718800,6.24171875,1.2961894273757935,1.007145881652832,0.525765061378479
1789031157870725600,6.2517255859375,1.5821977853775024,1.2338535785675049,0.5617587566375732
1789031157880732700,6.261732666015625,1.756301999092102,1.2151446342468262,0.5590956807136536
1789031157890738700,6.27173876953125,1.7180256843566895,0.8938171863555908,0.6771448254585266
1789031157900745700,6.281745849609375,1.720367431640625,0.4215477705001831,0.9382888078689575
1789031157910752800,6.291752685546875,1.784647822380066,0.10493655502796173,1.1294190883636475
1789031157920759600,6.301759521484375,1.7437995672225952,-0.023732922971248627,1.25372314453125
1789031157930766800,6.311766845703125,1.5909969806671143,-0.25277915596961975,1.401953935623169
1789031157940773600,6.321773681640625,1.397856593132019,-0.5867317318916321,1.5185551643371582
1789031157950779600,6.331779541015625,1.298866629600525,-0.5565176010131836,1.5275771617889404
1789031157960787000,6.341786865234375,1.4828840494155884,-0.10487960278987885,1.4601229429244995
1789031157970793700,6.351793701171875,1.6958541870117188,0.30550554394721985,1.537839651107788
1789031157980800500,6.361800537109375,1.832696557044983,0.5933595299720764,1.698142647743225
1789031157990807800,6.371807861328125,1.8549154996871948,0.44211459159851074,1.991849660873413
1789031158000813800,6.381813720703125,1.822849154472351,0.40739911794662476,2.2026901245117188
1789031158010820600,6.391820556640625,1.7377287149429321,0.7257847785949707,2.1984851360321045
1789031158020827600,6.40182763671875,1.5837767124176025,0.9206076860427856,2.1186254024505615
1789031158030834700,6.411834716796875,1.4674228429794312,0.8928024172782898,2.0961263179779053
1789031158040841700,6.421841796875,1.4039467573165894,0.7934697866439819,2.1195998191833496
1789031158050848800,6.431848876953125,1.4581433534622192,0.7681135535240173,2.094461441040039
1789031158060854800,6.441854736328125,1.5731149911880493,0.8093879222869873,1.949178695678711
1789031158070861800,6.45186181640625,1.684096097946167,0.9504835605621338,1.7409671545028687
1789031158080868600,6.46186865234375,1.7347089052200317,1.0292837619781494,1.659591794013977
1789031158090875600,6.471875732421875,1.755892038345337,0.8783871531486511,1.6922975778579712
1789031158100882700,6.481882568359375,1.8528121709823608,0.7502204775810242,1.6127400398254395
1789031158110889700,6.4918896484375,2.010054588317871,1.046657681465149,1.3650985956192017
1789031158120895700,6.501895751953125,2.0725133419036865,1.6968320608139038,0.96844083070755
1789031158130902800,6.51190283203125,1.7515743970870972,1.94631826877594,0.6331472396850586
1789031158140909600,6.52190966796875,1.070639729499817,1.2320239543914795,0.7554365396499634
1789031158150916900,6.531916748046875,0.7346798181533813,0.3168390691280365,1.0027265548706055
1789031158160923600,6.541923583984375,0.6617132425308228,-0.2319985181093216,1.0950939655303955
1789031158170930700,6.5519306640625,0.6646728515625,0.16213467717170715,0.6273033618927002
1789031158180936700,6.561936767578125,0.6500998139381409,1.1988521814346313,-0.21611759066581726
1789031158190943700,6.57194384765625,0.4125104546546936,1.9055073261260986,-0.6780557036399841
1789031158200950500,6.581950439453125,0.09442438930273056,1.7296555042266846,-0.6570376753807068
1789031158210957800,6.591957763671875,-0.17967772483825684,0.805444598197937,-0.5967623591423035
1789031158220964600,6.601964599609375,-0.49400004744529724,-0.6340295076370239,-0.5567712187767029
1789031158230972000,6.611971923828125,-0.6660013794898987,-1.485489010810852,-0.6137303709983826
1789031158240977700,6.621977783203125,-0.8280932307243347,-0.8481416702270508,-0.8168259859085083
1789031158250984700,6.631984619140625,-0.7996250987052917,0.48188701272010803,-1.165939211845398
1789031158260991700,6.64199169921875,-0.49184924364089966,1.1120054721832275,-1.249807596206665
1789031158270998800,6.651998779296875,-0.2828744649887085,0.7673982977867126,-0.9702297449111938
1789031158281005600,6.662005615234375,-0.4657233953475952,0.17931044101715088,-0.5575294494628906
1789031158291012900,6.672012939453125,-0.6980679631233215,-0.40555623173713684,-0.17401990294456482
1789031158301018600,6.6820185546875,-0.8008173108100891,-0.6057242751121521,-0.0008276600856333971
1789031158311025700,6.692025634765625,-0.804860532283783,-0.2901380956172943,-0.0009400455746799707
1789031158321032700,6.70203271484375,-0.5796461701393127,0.41543424129486084,-0.20283924043178558
1789031158331039700,6.712039794921875,-0.3231869637966156,0.7691965699195862,-0.3610914647579193
1789031158341046800,6.722046875,-0.32127028703689575,0.8326337337493896,-0.3647977411746979
1789031158351052800,6.732052734375,-0.6061171889305115,0.497615784406662,-0.46179670095443726
1789031158361059600,6.7420595703125,-0.9290772080421448,-0.2677837014198303,-0.576582670211792
1789031158371067000,6.75206689453125,-1.0291043519973755,-0.9457107782363892,-0.4192279577255249
1789031158381073700,6.76207373046875,-1.0144621133804321,-0.9016279578208923,-0.27410590648651123
1789031158391080700,6.772080810546875,-0.9389345645904541,-0.1641259342432022,-0.33492958545684814
1789031158401087700,6.782087646484375,-0.9035542011260986,0.4746300280094147,-0.7069748044013977
1789031158411093800,6.79209375,-0.9564592242240906,0.5410378575325012,-1.251615285873413
1789031158421100500,6.8021005859375,-1.1660003662109375,0.14248882234096527,-1.5086617469787598
1789031158431107800,6.81210791015625,-1.494737982749939,-0.5775404572486877,-1.1890901327133179
1789031158441114600,6.822114501953125,-1.5702824592590332,-1.1710785627365112,-0.6819424033164978
1789031158451122000,6.832121826171875,-1.3449379205703735,-1.2402091026306152,-0.5272694230079651
1789031158461129200,6.842129150390625,-1.1489999294281006,-0.677504301071167,-0.7998228073120117
1789031158471135200,6.85213525390625,-1.1197680234909058,-0.2325875461101532,-1.2002812623977661
1789031158481142000,6.86214208984375,-1.1749423742294312,-0.27105313539505005,-1.5041370391845703
1789031158491149300,6.8721494140625,-1.2430548667907715,-0.641120970249176,-1.6247700452804565
1789031158501156000,6.882156005859375,-1.3567637205123901,-1.120361566543579,-1.5098532438278198
1789031158511163100,6.8921630859375,-1.485374093055725,-1.3936853408813477,-1.287558674812317
1789031158521170200,6.902170166015625,-1.6011803150177002,-1.3097368478775024,-1.143235683441162
1789031158531176200,6.91217626953125,-1.7205810546875,-1.107668399810791,-1.1706609725952148
1789031158541183200,6.922183349609375,-1.7915234565734863,-0.8446535468101501,-1.3093147277832031
1789031158551190000,6.93218994140625,-1.7598259449005127,-0.6883981823921204,-1.4134653806686401
1789031158561197300,6.942197265625,-1.6198047399520874,-0.5876657962799072,-1.323629379272461
1789031158571204000,6.9522041015625,-1.4159741401672363,-0.5653738379478455,-1.1654585599899292
1789031158581211100,6.962211181640625,-1.2516833543777466,-0.9162236452102661,-0.9705387949943542
1789031158591217200,6.972217041015625,-1.1707632541656494,-1.4816497564315796,-0.7433866262435913
1789031158601224200,6.98222412109375,-1.1690503358840942,-1.8122323751449585,-0.6676996946334839
1789031158611231000,6.99223095703125,-1.1436530351638794,-1.7486472129821777,-0.7991293668746948
1789031158621238300,7.00223828125,-1.0934116840362549,-1.4440381526947021,-1.021805763244629
1789031158631245000,7.0122451171875,-1.062923789024353,-1.017054557800293,-1.1246341466903687
1789031158641252400,7.02225244140625,-0.9895826578140259,-0.7392657399177551,-1.0350346565246582
1789031158651258000,7.032258056640625,-0.9355777502059937,-0.9843452572822571,-0.8553146719932556
1789031158661265200,7.04226513671875,-0.9368913173675537,-1.5658615827560425,-0.7399688363075256
1789031158671272200,7.052272216796875,-1.0185346603393555,-1.9711006879806519,-0.6711745858192444
1789031158681279200,7.062279296875,-1.0649925470352173,-1.357000708580017,-0.8673922419548035
1789031158691286000,7.0722861328125,-1.05426025390625,-0.6267595291137695,-1.0780080556869507
1789031158701292300,7.082292236328125,-0.9370478391647339,-0.48112964630126953,-1.0659974813461304
1789031158711299000,7.092299072265625,-0.7536596059799194,-0.8358924984931946,-0.8864493370056152
1789031158721306000,7.10230615234375,-0.5755111575126648,-1.1425918340682983,-0.6651322245597839
1789031158731313200,7.112313232421875,-0.4921954870223999,-1.0213868618011475,-0.5107836723327637
1789031158741320200,7.1223203125,-0.5212690830230713,-0.8009907007217407,-0.5264045596122742
1789031158751327200,7.1323271484375,-0.49337220191955566,-0.6385564804077148,-0.6091063618659973
1789031158761333200,7.142333251953125,-0.32272931933403015,-0.4918113052845001,-0.7021769285202026
1789031158771340000,7.152340087890625,-0.17863711714744568,-0.4564272165298462,-0.6740283370018005
1789031158781347300,7.162347412109375,-0.08091641217470169,-0.4231307804584503,-0.4611433446407318
1789031158791354000,7.17235400390625,0.030422359704971313,-0.24237005412578583,-0.30003488063812256
1789031158801361200,7.182361083984375,0.21164608001708984,-0.051029060035943985,-0.240064799785614
1789031158811368200,7.1923681640625,0.29866939783096313,0.07683223485946655,-0.17126044631004333
1789031158821374200,7.202374267578125,0.339558482170105,0.09571099281311035,-0.04427623376250267
1789031158831381000,7.212381103515625,0.3617143929004669,0.26652002334594727,0.0038510840386152267
1789031158841388300,7.22238818359375,0.5102037191390991,0.5609790682792664,0.03068525530397892
1789031158851395000,7.23239501953125,0.6409244537353516,0.375887006521225,0.19964845478534698
1789031158861402400,7.24240234375,0.7264049649238586,0.3058129847049713,0.3841076195240021
1789031158871409200,7.2524091796875,0.8134580850601196,0.5236233472824097,0.4967052638530731
1789031158881415200,7.262415283203125,0.9564591646194458,0.9837822914123535,0.5044864416122437
1789031158891422200,7.272422119140625,1.1216912269592285,1.3768057823181152,0.5257374048233032
1789031158901429200,7.28242919921875,1.319962739944458,1.5348377227783203,0.5830103754997253
1789031158911436000,7.29243603515625,1.466860294342041,1.338680386543274,0.7273481488227844
1789031158921443300,7.302443359375,1.4787899255752563,0.7783042788505554,1.0428016185760498
1789031158931450000,7.3124501953125,1.5070849657058716,0.4816156029701233,1.273557424545288
1789031158941456100,7.3224560546875,1.5808992385864258,0.49882012605667114,1.3359315395355225
1789031158951463200,7.332463134765625,1.659096598625183,0.7441047430038452,1.203123688697815
1789031158961470200,7.34247021484375,1.6328457593917847,0.8603788614273071,1.1347213983535767
1789031158971477200,7.352477294921875,1.6561516523361206,0.8792697191238403,1.2025552988052368
1789031158981484300,7.362484375,1.7570292949676514,0.7435658574104309,1.3783073425292969
1789031158991491000,7.372490966796875,1.8768808841705322,0.612793505191803,1.527801752090454
1789031159001497300,7.382497314453125,1.9523123502731323,0.6248502135276794,1.5931204557418823
1789031159011504000,7.392504150390625,1.9748597145080566,0.7923041582107544,1.6708924770355225
1789031159021511200,7.40251123046875,2.0003604888916016,0.9930878281593323,1.7317640781402588
1789031159031518200,7.412518310546875,2.008268356323242,0.9831712245941162,1.753790020942688
1789031159041525200,7.422525146484375,2.0404369831085205,0.8215174674987793,1.7472331523895264
1789031159051532300,7.4325322265625,2.0693235397338867,0.7066042423248291,1.8019129037857056
1789031159061538300,7.442538330078125,2.108471155166626,0.8053781390190125,1.8001763820648193
1789031159071545000,7.452545166015625,2.018829345703125,0.8772193193435669,1.7987643480300903
1789031159081552400,7.462552490234375,1.8890964984893799,1.1606193780899048,1.8159054517745972
1789031159091559200,7.47255908203125,1.8197236061096191,1.1086304187774658,1.8234816789627075
1789031159101566000,7.48256591796875,1.9090367555618286,1.5747100114822388,1.5768635272979736
1789031159111573200,7.4925732421875,1.76466965675354,1.7229210138320923,1.395867943763733
1789031159121579300,7.502579345703125,1.7258979082107544,1.9227248430252075,1.4586458206176758
1789031159131586000,7.5125859375,1.8142194747924805,2.0012807846069336,1.5519040822982788
1789031159141593300,7.52259326171875,1.789530873298645,1.6426767110824585,1.6704081296920776
1789031159151600000,7.53260009765625,1.5731815099716187,1.1674787998199463,1.6700389385223389
1789031159161607200,7.542607177734375,1.2014740705490112,0.8560171127319336,1.5428849458694458
1789031159171614200,7.5526142578125,0.8622032999992371,0.7412486672401428,1.3101110458374023
1789031159181620200,7.5626201171875,0.6196388602256775,0.4707421362400055,1.074460744857788
1789031159191627300,7.572627197265625,0.5313886404037476,0.16436755657196045,0.8929983973503113
1789031159201634000,7.582634033203125,0.44158855080604553,-0.25219857692718506,0.8155321478843689
1789031159211641000,7.59264111328125,0.24237293004989624,-0.6845872402191162,0.7271977066993713
1789031159221648100,7.602648193359375,0.047564707696437836,-0.5081011056900024,0.39397701621055603
1789031159231655200,7.6126552734375,-0.08337999135255814,-0.046955615282058716,-0.08596295863389969
1789031159241661200,7.6226611328125,-0.24619251489639282,0.14814646542072296,-0.4438408315181732
1789031159251668200,7.632668212890625,-0.46076393127441406,0.07399100810289383,-0.6241986155509949
1789031159261675000,7.642675048828125,-0.6912587285041809,-0.1982889324426651,-0.6663995385169983
1789031159271682300,7.652682373046875,-0.7716161608695984,-0.4623831510543823,-0.6733434796333313
1789031159281689000,7.662689208984375,-0.8263834714889526,-0.651660680770874,-0.6286200881004333
1789031159291696000,7.672696044921875,-0.8823069334030151,-0.3586893081665039,-0.6686069369316101
1789031159301702100,7.6827021484375,-0.8726072311401367,0.17624537646770477,-0.8656108379364014
1789031159311709200,7.692709228515625,-0.9319102168083191,0.25517773628234863,-0.9571967124938965
1789031159321716000,7.702716064453125,-1.0456879138946533,0.048305947333574295,-0.9533525705337524
1789031159331723300,7.71272314453125,-1.16098153591156,-0.2533774971961975,-0.828158974647522
1789031159341730000,7.72272998046875,-1.2127492427825928,-0.465195894241333,-0.6341184973716736
1789031159351737300,7.7327373046875,-1.1406992673873901,-0.39131155610084534,-0.5877773761749268
1789031159361743000,7.7427431640625,-1.0053106546401978,-0.07483214884996414,-0.714347243309021
1789031159371750100,7.752750244140625,-0.8379298448562622,0.27665531635284424,-0.9356141686439514
1789031159381757200,7.762757080078125,-0.8358542919158936,0.38844993710517883,-0.9680930972099304
1789031159391764200,7.77276416015625,-0.9461246132850647,0.29492583870887756,-0.8114616870880127
1789031159401771000,7.78277099609375,-1.1179943084716797,0.0284404419362545,-0.6351166367530823
1789031159411778300,7.7927783203125,-1.2322779893875122,-0.18599116802215576,-0.5916991233825684
1789031159421784000,7.8027841796875,-1.294122576713562,-0.31575071811676025,-0.6168417930603027
1789031159431791000,7.812791015625,-1.3763974905014038,-0.29475224018096924,-0.7277829647064209
1789031159441798100,7.822798095703125,-1.429234266281128,-0.04601035267114639,-1.0309560298919678
1789031159451805200,7.83280517578125,-1.5026650428771973,-0.04171920195221901,-1.2385808229446411
1789031159461811700,7.842811767578125,-1.537554383277893,-0.09385333210229874,-1.219924807548523
1789031159471818800,7.85281884765625,-1.5722285509109497,-0.17968566715717316,-1.0576173067092896
1789031159481824500,7.862824462890625,-1.6177595853805542,-0.39753419160842896,-0.8745763897895813
1789031159491831800,7.872831787109375,-1.6201212406158447,-0.6568237543106079,-0.7977820038795471
1789031159501838600,7.882838623046875,-1.5540971755981445,-0.9227805733680725,-0.7447184920310974
1789031159511845600,7.892845703125,-1.53270423412323,-0.9562336206436157,-0.7210842967033386
1789031159521852700,7.902852783203125,-1.6314870119094849,-0.9293717741966248,-0.8509376645088196
1789031159531859700,7.912859619140625,-1.6910244226455688,-0.9253965020179749,-1.0189117193222046
1789031159541865500,7.922865478515625,-1.6853768825531006,-0.9456852078437805,-0.9503446817398071
1789031159551872800,7.932872802734375,-1.675941824913025,-1.1743454933166504,-0.7000775933265686
1789031159561879600,7.942879638671875,-1.6062581539154053,-1.3789721727371216,-0.5366706252098083
1789031159571886800,7.952886962890625,-1.5761873722076416,-1.496848702430725,-0.48453575372695923
1789031159581893600,7.9628935546875,-1.5070254802703857,-1.2854214906692505,-0.6687535643577576
1789031159591900700,7.972900634765625,-1.3719534873962402,-1.100704312324524,-0.9400854110717773
1789031159601906700,7.98290673828125,-1.4065364599227905,-1.2784006595611572,-0.9724052548408508
1789031159611913700,7.992913818359375,-1.5022355318069458,-1.4990681409835815,-0.8611285090446472
1789031159621920500,8.00292041015625,-1.6093679666519165,-2.073070526123047,-0.6449558138847351
1789031159631927800,8.012927734375,-1.5103143453598022,-1.94777250289917,-0.5664005279541016
1789031159641934600,8.0229345703125,-1.2362838983535767,-1.4320013523101807,-0.7106186151504517
1789031159651942000,8.03294189453125,-1.125688076019287,-1.2818046808242798,-0.8781799077987671
1789031159661948700,8.04294873046875,-1.2413476705551147,-1.507561445236206,-1.0271130800247192
1789031159671954700,8.05295458984375,-1.2828030586242676,-1.4285087585449219,-1.0990687608718872
1789031159681961700,8.062961669921876,-1.2554354667663574,-1.377069115638733,-1.0378812551498413
1789031159691968800,8.07296875,-1.0278748273849487,-1.1747397184371948,-0.9225866794586182
1789031159701975600,8.0829755859375,-0.8290976285934448,-1.0274266004562378,-0.8098519444465637
1789031159711982800,8.09298291015625,-0.7827420830726624,-0.8668740391731262,-0.8654555678367615
1789031159721988600,8.102988525390625,-0.8245565891265869,-0.848085343837738,-0.8865549564361572
1789031159731995600,8.11299560546875,-0.9030553698539734,-0.5085293650627136,-0.8706955909729004
1789031159742002700,8.123002685546876,-0.7816051244735718,-0.24333128333091736,-0.7406008839607239
1789031159752009700,8.133009765625,-0.4616752862930298,-0.08424150943756104,-0.7897772192955017
1789031159762016800,8.143016845703125,-0.22932782769203186,0.13423413038253784,-0.8034036159515381
1789031159772023600,8.1530234375,-0.09321101009845734,0.5341836214065552,-0.70567387342453
1789031159782030600,8.163030517578125,-0.043938323855400085,0.40339627861976624,-0.5259972810745239
1789031159792036900,8.173036865234375,-0.026266921311616898,0.15304845571517944,-0.2631451487541199
1789031159802043600,8.183043701171876,0.021305374801158905,0.18422889709472656,-0.09095387905836105
1789031159812050700,8.19305078125,0.19424892961978912,0.4441733956336975,-0.13215936720371246
1789031159822057700,8.2030576171875,0.3349124491214752,0.5591824054718018,-0.11836563795804977
1789031159832064500,8.213064453125,0.4365309476852417,0.5587198138237,0.07231403142213821
1789031159842070500,8.223070556640625,0.6001396179199219,0.8758878111839294,0.10973463952541351
1789031159852077800,8.233077880859375,0.85393887758255,1.3968725204467773,0.10013208538293839
1789031159862084600,8.243084716796876,1.1223137378692627,1.7262433767318726,0.17290039360523224
1789031159872091600,8.253091552734375,1.4291085004806519,1.7889410257339478,0.2685537040233612
1789031159882098700,8.2630986328125,1.7370840311050415,1.4170761108398438,0.48812440037727356
1789031159892105500,8.27310546875,1.905381441116333,0.8409006595611572,0.7980657815933228
1789031159902111700,8.28311181640625,1.9106937646865845,0.4462583065032959,1.0360532999038696
1789031159912118800,8.293118896484375,1.9612900018692017,0.2942200303077698,1.149886131286621
1789031159922125600,8.30312548828125,2.137960195541382,0.4739137589931488,1.1830463409423828
1789031159932132600,8.313132568359375,2.4848880767822266,0.8012780547142029,1.1933519840240479
1789031159942139600,8.3231396484375,2.8348917961120605,0.902535617351532,1.142496109008789
1789031159952146700,8.333146728515626,3.083378553390503,0.8409771919250488,1.1468437910079956
1789031159962153700,8.34315380859375,3.2694809436798096,0.6838619709014893,1.3188250064849854
1789031159972159700,8.35315966796875,3.5566763877868652,0.4497956931591034,1.4987412691116333
1789031159982166800,8.363166748046876,4.041249752044678,0.4156908690929413,1.468479037284851
1789031159992173600,8.373173583984375,4.4002790451049805,0.44934070110321045,1.3481132984161377
1789031160002180600,8.3831806640625,4.491215705871582,0.8057445287704468,1.176384449005127
1789031160012187600,8.393187744140626,4.535300254821777,1.2976462841033936,1.0712330341339111
1789031160022193700,8.403193603515625,4.42903470993042,1.226678729057312,1.1741503477096558
1789031160032200400,8.413200439453124,4.318227767944336,0.5145822167396545,1.3905625343322754
1789031160042207700,8.423207763671876,4.441098213195801,-0.07023534923791885,1.6182564496994019
1789031160052214500,8.433214599609375,4.405478477478027,-0.6477631330490112,1.7703392505645752
1789031160062221800,8.443221923828125,4.065694332122803,-1.2289369106292725,1.8819252252578735
1789031160072228600,8.453228515625,3.6528730392456055,-1.3141186237335205,1.9943617582321167
1789031160082235600,8.463235595703125,3.348778009414673,-0.7338960766792297,2.1229946613311768
1789031160092241700,8.47324169921875,3.201036214828491,0.1522691547870636,2.167642593383789
1789031160102248700,8.483248779296876,3.0289721488952637,0.5259166359901428,2.186392068862915
1789031160112255500,8.49325537109375,2.791566848754883,0.3641170561313629,2.173031806945801
1789031160122262800,8.5032626953125,2.547736644744873,0.050435759127140045,2.2020649909973145
1789031160132269600,8.51326953125,2.343141794204712,-0.1241925060749054,2.222886323928833
1789031160142276900,8.52327685546875,2.1664507389068604,-0.006122203543782234,2.1249420642852783
1789031160152282600,8.53328271484375,1.907472014427185,0.1728622019290924,1.8882606029510498
1789031160162289700,8.54328955078125,1.5876924991607666,0.39519673585891724,1.5221843719482422
1789031160172296700,8.553296630859375,1.2097309827804565,0.4251287877559662,1.1105108261108398
1789031160182303700,8.5633037109375,0.8613676428794861,0.38447874784469604,0.6504038572311401
1789031160192310500,8.573310546875,0.5886833667755127,0.3933446705341339,0.2384176254272461
1789031160202317800,8.58331787109375,0.3561418950557709,0.28212910890579224,0.0012266985140740871
1789031160212323600,8.593323486328124,0.1740165650844574,-0.062197376042604446,-0.027663007378578186
1789031160222330600,8.60333056640625,0.09168710559606552,-0.23871847987174988,0.04005169868469238
1789031160232337700,8.613337646484375,0.036818262189626694,-0.25854572653770447,-0.0005266193766146898
1789031160242344700,8.6233447265625,-0.10565195232629776,-0.30452126264572144,-0.1520189493894577
1789031160252351700,8.633351806640626,-0.27370861172676086,-0.4567030966281891,-0.3492361307144165
1789031160262358800,8.64335888671875,-0.530265748500824,-0.6066228747367859,-0.5597596168518066
1789031160272364500,8.653364501953124,-0.7896155714988708,-0.3142940402030945,-0.7564582824707031
1789031160282371800,8.663371826171876,-0.9206362962722778,0.19732646644115448,-0.8778110146522522
1789031160292378600,8.673378662109375,-0.9091061353683472,0.3665948510169983,-0.9441631436347961
1789031160302385700,8.6833857421875,-0.9126030206680298,0.19567027688026428,-1.0337517261505127
1789031160312392700,8.693392822265626,-0.9506073594093323,-0.1368538737297058,-1.0580238103866577
1789031160322399700,8.703399658203125,-0.9807053804397583,-0.2893572747707367,-1.023693561553955
1789031160332405500,8.713405517578124,-1.0463802814483643,-0.29143452644348145,-0.9497975707054138
1789031160342412800,8.723412841796875,-1.0895147323608398,-0.16880476474761963,-0.877334475517273
1789031160352419600,8.733419677734375,-1.0191044807434082,0.28700777888298035,-0.8390437960624695
1789031160362427000,8.743427001953124,-0.9321662187576294,0.7093212008476257,-0.7882466316223145
1789031160372433700,8.75343359375,-0.9782645106315613,0.5300183296203613,-0.7275662422180176
1789031160382440400,8.7634404296875,-1.1030747890472412,-0.0018373802304267883,-0.7930920720100403
1789031160392446700,8.77344677734375,-1.2692691087722778,-0.34221309423446655,-0.9224045276641846
1789031160402453800,8.783453857421875,-1.4027782678604126,-0.42910057306289673,-0.921596109867096
1789031160412460500,8.79346044921875,-1.4672762155532837,-0.08131702989339828,-0.8771942853927612
1789031160422467600,8.803467529296874,-1.423574686050415,0.562958300113678,-0.7702357172966003
1789031160432474600,8.813474609375,-1.4397598505020142,0.7350480556488037,-0.6656949520111084
1789031160442481700,8.823481689453125,-1.5354220867156982,0.47910478711128235,-0.722800076007843
1789031160452487700,8.83348779296875,-1.6673332452774048,-0.17437712848186493,-0.8306397199630737
1789031160462494700,8.84349462890625,-1.6628398895263672,-0.5771129727363586,-0.9431653618812561
1789031160472501500,8.85350146484375,-1.5284488201141357,-0.7145158648490906,-0.9998393058776855
1789031160482508500,8.863508544921874,-1.4342257976531982,-0.864456057548523,-0.95438551902771
1789031160492515600,8.873515625,-1.3986952304840088,-0.8042641282081604,-0.8324782848358154
1789031160502522400,8.8835224609375,-1.4536346197128296,-0.7724050283432007,-0.7122954726219177
1789031160512528600,8.893528564453124,-1.496049165725708,-0.773209810256958,-0.6990990042686462
1789031160522535700,8.90353564453125,-1.5154105424880981,-0.8342502117156982,-0.8706871271133423
1789031160532542500,8.91354248046875,-1.5152078866958618,-1.0973294973373413,-1.0894362926483154
1789031160542549500,8.923549560546874,-1.5093055963516235,-1.458619475364685,-1.2698487043380737
1789031160552556500,8.933556640625,-1.5046727657318115,-1.6639363765716553,-1.4259296655654907
1789031160562563600,8.9435634765625,-1.3851338624954224,-1.4979194402694702,-1.5970418453216553
1789031160572569600,8.953569580078126,-1.2657477855682373,-1.2247110605239868,-1.6590481996536255
1789031160582576600,8.96357666015625,-1.1582273244857788,-0.9613324999809265,-1.6128880977630615
1789031160592583700,8.973583740234375,-1.1558818817138672,-1.0567548274993896,-1.5359532833099365
1789031160602590500,8.983590576171874,-1.205467939376831,-1.3576411008834839,-1.5381646156311035
1789031160612597500,8.993597412109375,-1.27667236328125,-1.7588599920272827,-1.549119234085083
1789031160622604500,9.0036044921875,-1.2726504802703857,-1.786792516708374,-1.6149007081985474
1789031160632610600,9.013610595703126,-1.1407639980316162,-1.1279288530349731,-1.753743290901184
1789031160642617300,9.023617431640625,-1.0603488683700562,-0.7734131813049316,-1.7215003967285156
1789031160652624600,9.033624755859375,-1.0422337055206299,-1.0315245389938354,-1.4997813701629639
1789031160662631400,9.04363134765625,-1.0398961305618286,-1.2959955930709839,-1.2891662120819092
1789031160672638700,9.053638671875,-0.9820590615272522,-1.509884238243103,-1.220900297164917
1789031160682645500,9.0636455078125,-0.9394420385360718,-1.1405116319656372,-1.2729045152664185
1789031160692652500,9.073652587890624,-0.9642163515090942,-0.37016093730926514,-1.3424832820892334
1789031160702658600,9.083658447265625,-0.9461848139762878,-0.19830501079559326,-1.304295539855957
1789031160712665600,9.09366552734375,-0.8920667171478271,-0.5593761205673218,-1.153899908065796
1789031160722672400,9.10367236328125,-0.8562159538269043,-0.9379252791404724,-0.9890703558921814
1789031160732679700,9.1136796875,-0.8150983452796936,-0.8568375706672668,-0.8110356330871582
1789031160742686500,9.1236865234375,-0.7773016691207886,-0.5505189299583435,-0.5966796278953552
1789031160752693800,9.13369384765625,-0.4835110306739807,-0.09488724172115326,-0.6665622591972351
1789031160762699500,9.143699462890625,-0.365045964717865,0.13813646137714386,-0.773139238357544
1789031160772706600,9.15370654296875,-0.32756730914115906,0.14828257262706757,-0.6599517464637756
1789031160782713600,9.163713623046876,-0.17590758204460144,0.1161852702498436,-0.44399088621139526
1789031160792720600,9.173720703125,-0.05231481045484543,-0.09947697818279266,-0.12894104421138763
1789031160802727400,9.1837275390625,0.16195200383663177,0.2773902416229248,0.058057062327861786
1789031160812734700,9.193734619140624,0.3587454855442047,0.8191658854484558,0.06728598475456238
1789031160822740500,9.203740478515625,0.5488443970680237,0.957268476486206,0.193016916513443
1789031160832747800,9.213747802734375,0.6121637225151062,0.7456893920898438,0.5522009134292603
1789031160842754600,9.223754638671876,0.6939833760261536,0.4476211369037628,0.9172911047935486
1789031160852761600,9.23376171875,0.8263965249061584,0.3913743793964386,1.11885404586792
1789031160862768600,9.2437685546875,0.8999412059783936,0.32217937707901,1.102486491203308
1789031160872775700,9.253775634765624,0.9369623064994812,0.2942556142807007,0.9365859627723694
1789031160882781400,9.263781494140625,0.9322335124015808,0.5291268825531006,0.8294867277145386
1789031160892788700,9.273788818359375,0.9448963403701782,0.8194229006767273,0.8948145508766174
1789031160902795500,9.28379541015625,1.0063459873199463,0.9597461819648743,1.0559898614883423
1789031160912802800,9.293802734375,1.0641200542449951,0.8774864673614502,1.3381482362747192
1789031160922809600,9.3038095703125,1.106394648551941,0.5831753015518188,1.5822607278823853
1789031160932816400,9.31381640625,1.1008180379867554,0.09404799342155457,1.7367286682128906
1789031160942822700,9.32382275390625,1.1862893104553223,-0.23414751887321472,1.8075114488601685
1789031160952829700,9.33382958984375,1.4130998849868774,0.07233971357345581,1.6632165908813477
1789031160962836500,9.34383642578125,1.5410434007644653,0.6780514717102051,1.4696686267852783
1789031160972843500,9.353843505859375,1.516761302947998,1.1341441869735718,1.39138925075531
1789031160982850600,9.3638505859375,1.516311764717102,1.322978138923645,1.463059902191162
1789031160992857600,9.373857666015626,1.6233775615692139,1.2595916986465454,1.7039604187011719
1789031161002863600,9.383863525390625,1.7807896137237549,0.939562976360321,1.9763792753219604
1789031161012870700,9.39387060546875,1.8991665840148926,0.459586501121521,2.210341691970825
1789031161022877700,9.403877685546876,1.9346522092819214,-0.21160824596881866,2.458705425262451
1789031161032884500,9.413884521484375,1.704180359840393,-0.9104552865028381,2.6046478748321533
1789031161042891500,9.4238916015625,1.2763333320617676,-0.8819493055343628,2.4372825622558594
1789031161052898600,9.433898681640626,1.1839395761489868,0.37819409370422363,1.9511847496032715
1789031161062904600,9.443904541015625,1.2511974573135376,1.155286431312561,1.6496883630752563
1789031161072911600,9.45391162109375,1.3455983400344849,1.3436137437820435,1.6436529159545898
1789031161082918700,9.463918701171876,1.4928911924362183,1.344076156616211,1.8522508144378662
1789031161092925400,9.473925537109375,1.7158600091934204,1.089112639427185,2.055600643157959
1789031161102932700,9.4839326171875,1.836521863937378,0.37351933121681213,2.208099365234375
1789031161112939500,9.493939453125,1.7306848764419556,-0.47798460721969604,2.256530284881592
1789031161122945500,9.503945556640625,1.4721994400024414,-0.7150614261627197,2.044238805770874
1789031161132952600,9.51395263671875,1.199424147605896,-0.14749443531036377,1.6906596422195435
1789031161142959600,9.523959716796876,1.0076093673706055,0.8828901052474976,1.444700002670288
1789031161152966400,9.53396630859375,0.9159278869628906,1.8887745141983032,1.5174554586410522
1789031161162973700,9.5439736328125,0.9667393565177917,2.0525777339935303,1.6295164823532104
1789031161172980500,9.55398046875,0.9771525859832764,1.1800247430801392,1.546747088432312
1789031161182986500,9.563986572265625,0.7676805853843689,-0.23025792837142944,1.2621809244155884
1789031161192993500,9.57399365234375,0.4561764895915985,-0.9886529445648193,0.7537359595298767
1789031161203000600,9.58400048828125,0.20653069019317627,-0.5580602884292603,0.22151604294776917
1789031161213007600,9.594007568359375,0.03365558013319969,0.26301833987236023,-0.15048255026340485
1789031161223014700,9.6040146484375,-0.11031167209148407,0.6572399139404297,-0.338925838470459
1789031161233021400,9.614021484375,-0.29431161284446716,0.5604939460754395,-0.2950132191181183
1789031161243027700,9.62402783203125,-0.42373421788215637,0.18179747462272644,-0.28632214665412903
1789031161253034500,9.634034423828124,-0.4919694662094116,-0.2387436181306839,-0.380241721868515
1789031161263041500,9.64404150390625,-0.5873773097991943,-0.504379391670227,-0.4384184777736664
1789031161273048600,9.654048583984375,-0.6725310683250427,-0.3060074746608734,-0.4748539924621582
1789031161283055600,9.6640556640625,-0.6829842925071716,0.4851042926311493,-0.6430777311325073
1789031161293062700,9.674062744140626,-0.4911416471004486,0.9805797934532166,-0.9576074481010437
1789031161303068700,9.684068603515625,-0.30193883180618286,0.737315833568573,-1.1768027544021606
1789031161313075500,9.694075439453124,-0.46371710300445557,-0.002480472903698683,-0.9339760541915894
1789031161323082800,9.704082763671876,-0.7297269701957703,-0.8535247445106506,-0.48190703988075256
1789031161333089500,9.714089599609375,-0.8955817222595215,-1.2547858953475952,-0.0871615931391716
1789031161343096600,9.7240966796875,-0.9219407439231873,-0.7435125708580017,0.20639151334762573
1789031161353103600,9.734103515625,-0.8682977557182312,0.8174620270729065,0.1369256228208542
1789031161363109600,9.744109619140625,-1.0025657415390015,2.0101189613342285,-0.2909094989299774
1789031161373116400,9.754116455078124,-1.1271289587020874,2.149557113647461,-0.9467491507530212
1789031161383123700,9.764123779296876,-1.2418478727340698,1.0270884037017822,-1.5530034303665161
1789031161393130500,9.774130615234375,-1.4044687747955322,-0.8483564853668213,-1.6005340814590454
1789031161403137800,9.7841376953125,-1.4148550033569336,-1.9488255977630615,-1.2130147218704224
1789031161413144600,9.79414453125,-1.4367390871047974,-1.9279613494873047,-0.8472079038619995
1789031161423150600,9.804150634765625,-1.4735809564590454,-1.030848741531372,-0.8819443583488464
1789031161433157600,9.81415771484375,-1.4564073085784912,0.2732737958431244,-1.2310234308242798
1789031161443164700,9.82416455078125,-1.5409454107284546,1.4218229055404663,-1.4684765338897705
1789031161453171500,9.83417138671875,-1.6985033750534058,1.725847840309143,-1.3823086023330688
1789031161463178200,9.84417822265625,-1.7278351783752441,0.9123401641845703,-1.1174780130386353
1789031161473185000,9.85418505859375,-1.6082435846328735,-0.40345585346221924,-0.8731779456138611
1789031161483191000,9.86419091796875,-1.4467893838882446,-1.4857438802719116,-0.7797481417655945
1789031161493198000,9.874197998046874,-1.3777894973754883,-1.6375787258148193,-0.9405072331428528
1789031161503205000,9.884205078125,-1.3933098316192627,-1.0393953323364258,-1.2049026489257812
1789031161513212000,9.8942119140625,-1.3616282939910889,-0.3965352177619934,-1.3648148775100708
1789031161523219200,9.90421923828125,-1.2782922983169556,-0.3061259686946869,-1.3098664283752441
1789031161533226000,9.91422607421875,-1.1958287954330444,-0.5720165371894836,-1.1880992650985718
1789031161543232000,9.92423193359375,-1.1577197313308716,-0.8996864557266235,-1.1170129776000977
1789031161553239000,9.934239013671874,-1.1740082502365112,-1.3852651119232178,-1.121751308441162
1789031161563246000,9.94424609375,-1.1222434043884277,-1.3611550331115723,-1.3024652004241943
1789031161573253000,9.954253173828125,-1.1022758483886719,-1.1306337118148804,-1.598427176475525
1789031161583260200,9.96426025390625,-1.164135456085205,-0.9682949781417847,-1.7876108884811401
1789031161593267000,9.974266845703125,-1.194840908050537,-0.8025369048118591,-1.7184022665023804
1789031161603273200,9.984273193359375,-1.1448395252227783,-1.1011427640914917,-1.4184143543243408
1789031161613280000,9.994280029296876,-1.0563291311264038,-1.3230866193771362,-1.176403522491455
1789031161623287000,10.004287109375,-1.089385747909546,-1.3654804229736328,-1.14686119556427
1789031161633294000,10.014294189453125,-1.0624576807022095,-1.0904006958007812,-1.3076708316802979
1789031161643301000,10.024301025390624,-0.9697796106338501,-0.865802526473999,-1.4914389848709106
1789031161653308200,10.03430810546875,-0.9802471399307251,-1.1659674644470215,-1.5066373348236084
1789031161663314200,10.044314208984375,-0.9635328054428101,-1.5821083784103394,-1.2886713743209839
1789031161673321000,10.054321044921876,-0.955775797367096,-1.7815138101577759,-0.9780980348587036
1789031161683328300,10.064328369140625,-1.095528244972229,-2.1554219722747803,-0.7479428648948669
1789031161693335000,10.0743349609375,-1.1996749639511108,-2.16776442527771,-0.84684818983078
1789031161703342000,10.084342041015624,-0.9125680327415466,-0.746829628944397,-1.3210885524749756
1789031161713349000,10.09434912109375,-0.8205987215042114,0.17215615510940552,-1.5535907745361328
1789031161723355100,10.104355224609375,-0.875081479549408,0.5377314686775208,-1.2517224550247192
1789031161733362200,10.114362060546876,-0.7152204513549805,0.20281527936458588,-0.704147458076477
1789031161743369200,10.124369140625,-0.4441499412059784,-0.34132784605026245,-0.2867675721645355
1789031161753376000,10.1343759765625,-0.27513641119003296,-0.41848623752593994,-0.11413589864969254
1789031161763383000,10.144383056640624,-0.20330452919006348,-0.3239682912826538,-0.20499880611896515
1789031161773390000,10.15439013671875,-0.10280109196901321,-0.19985808432102203,-0.4818980395793915
1789031161783396000,10.16439599609375,0.05420137196779251,-0.13707289099693298,-0.35019606351852417
1789031161793403100,10.174403076171876,0.03619281202554703,-0.00588690210133791,-0.012101888656616211
1789031161803410200,10.18441015625,0.009336452931165695,-0.01602543145418167,0.18090122938156128
1789031161813417200,10.194417236328125,0.0030865466687828302,-0.04653353989124298,0.269087016582489
1789031161823424000,10.204424072265626,0.007738716434687376,0.11158943176269531,0.2670329809188843
1789031161833431000,10.21443115234375,0.04081730544567108,0.1082860454916954,0.34048110246658325
1789031161843437300,10.224437255859375,0.118666872382164,0.16625265777111053,0.46521419286727905
1789031161853444000,10.234444091796876,0.2357732653617859,0.6189538240432739,0.423338919878006
1789031161863451000,10.244450927734375,0.4181743264198303,1.2853362560272217,0.307628333568573
1789031161873458200,10.254458251953125,0.6681391596794128,1.6288307905197144,0.3220056891441345
1789031161883465000,10.26446484375,0.8989784121513367,1.6546534299850464,0.5732504725456238
1789031161893472300,10.27447216796875,1.0957263708114624,1.5252317190170288,0.9316035509109497
1789031161903478300,10.284478271484375,1.2684361934661865,1.4053322076797485,1.3073660135269165
1789031161913485000,10.294485107421876,1.4616445302963257,1.468654990196228,1.4309979677200317
1789031161923492000,10.3044921875,1.5361906290054321,1.784355878829956,1.1554759740829468
1789031161933499100,10.3144990234375,1.4604729413986206,2.36051344871521,0.8389689326286316
1789031161943506000,10.324505859375,1.39943528175354,2.258070230484009,1.099308967590332
1789031161953513200,10.33451318359375,1.4737476110458374,1.1102681159973145,1.8421589136123657
1789031161963519000,10.34451904296875,1.6309046745300293,-0.17768163979053497,2.3358612060546875
1789031161973526000,10.354526123046876,1.727440357208252,-0.8691876530647278,2.2909858226776123
1789031161983533000,10.364532958984375,1.7222684621810913,-0.39589041471481323,1.866197943687439
1789031161993540000,10.3745400390625,1.7247737646102905,0.35597720742225647,1.4450783729553223
1789031162003547100,10.384547119140626,1.754685401916504,0.7112167477607727,1.3307960033416748
1789031162013554200,10.39455419921875,1.8626313209533691,0.9019438028335571,1.445624828338623
1789031162023560000,10.404559814453124,2.0690884590148926,0.9085212349891663,1.7301435470581055
1789031162033567200,10.414567138671876,2.3706650733947754,0.7940322160720825,2.1357791423797607
1789031162043574000,10.424573974609375,2.5982468128204346,0.34822985529899597,2.515742540359497
1789031162053581000,10.4345810546875,2.5143415927886963,0.0031957682222127914,2.625216484069824
1789031162063588000,10.444588134765626,2.2116262912750244,0.3566552400588989,2.538360357284546
1789031162073595100,10.45459521484375,1.9148294925689697,0.6410131454467773,2.432354211807251
1789031162083601000,10.464600830078124,1.6772382259368896,0.7699866890907288,2.2693982124328613
1789031162093608200,10.474608154296876,1.5198222398757935,0.6783885955810547,2.080613851547241
1789031162103615000,10.484614990234375,1.313725471496582,0.2912611961364746,1.9414197206497192
1789031162113622300,10.494622314453125,1.1579843759536743,0.10365217179059982,1.6422895193099976
1789031162123629000,10.504629150390626,1.0420870780944824,0.05809437856078148,1.374688744544983
1789031162133636000,10.514635986328125,0.910013735294342,0.2731028199195862,1.3295947313308716
1789031162143642000,10.52464208984375,0.8536357283592224,0.5260008573532104,1.4100857973098755
1789031162153649200,10.534649169921876,0.8452864289283752,0.6254134178161621,1.4439364671707153
1789031162163656000,10.544656005859375,0.735933780670166,0.7152732610702515,1.3169058561325073
1789031162173663200,10.554663330078125,0.5403632521629333,0.6757721900939941,1.06051504611969
1789031162183670000,10.564669921875,0.3127504587173462,0.3109773099422455,0.7770362496376038
1789031162193677300,10.57467724609375,0.1327953338623047,0.03916255757212639,0.45312368869781494
1789031162203683000,10.58468310546875,0.024083340540528297,-0.04357591271400452,0.164348304271698
1789031162213690000,10.594690185546876,-0.052357371896505356,-0.05642832815647125,-0.05643893778324127
1789031162223697200,10.604697265625,-0.18498867750167847,-0.1139007955789566,-0.2561993896961212
1789031162233704200,10.6147041015625,-0.35384613275527954,-0.310026615858078,-0.421491414308548
1789031162243711000,10.6247109375,-0.4675608277320862,-0.3854314386844635,-0.6042633056640625
1789031162253717200,10.63471728515625,-0.5462226271629333,-0.17494292557239532,-0.8004088401794434
1789031162263724000,10.64472412109375,-0.652045726776123,0.19254547357559204,-0.9441766142845154
1789031162273731000,10.65473095703125,-0.7498838901519775,0.7776129245758057,-1.0604342222213745
1789031162283738000,10.664738037109375,-0.9122612476348877,1.060115098953247,-1.0436652898788452
1789031162293745200,10.6747451171875,-1.1256155967712402,0.7469100952148438,-0.8518459796905518
1789031162303752200,10.684752197265626,-1.20322585105896,0.2780715823173523,-0.6839356422424316
1789031162313758200,10.69475830078125,-1.1912283897399902,-0.15982294082641602,-0.6679364442825317
1789031162323765000,10.704764892578124,-1.1031030416488647,-0.43544888496398926,-0.815805196762085
1789031162333772300,10.714772216796876,-1.014985203742981,-0.4637228548526764,-1.0186073780059814
1789031162343779000,10.724779052734375,-0.856837272644043,-0.04647265374660492,-1.1441848278045654
1789031162353786000,10.7347861328125,-0.7478434443473816,0.44324591755867004,-1.0253034830093384
1789031162363793200,10.744793212890626,-0.8787230849266052,0.5877450108528137,-0.6971365213394165
1789031162373799200,10.754799072265625,-1.0733729600906372,0.4274839758872986,-0.37351691722869873
1789031162383806000,10.764805908203124,-1.1498178243637085,0.17366835474967957,-0.2946664094924927
1789031162393813200,10.774813232421875,-1.2251293659210205,-0.13084334135055542,-0.3996735215187073
1789031162403820000,10.784820068359375,-1.2805873155593872,-0.3239177465438843,-0.5783678889274597
1789031162413827000,10.7948271484375,-1.3151967525482178,-0.45461851358413696,-0.7061029076576233
1789031162423834000,10.804834228515626,-1.3597190380096436,-0.6646839380264282,-0.6966462135314941
1789031162433840000,10.814840087890625,-1.3460030555725098,-0.8019589781761169,-0.6098378300666809
1789031162443847200,10.82484716796875,-1.2605613470077515,-0.8973997235298157,-0.5609272122383118
1789031162453854200,10.834854248046875,-1.144269347190857,-0.8104533553123474,-0.6680935621261597
1789031162463861800,10.84486181640625,-1.1035763025283813,-0.5793200135231018,-0.8958780169487
1789031162473868500,10.85486865234375,-1.0943026542663574,-0.3230048716068268,-1.1867021322250366
1789031162483875800,10.864875732421876,-1.134270429611206,-0.4669654667377472,-1.3414517641067505
1789031162493881600,10.874881591796875,-1.2066553831100464,-0.8425204157829285,-1.3611944913864136
1789031162503888600,10.884888671875,-1.2621866464614868,-1.1509901285171509,-1.2874835729599
1789031162513895700,10.894895751953126,-1.2677949666976929,-1.1355278491973877,-1.2503948211669922
1789031162523902700,10.90490283203125,-1.2685551643371582,-0.9632344245910645,-1.3197780847549438
1789031162533909500,10.914909423828124,-1.3061286211013794,-0.8472713232040405,-1.490262746810913
1789031162543916800,10.924916748046876,-1.3322376012802124,-0.7753437757492065,-1.699945092201233
1789031162553922600,10.934922607421875,-1.3012948036193848,-0.7429078221321106,-1.8218878507614136
1789031162563929600,10.9449296875,-1.2473200559616089,-0.7424485087394714,-1.7774068117141724
1789031162573936600,10.9549365234375,-1.21554434299469,-0.8731087446212769,-1.6456815004348755
1789031162583943700,10.964943603515625,-1.2037670612335205,-1.1481386423110962,-1.5006128549575806
1789031162593950700,10.97495068359375,-1.1949222087860107,-1.411291480064392,-1.4253050088882446
1789031162603957800,10.984957763671876,-1.2298539876937866,-1.458560824394226,-1.4284542798995972
1789031162613963500,10.994963623046875,-1.2602747678756714,-1.1695692539215088,-1.5356990098953247
1789031162623970800,11.004970703125,-1.2616236209869385,-1.0357072353363037,-1.6484253406524658
1789031162633977600,11.0149775390625,-1.2170933485031128,-1.212468147277832,-1.624572992324829
1789031162643984600,11.024984619140625,-1.123908519744873,-1.4822871685028076,-1.4457216262817383
1789031162653991700,11.03499169921875,-1.059714913368225,-1.6960524320602417,-1.252972960472107
1789031162663997700,11.044997802734375,-1.0009757280349731,-1.5917161703109741,-1.189966082572937
1789031162674004500,11.05500439453125,-0.8515365123748779,-1.0744373798370361,-1.200724482536316
1789031162684011800,11.06501171875,-0.7193848490715027,-0.6109223365783691,-1.1684242486953735
1789031162694018600,11.0750185546875,-0.6904296278953552,-0.34939777851104736,-1.0286014080047607
1789031162704025900,11.08502587890625,-0.6482804417610168,-0.26926949620246887,-0.829914927482605
1789031162714032600,11.09503271484375,-0.5175261497497559,-0.36471664905548096,-0.5724551677703857
1789031162724038700,11.10503857421875,-0.4324391782283783,-0.4111788272857666,-0.3541781008243561
1789031162734045700,11.115045654296875,-0.4124351143836975,-0.3295745253562927,-0.2944660186767578
1789031162744052700,11.125052734375,-0.298870712518692,-0.17409612238407135,-0.39061620831489563
1789031162754059500,11.1350595703125,-0.153065025806427,0.006508535705506802,-0.4252775311470032
1789031162764066800,11.14506689453125,-0.04426197707653046,-0.019646568223834038,-0.26397955417633057
1789031162774073600,11.155073486328124,0.05595916509628296,-0.03873610496520996,-0.024615440517663956
1789031162784079600,11.16507958984375,0.19864040613174438,-0.025280606001615524,0.2093222737312317
1789031162794086700,11.175086669921875,0.27597007155418396,0.14959187805652618,0.3362128436565399
1789031162804093700,11.18509375,0.3496100902557373,0.48301929235458374,0.45874887704849243
1789031162814100700,11.195100830078125,0.4204227328300476,0.5201402306556702,0.5650175213813782
1789031162824107500,11.205107421875,0.45025724172592163,0.4041115939617157,0.6991264820098877
1789031162834114600,11.215114501953124,0.501326858997345,0.41933074593544006,0.793555736541748
1789031162844120800,11.225120849609375,0.583835780620575,0.601896345615387,0.813144862651825
1789031162854127600,11.235127685546875,0.6923753023147583,0.8095036149024963,0.8092100620269775
1789031162864134700,11.245134765625,0.7959905862808228,1.0005015134811401,0.8629183769226074
1789031162874141700,11.2551416015625,0.9141260385513306,1.092557668685913,0.9848331212997437
1789031162884148500,11.2651484375,1.0577889680862427,1.119913935661316,1.117152214050293
1789031162894155800,11.27515576171875,1.1992347240447998,1.1093111038208008,1.252675175666809
1789031162904161800,11.285161865234375,1.3148947954177856,1.1005116701126099,1.3812658786773682
1789031162914168600,11.29516845703125,1.4157875776290894,1.0964312553405762,1.4784153699874878
1789031162924175600,11.305175537109376,1.5151211023330688,1.0640603303909302,1.5575320720672607
1789031162934182700,11.3151826171875,1.6259794235229492,1.0638933181762695,1.659504771232605
1789031162944189400,11.325189453125,1.7243684530258179,1.0612248182296753,1.7168782949447632
1789031162954195700,11.33519580078125,1.777759313583374,1.0177322626113892,1.6916475296020508
1789031162964202800,11.34520263671875,1.8081340789794922,0.941482663154602,1.7145458459854126
1789031162974209500,11.35520947265625,1.8849915266036987,0.8609894514083862,1.8458930253982544
1789031162984216600,11.365216552734376,1.992622971534729,0.7239113450050354,1.9843190908432007
1789031162994223600,11.3752236328125,2.081912040710449,0.5121213793754578,2.113095998764038
1789031163004230700,11.385230712890625,2.1633620262145996,0.37171462178230286,2.1829702854156494
1789031163014236700,11.395236572265626,2.1890780925750732,0.32423657178878784,2.149667978286743
1789031163024243700,11.40524365234375,2.1556239128112793,0.4227190911769867,2.009751558303833
1789031163034250800,11.415250732421875,2.081773281097412,0.6042752861976624,1.9493739604949951
1789031163044257500,11.425257568359376,1.993920087814331,0.6747372150421143,2.0850014686584473
1789031163054264600,11.4352646484375,1.9390591382980347,0.6318089365959167,2.2570629119873047
1789031163064271600,11.445271728515625,1.9480419158935547,0.6108021140098572,2.3460981845855713
1789031163074277600,11.455277587890626,2.001502275466919,0.655333399772644,2.359160900115967
1789031163084284400,11.465284423828125,2.073744058609009,0.844593346118927,2.231813669204712
1789031163094291700,11.475291748046875,1.986480474472046,0.8308615684509277,2.058195114135742
1789031163104298500,11.485298583984376,1.7577561140060425,0.5977631211280823,1.9901976585388184
1789031163114305800,11.495305908203125,1.5174161195755005,0.3060263693332672,2.0119216442108154
1789031163124311800,11.505311767578124,1.2597192525863647,0.011137298308312893,2.0336899757385254
1789031163134318600,11.515318603515626,1.098717212677002,0.31832757592201233,1.778375267982483
1789031163144325600,11.52532568359375,0.9742064476013184,0.7208437323570251,1.3885916471481323
1789031163154332700,11.535332763671875,0.7881545424461365,0.8687335848808289,1.0922396183013916
1789031163164339700,11.545339599609376,0.5841833353042603,0.7938364744186401,0.9536197781562805
1789031163174346800,11.5553466796875,0.40155571699142456,0.49912920594215393,0.8870511054992676
1789031163184352500,11.5653525390625,0.22122076153755188,0.20064280927181244,0.7380474209785461
1789031163194359800,11.57535986328125,0.0661371722817421,0.14932502806186676,0.4494648575782776
1789031163204366600,11.58536669921875,-0.044295717030763626,0.2353915423154831,0.07455822080373764
1789031163214373600,11.59537353515625,-0.16797025501728058,0.10789137333631516,-0.23138758540153503
1789031163224380700,11.605380615234376,-0.338669091463089,-0.1698131561279297,-0.439346581697464
1789031163234387700,11.6153876953125,-0.4879946708679199,-0.47847941517829895,-0.5987895131111145
1789031163244393500,11.6253935546875,-0.578422486782074,-0.5940148234367371,-0.7232272028923035
1789031163254400800,11.63540087890625,-0.6353095173835754,-0.5031224489212036,-0.7970236539840698
1789031163264407600,11.645407470703125,-0.7399382591247559,-0.2863186001777649,-0.8473950624465942
1789031163274414800,11.655414794921874,-0.8646708726882935,0.08186927437782288,-0.9685867428779602
1789031163284421600,11.665421630859376,-0.9144202470779419,0.40007370710372925,-1.197131872177124
1789031163294427600,11.675427734375,-0.9589357376098633,0.3898514211177826,-1.4348571300506592
1789031163304434700,11.6854345703125,-1.0480287075042725,0.18619075417518616,-1.4967621564865112
1789031163314441700,11.695441650390626,-1.1237479448318481,-0.03193066269159317,-1.369225263595581
1789031163324448500,11.705448486328125,-1.1138341426849365,-0.3281477689743042,-1.1768734455108643
1789031163334455800,11.715455810546874,-1.069503903388977,-0.5225034356117249,-1.041378140449524
1789031163344462600,11.725462646484376,-1.0860999822616577,-0.13405726850032806,-0.9865000247955322
1789031163354468600,11.735468505859375,-1.1219698190689087,0.4993481934070587,-0.9798932671546936
1789031163364475600,11.7454755859375,-1.1508232355117798,0.8843032717704773,-1.0013331174850464
1789031163374482700,11.755482666015626,-1.2701607942581177,0.678169310092926,-0.9612877368927002
1789031163384489700,11.76548974609375,-1.3841402530670166,0.19690605998039246,-0.9787907600402832
1789031163394496800,11.775496826171874,-1.50202476978302,-0.4492862820625305,-1.0440884828567505
1789031163404503600,11.785503662109376,-1.540972352027893,-0.821556806564331,-1.0009502172470093
1789031163414509800,11.795509765625,-1.4081707000732422,-0.4353470504283905,-0.8694934248924255
1789031163424516600,11.8055166015625,-1.2118868827819824,0.2607465088367462,-0.8495813608169556
1789031163434523600,11.815523681640625,-1.1944197416305542,0.4459637403488159,-0.9694374799728394
1789031163444530700,11.82553076171875,-1.2299576997756958,0.13426214456558228,-0.9966306686401367
1789031163454537700,11.835537841796874,-1.1690298318862915,-0.5604929327964783,-0.7562202215194702
1789031163464543200,11.845543212890625,-1.1379570960998535,-1.1405895948410034,-0.5375082492828369
1789031163474550500,11.855550537109375,-1.171492099761963,-1.3498954772949219,-0.5964615941047668
1789031163484557300,11.865557373046874,-1.2436132431030273,-1.4627408981323242,-0.8078135848045349
1789031163494564600,11.875564697265625,-1.2817153930664062,-1.6143525838851929,-1.0190256834030151
1789031163504571400,11.8855712890625,-1.2356014251708984,-1.3901336193084717,-1.2452255487442017
1789031163514578400,11.895578369140624,-1.2101613283157349,-1.1559208631515503,-1.4562417268753052
1789031163524584400,11.90558447265625,-1.213799238204956,-1.0308841466903687,-1.6519453525543213
1789031163534591500,11.915591552734375,-1.245485544204712,-1.0478061437606812,-1.777273178100586
1789031163544598300,11.925598388671874,-1.2846208810806274,-1.1212302446365356,-1.766947865486145
1789031163554605600,11.93560546875,-1.2509833574295044,-0.6926773190498352,-1.742040991783142
1789031163564612400,11.9456123046875,-1.2142831087112427,-0.2597915232181549,-1.6862565279006958
1789031163574619600,11.95561962890625,-1.2236467599868774,-0.2452959567308426,-1.6267836093902588
1789031163584625400,11.96562548828125,-1.2785961627960205,-0.7344720959663391,-1.5437870025634766
1789031163594632400,11.975632568359375,-1.323442816734314,-1.3977739810943604,-1.4167110919952393
1789031163604639500,11.985639404296874,-1.407514214515686,-1.709149956703186,-1.2786508798599243
1789031163614646500,11.995646484375,-1.475745439529419,-1.7013211250305176,-1.2513699531555176
1789031163624653300,12.0056533203125,-1.4503618478775024,-1.7342642545700073,-1.364960789680481
1789031163634659600,12.01565966796875,-1.314847469329834,-1.6459949016571045,-1.556618094444275
1789031163644666400,12.025666259765625,-1.175528645515442,-1.421815037727356,-1.6949496269226074
1789031163654673400,12.03567333984375,-1.0464390516281128,-0.8592628240585327,-1.6595889329910278
1789031163664680400,12.045680419921876,-0.9410682916641235,-0.24166662991046906,-1.4318556785583496
1789031163674687500,12.0556875,-0.8460277915000916,-0.18969717621803284,-1.1518332958221436
1789031163684694500,12.065694580078125,-0.7051075100898743,-0.13200095295906067,-0.9327399134635925
1789031163694700500,12.075700439453126,-0.5739750862121582,0.17348173260688782,-0.7192454934120178
1789031163704707300,12.085707275390625,-0.4884215295314789,0.142461359500885,-0.4712511897087097
1789031163714714600,12.095714599609375,-0.38647574186325073,-0.04869608208537102,-0.31397581100463867
1789031163724721400,12.105721435546876,-0.22252780199050903,-0.29774385690689087,-0.2540992200374603
1789031163734728400,12.115728515625,-0.03584632650017738,-0.07654356956481934,-0.3179019093513489
1789031163744734500,12.125734375,0.11792647838592529,0.0016368427313864231,-0.27801379561424255
1789031163754741500,12.135741455078126,0.28279876708984375,-0.2062990367412567,-0.08907847851514816
1789031163764748500,12.14574853515625,0.35241955518722534,-0.47567692399024963,0.23897433280944824
1789031163774755600,12.155755615234375,0.3630913496017456,-0.4815310835838318,0.45462727546691895
1789031163784762400,12.165762451171876,0.40259507298469543,-0.25479352474212646,0.4181665778160095
1789031163794769400,12.175769287109375,0.4501594007015228,-0.15863503515720367,0.36394888162612915
1789031163804775400,12.185775390625,0.5003621578216553,-0.09219853579998016,0.3758789896965027
1789031163814782500,12.195782470703126,0.5343267917633057,-0.08745864033699036,0.44615739583969116
1789031163824789500,12.20578955078125,0.49191513657569885,-0.22896461188793182,0.611565887928009
1789031163834796500,12.215796630859375,0.550900936126709,0.03679809346795082,0.6487156748771667
1789031163844803600,12.225803466796876,0.7221935391426086,0.7826533317565918,0.5863945484161377
1789031163854809600,12.2358095703125,0.8837930560112,1.3951555490493774,0.5350483059883118
1789031163864816400,12.24581640625,1.06184720993042,1.6129313707351685,0.6202508211135864
1789031163874823700,12.25582373046875,1.172419786453247,1.4388412237167358,0.9403665065765381
1789031163884830500,12.26583056640625,1.1992487907409668,1.1530729532241821,1.303716778755188
1789031163894837500,12.27583740234375,1.2841169834136963,1.3225868940353394,1.4601125717163086
1789031163904844500,12.285844482421876,1.3447566032409668,1.351462960243225,1.4398493766784668
1789031163914850600,12.2958505859375,1.3422636985778809,1.2586801052093506,1.3245030641555786
1789031163924857300,12.305857421875,1.3568612337112427,1.1478451490402222,1.2995067834854126
1789031163934864600,12.31586474609375,1.439090371131897,0.9395965933799744,1.458412766456604
1789031163944871400,12.325871337890625,1.5261870622634888,0.6777329444885254,1.6139417886734009
1789031163954878500,12.33587841796875,1.590956211090088,0.5518946051597595,1.6769345998764038
1789031163964884500,12.345884521484376,1.6194422245025635,0.5510368943214417,1.6740309000015259
1789031163974891500,12.3558916015625,1.669620394706726,0.7032251358032227,1.6608376502990723
1789031163984898600,12.365898681640624,1.7868092060089111,0.8859812617301941,1.7129943370819092
1789031163994905300,12.3759052734375,1.9259958267211914,0.9599681496620178,1.8008182048797607
1789031164004912400,12.385912353515625,2.01580810546875,0.8418716192245483,1.8853013515472412
1789031164014919400,12.39591943359375,2.0434627532958984,0.5659551024436951,2.0199785232543945
1789031164024925400,12.405925537109376,2.117828607559204,0.5295203924179077,2.117199182510376
1789031164034932500,12.415932373046875,2.163667678833008,0.5899874567985535,2.1342885494232178
1789031164044939500,12.425939453125,2.043287754058838,0.3725201487541199,2.1386544704437256
1789031164054946300,12.4359462890625,1.8055601119995117,0.29496702551841736,2.1026270389556885
1789031164064953600,12.44595361328125,1.5204083919525146,0.28408196568489075,2.059966802597046
1789031164074959600,12.455959716796874,1.3875702619552612,0.45265820622444153,1.965402603149414
1789031164084966400,12.46596630859375,1.440863847732544,0.7503331899642944,1.7629218101501465
1789031164094973400,12.475973388671875,1.4566742181777954,0.867586076259613,1.5277546644210815
1789031164104980500,12.48598046875,1.3864539861679077,0.8044145703315735,1.3654651641845703
1789031164114987300,12.4959873046875,1.256639003753662,0.528831422328949,1.3464126586914062
1789031164124994600,12.50599462890625,1.1307852268218994,0.25387510657310486,1.3592315912246704
1789031164135000600,12.51600048828125,0.9209089875221252,0.2913247346878052,1.2821389436721802
1789031164145007400,12.52600732421875,0.6673099398612976,0.5612121820449829,1.0719982385635376
1789031164155014400,12.536014404296875,0.5013262629508972,0.8863210082054138,0.7995221614837646
1789031164165021400,12.546021484375,0.4207841157913208,1.0104458332061768,0.5501689910888672
