time,seconds_elapsed,z,y,x
1789635251735628800,0.05062890625,-0.5680391788482666,-1.00029718875885,1.7529627084732056
1789635251745668900,0.0606689453125,-0.4209030270576477,-1.0638060569763184,1.5840684175491333
1789635251755709000,0.070708984375,-0.2532128095626831,-0.9957433938980103,1.4192334413528442
1789635251765747700,0.080747802734375,-0.08195745199918747,-0.7865601181983948,1.2980917692184448
1789635251775787800,0.090787841796875,0.021023526787757874,-0.6290330290794373,1.1486985683441162
1789635251785827800,0.100827880859375,0.16000723838806152,-0.4314347505569458,0.8854363560676575
1789635251795867000,0.110866943359375,0.3230278491973877,-0.21527981758117676,0.5160915851593018
1789635251805906700,0.12090673828125,0.36356329917907715,-0.15094983577728271,0.09791697561740875
1789635251815946800,0.13094677734375,0.22914184629917145,-0.45500853657722473,-0.2588379383087158
1789635251825985800,0.14098583984375,0.053346313536167145,-1.0789860486984253,-0.3902899920940399
1789635251836025900,0.15102587890625,0.030827155336737633,-1.5996572971343994,-0.2273479402065277
1789635251846065000,0.16106494140625,0.08460782468318939,-2.0056774616241455,0.09117758274078369
1789635251856105000,0.17110498046875,0.26809191703796387,-2.217698097229004,0.44752317667007446
1789635251866144800,0.181144775390625,0.6140562295913696,-2.1531853675842285,0.7558751702308655
1789635251876183800,0.191183837890625,0.9921846389770508,-1.9914904832839966,0.9456613063812256
1789635251886224000,0.201223876953125,1.3788257837295532,-1.9141064882278442,1.0952718257904053
1789635251896264000,0.211263916015625,1.6944847106933594,-2.194883346557617,1.2150450944900513
1789635251906303000,0.221302978515625,1.9531580209732056,-2.817077875137329,1.2850556373596191
1789635251916342800,0.2313427734375,2.234431266784668,-3.5800843238830566,1.2897721529006958
1789635251926382800,0.2413828125,2.618070125579834,-4.107036590576172,1.1725852489471436
1789635251936422000,0.251421875,3.326019048690796,-4.802610874176025,1.116817593574524
1789635251946462000,0.2614619140625,4.238672733306885,-5.167179107666016,1.3714978694915771
1789635251956500700,0.271500732421875,4.5297770500183105,-5.368387222290039,1.9162006378173828
1789635251966540800,0.281540771484375,4.108717918395996,-5.497454643249512,2.614222288131714
1789635251976580900,0.291580810546875,3.8229973316192627,-5.568607807159424,3.311473846435547
1789635251986620000,0.301619873046875,3.9932940006256104,-5.699587821960449,3.833664894104004
1789635251996659700,0.31165966796875,4.27518892288208,-5.7935895919799805,4.068312644958496
1789635252006699800,0.32169970703125,4.394200801849365,-5.731541633605957,4.03071403503418
1789635252016738800,0.33173876953125,4.333313465118408,-5.685495376586914,3.8083908557891846
1789635252026779100,0.341779052734375,4.285763263702393,-5.6950907707214355,3.571876287460327
1789635252036819200,0.351819091796875,4.4405741691589355,-5.475680828094482,3.4013831615448
1789635252046858200,0.361858154296875,4.6507134437561035,-4.944387435913086,3.239112615585327
1789635252056898000,0.37189794921875,4.706852912902832,-4.212828636169434,3.061995267868042
1789635252066937000,0.38193701171875,4.542011737823486,-3.554621696472168,2.903683662414551
1789635252076977200,0.39197705078125,4.241459369659424,-3.217644691467285,2.7961013317108154
1789635252087017200,0.402017333984375,3.922853946685791,-3.0427544116973877,2.7813923358917236
1789635252097056300,0.41205615234375,3.5277392864227295,-2.6799535751342773,2.772608995437622
1789635252107096300,0.422096435546875,3.0558412075042725,-2.019484043121338,2.6375691890716553
1789635252117136100,0.43213623046875,2.6647884845733643,-1.3878062963485718,2.3251781463623047
1789635252127175400,0.442175537109375,2.5324349403381348,-0.9808017611503601,1.8729768991470337
1789635252137215200,0.45221533203125,2.5305490493774414,-0.7561641335487366,1.434259295463562
1789635252147255300,0.46225537109375,2.5003185272216797,-1.0048378705978394,1.1439560651779175
1789635252157294300,0.47229443359375,2.489576816558838,-1.355757474899292,1.1127568483352661
1789635252167334400,0.48233447265625,2.4623618125915527,-1.5954912900924683,1.2383065223693848
1789635252177373200,0.492373291015625,2.050898551940918,-1.8852514028549194,1.395560622215271
1789635252187413200,0.502413330078125,1.4771848917007446,-2.1326019763946533,1.5187290906906128
1789635252197453300,0.512453369140625,1.6858662366867065,-2.467167854309082,1.4091110229492188
1789635252207492000,0.5224921875,1.6837670803070068,-2.0089690685272217,-0.11663660407066345
1789635252217532200,0.5325322265625,1.6820826530456543,-1.5033648014068604,-1.5822508335113525
1789635252227572200,0.542572265625,2.101274251937866,-0.7066218256950378,-1.5536417961120605
1789635252237611300,0.552611328125,2.547914743423462,-0.6382877826690674,-0.8136242032051086
1789635252247651300,0.5626513671875,2.8908166885375977,-1.2686383724212646,-0.1378963440656662
1789635252257690000,0.572690185546875,3.582745313644409,-1.863241195678711,0.41602569818496704
1789635252267730200,0.582730224609375,4.3825364112854,-1.924496054649353,0.6557754278182983
1789635252277770200,0.592770263671875,4.987039089202881,-1.489783763885498,0.47646722197532654
1789635252287809000,0.60280908203125,5.172460556030273,-1.3342519998550415,0.1974446326494217
1789635252297849000,0.61284912109375,5.053352355957031,-2.078922748565674,0.35827958583831787
1789635252307889200,0.62288916015625,4.224433898925781,-2.576097011566162,0.7205736041069031
1789635252317928200,0.63292822265625,3.828969955444336,-1.3984922170639038,0.5052794218063354
1789635252327968000,0.642968017578125,3.533154010772705,-0.08626111596822739,-0.14894713461399078
1789635252338008000,0.653008056640625,3.2952070236206055,0.23266732692718506,-0.5756478309631348
1789635252348047400,0.66304736328125,3.2200021743774414,-0.4145985245704651,-0.4303865432739258
1789635252358087400,0.67308740234375,2.991119384765625,-1.1540629863739014,0.031153924763202667
1789635252368126200,0.683126220703125,2.6539337635040283,-1.7113754749298096,0.39063167572021484
1789635252378166300,0.693166259765625,2.1236255168914795,-1.8809102773666382,0.5899136066436768
1789635252388206300,0.703206298828125,1.3958873748779297,-0.9334994554519653,0.5014881491661072
1789635252398245400,0.713245361328125,0.9802792072296143,-0.042270224541425705,-0.21472083032131195
1789635252408285200,0.72328515625,0.9567310214042664,0.36523497104644775,-0.37635737657546997
1789635252418325200,0.7333251953125,0.5133466720581055,0.07068029791116714,0.13687290251255035
1789635252428364300,0.7433642578125,-0.23445351421833038,-0.25003620982170105,0.5890318155288696
1789635252438404400,0.753404296875,-0.6496022343635559,-0.42628687620162964,0.4625311493873596
1789635252448444200,0.763444091796875,-0.4131825268268585,-0.8767960071563721,0.09395525604486465
1789635252458483200,0.773483154296875,0.002019474981352687,-0.3402169644832611,-0.3224504888057709
1789635252468523300,0.783523193359375,0.6565001010894775,-0.00703873485326767,-0.5554009079933167
1789635252478562000,0.79356201171875,0.747104823589325,-0.18433521687984467,-0.5548728108406067
1789635252488602000,0.80360205078125,0.8152995705604553,-0.3576015532016754,-0.1847275048494339
1789635252498642200,0.81364208984375,0.983798086643219,-0.4034973978996277,0.21104378998279572
1789635252508681200,0.82368115234375,1.0917437076568604,-0.722516655921936,0.4485815167427063
1789635252518721300,0.83372119140625,1.163265347480774,-0.9159165024757385,0.4461846649646759
1789635252528761000,0.843760986328125,1.1119307279586792,-0.8642336130142212,0.16219688951969147
1789635252538800000,0.853800048828125,1.0128062963485718,-0.7122272849082947,-0.12829166650772095
1789635252548840200,0.863840087890625,0.9229472279548645,-0.31902432441711426,-0.41257718205451965
1789635252558880300,0.87388037109375,0.5934401750564575,-0.10555519163608551,-0.5091721415519714
1789635252568919300,0.883919189453125,0.05621879920363426,0.10408485680818558,-0.4373376667499542
1789635252578959000,0.893958984375,-0.21387048065662384,-0.061581339687108994,-0.2477344274520874
1789635252588998400,0.903998291015625,0.017956096678972244,-0.024643560871481895,-0.22303254902362823
1789635252599038200,0.9140380859375,0.23323751986026764,0.22604325413703918,-0.6374688744544983
1789635252609078300,0.924078369140625,0.4089914858341217,0.5052616000175476,-1.2592471837997437
1789635252619117300,0.934117431640625,0.7722328305244446,1.057647466659546,-1.7240899801254272
1789635252629157400,0.944157470703125,0.8582193851470947,1.9774324893951416,-1.7402700185775757
1789635252639197200,0.954197265625,0.2063254714012146,2.029686450958252,-0.8034077882766724
1789635252649236200,0.964236328125,-0.20321276783943176,0.6176749467849731,0.002272475278005004
1789635252659276300,0.9742763671875,-0.22786325216293335,0.2507411539554596,-0.12507829070091248
1789635252669316400,0.98431640625,-0.30648988485336304,0.8868217468261719,-0.26038843393325806
1789635252679355100,0.994355224609375,-0.3687252998352051,1.1236422061920166,-0.28492599725723267
1789635252689395200,1.004395263671875,-0.4960896372795105,0.7170105576515198,-0.18778188526630402
1789635252699434200,1.014434326171875,-0.6642693281173706,0.37559786438941956,-0.1713768094778061
1789635252709474300,1.024474365234375,-0.6060928702354431,0.2532394528388977,-0.10839252173900604
1789635252719514000,1.03451416015625,-0.34341302514076233,0.07446810603141785,-0.05769632011651993
1789635252729553200,1.04455322265625,-0.08875437080860138,-0.07548969984054565,-0.012409265153110027
1789635252739593200,1.05459326171875,0.07969456166028976,-0.07988151907920837,0.012049205601215363
1789635252749633300,1.06463330078125,0.23020018637180328,-0.13104456663131714,0.01816914975643158
1789635252759672000,1.074672119140625,0.29345691204071045,-0.1512710154056549,0.017120396718382835
1789635252769712000,1.084712158203125,0.3452111780643463,-0.20320025086402893,-0.004248008131980896
1789635252779752200,1.094752197265625,0.36326342821121216,-0.16925054788589478,-0.010824684053659439
1789635252789791200,1.104791259765625,0.37596216797828674,-0.11109136790037155,-0.021220866590738297
1789635252799831000,1.1148310546875,0.42782750725746155,-0.0009861685102805495,-0.06559019535779953
1789635252809870300,1.124870361328125,0.46253514289855957,0.09803015738725662,0.022430207580327988
1789635252819910400,1.134910400390625,0.47678279876708984,0.08082374185323715,0.12959341704845428
1789635252829950200,1.1449501953125,0.4013197422027588,-0.35441213846206665,0.33447757363319397
1789635252839989200,1.1549892578125,0.3798682391643524,-0.3980693519115448,0.6615092158317566
1789635252850029300,1.165029296875,0.2884877324104309,-0.23993909358978271,0.056292034685611725
1789635252860069400,1.1750693359375,0.2942545413970947,-0.6590285301208496,-0.5656431317329407
1789635252870108200,1.185108154296875,0.3866771459579468,-1.7970576286315918,-0.7169684767723083
1789635252880148200,1.195148193359375,0.6514070630073547,-2.4071197509765625,-0.6154085993766785
1789635252890188300,1.205188232421875,1.1532573699951172,-0.9889789819717407,-0.2789147198200226
1789635252900227300,1.215227294921875,1.123225212097168,-0.688825786113739,-0.22418223321437836
1789635252910267100,1.22526708984375,0.9755316376686096,-1.0486679077148438,-0.12801282107830048
1789635252920306200,1.23530615234375,0.8825933933258057,-1.135335087776184,0.011756258085370064
1789635252930346200,1.24534619140625,0.6016408205032349,-0.5811930894851685,-0.15173174440860748
1789635252940386300,1.25538623046875,0.5318441987037659,-0.4814646244049072,-0.36853861808776855
1789635252950425000,1.265425048828125,0.5105388760566711,-1.012043833732605,-0.3510302007198334
1789635252960465200,1.275465087890625,0.5176165103912354,-1.4121928215026855,-0.24419721961021423
1789635252970505200,1.285505126953125,0.7379331588745117,-1.55256187915802,-0.09490547329187393
1789635252980544300,1.295544189453125,0.913941502571106,-1.616225004196167,0.08538813143968582
1789635252990584000,1.305583984375,1.0216282606124878,-1.7597973346710205,0.29009678959846497
1789635253000623000,1.315623046875,0.9771233797073364,-1.9489859342575073,0.4536500573158264
1789635253010663200,1.3256630859375,0.9572734832763672,-1.9228545427322388,0.4475671350955963
1789635253020703200,1.335703125,0.9514153599739075,-1.6055529117584229,0.3915664255619049
1789635253030742300,1.3457421875,0.8363636136054993,-0.9010105133056641,0.3077239990234375
1789635253040782300,1.3557822265625,0.289863258600235,-0.2569420337677002,0.3087623715400696
1789635253050822100,1.365822265625,-0.44415295124053955,0.12953588366508484,0.2673763036727905
1789635253060861200,1.375861083984375,0.2991273105144501,0.22446852922439575,-0.1134226992726326
1789635253070901200,1.3859013671875,0.6683477163314819,1.1265240907669067,-0.3302370309829712
1789635253080941300,1.39594140625,0.6466352343559265,1.7790133953094482,-0.47635748982429504
1789635253090980000,1.40597998046875,0.28295233845710754,2.025346040725708,-0.5431804656982422
1789635253101020200,1.416020263671875,-0.09399627149105072,1.7722450494766235,-0.5455453395843506
1789635253111059200,1.42605908203125,-0.19175532460212708,1.42390775680542,-0.4914911687374115
1789635253121099300,1.436099365234375,-0.13161662220954895,1.3493353128433228,-0.3952522575855255
1789635253131139000,1.44613916015625,-0.0587991327047348,1.158700942993164,-0.3317752778530121
1789635253141178000,1.45617822265625,-0.02984151802957058,0.5769405364990234,-0.2069007158279419
1789635253151218200,1.46621826171875,-0.07361296564340591,0.1176677793264389,-0.12087582051753998
1789635253161258200,1.47625830078125,-0.0002926813904196024,-0.22335639595985413,-0.037759896367788315
1789635253171297000,1.486297119140625,0.2594749927520752,-0.3689005374908447,0.012208462692797184
1789635253181337000,1.496337158203125,0.275968998670578,0.1807628571987152,-0.3768697679042816
1789635253191377200,1.506377197265625,0.24975363910198212,0.4774121046066284,-0.4685797393321991
1789635253201416200,1.516416259765625,-0.03358485922217369,0.8972845077514648,-0.5678288340568542
1789635253211456000,1.5264560546875,-0.3635883331298828,1.4080966711044312,-0.6492927670478821
1789635253221496000,1.53649609375,-0.30055317282676697,0.9777987599372864,-0.4839347302913666
1789635253231535000,1.54653515625,0.046758983284235,0.04038017988204956,-0.2550240457057953
1789635253241575200,1.5565751953125,0.6141158938407898,-1.0945632457733154,0.20653586089611053
1789635253251614200,1.5666142578125,0.6989258527755737,-0.37243375182151794,-0.3564271032810211
1789635253261654000,1.576654052734375,0.559624969959259,-0.21282757818698883,-0.6984393000602722
1789635253271694000,1.586694091796875,0.5908321142196655,-1.546504020690918,-1.0447578430175781
1789635253281733000,1.596733154296875,0.47983318567276,-1.3785808086395264,0.01979154720902443
1789635253291773200,1.606773193359375,0.40527427196502686,-1.3198426961898804,0.5520259141921997
1789635253301813200,1.616813232421875,0.2907490134239197,-1.5640478134155273,0.45179036259651184
1789635253311852300,1.626852294921875,0.18744659423828125,-1.8688791990280151,0.1071418970823288
1789635253321892400,1.636892333984375,0.2983105182647705,-1.8798640966415405,-0.06711991131305695
1789635253331931100,1.64693115234375,0.6849756836891174,-2.007373332977295,-0.131799578666687
1789635253341971200,1.65697119140625,0.8754668235778809,-1.9652408361434937,0.017711885273456573
1789635253352011300,1.66701123046875,0.6885008811950684,-1.7499316930770874,0.0919477641582489
1789635253362050000,1.677050048828125,0.3868992328643799,-1.5015079975128174,0.0915999561548233
1789635253372090000,1.687090087890625,0.19805103540420532,-1.299190878868103,0.0065742796286940575
1789635253382130200,1.697130126953125,-0.017368070781230927,-1.070244312286377,-0.08405708521604538
1789635253392169200,1.707169189453125,-0.27793893218040466,-0.9696683883666992,-0.1603907346725464
1789635253402209000,1.717208984375,-0.5190002918243408,-0.9895896315574646,-0.176651731133461
1789635253412249000,1.7272490234375,-0.7277961373329163,-1.0974804162979126,-0.16258811950683594
1789635253422288100,1.7372880859375,-0.9984686374664307,-1.1679335832595825,-0.1299726516008377
1789635253432328200,1.747328125,-1.318238377571106,-1.3205926418304443,-0.2427138388156891
1789635253442368000,1.757367919921875,-1.3673747777938843,-1.8616087436676025,-0.3707181513309479
1789635253452407000,1.767406982421875,-0.9689421653747559,-2.432382106781006,-0.40345293283462524
1789635253462447000,1.777447021484375,-0.2753410339355469,-2.6964681148529053,-0.3152937591075897
1789635253472486100,1.787486083984375,0.2341746836900711,-2.497960329055786,-0.16413460671901703
1789635253482526000,1.79752587890625,0.3161691427230835,-1.9302085638046265,-0.1883784383535385
1789635253492566000,1.80756591796875,0.09710151702165604,-1.3489123582839966,-0.3674701452255249
1789635253502605300,1.817605224609375,0.03130758926272392,-1.015095591545105,-0.4836026132106781
1789635253512645000,1.82764501953125,0.06901901215314865,-0.8713799118995667,-0.5295394659042358
1789635253522685000,1.837684814453125,0.09191261231899261,-0.7946723699569702,-0.46849051117897034
1789635253532724200,1.84772412109375,0.2775613069534302,-0.8649337291717529,-0.31425753235816956
1789635253542764300,1.857764404296875,0.3156421184539795,-0.6945177912712097,-0.12596645951271057
1789635253552804400,1.867804443359375,0.32390642166137695,-0.6616330742835999,0.017483917996287346
1789635253562843100,1.877843017578125,0.35089436173439026,-0.7101659774780273,0.03460964187979698
1789635253572883200,1.88788330078125,0.32575973868370056,-0.6149651408195496,-0.03473268076777458
1789635253582922200,1.897922119140625,0.258750319480896,-0.4458312690258026,-0.11447970569133759
1789635253592962000,1.907962158203125,0.15539677441120148,-0.2503613829612732,-0.20031125843524933
1789635253603002000,1.918002197265625,0.13071593642234802,-0.16988784074783325,-0.29958271980285645
1789635253613041200,1.928041259765625,0.16183310747146606,-0.15646204352378845,-0.4509967267513275
1789635253623081200,1.938081298828125,0.24672909080982208,-0.22201256453990936,-0.5318612456321716
1789635253633121300,1.948121337890625,0.3016605079174042,-0.23693372309207916,-0.4169650077819824
1789635253643160000,1.95816015625,0.3269706666469574,-0.2398994117975235,-0.24162301421165466
1789635253653200100,1.9682001953125,0.34456589818000793,-0.18332934379577637,-0.05800018459558487
1789635253663240200,1.978240234375,0.2904169261455536,-0.10826149582862854,0.08956663310527802
1789635253673279000,1.988279052734375,0.22538971900939941,-0.015046061016619205,0.1787164807319641
1789635253683319000,1.998319091796875,0.2264440655708313,-0.015606390312314034,0.20864136517047882
1789635253693359000,2.008359130859375,0.25832128524780273,-0.08200645446777344,0.2060261368751526
1789635253703398100,2.018398193359375,0.33403947949409485,-0.1720239669084549,0.1763577163219452
1789635253713438000,2.02843798828125,0.4420431852340698,-0.13342569768428802,0.12585006654262543
1789635253723477200,2.038477294921875,0.43400683999061584,-0.03712606430053711,0.09833908826112747
1789635253733517000,2.04851708984375,0.4234199821949005,-0.06800195574760437,0.11453376710414886
1789635253743557000,2.05855712890625,0.41407227516174316,-0.010069944895803928,0.1388723999261856
1789635253753596200,2.06859619140625,0.42719632387161255,-0.043597809970378876,0.1507202684879303
1789635253763636200,2.07863623046875,0.4785956144332886,-0.14327965676784515,0.2077835500240326
1789635253773676000,2.088676025390625,0.5475091934204102,-0.32847774028778076,0.3088468015193939
1789635253783715300,2.09871533203125,0.5918545126914978,-0.43872037529945374,0.38476312160491943
1789635253793755100,2.108755126953125,0.6036121249198914,-0.4164603352546692,0.3648568093776703
1789635253803795200,2.118795166015625,0.6143611669540405,-0.2534596920013428,0.2929895222187042
1789635253813834200,2.128834228515625,0.5880081057548523,-0.06299387663602829,0.22750718891620636
1789635253823874300,2.138874267578125,0.5230919718742371,-0.03766988217830658,0.20698727667331696
1789635253833914000,2.1489140625,0.44851309061050415,-0.1033484935760498,0.15579518675804138
1789635253843953200,2.158953125,0.39609673619270325,-0.1605723649263382,0.13025040924549103
1789635253853993200,2.1689931640625,0.3262731730937958,-0.20023882389068604,0.11967233568429947
1789635253864032000,2.179031982421875,0.2966311275959015,-0.19618521630764008,0.10879518836736679
1789635253874072000,2.189072021484375,0.3050275444984436,-0.1279236078262329,0.11669386178255081
1789635253884112100,2.199112060546875,0.28515318036079407,-0.04193732887506485,0.12796196341514587
1789635253894151200,2.209151123046875,0.24221530556678772,0.02683134749531746,0.11987020820379257
1789635253904191200,2.219191162109375,0.2191062569618225,0.1139790341258049,0.17088386416435242
1789635253914231000,2.22923095703125,0.19668243825435638,0.22325226664543152,0.24535596370697021
1789635253924270000,2.23927001953125,0.22337210178375244,0.3396531641483307,0.3091655671596527
1789635253934310100,2.24931005859375,0.28451427817344666,0.5377793312072754,0.4134698808193207
1789635253944350200,2.25935009765625,0.30678096413612366,0.6286605000495911,0.5041574239730835
1789635253954389000,2.269388916015625,0.2751767039299011,0.6557685136795044,0.6011010408401489
1789635253964429000,2.279428955078125,0.14244742691516876,0.5147821307182312,0.5397849082946777
1789635253974469000,2.28946923828125,-0.06639580428600311,0.36354199051856995,0.3850361108779907
1789635253984508200,2.299508056640625,-0.1585206687450409,0.5094576478004456,0.3606841564178467
1789635253994548000,2.3095478515625,0.03473054990172386,-0.12349610775709152,0.09380105882883072
1789635254004587300,2.319587158203125,-0.03893781080842018,-1.2436293363571167,0.02893977239727974
1789635254014627300,2.32962744140625,-0.18286675214767456,-2.299001693725586,0.11404401063919067
1789635254024667100,2.339667236328125,-0.20520588755607605,-3.200016498565674,0.35678234696388245
1789635254034706200,2.3497060546875,-0.45480453968048096,-4.693143367767334,0.9690989851951599
1789635254044746200,2.359746337890625,-0.27255961298942566,-2.907318115234375,0.6476224660873413
1789635254054786300,2.369786376953125,-0.18779119849205017,-1.5898648500442505,0.7627034783363342
1789635254064825000,2.3798251953125,-0.17022180557250977,-0.1740144044160843,0.2383398711681366
1789635254074865200,2.389865234375,-0.16541612148284912,0.5954870581626892,-0.45793241262435913
1789635254084905200,2.3999052734375,-0.16129621863365173,0.6029980182647705,-0.7547339797019958
1789635254094944000,2.409944091796875,-0.05467789247632027,0.21499726176261902,-0.6343372464179993
1789635254104984000,2.419984130859375,0.107451893389225,-0.16676688194274902,-0.3976581394672394
1789635254115024100,2.430024169921875,0.14884459972381592,-0.405680388212204,-0.3170171082019806
1789635254125063200,2.440063232421875,0.10001847892999649,-0.4247198700904846,-0.4164198637008667
1789635254135103000,2.45010302734375,0.14566825330257416,-0.38321956992149353,-0.5785216689109802
1789635254145142000,2.46014208984375,0.16760897636413574,-0.38511571288108826,-0.6518286466598511
1789635254155182000,2.47018212890625,0.0930660292506218,-0.39387407898902893,-0.6296871304512024
1789635254165222100,2.48022216796875,0.019591011106967926,-0.5375795960426331,-0.5399894714355469
1789635254175261000,2.490260986328125,0.021045897156000137,-0.6437936425209045,-0.5029555559158325
1789635254185301000,2.500301025390625,0.08320221304893494,-0.5246158242225647,-0.5043361186981201
1789635254195341000,2.510341064453125,0.01757952570915222,-0.27234789729118347,-0.581364095211029
1789635254205380000,2.520380126953125,-0.10803379118442535,-0.11020267009735107,-0.6597113609313965
1789635254215420000,2.530419921875,-0.12835636734962463,-0.10099772363901138,-0.5833273530006409
1789635254225460000,2.5404599609375,-0.13523851335048676,-0.10180439054965973,-0.44416919350624084
1789635254235499300,2.550499267578125,-0.13085335493087769,-0.11942865699529648,-0.3384994864463806
1789635254245539000,2.5605390625,-0.11867418885231018,-0.18825246393680573,-0.30934667587280273
1789635254255579000,2.570578857421875,-0.11447224766016006,-0.2772127091884613,-0.3367444574832916
1789635254265618200,2.5806181640625,-0.12229634821414948,-0.32703697681427,-0.38859567046165466
1789635254275658200,2.590658203125,-0.14853887259960175,-0.3286937177181244,-0.4332028329372406
1789635254285697000,2.600697021484375,-0.17603307962417603,-0.29933425784111023,-0.449685662984848
1789635254295737000,2.610737060546875,-0.20784027874469757,-0.25520139932632446,-0.4238207936286926
1789635254305777200,2.620777099609375,-0.21659834682941437,-0.23306334018707275,-0.36210229992866516
1789635254315816200,2.630816162109375,-0.20359599590301514,-0.2245982140302658,-0.2717154026031494
1789635254325856300,2.640856201171875,-0.1838662326335907,-0.23240926861763,-0.1774328351020813
1789635254335896000,2.65089599609375,-0.16430158913135529,-0.24071620404720306,-0.11745525896549225
1789635254345935000,2.66093505859375,-0.17692497372627258,-0.20060206949710846,-0.08315800130367279
1789635254355975200,2.67097509765625,-0.20711377263069153,-0.15737870335578918,-0.07355890423059464
1789635254366015200,2.68101513671875,-0.2426171749830246,-0.14272679388523102,-0.0850624293088913
1789635254376054000,2.691053955078125,-0.25371110439300537,-0.1394127607345581,-0.1067512109875679
1789635254386094000,2.701093994140625,-0.25698012113571167,-0.19410929083824158,-0.11498783528804779
1789635254396134100,2.711134033203125,-0.2533198893070221,-0.2661784291267395,-0.09889781475067139
1789635254406173000,2.7211728515625,-0.24375487864017487,-0.31624293327331543,-0.07937099039554596
1789635254416213000,2.731212890625,-0.23948821425437927,-0.3580454885959625,-0.06800994277000427
1789635254426252000,2.741251953125,-0.22530396282672882,-0.4147215485572815,-0.06987708806991577
1789635254436292000,2.7512919921875,-0.2086554765701294,-0.4238356947898865,-0.06627809256315231
1789635254446332200,2.761332275390625,-0.19572262465953827,-0.3998299539089203,-0.029575202614068985
1789635254456371000,2.771370849609375,-0.19650666415691376,-0.3655007481575012,0.022602247074246407
1789635254466411000,2.781410888671875,-0.19368158280849457,-0.3359372615814209,0.07509208470582962
1789635254476451000,2.791451171875,-0.1882346272468567,-0.3141224980354309,0.09937132894992828
1789635254486490000,2.801489990234375,-0.18029120564460754,-0.3620881736278534,0.09222180396318436
1789635254496530200,2.8115302734375,-0.14435026049613953,-0.3686526119709015,0.04243587329983711
1789635254506570000,2.821570068359375,-0.07022303342819214,-0.3282332718372345,-0.015539544634521008
1789635254516609300,2.831609375,-0.040823597460985184,-0.36159655451774597,-0.042028676718473434
1789635254526649000,2.841649169921875,0.03196325898170471,-0.408702552318573,-0.0001483380765421316
1789635254536689200,2.851689208984375,0.07807455956935883,-0.3876475989818573,0.07741569727659225
1789635254546728200,2.861728271484375,0.11091719567775726,-0.3534899055957794,0.14270761609077454
1789635254556768300,2.871768310546875,0.14433693885803223,-0.3251834213733673,0.17675453424453735
1789635254566808000,2.88180810546875,0.1738695353269577,-0.34527429938316345,0.19065223634243011
1789635254576847000,2.89184716796875,0.18720504641532898,-0.339294970035553,0.1886599212884903
1789635254586887200,2.90188720703125,0.19410476088523865,-0.29447877407073975,0.17377232015132904
1789635254596926200,2.91192626953125,0.20214031636714935,-0.24917706847190857,0.13864922523498535
1789635254606966000,2.921966064453125,0.1857062131166458,-0.24278388917446136,0.1052318811416626
1789635254617006000,2.932006103515625,0.15812918543815613,-0.23221220076084137,0.08942814916372299
1789635254627045000,2.942045166015625,0.1399051696062088,-0.1809317022562027,0.11101413518190384
1789635254637085200,2.952085205078125,0.12705647945404053,-0.06367325037717819,0.1154930368065834
1789635254647125000,2.962125,0.11351803690195084,-0.004435760900378227,0.0682688057422638
1789635254657164000,2.9721640625,0.11573059111833572,-0.04382098466157913,-0.0070672305300831795
1789635254667204000,2.9822041015625,0.1357857882976532,-0.12475524842739105,-0.04607188701629639
1789635254677244200,2.992244140625,0.16310423612594604,-0.18534934520721436,-0.04653128236532211
1789635254687283000,3.002282958984375,0.17849144339561462,-0.23543621599674225,-0.033917754888534546
1789635254697323000,3.012322998046875,0.16914694011211395,-0.2656441926956177,-0.0245484858751297
1789635254707363000,3.022363037109375,0.13320572674274445,-0.27812430262565613,-0.027060380205512047
1789635254717402000,3.032402099609375,0.08058591932058334,-0.268760085105896,-0.041795115917921066
1789635254727442000,3.04244189453125,0.028068652376532555,-0.24867665767669678,-0.054422229528427124
1789635254737481200,3.052481201171875,-0.017549166455864906,-0.17307564616203308,-0.04446573555469513
1789635254747521300,3.062521240234375,-0.0665806233882904,-0.061297446489334106,-0.019272496923804283
1789635254757561000,3.07256103515625,-0.10505371540784836,0.04478105157613754,0.0146870668977499
1789635254767600000,3.08260009765625,-0.13256870210170746,0.07675203680992126,0.03856470435857773
1789635254777640200,3.09264013671875,-0.13787025213241577,-0.011522699147462845,0.058162104338407516
1789635254787680300,3.10268017578125,-0.12141937017440796,-0.12387081235647202,0.06810954213142395
1789635254797719000,3.112718994140625,-0.07027816027402878,-0.226655513048172,0.06319228559732437
1789635254807759000,3.122759033203125,-0.024506142362952232,-0.2935786247253418,0.05776369571685791
1789635254817799200,3.132799072265625,0.007345797028392553,-0.2920750081539154,0.05314045026898384
1789635254827838200,3.142838134765625,0.02027357928454876,-0.24986550211906433,0.05697966367006302
1789635254837878000,3.1528779296875,0.006412625312805176,-0.24420307576656342,0.07519222050905228
1789635254847918000,3.16291796875,-0.041488852351903915,-0.29567745327949524,0.08451355248689651
1789635254857957000,3.17295703125,-0.09586074948310852,-0.32997098565101624,0.08072440326213837
1789635254867997200,3.1829970703125,-0.12904533743858337,-0.33375000953674316,0.07357221841812134
1789635254878037200,3.193037353515625,-0.13085468113422394,-0.30075743794441223,0.0648956447839737
1789635254888076000,3.203075927734375,-0.08903133869171143,-0.3072395622730255,0.060978133231401443
1789635254898116000,3.2131162109375,-0.0537380613386631,-0.3278449773788452,0.03778040036559105
1789635254908155100,3.223155029296875,-0.014815697446465492,-0.36246687173843384,0.0051654670387506485
1789635254918195000,3.23319482421875,0.008219846524298191,-0.3507191240787506,-0.0114958006888628
1789635254928235000,3.243235107421875,0.012794092297554016,-0.2899210453033447,-0.0071164988912642
1789635254938274000,3.253274169921875,-0.0052144695073366165,-0.193239226937294,0.004067179746925831
1789635254948314000,3.263314208984375,-0.013332316651940346,-0.061706773936748505,0.009078982286155224
1789635254958354000,3.27335400390625,-0.0049465554766356945,0.05336229130625725,-0.023207318037748337
1789635254968393000,3.28339306640625,0.00944969430565834,0.11052943766117096,-0.07730091363191605
1789635254978433000,3.29343310546875,0.026624687016010284,0.11705099046230316,-0.13249652087688446
1789635254988473000,3.30347314453125,0.030606111511588097,0.1427329182624817,-0.1699746549129486
1789635254998512000,3.31351220703125,0.0475560687482357,0.20549750328063965,-0.19834451377391815
1789635255008552200,3.32355224609375,0.046062566339969635,0.2718949019908905,-0.23505271971225739
1789635255018592000,3.333592041015625,0.015154185704886913,0.28578007221221924,-0.26882559061050415
1789635255028631600,3.343631591796875,-0.03881663829088211,0.2807517647743225,-0.30040112137794495
1789635255038671400,3.35367138671875,-0.050095923244953156,0.4220502972602844,-0.33325067162513733
1789635255048711400,3.36371142578125,-0.045333392918109894,0.5861042141914368,-0.35124751925468445
1789635255058750500,3.37375048828125,-0.058881159871816635,0.6103400588035583,-0.33374467492103577
1789635255068790500,3.38379052734375,-0.08270792663097382,0.5469648241996765,-0.30176571011543274
1789635255078829300,3.393829345703125,-0.08084078878164291,0.5822330713272095,-0.3236555755138397
1789635255088869400,3.403869384765625,-0.05973470211029053,0.7531733512878418,-0.4023072421550751
1789635255098909400,3.413909423828125,-0.07052316516637802,0.8308252692222595,-0.5064610838890076
1789635255108948500,3.423948486328125,-0.11180429905653,0.7471381425857544,-0.5748265385627747
1789635255118988300,3.43398828125,-0.13908891379833221,0.6695117950439453,-0.6174325942993164
1789635255129028400,3.4440283203125,-0.147079199552536,0.6920753717422485,-0.642493724822998
1789635255139067400,3.4540673828125,-0.1481761485338211,0.8258760571479797,-0.6456109881401062
1789635255149107500,3.464107421875,-0.16615115106105804,1.0097050666809082,-0.6215565204620361
1789635255159147300,3.474147216796875,-0.22724007070064545,1.1352485418319702,-0.5636394023895264
1789635255169186300,3.484186279296875,-0.3037910461425781,1.0891977548599243,-0.4634115993976593
1789635255179226400,3.494226318359375,-0.37350648641586304,0.9996321797370911,-0.35315486788749695
1789635255189266400,3.504266357421875,-0.42910316586494446,1.0059946775436401,-0.2768790125846863
1789635255199305200,3.51430517578125,-0.46735680103302,1.054473876953125,-0.24805720150470734
1789635255209345300,3.52434521484375,-0.4973043203353882,0.9874391555786133,-0.2628353536128998
1789635255219385300,3.53438525390625,-0.4949290454387665,0.7749180793762207,-0.29588544368743896
1789635255229424000,3.544424072265625,-0.4716109335422516,0.5687108635902405,-0.3205639123916626
1789635255239464200,3.554464111328125,-0.4494616985321045,0.4789426326751709,-0.33430206775665283
1789635255249503500,3.56450341796875,-0.4421079158782959,0.4827847480773926,-0.32829585671424866
1789635255259543300,3.574543212890625,-0.44039976596832275,0.5175946950912476,-0.3039420545101166
1789635255269583400,3.584583251953125,-0.444756418466568,0.5532370805740356,-0.2630143165588379
1789635255279622400,3.594622314453125,-0.46643349528312683,0.5703670978546143,-0.22428929805755615
1789635255289662500,3.604662353515625,-0.48031094670295715,0.6037601828575134,-0.1870519071817398
1789635255299702500,3.61470263671875,-0.45906877517700195,0.6433680653572083,-0.13401585817337036
1789635255309741300,3.6247412109375,-0.41385096311569214,0.6047689914703369,-0.06519125401973724
1789635255319781400,3.634781494140625,-0.35818105936050415,0.6103445887565613,-0.013622601516544819
1789635255329821400,3.644821533203125,-0.30624061822891235,0.617910623550415,0.03211159631609917
1789635255339860500,3.654860595703125,-0.24808624386787415,0.572269082069397,0.0780857503414154
1789635255349900300,3.664900390625,-0.19082161784172058,0.525032639503479,0.08990032970905304
1789635255359940400,3.6749404296875,-0.13590297102928162,0.4881073534488678,0.041079260408878326
1789635255369979400,3.6849794921875,-0.1006227508187294,0.5031813979148865,-0.044322188943624496
1789635255380019500,3.69501953125,-0.07240655273199081,0.5836378931999207,-0.1423129290342331
1789635255390059500,3.7050595703125,-0.037089843302965164,0.6583541631698608,-0.23956358432769775
1789635255400098300,3.715098388671875,0.006204366218298674,0.7607929706573486,-0.3313414454460144
1789635255410138400,3.725138427734375,0.0318458154797554,0.867544949054718,-0.41738763451576233
1789635255420177400,3.735177490234375,0.06636757403612137,0.8880563378334045,-0.463888555765152
1789635255430217200,3.74521728515625,0.11274731904268265,0.8524091243743896,-0.4778541922569275
1789635255440257300,3.75525732421875,0.15867219865322113,0.7837424874305725,-0.48481303453445435
1789635255450296300,3.76529638671875,0.18469607830047607,0.7068820595741272,-0.4763513505458832
1789635255460336400,3.77533642578125,0.19490158557891846,0.6112002730369568,-0.45269688963890076
1789635255470376200,3.785376220703125,0.20463889837265015,0.48656031489372253,-0.4334174692630768
1789635255480415200,3.795415283203125,0.19058698415756226,0.4264085590839386,-0.41846171021461487
1789635255490455300,3.805455322265625,0.14323146641254425,0.4695051908493042,-0.38339078426361084
1789635255500495400,3.815495361328125,0.11578811705112457,0.4943370223045349,-0.33335134387016296
1789635255510534400,3.825534423828125,0.1192994937300682,0.4217914640903473,-0.2944779694080353
1789635255520574200,3.83557421875,0.12092135846614838,0.2722778618335724,-0.2946992814540863
1789635255530614300,3.8456142578125,0.1285467892885208,0.07341882586479187,-0.2879028916358948
1789635255540653600,3.855653564453125,0.12231126427650452,-0.1588335931301117,-0.21184886991977692
1789635255550693400,3.865693359375,0.07971560209989548,-0.37697577476501465,-0.08087141066789627
1789635255560733400,3.8757333984375,0.05973443761467934,-0.4737297594547272,0.04381006583571434
1789635255570772500,3.8857724609375,0.03431429713964462,-0.4615870714187622,0.09945628046989441
1789635255580812500,3.8958125,0.009727728553116322,-0.38351675868034363,0.1238071620464325
1789635255590851300,3.905851318359375,-0.0003350256592966616,-0.3859812617301941,0.0024913870729506016
1789635255600891400,3.915891357421875,-0.013980796560645103,-0.5684890151023865,-0.3051798939704895
1789635255610931500,3.925931396484375,-0.04874676838517189,-0.7026180624961853,-0.5967994928359985
1789635255620970200,3.93597021484375,-0.03835218399763107,-0.398841917514801,-0.6929891109466553
1789635255631010300,3.94601025390625,-0.0038125813007354736,0.27227598428726196,-0.5571689605712891
1789635255641050400,3.95605029296875,0.00006231796578504145,0.6984086632728577,-0.36477556824684143
1789635255651089400,3.96608935546875,0.10686839371919632,0.5324785709381104,-0.255537748336792
1789635255661129200,3.976129150390625,0.16487017273902893,0.3550132215023041,-0.33145490288734436
1789635255671169300,3.986169189453125,0.17631351947784424,0.5017629861831665,-0.5337963104248047
1789635255681208300,3.996208251953125,0.17069131135940552,0.7100490927696228,-0.6859914064407349
1789635255691248400,4.006248291015625,0.18911239504814148,0.6334370970726013,-0.678209662437439
1789635255701288400,4.016288330078125,0.19506829977035522,0.24393463134765625,-0.5286819338798523
1789635255711327200,4.0263271484375,0.21675068140029907,-0.24995285272598267,-0.3431704044342041
1789635255721367300,4.0363671875,0.2222415953874588,-0.6417080760002136,-0.21649475395679474
1789635255731407400,4.046407470703125,0.13513731956481934,-0.6459715366363525,-0.16405445337295532
1789635255741446100,4.056446044921875,0.0002700445184018463,-0.36819931864738464,-0.1515546441078186
1789635255751486200,4.066486328125,-0.17095497250556946,-0.2373821884393692,-0.0923973098397255
1789635255761525500,4.076525390625,-0.30592823028564453,-0.30473592877388,0.03335156664252281
1789635255771565300,4.0865654296875,-0.40986713767051697,-0.4071749448776245,0.19678416848182678
1789635255781605000,4.096605224609375,-0.4997895658016205,-0.42745012044906616,0.2926790118217468
1789635255791644400,4.10664453125,-0.5491983890533447,-0.4454493820667267,0.2878653407096863
1789635255801684500,4.1166845703125,-0.5774665474891663,-0.5818405151367188,0.18264038860797882
1789635255811724500,4.126724609375,-0.600196361541748,-0.6604660749435425,0.04821014031767845
1789635255821763300,4.136763427734375,-0.5952526926994324,-0.6469683647155762,-0.06651005148887634
1789635255831803400,4.146803466796875,-0.5613333582878113,-0.5933006405830383,-0.1603686362504959
1789635255841843500,4.156843505859375,-0.5006148815155029,-0.521294355392456,-0.17976070940494537
1789635255851882500,4.166882568359375,-0.42504584789276123,-0.5213020443916321,-0.11787869781255722
1789635255861922300,4.17692236328125,-0.2986498177051544,-0.5825976133346558,-0.01173415407538414
1789635255871962400,4.18696240234375,-0.15155597031116486,-0.6339119672775269,0.06924112141132355
1789635255882001400,4.19700146484375,-0.03334224224090576,-0.5447676777839661,0.10710541158914566
1789635255892041500,4.20704150390625,0.02924044243991375,-0.4120328426361084,0.10142462700605392
1789635255902081300,4.217081298828125,0.04193972796201706,-0.3348325788974762,0.0202818363904953
1789635255912120300,4.227120361328125,0.012349077500402927,-0.27347415685653687,-0.13880661129951477
1789635255922160400,4.237160400390625,-0.011030546389520168,-0.17733190953731537,-0.3319161534309387
1789635255932200400,4.247200439453125,-0.006891462020576,-0.1429731398820877,-0.5073441863059998
1789635255942239200,4.2572392578125,0.009043828584253788,-0.17654307186603546,-0.6028733253479004
1789635255952279300,4.267279296875,0.050025615841150284,-0.11715938150882721,-0.6082015633583069
1789635255962318300,4.277318359375,0.08863399177789688,-0.03479819372296333,-0.5572296977043152
1789635255972358400,4.2873583984375,0.1252010613679886,-0.054247260093688965,-0.5039164423942566
1789635255982398200,4.297398193359375,0.17958547174930573,-0.07502604275941849,-0.449535995721817
1789635255992437200,4.307437255859375,0.220826655626297,-0.06797745078802109,-0.387294739484787
1789635256002477300,4.317477294921875,0.2226242870092392,-0.17648209631443024,-0.33564430475234985
1789635256012517400,4.327517333984375,0.22961002588272095,-0.35993021726608276,-0.2908528745174408
1789635256022556400,4.337556396484375,0.23307213187217712,-0.4292629361152649,-0.27140355110168457
1789635256032595700,4.347595703125,0.26219913363456726,-0.3750321865081787,-0.29456719756126404
1789635256042635800,4.3576357421875,0.3326205611228943,-0.3241109549999237,-0.4033655822277069
1789635256052674800,4.3676748046875,0.3816099464893341,-0.3634447753429413,-0.5395878553390503
1789635256062715000,4.37771484375,0.3882446885108948,-0.4083898961544037,-0.6157540082931519
1789635256072754700,4.387754638671875,0.35451146960258484,-0.3608497977256775,-0.6135587692260742
1789635256082793700,4.397793701171875,0.30328238010406494,-0.2712104618549347,-0.5335842967033386
1789635256092833800,4.407833740234375,0.236274853348732,-0.2991534173488617,-0.414793998003006
1789635256102873900,4.417873779296875,0.1409856230020523,-0.423644483089447,-0.3058299720287323
1789635256112912600,4.42791259765625,0.022412365302443504,-0.5388621687889099,-0.21544386446475983
1789635256122952700,4.43795263671875,-0.08144079893827438,-0.5129687786102295,-0.14793141186237335
1789635256132992800,4.44799267578125,-0.12560133635997772,-0.4420391917228699,-0.16484273970127106
1789635256143031800,4.45803173828125,-0.14229509234428406,-0.4934360682964325,-0.25189322233200073
1789635256153071600,4.468071533203125,-0.1916956603527069,-0.5821086764335632,-0.37261325120925903
1789635256163110700,4.478110595703125,-0.3106044828891754,-0.8141123652458191,-0.448456346988678
1789635256173150700,4.488150634765625,-0.4118543863296509,-0.8134247064590454,-0.5165759921073914
1789635256183190800,4.498190673828125,-0.4621596336364746,-0.6906000375747681,-0.5696171522140503
1789635256193229600,4.5082294921875,-0.4948555529117584,-0.6436085104942322,-0.5775908827781677
1789635256203269600,4.51826953125,-0.5280768871307373,-0.6079123020172119,-0.5504359602928162
1789635256213309700,4.528309814453125,-0.5499286651611328,-0.5633105039596558,-0.5405162572860718
1789635256223348700,4.5383486328125,-0.560003936290741,-0.5932731628417969,-0.5209318995475769
1789635256233388500,4.548388427734375,-0.540429413318634,-0.6353636384010315,-0.5470241904258728
1789635256243428600,4.5584287109375,-0.5037619471549988,-0.6548106074333191,-0.6448879241943359
1789635256253468000,4.568468017578125,-0.45893481373786926,-0.623141348361969,-0.8067628145217896
1789635256263508000,4.578508056640625,-0.4059634804725647,-0.6356486082077026,-0.9426493048667908
1789635256273547800,4.5885478515625,-0.3549034893512726,-0.6286543607711792,-0.9612184762954712
1789635256283586800,4.5985869140625,-0.3322772681713104,-0.4858836233615875,-0.8794375658035278
1789635256293627000,4.608626953125,-0.3460655212402344,-0.3619749844074249,-0.7815123200416565
1789635256303667000,4.6186669921875,-0.3597581684589386,-0.3105908930301666,-0.7148368954658508
1789635256313705700,4.628705810546875,-0.3494109809398651,-0.21971744298934937,-0.6970232725143433
1789635256323745800,4.638745849609375,-0.294792503118515,-0.16425685584545135,-0.7973973155021667
1789635256333784800,4.648784912109375,-0.21944846212863922,-0.22433483600616455,-0.9572884440422058
1789635256343824600,4.65882470703125,-0.16701561212539673,-0.3869551718235016,-1.0713574886322021
1789635256353864700,4.66886474609375,-0.14359764754772186,-0.5337401032447815,-1.1162199974060059
1789635256363903700,4.67890380859375,-0.13382144272327423,-0.5430334806442261,-1.1487263441085815
1789635256373943800,4.68894384765625,-0.07353200763463974,-0.3589927852153778,-1.1009758710861206
1789635256383983600,4.698983642578125,-0.007745005190372467,-0.1507546305656433,-1.0346373319625854
1789635256394022700,4.709022705078125,0.02081713080406189,-0.148203045129776,-0.9694529175758362
1789635256404062700,4.719062744140625,0.08031561225652695,-0.07590648531913757,-0.9769894480705261
1789635256414102800,4.729102783203125,0.21622337400913239,0.05121178925037384,-0.9705307483673096
1789635256424141600,4.7391416015625,0.31387457251548767,0.036746297031641006,-0.8805299997329712
1789635256434181600,4.749181640625,0.3218241035938263,0.03562989830970764,-0.8014698028564453
1789635256444221700,4.7592216796875,0.29342415928840637,0.0981081873178482,-0.8060123324394226
1789635256454260700,4.7692607421875,0.29138150811195374,-0.024832112714648247,-0.8356349468231201
1789635256464300500,4.779300537109375,0.3289315402507782,-0.2194969356060028,-0.8465651273727417
1789635256474340600,4.789340576171875,0.40241801738739014,-0.2059377133846283,-0.8648660778999329
1789635256484379600,4.799379638671875,0.4615287482738495,-0.05036729946732521,-0.8409668803215027
1789635256494419700,4.809419677734375,0.5106579661369324,0.14071103930473328,-0.8086579442024231
1789635256504459500,4.81945947265625,0.5400778651237488,0.23204734921455383,-0.7960686683654785
1789635256514498800,4.829498779296875,0.5361457467079163,0.15870176255702972,-0.7951099276542664
1789635256524539000,4.839538818359375,0.5002460479736328,-0.055867791175842285,-0.8005123734474182
1789635256534578000,4.849577880859375,0.49892592430114746,-0.20548763871192932,-0.8610758781433105
1789635256544617700,4.85961767578125,0.5561018586158752,-0.24478605389595032,-0.9086521863937378
1789635256554657800,4.86965771484375,0.6366491317749023,-0.3023902177810669,-0.8707168102264404
1789635256564696800,4.87969677734375,0.6557464003562927,-0.2813533842563629,-0.7611109018325806
1789635256574737000,4.88973681640625,0.6245179176330566,-0.04743382707238197,-0.6713418960571289
1789635256584776700,4.899776611328125,0.5853966474533081,0.23015864193439484,-0.6405799984931946
1789635256594815700,4.909815673828125,0.5328196883201599,0.30472129583358765,-0.692332923412323
1789635256604855800,4.919855712890625,0.47327542304992676,0.1408918797969818,-0.7827291488647461
1789635256614895900,4.929895751953125,0.4283076822757721,0.04929111525416374,-0.8366666436195374
1789635256624934700,4.9399345703125,0.43163609504699707,0.15950018167495728,-0.8132151365280151
1789635256634974700,4.949974609375,0.4160531461238861,0.23432542383670807,-0.7663275003433228
1789635256645014800,4.960014892578125,0.3490525186061859,0.2786518633365631,-0.6858614683151245
1789635256655053600,4.970053466796875,0.2250102162361145,0.37377145886421204,-0.6764431595802307
1789635256665093600,4.98009375,0.08556070923805237,0.3770119845867157,-0.7607799172401428
1789635256675133700,4.9901337890625,0.02424621768295765,0.43789851665496826,-0.801789402961731
1789635256685172700,5.0001728515625,0.04928579181432724,0.544982373714447,-0.7924427390098572
1789635256695212800,5.010212890625,0.06719901412725449,0.6545093655586243,-0.8885596990585327
1789635256705251600,5.02025146484375,0.04030774161219597,0.5619855523109436,-1.0018795728683472
1789635256715291600,5.030291748046875,-0.03039359115064144,0.3098776936531067,-1.0085382461547852
1789635256725331700,5.040331787109375,-0.11115740984678268,0.16413114964962006,-0.77690190076828
1789635256735370800,5.050370849609375,-0.18158364295959473,0.18138337135314941,-0.47901931405067444
1789635256745410600,5.06041064453125,-0.22482699155807495,0.20467165112495422,-0.31144043803215027
1789635256755450600,5.07045068359375,-0.21793365478515625,0.059006329625844955,-0.21903301775455475
1789635256765490000,5.080489990234375,-0.23341381549835205,-0.05353299900889397,-0.09097464382648468
1789635256775529700,5.09052978515625,-0.28331586718559265,0.12164520472288132,0.001976331928744912
1789635256785569800,5.10056982421875,-0.2805381715297699,0.24633361399173737,0.016442356631159782
1789635256795608800,5.11060888671875,-0.2829235792160034,0.14368313550949097,0.04212401807308197
1789635256805649000,5.12064892578125,-0.29855793714523315,0.16160833835601807,0.08542009443044662
1789635256815688700,5.130688720703125,-0.3324117660522461,0.18490514159202576,0.09344552457332611
1789635256825727700,5.140727783203125,-0.4331927001476288,0.039084818214178085,0.12785489857196808
1789635256835767800,5.150767822265625,-0.5254219770431519,0.02201395481824875,0.15631556510925293
1789635256845807900,5.160807861328125,-0.5481129288673401,0.06434117257595062,0.1661445051431656
1789635256855846700,5.1708466796875,-0.5297389626502991,-0.026974093168973923,0.1367059201002121
1789635256865886700,5.18088671875,-0.5283399820327759,-0.0846238061785698,0.16813547909259796
1789635256875926800,5.1909267578125,-0.5392112731933594,0.0218347255140543,0.3088076412677765
1789635256885965800,5.2009658203125,-0.5260070562362671,0.24002377688884735,0.44102081656455994
1789635256896005600,5.211005615234375,-0.4829975366592407,0.3281368613243103,0.5456953048706055
1789635256906044700,5.221044677734375,-0.4639285206794739,0.24323315918445587,0.6623715758323669
1789635256916084700,5.231084716796875,-0.45945867896080017,0.27535462379455566,0.7993632555007935
1789635256926124800,5.241124755859375,-0.4178481101989746,0.4657738208770752,0.8602700233459473
1789635256936163600,5.25116357421875,-0.343247652053833,0.4952235817909241,0.8388645648956299
1789635256946203600,5.26120361328125,-0.30035582184791565,0.3986230194568634,0.8294657468795776
1789635256956243700,5.27124365234375,-0.2965991795063019,0.4279420077800751,0.804631233215332
1789635256966282800,5.28128271484375,-0.2695145606994629,0.4455889165401459,0.7612422108650208
1789635256976322600,5.291322509765625,-0.24186748266220093,0.34314990043640137,0.7580956816673279
1789635256986362600,5.301362548828125,-0.24389176070690155,0.2695997953414917,0.8165670037269592
1789635256996401700,5.311401611328125,-0.2498798817396164,0.26025769114494324,0.8837143182754517
1789635257006441700,5.321441650390625,-0.26229313015937805,0.22944650053977966,0.95609050989151
1789635257016481500,5.3314814453125,-0.2847102880477905,0.19749176502227783,1.0039088726043701
1789635257026520800,5.341520751953125,-0.2840628921985626,0.25066256523132324,1.0173594951629639
1789635257036561700,5.351561767578125,-0.2629280388355255,0.31954070925712585,0.9685612916946411
1789635257046601500,5.3616015625,-0.2523409128189087,0.3239423930644989,0.9004983901977539
1789635257056640500,5.371640625,-0.26394376158714294,0.4351980686187744,0.8857396841049194
1789635257066680600,5.3816806640625,-0.28870609402656555,0.6032688617706299,0.9048023223876953
1789635257076720600,5.391720703125,-0.2934478521347046,0.5634739995002747,0.9560210108757019
1789635257086759700,5.401759765625,-0.29596269130706787,0.45387721061706543,1.0716975927352905
1789635257096799500,5.411799560546875,-0.3122708201408386,0.4375041127204895,1.2099974155426025
1789635257106838800,5.4218388671875,-0.28882861137390137,0.4740391969680786,1.3055460453033447
1789635257116878800,5.43187890625,-0.22539158165454865,0.49450185894966125,1.315314769744873
1789635257126918700,5.441918701171875,-0.12292485684156418,0.48352140188217163,1.2467801570892334
1789635257136957700,5.451957763671875,-0.020009394735097885,0.38664358854293823,1.1636452674865723
1789635257146997800,5.461997802734375,0.018818428739905357,0.41778260469436646,1.102746844291687
1789635257157037800,5.472037841796875,0.013523265719413757,0.5634881258010864,1.1006075143814087
1789635257167076600,5.48207666015625,0.03256326913833618,0.5241079926490784,1.1300569772720337
1789635257177116700,5.49211669921875,0.0688544288277626,0.3610322177410126,1.1623257398605347
1789635257187156700,5.50215673828125,0.12488574534654617,0.29792970418930054,1.1909456253051758
1789635257197195500,5.512195556640625,0.19778631627559662,0.32519620656967163,1.2410484552383423
1789635257207235600,5.522235595703125,0.2752177119255066,0.40795233845710754,1.2508100271224976
1789635257217275600,5.532275634765625,0.3451874852180481,0.39985179901123047,1.1697999238967896
1789635257227314700,5.542314697265625,0.4060359299182892,0.14741608500480652,0.9986963272094727
1789635257237354800,5.552354736328125,0.43716269731521606,-0.09793854504823685,0.8559740781784058
1789635257247394600,5.56239453125,0.4180491864681244,-0.05307573452591896,0.8475083708763123
1789635257257433600,5.57243359375,0.33701103925704956,0.08137741684913635,0.9316645264625549
1789635257267473700,5.5824736328125,0.2685672640800476,0.2317914217710495,1.07091224193573
1789635257277512400,5.592512451171875,0.27318307757377625,0.33825528621673584,1.2121624946594238
1789635257287552500,5.602552490234375,0.34062469005584717,0.3893173933029175,1.3013970851898193
1789635257297592600,5.612592529296875,0.4455452561378479,0.4385179579257965,1.3006844520568848
1789635257307631600,5.622631591796875,0.5343289375305176,0.3597733676433563,1.1846669912338257
1789635257317671400,5.63267138671875,0.5027504563331604,0.1447550505399704,0.9996044635772705
1789635257327711500,5.64271142578125,0.4142051637172699,0.01931697316467762,0.8885836601257324
1789635257337750800,5.652750732421875,0.2997385263442993,-0.03664908930659294,0.8687471151351929
1789635257347790600,5.66279052734375,0.18798747658729553,-0.03290175646543503,0.8948348760604858
1789635257357830700,5.67283056640625,0.20277148485183716,0.23531052470207214,0.9659122824668884
1789635257367869700,5.68286962890625,0.2892453968524933,0.47182533144950867,1.061041235923767
1789635257377909800,5.69290966796875,0.3904593586921692,0.4298112988471985,1.0753698348999023
1789635257387949800,5.70294970703125,0.4128163456916809,0.2922036349773407,1.0418165922164917
1789635257397988600,5.712988525390625,0.33350473642349243,0.09982113540172577,1.001802682876587
1789635257408028700,5.723028564453125,0.21701380610466003,-0.17415794730186462,0.9446583986282349
1789635257418068700,5.73306884765625,0.12011442333459854,-0.16431038081645966,0.9404471516609192
1789635257428107800,5.743107666015625,0.062492407858371735,0.03838014602661133,1.0049470663070679
1789635257438147600,5.753147705078125,0.041553303599357605,0.11445228010416031,1.0743687152862549
1789635257448187600,5.763187744140625,-0.00010439591278554872,0.1561049073934555,1.1191636323928833
1789635257458226700,5.773226806640625,-0.059788499027490616,0.25182610750198364,1.1436023712158203
1789635257468266800,5.783266845703125,-0.10881729423999786,0.23516671359539032,1.1711841821670532
1789635257478305500,5.793305419921875,-0.13010793924331665,0.14750796556472778,1.2083536386489868
1789635257488345600,5.803345703125,-0.13296231627464294,0.12797926366329193,1.2082679271697998
1789635257498385700,5.8133857421875,-0.1395602971315384,0.035707395523786545,1.1625208854675293
1789635257508424700,5.8234248046875,-0.11135715246200562,-0.1448165774345398,1.0871117115020752
1789635257518464500,5.833464599609375,-0.10388059169054031,-0.2220841944217682,1.0540679693222046
1789635257528504600,5.843504638671875,-0.13353542983531952,-0.0017976337112486362,1.090206265449524
1789635257538543600,5.853543701171875,-0.18598903715610504,0.2807861268520355,1.1448628902435303
1789635257548583700,5.863583740234375,-0.19712159037590027,0.4298970401287079,1.1596596240997314
1789635257558623500,5.87362353515625,-0.08931070566177368,0.2959941029548645,1.1202083826065063
1789635257568662500,5.88366259765625,0.057491522282361984,0.05260328948497772,1.0729652643203735
1789635257578702600,5.89370263671875,0.15667137503623962,0.027845745906233788,1.0198346376419067
1789635257588742700,5.90374267578125,0.1703443080186844,0.18365983664989471,0.950554370880127
1789635257598781700,5.91378173828125,0.0780940055847168,0.19901029765605927,0.8773036003112793
1789635257608821500,5.923821533203125,-0.0011094729416072369,-0.021806228905916214,0.8496756553649902
1789635257618861600,5.933861572265625,-0.008686698973178864,-0.13817252218723297,0.8592979311943054
1789635257628900600,5.943900634765625,0.013776532374322414,0.007384945638477802,0.8390666842460632
1789635257638940700,5.953940673828125,0.02130449004471302,0.12534967064857483,0.7790177464485168
1789635257648979700,5.963979736328125,-0.013814615085721016,0.11599398404359818,0.7210487127304077
1789635257659019800,5.974019775390625,-0.04640797898173332,0.11951494216918945,0.6818448901176453
1789635257669059800,5.984059814453125,-0.03205274045467377,0.07192665338516235,0.6413531303405762
1789635257679098600,5.9940986328125,0.009664345532655716,0.09848129749298096,0.5644447207450867
1789635257689138700,6.004138671875,0.06239626556634903,0.18092530965805054,0.4420485198497772
1789635257699178800,6.0141787109375,0.14919693768024445,0.1702636033296585,0.32954779267311096
1789635257709217500,6.024217529296875,0.21152636408805847,0.12220021337270737,0.26727724075317383
1789635257719257600,6.034257568359375,0.1601925939321518,0.25895991921424866,0.2490614801645279
1789635257729297700,6.044297607421875,0.06350120902061462,0.4251353144645691,0.2200186550617218
1789635257739336700,6.054336669921875,0.04675019532442093,0.42284366488456726,0.1469321846961975
1789635257749376500,6.06437646484375,0.13305579125881195,0.2545100450515747,0.019951337948441505
1789635257759416600,6.07441650390625,0.06700752675533295,0.13863590359687805,-0.1867203414440155
1789635257769455600,6.08445556640625,-0.09035466611385345,0.10680633783340454,-0.37855368852615356
1789635257779495700,6.09449560546875,-0.09189236909151077,0.110263392329216,-0.43429258465766907
1789635257789535700,6.10453564453125,-0.06256164610385895,0.120200976729393,-0.41965293884277344
1789635257799574500,6.114574462890625,-0.07167205959558487,0.09321916103363037,-0.3706720769405365
1789635257809614600,6.124614501953125,-0.11419634521007538,0.24241530895233154,-0.3090457320213318
1789635257819654700,6.134654541015625,-0.1364704966545105,0.45188435912132263,-0.2738499343395233
1789635257829693400,6.144693359375,-0.14879080653190613,0.37605512142181396,-0.2774598300457001
1789635257839733500,6.1547333984375,-0.15981203317642212,0.05122324079275131,-0.30277717113494873
1789635257849772800,6.164772705078125,-0.17728875577449799,-0.29214584827423096,-0.3019244372844696
1789635257859812900,6.174812744140625,-0.21803513169288635,-0.34759393334388733,-0.360546737909317
1789635257869852400,6.184852294921875,-0.16892030835151672,-0.31104576587677,-0.45060524344444275
1789635257879891700,6.1948916015625,-0.09402849525213242,-0.2685859203338623,-0.5078706741333008
1789635257889931800,6.204931884765625,-0.0629054605960846,0.003501257859170437,-0.5507904291152954
1789635257899971800,6.214971923828125,-0.01943175494670868,0.27871736884117126,-0.5375867486000061
1789635257910010600,6.2250107421875,0.01708337850868702,0.3091171085834503,-0.41998156905174255
1789635257920050700,6.23505078125,-0.0031334753148257732,0.16427762806415558,-0.30156171321868896
1789635257930090800,6.2450908203125,-0.055985502898693085,-0.014968030154705048,-0.2686738073825836
1789635257940129800,6.2551298828125,-0.11098670214414597,-0.11755485832691193,-0.3001222610473633
1789635257950169600,6.265169677734375,-0.1389693319797516,-0.08328663557767868,-0.33395108580589294
1789635257960209700,6.275209716796875,-0.06169478967785835,-0.1871914565563202,-0.2920587658882141
1789635257970248700,6.285248779296875,-0.008931176736950874,-0.32830384373664856,-0.16234417259693146
1789635257980288800,6.295288818359375,-0.000031158982892520726,-0.22961987555027008,-0.11663766950368881
1789635257990328600,6.30532861328125,-0.02207787148654461,-0.010302971117198467,-0.18047763407230377
1789635258000367600,6.31536767578125,-0.06612735241651535,0.18213118612766266,-0.2933405339717865
1789635258010407700,6.32540771484375,-0.01956304907798767,0.1473441869020462,-0.3682003915309906
1789635258020446500,6.335446533203125,0.03002234734594822,-0.051058657467365265,-0.35815149545669556
1789635258030486300,6.345486328125,0.027358919382095337,-0.19823798537254333,-0.36746641993522644
1789635258040526000,6.355526123046875,-0.012570653110742569,-0.22788695991039276,-0.43602046370506287
1789635258050565000,6.365565185546875,-0.04635658115148544,-0.18344838917255402,-0.5206477046012878
1789635258060605200,6.375605224609375,-0.06356033682823181,-0.10155964642763138,-0.5918811559677124
1789635258070645200,6.385645263671875,-0.04032371938228607,0.06462319940328598,-0.6435443758964539
1789635258080684300,6.395684326171875,0.026085928082466125,0.31137439608573914,-0.6717645525932312
1789635258090724400,6.405724365234375,0.11655324697494507,0.5612015128135681,-0.6517226696014404
1789635258100764200,6.41576416015625,0.15533499419689178,0.7206671237945557,-0.6088457703590393
1789635258110803200,6.42580322265625,0.17489485442638397,0.7040956020355225,-0.6145670413970947
1789635258120843300,6.43584326171875,0.21462814509868622,0.41484352946281433,-0.6577043533325195
1789635258130883300,6.44588330078125,0.24224859476089478,0.09737075865268707,-0.7210053205490112
1789635258140922400,6.45592236328125,0.24654878675937653,-0.06534465402364731,-0.7970952987670898
1789635258150962200,6.465962158203125,0.28382426500320435,-0.10491123795509338,-0.8657087087631226
1789635258161002200,6.476002197265625,0.34144386649131775,-0.07287447154521942,-0.894582986831665
1789635258171041300,6.486041259765625,0.40431684255599976,-0.07828149199485779,-0.8482050895690918
1789635258181081300,6.496081298828125,0.40555813908576965,-0.018579276278614998,-0.7532532811164856
1789635258191120100,6.5061201171875,0.37466228008270264,0.2454718053340912,-0.6632416248321533
1789635258201160200,6.51616015625,0.33759135007858276,0.49541985988616943,-0.5859058499336243
1789635258211200300,6.5262001953125,0.3151153326034546,0.4853086471557617,-0.5382208824157715
1789635258221239300,6.5362392578125,0.29641488194465637,0.23273125290870667,-0.5772138237953186
1789635258231279000,6.546279052734375,0.2717585563659668,-0.1195378452539444,-0.6795662641525269
1789635258241319200,6.556319091796875,0.24120596051216125,-0.24920663237571716,-0.7990458011627197
1789635258251358200,6.566358154296875,0.21737359464168549,-0.1502198576927185,-0.9107419848442078
1789635258261398300,6.576398193359375,0.21132928133010864,-0.08463579416275024,-0.9785540103912354
1789635258271438000,6.58643798828125,0.21427367627620697,-0.1797383427619934,-0.9716774821281433
1789635258281477000,6.59647705078125,0.20711643993854523,-0.3144032061100006,-0.8944165110588074
1789635258291517200,6.60651708984375,0.13704387843608856,-0.28940704464912415,-0.7957072257995605
1789635258301557200,6.61655712890625,0.0685654804110527,-0.10562096536159515,-0.7342050075531006
1789635258311596000,6.626595947265625,0.04803117364645004,0.05011776089668274,-0.7520338296890259
1789635258321636000,6.636635986328125,0.043967459350824356,0.005343100056052208,-0.8305959701538086
1789635258331676200,6.64667626953125,0.06942541152238846,-0.21953342854976654,-0.8978719711303711
1789635258341715500,6.656715576171875,0.12108807265758514,-0.36803582310676575,-0.944797694683075
1789635258351755300,6.66675537109375,0.14462348818778992,-0.3921123743057251,-0.9391826391220093
1789635258361794300,6.676794189453125,0.1364760845899582,-0.33806273341178894,-0.8962674140930176
1789635258371834400,6.68683447265625,0.11719106882810593,-0.3842746913433075,-0.8725541234016418
1789635258381874400,6.69687451171875,0.09629617631435394,-0.5924696922302246,-0.8995729088783264
1789635258391913200,6.706913330078125,0.07091864943504333,-0.7998061180114746,-0.9566987752914429
1789635258401953300,6.716953369140625,0.05096837505698204,-0.7436032891273499,-1.0096757411956787
1789635258411993300,6.726993408203125,0.05092283710837364,-0.4801066815853119,-1.0109248161315918
1789635258422032100,6.7370322265625,0.020677847787737846,-0.35660552978515625,-0.9253944158554077
1789635258432072200,6.747072265625,-0.005418733693659306,-0.4228769540786743,-0.8400805592536926
1789635258442112300,6.7571123046875,-0.0199835617095232,-0.5247963666915894,-0.7881835699081421
1789635258452151300,6.7671513671875,-0.019523367285728455,-0.642872154712677,-0.7853728532791138
1789635258462191400,6.77719140625,-0.00498197553679347,-0.6998547315597534,-0.8054605722427368
1789635258472231200,6.787231201171875,0.020295949652791023,-0.6544638276100159,-0.8863947987556458
1789635258482270200,6.797270263671875,0.06107267364859581,-0.7272826433181763,-0.9381237626075745
1789635258492310300,6.807310302734375,0.06682110577821732,-0.8654801845550537,-0.9532156586647034
1789635258502350300,6.817350341796875,0.023964721709489822,-0.8717242479324341,-0.9814121127128601
1789635258512389000,6.82738916015625,-0.01835290901362896,-0.8303483128547668,-1.0424376726150513
1789635258522429200,6.83742919921875,-0.05251593887805939,-0.7604272961616516,-1.0977262258529663
1789635258532469200,6.84746923828125,-0.09372755885124207,-0.6890205144882202,-1.1320956945419312
1789635258542508000,6.857508056640625,-0.10121636837720871,-0.6438056230545044,-1.1561871767044067
1789635258552548000,6.867548095703125,-0.10868280380964279,-0.4815959334373474,-1.1517378091812134
1789635258562587100,6.877587158203125,-0.0806032344698906,-0.2981259822845459,-1.15840744972229
1789635258572627200,6.887627197265625,-0.06853378564119339,-0.41442087292671204,-1.2175676822662354
1789635258582667000,6.8976669921875,-0.06029476597905159,-0.5343318581581116,-1.2302206754684448
1789635258592706300,6.907706298828125,-0.05438121780753136,-0.6337471008300781,-1.221929669380188
1789635258602746400,6.917746337890625,-0.07006963342428207,-0.7703135013580322,-1.1665992736816406
1789635258612786200,6.9277861328125,-0.15952734649181366,-0.6591571569442749,-1.0921916961669922
1789635258622825200,6.9378251953125,-0.1909846067428589,-0.2675270438194275,-1.1173430681228638
1789635258632865300,6.947865234375,-0.1250647008419037,-0.11202480643987656,-1.2911732196807861
1789635258642905300,6.9579052734375,-0.05420837551355362,-0.15461966395378113,-1.4507516622543335
1789635258652944400,6.9679443359375,0.021759890019893646,-0.18141213059425354,-1.492104172706604
1789635258662984200,6.977984130859375,0.06179732084274292,-0.07274078577756882,-1.4292594194412231
1789635258673024300,6.988024169921875,0.05008314177393913,-0.06808291375637054,-1.3808850049972534
1789635258683063300,6.998063232421875,-0.0036373452749103308,-0.07495547086000443,-1.335789442062378
1789635258693103400,7.008103271484375,-0.07179402559995651,-0.11054648458957672,-1.2938379049301147
1789635258703143200,7.01814306640625,-0.11184903979301453,-0.06598754227161407,-1.2420434951782227
1789635258713182200,7.02818212890625,-0.05335883051156998,0.14785844087600708,-1.219322919845581
1789635258723222300,7.03822216796875,0.04007764533162117,0.38612401485443115,-1.2134307622909546
1789635258733261000,7.048260986328125,0.16753226518630981,0.3129824101924896,-1.2231906652450562
1789635258743301000,7.058301025390625,0.20592759549617767,0.14665761590003967,-1.1831774711608887
1789635258753341200,7.068341064453125,0.18410485982894897,0.09609350562095642,-1.020036220550537
1789635258763380200,7.078380126953125,0.18930122256278992,0.2558181881904602,-0.8793145418167114
1789635258773420300,7.088420166015625,0.2295815348625183,0.3230648636817932,-0.8000056147575378
1789635258783460000,7.098460205078125,0.22004368901252747,0.07773580402135849,-0.7088064551353455
1789635258793499100,7.1084990234375,0.20470121502876282,-0.06288069486618042,-0.6451060175895691
1789635258803539200,7.118539306640625,0.20470866560935974,-0.045104626566171646,-0.592803418636322
1789635258813579300,7.128579345703125,0.2483283132314682,-0.04333522170782089,-0.5601077675819397
1789635258823618000,7.1386181640625,0.2965640127658844,-0.23397600650787354,-0.5432283878326416
1789635258833658000,7.148658203125,0.30740416049957275,-0.35451841354370117,-0.4851760268211365
1789635258843698200,7.1586982421875,0.2882014214992523,-0.05444140359759331,-0.4247608780860901
1789635258853737200,7.1687373046875,0.3318759500980377,0.12844106554985046,-0.42498111724853516
1789635258863777300,7.17877734375,0.3195175528526306,-0.15745966136455536,-0.3187028765678406
1789635258873817000,7.188817138671875,0.25296568870544434,-0.1130855455994606,-0.07809054106473923
1789635258883856400,7.1988564453125,0.2132750004529953,0.37683117389678955,0.08956930041313171
1789635258893896400,7.208896484375,0.24158786237239838,0.4811916649341583,0.1176731064915657
1789635258903936300,7.218936279296875,0.25492149591445923,0.2691395878791809,0.15798616409301758
1789635258913975300,7.228975341796875,0.1785913109779358,0.22120854258537292,0.34354084730148315
1789635258924015400,7.239015380859375,0.07708839327096939,0.4125468134880066,0.500617265701294
1789635258934054100,7.24905419921875,0.015325959771871567,0.5578898787498474,0.48097220063209534
1789635258944094200,7.25909423828125,-0.013817811384797096,0.5604223012924194,0.445879727602005
1789635258954134300,7.26913427734375,-0.07217885553836823,0.40744420886039734,0.5746251940727234
1789635258964173300,7.27917333984375,-0.18858030438423157,0.2706218957901001,0.8325014710426331
1789635258974213000,7.289213134765625,-0.3636232316493988,0.310677170753479,1.1297273635864258
1789635258984253200,7.299253173828125,-0.4469130337238312,0.49575620889663696,1.3167108297348022
1789635258994292200,7.309292236328125,-0.3784109652042389,0.6626477241516113,1.1856592893600464
1789635259004332300,7.319332275390625,-0.2678128182888031,0.6037164926528931,1.0238780975341797
1789635259014372000,7.3293720703125,-0.25874048471450806,0.4855312705039978,1.103060245513916
1789635259024411100,7.3394111328125,-0.33729520440101624,0.44022080302238464,1.2661956548690796
1789635259034451000,7.349450927734375,-0.40668174624443054,0.3950034976005554,1.351191520690918
1789635259044491000,7.359490966796875,-0.38607046008110046,0.3516312837600708,1.3929815292358398
1789635259054529800,7.36952978515625,-0.3284692168235779,0.5314633250236511,1.439663290977478
1789635259064569900,7.37956982421875,-0.24846839904785156,0.7997081279754639,1.425224781036377
1789635259074610000,7.38960986328125,-0.15019004046916962,0.809035062789917,1.363800287246704
1789635259084649000,7.39964892578125,-0.07408621162176132,0.5812649726867676,1.3630508184432983
1789635259094689000,7.40968896484375,-0.0680144727230072,0.5235047340393066,1.4998422861099243
1789635259104728000,7.41972802734375,-0.1115369126200676,0.6703450679779053,1.6174482107162476
1789635259114768100,7.42976806640625,-0.1562117040157318,0.7251777052879333,1.6108745336532593
1789635259124808200,7.43980810546875,-0.165740504860878,0.6541618704795837,1.6074949502944946
1789635259134847000,7.449846923828125,-0.09900300949811935,0.5096907019615173,1.679426670074463
1789635259144887000,7.459886962890625,-0.03485678508877754,0.41484859585762024,1.7662768363952637
1789635259154927000,7.469927001953125,0.0031108383554965258,0.4557779133319855,1.7825669050216675
1789635259164966100,7.479966064453125,0.07059986889362335,0.49496951699256897,1.6850179433822632
1789635259175006000,7.490005859375,0.17514704167842865,0.37572434544563293,1.4828789234161377
1789635259185046000,7.5000458984375,0.2630428075790405,0.27980688214302063,1.3431553840637207
1789635259195085000,7.5100849609375,0.3311994969844818,0.3977383077144623,1.3868887424468994
1789635259205125000,7.520125,0.39848241209983826,0.5851737260818481,1.4948989152908325
1789635259215165200,7.530165283203125,0.4713512659072876,0.5894928574562073,1.5401662588119507
1789635259225204000,7.540203857421875,0.5334751009941101,0.40798643231391907,1.5376428365707397
1789635259235244000,7.550244140625,0.59123295545578,0.35879623889923096,1.5248253345489502
1789635259245284000,7.5602841796875,0.5917352437973022,0.4062521755695343,1.5331690311431885
1789635259255323000,7.570322998046875,0.5510184168815613,0.3597632348537445,1.5041632652282715
1789635259265363000,7.580363037109375,0.48837926983833313,0.1556716114282608,1.4242297410964966
1789635259275403000,7.590403076171875,0.42422398924827576,-0.13734188675880432,1.3288062810897827
1789635259285442000,7.600442138671875,0.3475302755832672,-0.2697395980358124,1.3039555549621582
1789635259295481900,7.61048193359375,0.2574368715286255,-0.07969056814908981,1.4021819829940796
1789635259305521000,7.62052099609375,0.14948110282421112,0.20047983527183533,1.5639922618865967
1789635259315561000,7.63056103515625,0.11546161770820618,0.1630682796239853,1.685549259185791
1789635259325601000,7.64060107421875,0.1624850481748581,-0.08485550433397293,1.7383805513381958
1789635259335640000,7.65064013671875,0.18585854768753052,-0.10712192207574844,1.7225818634033203
1789635259345680000,7.660679931640625,0.15539199113845825,0.07441697269678116,1.6192922592163086
1789635259355720000,7.670719970703125,0.14899134635925293,0.0021544971968978643,1.4638406038284302
1789635259365759200,7.68075927734375,0.19790855050086975,-0.34954094886779785,1.348206877708435
1789635259375799000,7.690799072265625,0.25331616401672363,-0.49117133021354675,1.3046109676361084
1789635259385839000,7.700839111328125,0.2287101447582245,-0.29952600598335266,1.2863504886627197
1789635259395878100,7.710878173828125,0.12650041282176971,-0.17232783138751984,1.2060604095458984
1789635259405918200,7.720918212890625,-0.024116255342960358,-0.17460669577121735,1.113817572593689
1789635259415958000,7.7309580078125,-0.15970684587955475,-0.041490450501441956,1.0734198093414307
1789635259425997000,7.7409970703125,-0.2018367201089859,0.13877545297145844,1.0826311111450195
1789635259436037000,7.751037109375,-0.17599020898342133,0.2020052969455719,1.070237398147583
1789635259446077200,7.7610771484375,-0.1828278750181198,0.15916435420513153,1.0327754020690918
1789635259456116000,7.771115966796875,-0.21846096217632294,0.15277382731437683,1.0113202333450317
1789635259466156000,7.781156005859375,-0.18207739293575287,0.18498769402503967,1.0498766899108887
1789635259476195000,7.791195068359375,-0.10589953511953354,0.24458178877830505,1.0850874185562134
1789635259486235000,7.80123486328125,-0.041738659143447876,0.28461894392967224,1.048573613166809
1789635259496275000,7.81127490234375,-0.02123764343559742,0.09941793233156204,0.9422239661216736
1789635259506314000,7.82131396484375,-0.037036050111055374,-0.3080041706562042,0.8198147416114807
1789635259516354000,7.83135400390625,-0.14996366202831268,-0.5970668792724609,0.7252530455589294
1789635259526394000,7.84139404296875,-0.2769887149333954,-0.507627546787262,0.655788242816925
1789635259536433000,7.851432861328125,-0.3127826750278473,-0.2779967188835144,0.5724957585334778
1789635259546473000,7.861472900390625,-0.31775400042533875,-0.1801881492137909,0.48361486196517944
1789635259556513000,7.871512939453125,-0.3834741413593292,-0.017542507499456406,0.37147048115730286
1789635259566551800,7.8815517578125,-0.39211052656173706,0.16580520570278168,0.24764974415302277
1789635259576592000,7.891591796875,-0.3449097275733948,0.12010669708251953,0.16452929377555847
1789635259586632000,7.9016318359375,-0.2836064100265503,-0.06010860949754715,0.10562708973884583
1789635259596671200,7.911671142578125,-0.28476250171661377,0.026217222213745117,0.003891677362844348
1789635259606710800,7.921710693359375,-0.2590179741382599,0.35290291905403137,-0.09580322355031967
1789635259616750800,7.931750732421875,-0.21844658255577087,0.4810907244682312,-0.14678891003131866
1789635259626790100,7.9417900390625,-0.22142799198627472,0.2945277690887451,-0.1627124845981598
1789635259636830200,7.951830322265625,-0.23079486191272736,-0.10436742007732391,-0.14860785007476807
1789635259646869000,7.961868896484375,-0.16214150190353394,-0.5057976841926575,-0.0915653333067894
1789635259656909000,7.971908935546875,-0.1126336008310318,-0.7184643745422363,-0.008313856087625027
1789635259666949000,7.98194921875,-0.08430662751197815,-0.6418785452842712,0.02088264562189579
1789635259676988200,7.99198828125,-0.1188422292470932,-0.4428948760032654,-0.03678011894226074
1789635259687028000,8.002028076171875,-0.22549571096897125,-0.15479063987731934,-0.1643892079591751
1789635259697068000,8.012068115234374,-0.32156869769096375,0.21413733065128326,-0.31905096769332886
1789635259707107000,8.022107177734375,-0.30837327241897583,0.4075208902359009,-0.43515545129776
1789635259717147100,8.032147216796876,-0.2552488148212433,0.3749917149543762,-0.5289890170097351
1789635259727187000,8.04218701171875,-0.20833083987236023,0.31141674518585205,-0.6215059161186218
1789635259737226000,8.05222607421875,-0.19246850907802582,0.3284420669078827,-0.6676193475723267
1789635259747266000,8.06226611328125,-0.17416007816791534,0.4131673276424408,-0.634800136089325
1789635259757306000,8.07230615234375,-0.13597753643989563,0.24559804797172546,-0.48402366042137146
1789635259767345000,8.082344970703126,-0.09197253733873367,-0.08447733521461487,-0.2901844084262848
1789635259777385000,8.092385009765625,-0.1048601046204567,-0.14259283244609833,-0.1721579134464264
1789635259787425000,8.102425048828126,-0.12063640356063843,0.0474972128868103,-0.17736439406871796
1789635259797464000,8.112464111328125,-0.10729449987411499,0.13743002712726593,-0.2775820791721344
1789635259807504000,8.12250390625,-0.0805896520614624,0.022360432893037796,-0.451366662979126
1789635259817544000,8.1325439453125,-0.049792323261499405,-0.06314568221569061,-0.6435754895210266
1789635259827583000,8.1425830078125,-0.04242628812789917,0.05685422942042351,-0.7667938470840454
1789635259837623000,8.152623046875,0.01683943346142769,0.3295917510986328,-0.8394757509231567
1789635259847662000,8.162662109375,0.08211804181337357,0.48131123185157776,-0.8862102627754211
1789635259857702100,8.1727021484375,0.09693160653114319,0.6245512366294861,-0.9442629218101501
1789635259867742000,8.182741943359375,0.039201732724905014,0.8392483592033386,-0.9818904399871826
1789635259877781000,8.192781005859375,0.026015354320406914,0.8384587168693542,-0.9609166979789734
1789635259887821000,8.202821044921874,0.053877878934144974,0.5471429824829102,-0.8956817984580994
1789635259897861000,8.212861083984375,0.08563181012868881,0.25599607825279236,-0.8361241817474365
1789635259907900200,8.222900146484376,0.08857380598783493,0.17304953932762146,-0.811431348323822
1789635259917940000,8.23293994140625,0.09896519780158997,0.25754019618034363,-0.8124247193336487
1789635259927980000,8.24297998046875,0.14868001639842987,0.28038719296455383,-0.811357319355011
1789635259938019000,8.25301904296875,0.2439708560705185,0.14923343062400818,-0.8119964599609375
1789635259948059100,8.26305908203125,0.3441224992275238,0.027275029569864273,-0.8143373727798462
1789635259958099200,8.27309912109375,0.4102969765663147,-0.04378929361701012,-0.8334485292434692
1789635259968138000,8.283137939453125,0.40721917152404785,-0.08280273526906967,-0.880998432636261
1789635259978178000,8.293177978515626,0.3633715510368347,0.017844244837760925,-0.9805372953414917
1789635259988218000,8.303218017578125,0.31049928069114685,0.12044678628444672,-1.112467885017395
1789635259998257000,8.3132568359375,0.28378936648368835,0.09759579598903656,-1.212981939315796
1789635260008297000,8.323296875,0.2757367789745331,0.06033897399902344,-1.2417219877243042
1789635260018336000,8.3333359375,0.27390530705451965,0.04340579733252525,-1.2402583360671997
1789635260028376000,8.3433759765625,0.25832903385162354,0.04776059836149216,-1.2073571681976318
1789635260038417400,8.35341748046875,0.23527537286281586,-0.028614867478609085,-1.1406172513961792
1789635260048456400,8.36345654296875,0.23874865472316742,-0.2719617486000061,-1.0743218660354614
1789635260058496300,8.373496337890625,0.262069433927536,-0.5010074377059937,-1.0544655323028564
1789635260068536300,8.383536376953124,0.2822146415710449,-0.5333267450332642,-1.0872265100479126
1789635260078575400,8.393575439453125,0.3153553009033203,-0.4469500780105591,-1.1358118057250977
1789635260088615400,8.403615478515626,0.35329973697662354,-0.44549810886383057,-1.1449651718139648
1789635260098655500,8.413655517578125,0.3624138832092285,-0.6171625256538391,-1.1197950839996338
1789635260108694300,8.4236943359375,0.3523878753185272,-0.8463224768638611,-1.1568659543991089
1789635260118734300,8.433734375,0.2790939509868622,-0.9706236720085144,-1.2001359462738037
1789635260128774400,8.4437744140625,0.18362122774124146,-0.8201947808265686,-1.1699788570404053
1789635260138813200,8.453813232421876,0.10854831337928772,-0.6114593744277954,-1.1054805517196655
1789635260148853200,8.463853271484375,0.08271565288305283,-0.5841148495674133,-1.0528301000595093
1789635260158892300,8.473892333984375,0.12101217359304428,-0.7431894540786743,-0.9948477745056152
1789635260168932400,8.483932373046875,0.12673504650592804,-0.8576768636703491,-0.947045087814331
1789635260178972200,8.49397216796875,0.10557089745998383,-0.8428987264633179,-0.9322842955589294
1789635260189011500,8.504011474609374,0.0761360451579094,-0.7150970697402954,-0.9582503437995911
1789635260199051300,8.51405126953125,0.121265709400177,-0.7201826572418213,-1.0864399671554565
1789635260209091300,8.52409130859375,0.18706469237804413,-0.9029332995414734,-1.2399438619613647
1789635260219130400,8.53413037109375,0.2016417682170868,-1.0786473751068115,-1.3529326915740967
1789635260229170400,8.54417041015625,0.13819782435894012,-1.0588171482086182,-1.372399091720581
1789635260239210200,8.554210205078125,0.049555037170648575,-0.808521568775177,-1.3404803276062012
1789635260249249500,8.56424951171875,0.009075786918401718,-0.6606993675231934,-1.3261187076568604
1789635260259289300,8.574289306640624,0.0008287757518701255,-0.7693283557891846,-1.419323205947876
1789635260269329400,8.584329345703125,-0.06995484977960587,-0.8521153926849365,-1.592223048210144
1789635260279368400,8.594368408203126,-0.11597666889429092,-0.936812698841095,-1.7464911937713623
1789635260289408500,8.604408447265625,-0.12194454669952393,-0.9762836694717407,-1.8196841478347778
1789635260299448300,8.6144482421875,-0.09633345901966095,-0.9169769287109375,-1.867793321609497
1789635260309487400,8.6244873046875,-0.05204775556921959,-0.7892882227897644,-1.8669307231903076
1789635260319527400,8.63452734375,0.002686596941202879,-0.5735868215560913,-1.9059826135635376
1789635260329567500,8.6445673828125,0.036623526364564896,-0.4349440038204193,-1.921370029449463
1789635260339606300,8.654606201171875,0.03834286332130432,-0.38502970337867737,-1.819145679473877
1789635260349646300,8.664646240234376,0.0007448861724697053,-0.4226630926132202,-1.6514216661453247
1789635260359685400,8.674685302734375,-0.009411345236003399,-0.45001882314682007,-1.493446707725525
1789635260369725400,8.684725341796875,-0.04818457365036011,-0.22545602917671204,-1.372802495956421
1789635260379765200,8.69476513671875,-0.06893778592348099,0.29605987668037415,-1.3560259342193604
1789635260389804300,8.70480419921875,-0.016825851052999496,0.7354218363761902,-1.416286587715149
1789635260399844400,8.71484423828125,0.02111460641026497,0.6255466938018799,-1.447145700454712
1789635260409884400,8.724884521484375,-0.029878802597522736,0.22181682288646698,-1.3020682334899902
1789635260419923200,8.734923095703126,-0.09607619792222977,0.07232080399990082,-1.0115019083023071
1789635260429963300,8.74496337890625,-0.11579610407352448,0.31829461455345154,-0.800894021987915
1789635260440003300,8.75500341796875,-0.05644596368074417,0.7371291518211365,-0.7025488018989563
1789635260450042400,8.76504248046875,0.04083691164851189,0.8408070802688599,-0.6587722897529602
1789635260460082200,8.775082275390625,0.07422363013029099,0.5737112164497375,-0.5547689199447632
1789635260470122200,8.785122314453124,0.07961519807577133,0.2136547565460205,-0.37644660472869873
1789635260480161500,8.79516162109375,0.10559353977441788,0.11729306727647781,-0.22334706783294678
1789635260490201300,8.805201416015626,0.1477668285369873,0.06442239880561829,-0.14397980272769928
1789635260500241200,8.8152412109375,0.125970721244812,-0.13575011491775513,-0.06203114613890648
1789635260510280400,8.825280517578125,0.08277610689401627,-0.12059725075960159,0.06383969634771347
1789635260520320500,8.835320556640625,0.06881288439035416,0.21272318065166473,0.18855926394462585
1789635260530359300,8.845359375,0.10818319767713547,0.4216471016407013,0.24423477053642273
1789635260540399400,8.8553994140625,0.1740492880344391,0.13612747192382812,0.36081838607788086
1789635260550439400,8.865439453125,0.16919541358947754,-0.023150859400629997,0.5843545198440552
1789635260560478500,8.875478515625,0.07036950439214706,0.23620428144931793,0.796942412853241
1789635260570518300,8.885518310546875,-0.0015393070643767715,0.4884580969810486,0.8494450449943542
1789635260580558300,8.895558349609376,0.005927663762122393,0.5749154686927795,0.8186929821968079
1789635260590597400,8.905597412109374,0.03189881145954132,0.4910711944103241,0.8244020342826843
1789635260600637400,8.915637451171875,-0.022826485335826874,0.42061886191368103,0.8663555979728699
1789635260610677200,8.92567724609375,-0.12624076008796692,0.4688316583633423,1.0303921699523926
1789635260620716300,8.93571630859375,-0.22908298671245575,0.6794951558113098,1.2727656364440918
1789635260630756400,8.94575634765625,-0.24982181191444397,0.722751259803772,1.3931658267974854
1789635260640796400,8.95579638671875,-0.21585692465305328,0.572482705116272,1.4124572277069092
1789635260650835200,8.965835205078125,-0.20675131678581238,0.4215991795063019,1.473189115524292
1789635260660875300,8.975875244140624,-0.27070870995521545,0.30656978487968445,1.581998586654663
1789635260670915300,8.985915283203125,-0.33143118023872375,0.5264257192611694,1.648572564125061
1789635260680954400,8.995954345703124,-0.3618708550930023,0.8704105019569397,1.662765383720398
1789635260690994200,9.005994140625,-0.3292897343635559,0.6888511180877686,1.5388916730880737
1789635260701034200,9.0160341796875,-0.2934744954109192,0.2947986125946045,1.5040916204452515
1789635260711073300,9.0260732421875,-0.28394943475723267,0.5303927659988403,1.7384105920791626
1789635260721113300,9.03611328125,-0.21580952405929565,0.8890827298164368,1.934668779373169
1789635260731152400,9.04615234375,-0.08987156301736832,0.8000897765159607,1.8910942077636719
1789635260741192400,9.0561923828125,-0.010453972034156322,0.6640450954437256,1.7561382055282593
1789635260751232500,9.066232421875,0.04921015724539757,0.7110738754272461,1.746813178062439
1789635260761271300,9.076271240234375,0.07590381801128387,0.8628700375556946,1.8515949249267578
1789635260771311400,9.086311279296876,0.02521933615207672,1.0130987167358398,1.9531660079956055
1789635260781351400,9.096351318359375,-0.02514796331524849,0.983063817024231,1.9408103227615356
1789635260791390500,9.106390380859375,0.006111954804509878,0.742243230342865,1.848577618598938
1789635260801430500,9.116430419921874,0.057071808725595474,0.6122106909751892,1.8096253871917725
1789635260811470300,9.12647021484375,0.12799951434135437,0.7425998449325562,1.8315626382827759
1789635260821509400,9.13650927734375,0.2553683817386627,0.8112891316413879,1.837206482887268
1789635260831549400,9.146549560546875,0.4037136435508728,0.5290542840957642,1.7786743640899658
1789635260841589500,9.156589599609376,0.4270104467868805,0.24934378266334534,1.7043522596359253
1789635260851628300,9.166628173828125,0.34043294191360474,0.41862815618515015,1.742543339729309
1789635260861668400,9.17666845703125,0.24202407896518707,0.6976920366287231,1.8560839891433716
1789635260871708400,9.18670849609375,0.26942160725593567,0.523914635181427,1.8502178192138672
1789635260881747200,9.196747314453125,0.39941635727882385,0.04958939179778099,1.6723299026489258
1789635260891787300,9.206787353515624,0.4925990402698517,-0.009769007563591003,1.5304582118988037
1789635260901826300,9.216826416015625,0.5934614539146423,0.40530675649642944,1.4928131103515625
1789635260911866400,9.226866455078126,0.7339280247688293,0.6274886727333069,1.5026625394821167
1789635260921906400,9.236906494140625,0.841539204120636,0.24472665786743164,1.481282353401184
1789635260931945200,9.2469453125,0.7880850434303284,-0.2834191918373108,1.4048420190811157
1789635260941985300,9.2569853515625,0.5809773802757263,-0.22756019234657288,1.4023686647415161
1789635260952025300,9.267025390625,0.3783172070980072,0.24533651769161224,1.490526795387268
1789635260962064400,9.277064453125,0.3094569146633148,0.40989723801612854,1.5493892431259155
1789635260972104200,9.287104248046875,0.2871798574924469,0.2143719494342804,1.522807002067566
1789635260982144300,9.297144287109376,0.20988798141479492,0.12891057133674622,1.4372105598449707
1789635260992183600,9.30718359375,0.12995480000972748,0.29659518599510193,1.3306816816329956
1789635261002223400,9.317223388671875,0.10014977306127548,0.25505733489990234,1.2219823598861694
1789635261012263400,9.327263427734374,0.11341018229722977,-0.16393567621707916,1.1389315128326416
1789635261022302500,9.337302490234375,0.11211562156677246,-0.5159171223640442,1.1082412004470825
1789635261032341000,9.347341064453126,0.07631634175777435,-0.4364340305328369,1.1185438632965088
1789635261042381000,9.357381103515625,-0.005871471017599106,-0.08844144642353058,1.1277469396591187
1789635261052419800,9.367419921875,-0.10551150888204575,0.19943374395370483,1.0702259540557861
1789635261062460000,9.3774599609375,-0.1702633500099182,0.31247347593307495,0.9543538689613342
1789635261072500000,9.3875,-0.1617329716682434,0.36386555433273315,0.804938554763794
1789635261082539000,9.3975390625,-0.032757148146629333,0.24638473987579346,0.6599640846252441
1789635261092578800,9.407578857421875,0.030914772301912308,0.037577468901872635,0.5081596374511719
1789635261102617900,9.417617919921875,-0.07187791913747787,-0.05745743215084076,0.3440963923931122
1789635261112658000,9.427657958984375,-0.16940739750862122,-0.08312098681926727,0.2141096293926239
1789635261122698000,9.437697998046875,-0.1634533703327179,-0.2442006915807724,0.1556633561849594
1789635261132737000,9.447737060546874,-0.1452924758195877,-0.2463325411081314,0.10526224225759506
1789635261142777000,9.457777099609375,-0.11810719966888428,-0.17813751101493835,0.0710800364613533
1789635261152817000,9.46781689453125,-0.12019911408424377,0.010409231297671795,0.014594655483961105
1789635261162856000,9.47785595703125,-0.12105611711740494,0.27579164505004883,-0.08054997026920319
1789635261172896000,9.48789599609375,-0.03901051729917526,0.23582105338573456,-0.15821413695812225
1789635261182936000,9.49793603515625,0.03888321667909622,-0.042705386877059937,-0.2366522252559662
1789635261192975000,9.50797509765625,0.04309926554560661,-0.09905094653367996,-0.39014190435409546
1789635261203015200,9.51801513671875,-0.015340606682002544,0.06896388530731201,-0.5770540237426758
1789635261213055000,9.528054931640625,-0.04590437561273575,0.2576445937156677,-0.6966363191604614
1789635261223094000,9.538093994140626,0.011001517996191978,0.30220887064933777,-0.7330409288406372
1789635261233134000,9.548134033203125,0.0490327887237072,0.20301569998264313,-0.662813663482666
1789635261243174100,9.558174072265626,0.0641036182641983,0.18835392594337463,-0.5445149540901184
1789635261253213000,9.568212890625,0.09146013855934143,0.3418513536453247,-0.4749303162097931
1789635261263253000,9.5782529296875,0.18828921020030975,0.34544846415519714,-0.41256147623062134
1789635261273292000,9.5882919921875,0.24313408136367798,0.07354824990034103,-0.3465592861175537
1789635261283331800,9.598331787109375,0.18460845947265625,-0.14163969457149506,-0.34593263268470764
1789635261293372000,9.608371826171876,0.09909089654684067,-0.210011824965477,-0.4283422827720642
1789635261303411000,9.618410888671875,0.06797745078802109,-0.2981025278568268,-0.5240232944488525
1789635261313451000,9.628450927734375,0.06521549075841904,-0.3175981938838959,-0.591530978679657
1789635261323491000,9.638490966796875,0.08989659696817398,-0.2752683162689209,-0.6518885493278503
1789635261333529900,9.64852978515625,0.08676338940858841,-0.14545759558677673,-0.7039589285850525
1789635261343570000,9.65856982421875,0.022547919303178787,0.09058769047260284,-0.7750797271728516
1789635261353610000,9.66860986328125,-0.028990639373660088,0.3166775405406952,-0.8408560752868652
1789635261363648800,9.678648681640626,-0.06583280861377716,0.3570915460586548,-0.8646247982978821
1789635261373688800,9.688688720703125,-0.09901020675897598,0.31718727946281433,-0.887112557888031
1789635261383729000,9.69872900390625,-0.12632597982883453,0.22296570241451263,-0.9318126440048218
1789635261393768200,9.708768310546875,-0.11999271810054779,0.2142997831106186,-0.9717821478843689
1789635261403808000,9.71880810546875,-0.09037970006465912,0.3111741244792938,-1.0142624378204346
1789635261413847800,9.728847900390624,-0.047333959490060806,0.3536078631877899,-1.0637128353118896
1789635261423887000,9.73888720703125,0.04019482433795929,0.2668655216693878,-1.1086342334747314
1789635261433927200,9.74892724609375,0.149414524435997,0.1240050345659256,-1.1256039142608643
1789635261443966000,9.758966064453125,0.23355869948863983,-0.09262900054454803,-1.0835683345794678
1789635261454006000,9.769006103515625,0.29944664239883423,-0.43444520235061646,-0.9946706891059875
1789635261464046000,9.779046142578125,0.2802281975746155,-0.676415205001831,-0.9427294731140137
1789635261474085000,9.789085205078125,0.20416219532489777,-0.6452895402908325,-0.9980835318565369
1789635261484125000,9.799125,0.11255796998739243,-0.4731007218360901,-1.1300759315490723
1789635261494165000,9.8091650390625,0.017402425408363342,-0.26662689447402954,-1.2580159902572632
1789635261504204000,9.8192041015625,-0.07190082222223282,-0.02407124824821949,-1.2836886644363403
1789635261514244000,9.829244140625,-0.11481206864118576,0.09314938634634018,-1.2368921041488647
1789635261524284000,9.839283935546876,-0.12739869952201843,-0.05728459358215332,-1.200777292251587
1789635261534323000,9.849322998046874,-0.10651339590549469,-0.3490152359008789,-1.214011549949646
1789635261544363000,9.859363037109375,-0.06407379359006882,-0.5786771774291992,-1.2190982103347778
1789635261554403000,9.869403076171874,-0.014395451173186302,-0.6503186225891113,-1.2077128887176514
1789635261564441900,9.87944189453125,0.008468319661915302,-0.717506468296051,-1.197658658027649
1789635261574482000,9.88948193359375,0.052796103060245514,-0.826896071434021,-1.1818773746490479
1789635261584522000,9.89952197265625,0.10987722873687744,-0.9072239398956299,-1.1919925212860107
1789635261594560800,9.909560791015625,0.14172011613845825,-0.8284492492675781,-1.2582690715789795
1789635261604600800,9.919600830078124,0.13971315324306488,-0.6370773911476135,-1.3652743101119995
1789635261614639900,9.929639892578125,0.13280518352985382,-0.5679904818534851,-1.4434226751327515
1789635261624680000,9.939679931640624,0.12170805782079697,-0.5661196112632751,-1.4937068223953247
1789635261634720000,9.949719970703125,0.14458142220973969,-0.6405919790267944,-1.5606096982955933
1789635261644759000,9.959759033203126,0.17715907096862793,-0.7707997560501099,-1.6223963499069214
1789635261654799000,9.969799072265625,0.17853379249572754,-0.7535020112991333,-1.6423988342285156
1789635261664839000,9.9798388671875,0.14872530102729797,-0.6717549562454224,-1.6586641073226929
1789635261674878000,9.9898779296875,0.10618183016777039,-0.6154975295066833,-1.6676884889602661
1789635261684918000,9.99991796875,0.097757987678051,-0.6638813018798828,-1.6182889938354492
1789635261694958000,10.0099580078125,0.08316998928785324,-0.8086054921150208,-1.5767929553985596
1789635261704997000,10.0199970703125,0.029401298612356186,-0.8492567539215088,-1.5517882108688354
1789635261715037000,10.030036865234376,0.0005491438205353916,-0.6775611639022827,-1.5284578800201416
1789635261725077000,10.040076904296875,0.04930123686790466,-0.47355905175209045,-1.5156235694885254
1789635261735116000,10.050115966796875,0.09361783415079117,-0.344181090593338,-1.507446050643921
1789635261745156000,10.060156005859374,0.11881719529628754,-0.3513526916503906,-1.5064141750335693
1789635261755196200,10.070196044921875,0.09252327680587769,-0.5295099020004272,-1.4785958528518677
1789635261765235000,10.08023486328125,0.14611752331256866,-0.7312052249908447,-1.4570505619049072
1789635261775275000,10.09027490234375,0.22362883388996124,-0.9891536831855774,-1.384514331817627
1789635261785314000,10.10031396484375,0.18606974184513092,-1.0865052938461304,-1.2981184720993042
1789635261795353900,10.110353759765625,0.04615071788430214,-0.9923726320266724,-1.2601807117462158
1789635261805394000,10.120393798828125,-0.10428912192583084,-0.8078624606132507,-1.2684673070907593
1789635261815433000,10.130432861328124,-0.20053896307945251,-0.7531435489654541,-1.394136905670166
1789635261825473000,10.14047314453125,-0.2235361486673355,-0.9168352484703064,-1.5268036127090454
1789635261835512800,10.150512939453124,-0.20886506140232086,-0.8531814813613892,-1.6031782627105713
1789635261845551900,10.1605517578125,-0.16706834733486176,-0.43799224495887756,-1.5989770889282227
1789635261855592000,10.170592041015626,-0.09598485380411148,-0.044330447912216187,-1.5631122589111328
1789635261865632000,10.180632080078125,-0.11660810559988022,0.19391220808029175,-1.5095294713974
1789635261875670800,10.1906708984375,-0.20714333653450012,0.3560185730457306,-1.3832181692123413
1789635261885710800,10.2007109375,-0.23729164898395538,0.42595502734184265,-1.2179572582244873
1789635261895751000,10.2107509765625,-0.20805226266384125,0.4036497175693512,-1.085187315940857
1789635261905790200,10.220790283203126,-0.17698809504508972,0.6351969242095947,-1.0107226371765137
1789635261915830000,10.230830078125,-0.17188307642936707,0.8078613877296448,-0.9289611577987671
1789635261925869800,10.240869873046876,-0.12392327934503555,0.9017114639282227,-0.865373969078064
1789635261935909000,10.2509091796875,-0.01998542621731758,0.8614711165428162,-0.7596616148948669
1789635261945949200,10.26094921875,0.08821268379688263,0.6586719155311584,-0.5362498760223389
1789635261955989000,10.270989013671874,0.06449403613805771,0.45258212089538574,-0.21288590133190155
1789635261966028000,10.281028076171875,-0.005275722127407789,0.46907374262809753,0.13172580301761627
1789635261976068000,10.291068115234374,0.015485482290387154,0.6260865330696106,0.3961971402168274
1789635261986107000,10.30110693359375,0.06136642023921013,0.7168867588043213,0.5227079391479492
1789635261996147000,10.31114697265625,0.06427352875471115,0.6430426239967346,0.5741620659828186
1789635262006187000,10.32118701171875,0.039035018533468246,0.34721335768699646,0.6790645122528076
1789635262016226000,10.33122607421875,-0.018813367933034897,0.09695903956890106,0.8313714861869812
1789635262026265900,10.341265869140624,-0.12847621738910675,0.2214176058769226,1.017270565032959
1789635262036307200,10.35130712890625,-0.26257675886154175,0.3063697814941406,1.1689999103546143
1789635262046346000,10.361345947265624,-0.37010082602500916,0.15553739666938782,1.292768120765686
1789635262056386000,10.371385986328125,-0.4371134042739868,0.1584485024213791,1.546196699142456
1789635262066426000,10.381426025390626,-0.4774850606918335,0.34710177779197693,1.7384324073791504
1789635262076465000,10.39146484375,-0.46588167548179626,0.507564127445221,1.7011886835098267
1789635262086505000,10.4015048828125,-0.38382887840270996,0.4450051486492157,1.5179429054260254
1789635262096545000,10.411544921875,-0.3448820114135742,0.3141201138496399,1.4558430910110474
1789635262106584000,10.421583984375,-0.359164297580719,0.5175914764404297,1.639462947845459
1789635262116624000,10.431623779296874,-0.32206353545188904,0.9476547241210938,1.8652106523513794
1789635262126664000,10.441663818359375,-0.20094482600688934,1.2510331869125366,1.9723546504974365
1789635262136703000,10.451702880859376,-0.014826882630586624,1.3594012260437012,1.9559147357940674
1789635262146743000,10.461742919921875,0.15402711927890778,1.3149070739746094,1.891333818435669
1789635262156781800,10.47178173828125,0.25561365485191345,1.3215718269348145,1.866145133972168
1789635262166822000,10.48182177734375,0.2669089138507843,1.3463234901428223,1.8655555248260498
1789635262176862000,10.491862060546875,0.1636027842760086,1.2114509344100952,1.8508578538894653
1789635262186901000,10.50190087890625,-0.006865363102406263,0.9069309830665588,1.86481511592865
1789635262196940800,10.51194091796875,-0.17805682122707367,0.6583480834960938,2.003274917602539
1789635262206980900,10.52198095703125,-0.22268447279930115,0.6704830527305603,2.18076229095459
1789635262217020200,10.532020263671875,-0.09067317843437195,0.6623933911323547,2.169156789779663
1789635262227060000,10.54206005859375,0.18673738837242126,0.5357022881507874,2.0132699012756348
1789635262237099800,10.552099853515625,0.466536283493042,0.43998563289642334,1.7815724611282349
1789635262247139000,10.56213916015625,0.5686141848564148,0.28486716747283936,1.5171523094177246
1789635262257179100,10.57217919921875,0.5366474390029907,0.07338234037160873,1.413289189338684
1789635262267219000,10.582218994140625,0.47778016328811646,0.1398465782403946,1.5832146406173706
1789635262277258000,10.592258056640626,0.3625646233558655,0.3783976435661316,1.9230473041534424
1789635262287298000,10.602298095703125,0.25525227189064026,0.46985751390457153,2.1840031147003174
1789635262297338000,10.612338134765626,0.18671821057796478,0.56098473072052,2.2437262535095215
1789635262307377000,10.622376953125,0.18394745886325836,0.517350435256958,2.0769472122192383
1789635262317417000,10.6324169921875,0.2486468255519867,0.11125994473695755,1.7216918468475342
1789635262327457000,10.64245703125,0.26662877202033997,-0.4170965552330017,1.3705987930297852
1789635262337496000,10.65249609375,0.2816529870033264,-0.7705499529838562,1.232888102531433
1789635262347536100,10.6625361328125,0.2582475244998932,-0.721777081489563,1.3879300355911255
1789635262357575000,10.672574951171875,0.16160327196121216,-0.18216606974601746,1.6936577558517456
1789635262367615000,10.682614990234375,0.04694540426135063,0.42521706223487854,1.893027663230896
1789635262377655000,10.692655029296875,-0.03783686086535454,0.6713941097259521,1.869056224822998
1789635262387693800,10.70269384765625,-0.028141357004642487,0.45523568987846375,1.6722393035888672
1789635262397734000,10.71273388671875,0.12606312334537506,-0.0873735174536705,1.4138263463974
1789635262407774000,10.72277392578125,0.30671679973602295,-0.38387948274612427,1.2167046070098877
1789635262417813000,10.73281298828125,0.34090644121170044,-0.20996281504631042,1.1335878372192383
1789635262427852800,10.742852783203125,0.307684063911438,0.02503291517496109,1.1471166610717773
1789635262437892900,10.752892822265625,0.24203793704509735,0.19112920761108398,1.170816421508789
1789635262447932000,10.762931884765624,0.1633383333683014,0.377286821603775,1.1530829668045044
1789635262457972000,10.772971923828125,0.13798236846923828,0.49399080872535706,1.1331819295883179
1789635262468012000,10.783011962890624,0.2190050482749939,0.38404035568237305,1.078040361404419
1789635262478051000,10.793051025390625,0.27233245968818665,0.17662696540355682,0.9036425352096558
1789635262488091000,10.8030908203125,0.22703607380390167,0.20297148823738098,0.6385964751243591
1789635262498131000,10.813130859375,0.24126534163951874,0.3037998378276825,0.45619362592697144
1789635262508170000,10.823169921875,0.3426463007926941,0.23447641730308533,0.373285174369812
1789635262518210000,10.8332099609375,0.2590864300727844,0.2061699479818344,0.31243592500686646
1789635262528249000,10.8432490234375,0.10109172761440277,0.3905259370803833,0.3056696355342865
1789635262538289200,10.8532890625,0.130997434258461,0.229437455534935,0.4193626344203949
1789635262548329000,10.863328857421875,0.16960927844047546,-0.08572395890951157,0.5106496810913086
1789635262558368000,10.873367919921876,0.06411001086235046,-0.15610279142856598,0.46930569410324097
1789635262568408000,10.883407958984375,-0.06414489448070526,0.026971962302923203,0.35996589064598083
1789635262578448100,10.8934482421875,-0.11063889414072037,-0.02834056131541729,0.3004636764526367
1789635262588487000,10.90348681640625,-0.13218173384666443,-0.24948759377002716,0.24882499873638153
1789635262598527000,10.91352685546875,-0.17945976555347443,-0.43448302149772644,0.1342765837907791
1789635262608567000,10.923567138671874,-0.16589149832725525,-0.43876031041145325,0.025979669764637947
1789635262618606000,10.933606201171875,-0.1352188140153885,-0.2718285918235779,-0.0373750701546669
1789635262628646000,10.94364599609375,-0.10398472100496292,0.06857133656740189,-0.10852035135030746
1789635262638686000,10.95368603515625,-0.03816922381520271,0.2610960304737091,-0.19716499745845795
1789635262648725000,10.96372509765625,0.008554073050618172,0.16118410229682922,-0.25356435775756836
1789635262658765000,10.97376513671875,0.0223282091319561,0.057190585881471634,-0.3561389446258545
1789635262668804900,10.983804931640625,0.017310280352830887,0.11709732562303543,-0.5217326879501343
1789635262678844000,10.993843994140626,0.04482952132821083,0.26670387387275696,-0.7111095190048218
1789635262688884000,11.003884033203125,0.06549272686243057,0.3514576256275177,-0.8717780709266663
1789635262698922800,11.0139228515625,0.09689192473888397,0.40985941886901855,-0.9872844219207764
1789635262708962800,11.023962890625,0.1354968398809433,0.3287715017795563,-1.0294510126113892
1789635262719003000,11.0340029296875,0.20410439372062683,0.10787666589021683,-0.9441894292831421
1789635262729042200,11.044042236328124,0.2512969374656677,-0.03581765294075012,-0.8243317008018494
1789635262739082000,11.05408203125,0.28583282232284546,-0.11864276230335236,-0.7833533883094788
1789635262749121800,11.064121826171874,0.2244296371936798,-0.1913939267396927,-0.8658943176269531
1789635262759161000,11.0741611328125,0.03287752345204353,-0.06941742449998856,-1.0150837898254395
1789635262769201200,11.084201171875,-0.05603078007698059,0.0996437668800354,-1.0621339082717896
1789635262779241000,11.094240966796875,-0.0487947016954422,0.09368041902780533,-0.9690167307853699
1789635262789280000,11.104280029296875,-0.03905312716960907,0.02171461656689644,-0.9009700417518616
1789635262799320000,11.114320068359374,-0.10212183743715286,0.10105391591787338,-0.8881410360336304
1789635262809360100,11.124360107421875,-0.13042804598808289,0.26967647671699524,-0.8807150721549988
1789635262819399000,11.13439892578125,-0.12996678054332733,0.2417100965976715,-0.8460007905960083
1789635262829439000,11.14443896484375,-0.12196239084005356,0.03844166547060013,-0.861123263835907
1789635262839479000,11.15447900390625,-0.15478159487247467,-0.19270554184913635,-0.9125350713729858
1789635262849518000,11.16451806640625,-0.17757399380207062,-0.372126966714859,-0.9801220893859863
1789635262859558000,11.174557861328125,-0.19695301353931427,-0.5192045569419861,-1.0235569477081299
1789635262869597000,11.184596923828124,-0.19300568103790283,-0.4587438702583313,-1.0888392925262451
1789635262879637000,11.194636962890625,-0.1906442493200302,-0.3031233847141266,-1.1689682006835938
1789635262889677000,11.204677001953126,-0.16726355254650116,-0.0890587717294693,-1.1954692602157593
1789635262899715800,11.2147158203125,-0.16565367579460144,0.08355694264173508,-1.1637451648712158
1789635262909756000,11.224755859375,-0.1309146136045456,-0.002545981900766492,-1.1579991579055786
1789635262919796000,11.2347958984375,-0.09092484414577484,-0.21970093250274658,-1.2051738500595093
1789635262929835000,11.2448349609375,-0.04312483221292496,-0.3939177393913269,-1.2953159809112549
1789635262939874800,11.254874755859374,-0.01739976368844509,-0.39930957555770874,-1.3650740385055542
1789635262949915000,11.264914794921875,0.0006551376427523792,-0.2708195149898529,-1.418594479560852
1789635262959954000,11.274953857421876,-0.0036221654154360294,-0.24177348613739014,-1.4688034057617188
1789635262969994000,11.284993896484375,-0.030543262138962746,-0.4071214199066162,-1.5388513803482056
1789635262980033800,11.29503369140625,-0.10115484893321991,-0.41083627939224243,-1.5859992504119873
1789635262990073000,11.305072998046874,-0.15906953811645508,-0.33031877875328064,-1.5851554870605469
1789635263000113000,11.31511279296875,-0.1664923131465912,-0.37949565052986145,-1.5771527290344238
1789635263010153000,11.325153076171874,-0.1698974221944809,-0.47942519187927246,-1.5327149629592896
1789635263020192000,11.33519189453125,-0.16311489045619965,-0.48409023880958557,-1.4757102727890015
1789635263030232000,11.345232177734376,-0.10481482744216919,-0.4115622341632843,-1.4477663040161133
1789635263040270600,11.3552705078125,-0.022362297400832176,-0.454428493976593,-1.47275972366333
1789635263050310700,11.365310546875,0.03563016653060913,-0.5041022896766663,-1.5322867631912231
1789635263060350700,11.375350830078125,0.08680786192417145,-0.5208445191383362,-1.5837693214416504
1789635263070389500,11.385389404296875,0.19155558943748474,-0.7314289212226868,-1.6852747201919556
1789635263080429600,11.3954296875,0.2462230920791626,-1.045976161956787,-1.7238407135009766
1789635263090469600,11.4054697265625,0.19805023074150085,-1.0067654848098755,-1.6383085250854492
1789635263100508700,11.4155087890625,0.11435400694608688,-0.656697154045105,-1.5485186576843262
1789635263110548500,11.425548583984375,0.058220162987709045,-0.4882913827896118,-1.5540311336517334
1789635263120588500,11.435588623046876,0.057082194834947586,-0.5663291811943054,-1.6280162334442139
1789635263130627600,11.445627685546874,0.0775991901755333,-0.7025597095489502,-1.7047957181930542
1789635263140667600,11.455667724609375,0.1379735767841339,-0.8685015439987183,-1.7370966672897339
1789635263150707700,11.465707763671874,0.1950342059135437,-0.9782874584197998,-1.6949899196624756
1789635263160746500,11.47574658203125,0.2080828994512558,-1.0108551979064941,-1.6515694856643677
1789635263170786600,11.48578662109375,0.14520832896232605,-0.7902701497077942,-1.6669870615005493
1789635263180826600,11.49582666015625,0.11124023795127869,-0.47538384795188904,-1.7332464456558228
1789635263190865400,11.505865478515625,0.10489259660243988,-0.5940124988555908,-1.7995916604995728
1789635263200905500,11.515905517578124,0.1077408418059349,-0.8974738121032715,-1.8030495643615723
1789635263210944800,11.52594482421875,0.09272807091474533,-1.062087059020996,-1.694287657737732
1789635263220984600,11.535984619140624,0.05553170293569565,-1.138028621673584,-1.5343818664550781
1789635263231024400,11.5460244140625,-0.016709737479686737,-1.0216333866119385,-1.4057106971740723
1789635263241063700,11.556063720703126,-0.09897930920124054,-0.6019769310951233,-1.3461225032806396
1789635263251103700,11.566103759765625,-0.11958765238523483,-0.21552270650863647,-1.370522379875183
1789635263261143800,11.576143798828125,-0.069534070789814,-0.10487101972103119,-1.3795245885849
1789635263271182600,11.5861826171875,-0.03057548590004444,-0.07703113555908203,-1.2450706958770752
1789635263281222700,11.59622265625,-0.025289643555879593,-0.17368178069591522,-1.0373342037200928
1789635263291262700,11.6062626953125,-0.08507095277309418,-0.1543397754430771,-0.7900898456573486
1789635263301301800,11.6163017578125,-0.1587797999382019,0.15061134099960327,-0.5345949530601501
1789635263311341600,11.626341552734376,-0.1338225156068802,0.4748743772506714,-0.3510400354862213
1789635263321381600,11.636381591796875,-0.024163126945495605,0.8393756151199341,-0.2718232572078705
1789635263331420700,11.646420654296875,0.09755212068557739,0.9757699370384216,-0.17690366506576538
1789635263341460700,11.656460693359374,0.14382587373256683,0.7299769520759583,-0.03586292639374733
1789635263351500500,11.66650048828125,0.1086505800485611,0.5443106889724731,0.1424197256565094
1789635263361539600,11.67653955078125,0.017543040215969086,0.29776057600975037,0.32853633165359497
1789635263371579600,11.68657958984375,-0.09454967826604843,0.3713519871234894,0.4177045524120331
1789635263381619700,11.69661962890625,-0.09852950274944305,0.5534850358963013,0.43906736373901367
1789635263391658500,11.706658447265625,-0.10377593338489532,0.41578230261802673,0.5385308265686035
1789635263401698600,11.716698486328125,-0.19902415573596954,0.2811499238014221,0.7455762028694153
1789635263411737600,11.726737548828124,-0.3089517056941986,0.3726513385772705,0.928445041179657
1789635263421777400,11.73677734375,-0.3642008602619171,0.3719783425331116,1.0710810422897339
1789635263431817500,11.7468173828125,-0.3990864157676697,0.26944613456726074,1.2966179847717285
1789635263441856500,11.7568564453125,-0.4941657781600952,0.44001784920692444,1.5899114608764648
1789635263451896600,11.766896484375,-0.580700159072876,0.6641700267791748,1.8137980699539185
1789635263461936600,11.7769365234375,-0.5356394648551941,0.7041853070259094,1.8623093366622925
1789635263471975700,11.7869755859375,-0.39884963631629944,0.6093621253967285,1.8110640048980713
1789635263482015500,11.797015380859374,-0.3091368079185486,0.5754491686820984,1.8566845655441284
1789635263492055600,11.8070556640625,-0.2818862795829773,0.6090843677520752,2.005000114440918
1789635263502094600,11.817094482421876,-0.2929932475090027,0.5698671936988831,2.1173274517059326
1789635263512134700,11.827134765625,-0.3315505087375641,0.536920964717865,2.1843624114990234
1789635263522174700,11.8371748046875,-0.350124716758728,0.4641117453575134,2.244527816772461
1789635263532213800,11.8472138671875,-0.33655643463134766,0.3656562864780426,2.2979400157928467
1789635263542253600,11.857253662109375,-0.3461209237575531,0.5710573792457581,2.3193674087524414
1789635263552293600,11.867293701171874,-0.32130560278892517,0.9420990943908691,2.2273497581481934
1789635263562332700,11.877332763671875,-0.19642117619514465,0.9314147233963013,2.0337815284729004
1789635263572372700,11.887372802734374,-0.0532485730946064,0.7388522028923035,1.9487403631210327
1789635263582411500,11.89741162109375,0.09527858346700668,0.5447701215744019,1.9883602857589722
1789635263592451600,11.90745166015625,0.14584748446941376,0.46984606981277466,2.0700411796569824
1789635263602491600,11.91749169921875,0.10214527696371078,0.6492786407470703,2.099867820739746
1789635263612530700,11.92753076171875,0.048714540898799896,0.8003265261650085,2.030717134475708
1789635263622570500,11.937570556640624,0.02869236469268799,0.7778752446174622,1.9082680940628052
1789635263632610600,11.947610595703125,0.03335156664252281,0.6526970863342285,1.797905683517456
1789635263642649600,11.957649658203126,0.09745917469263077,0.40878963470458984,1.7287094593048096
1789635263652689700,11.967689697265625,0.22226741909980774,0.16589975357055664,1.709219217300415
1789635263662729500,11.9777294921875,0.28817638754844666,0.2639206051826477,1.772463083267212
1789635263672768500,11.9877685546875,0.31775107979774475,0.5161334276199341,1.8615349531173706
1789635263682808600,11.99780859375,0.32251226902008057,0.43499353528022766,1.8665283918380737
1789635263692848600,12.0078486328125,0.23090645670890808,0.22759880125522614,1.843870759010315
1789635263702887400,12.017887451171875,0.0884542316198349,0.2807296812534332,1.9189910888671875
1789635263712927500,12.027927490234376,0.01010749489068985,0.5518109798431396,2.041754722595215
1789635263722967600,12.037967529296875,0.0713849663734436,0.48466840386390686,2.045456886291504
1789635263733006600,12.048006591796875,0.20814308524131775,0.01726900227367878,1.9000240564346313
1789635263743046400,12.05804638671875,0.20875108242034912,-0.133426234126091,1.7560745477676392
1789635263753086500,12.06808642578125,0.17796173691749573,-0.007582818623632193,1.7259705066680908
1789635263763125800,12.078125732421874,0.23602184653282166,-0.009766077622771263,1.7478725910186768
1789635263773165800,12.088165771484375,0.19338437914848328,0.00948138628154993,1.740602970123291
1789635263783204600,12.09820458984375,-0.007796137593686581,0.2875652015209198,1.7700313329696655
1789635263793244700,12.10824462890625,-0.13469789922237396,0.48899686336517334,1.8406448364257812
1789635263803284700,12.11828466796875,-0.10626199096441269,0.3298165202140808,1.8570070266723633
1789635263813323500,12.128323486328124,-0.08493965864181519,-0.03550020232796669,1.7224321365356445
1789635263823363600,12.138363525390625,-0.1376047283411026,-0.16951365768909454,1.5017520189285278
1789635263833403600,12.148403564453124,-0.20233047008514404,0.16385045647621155,1.3298593759536743
1789635263843442700,12.158442626953125,-0.18305876851081848,0.4842154085636139,1.245849609375
1789635263853482500,12.168482421875,-0.06839130818843842,0.45546314120292664,1.1548374891281128
1789635263863522600,12.1785224609375,0.09602746367454529,0.1844305694103241,1.0147466659545898
1789635263873561600,12.1885615234375,0.2208615392446518,-0.062497999519109726,0.8936188817024231
1789635263883601700,12.1986015625,0.19380168616771698,0.03491643816232681,0.7845363616943359
1789635263893641700,12.208641845703125,0.08213614672422409,0.2171163409948349,0.6078686714172363
1789635263903680500,12.218680419921874,-0.007773767225444317,0.1985226720571518,0.3822996914386749
1789635263913720600,12.228720458984375,-0.05655675381422043,0.049369681626558304,0.18925701081752777
1789635263923759600,12.238759521484376,-0.007138603366911411,0.1043570339679718,-0.004856273997575045
1789635263933799400,12.24879931640625,0.07959096878767014,0.1803511381149292,-0.2307485193014145
1789635263943839500,12.258839599609376,0.1472344547510147,0.32346007227897644,-0.46207335591316223
1789635263953878500,12.26887841796875,0.17941422760486603,0.5194399952888489,-0.660053014755249
1789635263963918600,12.278918701171875,0.23221299052238464,0.5537633299827576,-0.7590677738189697
1789635263973958400,12.28895849609375,0.28870317339897156,0.3529870808124542,-0.7708849906921387
1789635263983997700,12.298997802734375,0.22750958800315857,0.1788453757762909,-0.8039239048957825
1789635263994037500,12.30903759765625,0.15259699523448944,0.11303520947694778,-0.864406168460846
1789635264004077600,12.31907763671875,0.16133509576320648,0.035540685057640076,-0.9147034287452698
1789635264014116600,12.32911669921875,0.096134252846241,0.05170820280909538,-0.9530316591262817
1789635264024156700,12.33915673828125,0.023919980973005295,0.29296422004699707,-0.9840630292892456
1789635264034196000,12.349196044921875,0.04348862171173096,0.42597687244415283,-0.934194803237915
1789635264044235000,12.359235107421876,0.11459395289421082,0.1985573023557663,-0.7807030081748962
1789635264054275000,12.369275146484375,0.1551874577999115,-0.09205003082752228,-0.6387128233909607
1789635264064315100,12.379315185546876,0.1529701054096222,-0.17797212302684784,-0.5637688040733337
1789635264074354000,12.38935400390625,0.13776053488254547,-0.08971311151981354,-0.5310215353965759
1789635264084394000,12.39939404296875,0.13237854838371277,-0.023356987163424492,-0.5210474729537964
1789635264094433000,12.40943310546875,0.13351917266845703,-0.014594389125704765,-0.5622923970222473
1789635264104472800,12.419472900390625,0.13012391328811646,-0.03033473528921604,-0.618959903717041
1789635264114513000,12.429512939453126,0.1118122860789299,-0.04960084334015846,-0.651913046836853
1789635264124552000,12.439552001953125,0.09329932183027267,-0.06261171400547028,-0.6918075084686279
1789635264134592000,12.449592041015626,0.09728340804576874,-0.15561676025390625,-0.7848226428031921
1789635264144631800,12.4596318359375,0.1113603487610817,-0.3047140836715698,-0.8687849044799805
