time,seconds_elapsed,z,y,x
1788862458319180800,0.064180908203125,-0.20420628786087036,0.05737287551164627,1.2464646100997925
1788862458329222700,0.07422265625,-0.07166729122400284,0.0032772552222013474,1.3025555610656738
1788862458339263700,0.084263671875,-0.0011102987919002771,0.15166059136390686,1.4295334815979004
1788862458349305600,0.0943056640625,-0.033315107226371765,0.20123666524887085,1.5535929203033447
1788862458359347500,0.104347412109375,-0.13364757597446442,0.1405474841594696,1.647698163986206
1788862458369389600,0.1143896484375,-0.25215426087379456,0.043733105063438416,1.6991456747055054
1788862458379431700,0.124431640625,-0.355421781539917,-0.1048198863863945,1.687135100364685
1788862458389473800,0.134473876953125,-0.41801881790161133,-0.28710076212882996,1.6557977199554443
1788862458399515600,0.144515625,-0.4584179222583771,-0.4914608299732208,1.680637001991272
1788862458409557500,0.1545576171875,-0.49403825402259827,-0.9458150863647461,1.662704348564148
1788862458419599600,0.164599609375,-0.5491616725921631,-1.637184500694275,1.5121427774429321
1788862458429640400,0.174640380859375,-0.6401931643486023,-2.093351125717163,1.3236931562423706
1788862458439682800,0.184682861328125,-0.6746792793273926,-2.096632480621338,1.0961670875549316
1788862458449725200,0.19472509765625,-0.59452223777771,-1.5548357963562012,0.6630346179008484
1788862458459767300,0.204767333984375,-0.38071808218955994,-1.3505492210388184,0.2756560146808624
1788862458469809400,0.214809326171875,-0.18851934373378754,-1.3135794401168823,-0.14015915989875793
1788862458479851300,0.224851318359375,-0.010917656123638153,-1.5445677042007446,-0.4749329090118408
1788862458489893000,0.23489306640625,0.1986856311559677,-1.9475271701812744,-0.6753283143043518
1788862458499935200,0.244935302734375,0.47825494408607483,-2.450542449951172,-0.7744943499565125
1788862458509976000,0.25497607421875,0.8020363450050354,-3.058940887451172,-0.77878737449646
1788862458520018400,0.265018310546875,1.206491470336914,-3.7235679626464844,-0.6238718032836914
1788862458530060300,0.275060302734375,1.6864036321640015,-4.50457763671875,-0.35589873790740967
1788862458540102100,0.28510205078125,2.1863269805908203,-5.040164947509766,-0.11077391356229782
1788862458550144300,0.295144287109375,2.540297031402588,-5.514236927032471,0.14241600036621094
1788862458560186000,0.30518603515625,2.3760037422180176,-5.572393417358398,0.44912534952163696
1788862458570228200,0.315228271484375,2.0464088916778564,-5.267395496368408,0.904639720916748
1788862458580270300,0.325270263671875,2.0705978870391846,-5.25246524810791,1.3763947486877441
1788862458590311200,0.335311279296875,2.27095365524292,-5.808078765869141,1.808581829071045
1788862458600353300,0.345353271484375,2.4897146224975586,-6.531413555145264,2.2213852405548096
1788862458610395100,0.35539501953125,2.7490248680114746,-7.180296897888184,2.507558584213257
1788862458620437200,0.365437255859375,3.0630106925964355,-7.539945602416992,2.5921778678894043
1788862458630479400,0.375479248046875,3.370724678039551,-7.524007320404053,2.50697660446167
1788862458640521200,0.385521240234375,3.554042100906372,-7.270402431488037,2.3683784008026123
1788862458650563300,0.395563232421875,3.6165401935577393,-6.865595817565918,2.2872209548950195
1788862458660605200,0.405605224609375,3.5239737033843994,-6.382542133331299,2.33807373046875
1788862458670647000,0.41564697265625,3.3194873332977295,-5.956239700317383,2.5246403217315674
1788862458680688000,0.425688232421875,3.1180918216705322,-5.5797295570373535,2.799858331680298
1788862458690730200,0.435730224609375,2.9894261360168457,-5.160953998565674,3.0891871452331543
1788862458700772400,0.4457724609375,2.9207968711853027,-4.673905372619629,3.3214516639709473
1788862458710814200,0.455814208984375,2.9292256832122803,-4.1501030921936035,3.515542507171631
1788862458720856000,0.46585595703125,2.874784231185913,-3.6904006004333496,3.6485166549682617
1788862458730898200,0.475898193359375,2.742114305496216,-3.3014681339263916,3.705810546875
1788862458740940300,0.485940185546875,2.67549467086792,-3.028587818145752,3.7558422088623047
1788862458750982400,0.495982421875,2.6226277351379395,-2.868468999862671,3.796940565109253
1788862458761023200,0.506023193359375,2.5246028900146484,-2.6369950771331787,3.805781126022339
1788862458771065300,0.5160654296875,2.343796730041504,-2.5213723182678223,3.7486395835876465
1788862458781107200,0.526107177734375,2.103855609893799,-2.5671629905700684,3.589116096496582
1788862458791149000,0.536149169921875,1.7646434307098389,-2.5641348361968994,3.3015360832214355
1788862458801191400,0.54619140625,1.2431581020355225,-2.4372951984405518,2.8392207622528076
1788862458811233300,0.5562333984375,1.381514072418213,-2.5921478271484375,2.2302427291870117
1788862458821275100,0.566275146484375,1.380914330482483,-3.5856478214263916,1.1031743288040161
1788862458831317200,0.576317138671875,1.690888524055481,-4.338070392608643,-0.17503105103969574
1788862458841359000,0.586359130859375,2.2704687118530273,-4.555187225341797,-1.2511875629425049
1788862458851401200,0.596401123046875,2.7522430419921875,-3.774444818496704,-1.49665105342865
1788862458861442300,0.6064423828125,3.1661970615386963,-2.4889683723449707,-0.8943870067596436
1788862458871484200,0.616484130859375,3.4695355892181396,-1.956310510635376,-0.19617794454097748
1788862458881526300,0.6265263671875,3.677544593811035,-2.2877197265625,0.1093422919511795
1788862458891568000,0.636568115234375,3.863877534866333,-1.9849207401275635,0.1339077651500702
1788862458901610200,0.6466103515625,3.996471405029297,-0.7655216455459595,-0.3260475993156433
1788862458911652400,0.65665234375,4.235379219055176,0.5454588532447815,-1.0787853002548218
1788862458921694200,0.666694091796875,4.199419975280762,1.7446837425231934,-1.5508995056152344
1788862458931736300,0.676736328125,3.968644857406616,2.191685676574707,-1.123725414276123
1788862458941778200,0.686778076171875,4.385773181915283,1.4718952178955078,-0.08240389823913574
1788862458951819300,0.6968193359375,4.321730136871338,-0.15625184774398804,1.3899997472763062
1788862458961861000,0.706861083984375,4.502936840057373,-0.998770534992218,2.3783202171325684
1788862458971903200,0.7169033203125,5.043282985687256,-2.427050828933716,2.384866952896118
1788862458981945300,0.7269453125,4.519203186035156,-2.3316996097564697,2.5800211429595947
1788862458991987200,0.7369873046875,3.628913640975952,-1.7221429347991943,2.06463885307312
1788862459002029000,0.747029052734375,2.9527294635772705,-1.0079447031021118,1.0515258312225342
1788862459012071200,0.7570712890625,2.375152826309204,-1.0512099266052246,0.42349618673324585
1788862459022113300,0.76711328125,2.2101516723632812,-0.9665930271148682,0.12399788945913315
1788862459032155400,0.7771552734375,1.8635046482086182,-0.3053375780582428,-0.12947843968868256
1788862459042197200,0.787197265625,1.4878966808319092,-0.14549173414707184,-0.128040611743927
1788862459052239000,0.797239013671875,1.0224910974502563,-0.46499794721603394,0.2742686867713928
1788862459062280200,0.8072802734375,0.31852754950523376,-0.7053402066230774,0.41770920157432556
1788862459072322000,0.817322021484375,0.26134389638900757,-0.9860826730728149,0.4368349611759186
1788862459082364400,0.827364501953125,0.05532895773649216,-1.5793644189834595,0.508132815361023
1788862459092406300,0.83740625,-0.12062306702136993,-2.278005838394165,0.3752090036869049
1788862459102448000,0.8474482421875,0.17247165739536285,-2.956336259841919,0.08412522822618484
1788862459112490200,0.857490234375,1.0747405290603638,-3.193498373031616,-0.2859427332878113
1788862459122532000,0.867531982421875,1.566437840461731,-1.6246079206466675,-0.5601931810379028
1788862459132574200,0.87757421875,1.7646747827529907,1.1617038249969482,-0.5763349533081055
1788862459142616300,0.8876162109375,1.669740080833435,1.790759801864624,-0.7723425626754761
1788862459152658200,0.897658203125,1.2421056032180786,1.1034290790557861,-0.8832976222038269
1788862459162700300,0.9077001953125,0.8383499383926392,0.013112003915011883,-0.29416781663894653
1788862459172741000,0.9177412109375,0.757401704788208,-0.49986743927001953,0.19382625818252563
1788862459182783200,0.927783203125,0.8681596517562866,-0.17218278348445892,0.01893140934407711
1788862459192825300,0.937825439453125,0.9743323922157288,0.009445014409720898,-0.17509396374225616
1788862459202867200,0.9478671875,0.8517505526542664,-0.09691924601793289,-0.12022778391838074
1788862459212909300,0.957909423828125,0.6356140375137329,-0.1193966194987297,-0.10414507240056992
1788862459222951200,0.967951171875,0.39093446731567383,-0.04594104737043381,-0.1721946895122528
1788862459232993000,0.977992919921875,0.11267128586769104,-0.06759777665138245,-0.14963562786579132
1788862459243035400,0.988035400390625,-0.03078894130885601,0.03830069303512573,-0.09221814572811127
1788862459253077200,0.9980771484375,-0.0492841899394989,0.22814853489398956,-0.1399199664592743
1788862459263119000,1.008119140625,0.019227223470807076,-0.024086114019155502,0.06926814466714859
1788862459273161200,1.0181611328125,0.23677922785282135,-0.4260202944278717,0.15337027609348297
1788862459283202000,1.0282021484375,0.5361630320549011,-0.6597023010253906,0.130746990442276
1788862459293244200,1.038244140625,0.7058218121528625,-0.49159297347068787,-0.019503319635987282
1788862459303286300,1.048286376953125,0.6141872406005859,-0.17633703351020813,-0.16301707923412323
1788862459313328400,1.058328369140625,0.4642428755760193,-0.20093268156051636,-0.2256329208612442
1788862459323370200,1.068370361328125,0.30840855836868286,-0.1091577559709549,-0.21775448322296143
1788862459333412000,1.078412109375,0.10603947192430496,0.04137370362877846,-0.23729318380355835
1788862459343454200,1.0884541015625,0.08301032334566116,0.2364015132188797,-0.15554478764533997
1788862459353496300,1.098496337890625,-0.002809009747579694,0.5155611634254456,-0.2541031241416931
1788862459363538200,1.1085380859375,-0.14217889308929443,0.4783927798271179,-0.285794198513031
1788862459373580300,1.118580322265625,-0.19473306834697723,0.2526278793811798,-0.2675378918647766
1788862459383622100,1.1286220703125,-0.1856948286294937,0.10371378064155579,-0.18193216621875763
1788862459393664000,1.1386640625,-0.14913851022720337,0.02945386990904808,-0.06228577345609665
1788862459403705300,1.148705322265625,-0.1084829643368721,-0.027226988226175308,-0.0024176458828151226
1788862459413747200,1.158747314453125,-0.13035312294960022,-0.3168737590312958,-0.006844196002930403
1788862459423789300,1.168789306640625,-0.18681080639362335,-0.5343514680862427,-0.07391084730625153
1788862459433831200,1.1788310546875,-0.30486616492271423,-0.2615295946598053,-0.22980830073356628
1788862459443873300,1.188873291015625,-0.5095314383506775,0.11006820201873779,-0.41364336013793945
1788862459453915400,1.198915283203125,-0.505387544631958,-0.012039373628795147,-0.49314218759536743
1788862459463957200,1.208957275390625,-0.7511419057846069,1.0701813697814941,-0.6062335968017578
1788862459473999400,1.218999267578125,-0.716996967792511,0.9101417064666748,-0.6998580098152161
1788862459484041200,1.229041259765625,-0.57353276014328,0.8128460049629211,-0.9571883678436279
1788862459494083000,1.2390830078125,-0.5813798904418945,1.1070587635040283,-1.1404328346252441
1788862459504125400,1.24912548828125,-0.44287264347076416,0.9954044818878174,-1.2631721496582031
1788862459514167300,1.259167236328125,-0.2485094964504242,0.8027988076210022,-1.2043436765670776
1788862459524209200,1.269209228515625,-0.2282271385192871,0.5886796116828918,-1.1703405380249023
1788862459534251300,1.279251220703125,-0.2360907793045044,0.6908029317855835,-1.0521738529205322
1788862459544292000,1.2892919921875,-0.12833422422409058,0.8142037391662598,-0.9753326177597046
1788862459554334200,1.299334228515625,-0.008363613858819008,0.5838125944137573,-0.8810238242149353
1788862459564376300,1.309376220703125,-0.07350613176822662,0.3951851427555084,-0.8871716856956482
1788862459574418400,1.31941845703125,-0.19549955427646637,-0.14297543466091156,-0.9991257190704346
1788862459584460300,1.329460205078125,-0.1071380078792572,-0.447961688041687,-0.9960026741027832
1788862459594502100,1.339502197265625,0.1670670211315155,-0.8459987640380859,-0.8487489223480225
1788862459604544300,1.349544189453125,0.35627874732017517,-1.3530960083007812,-1.454684853553772
1788862459614586400,1.35958642578125,0.41205453872680664,-2.044834852218628,-1.9257277250289917
1788862459624628200,1.369628173828125,0.04353456199169159,-2.3872950077056885,-2.3380348682403564
1788862459634670300,1.37967041015625,-0.2813661992549896,-3.5011491775512695,-1.8049147129058838
1788862459644712200,1.389712158203125,-0.9711616635322571,-3.05265212059021,-1.5304855108261108
1788862459654754300,1.39975439453125,-1.1101608276367188,-1.5713344812393188,-0.8068237900733948
1788862459664796400,1.40979638671875,-0.6627433896064758,-1.3187973499298096,-0.6536171436309814
1788862459674838300,1.41983837890625,0.07700885087251663,-2.516895055770874,-0.9382023215293884
1788862459684880400,1.42988037109375,1.3927088975906372,-4.505164623260498,-1.08737051486969
1788862459694922200,1.439922119140625,1.2115007638931274,-4.621774673461914,-0.46687033772468567
1788862459704963300,1.44996337890625,0.4698556363582611,-2.841493844985962,-0.10654463618993759
1788862459715005400,1.46000537109375,0.11976984888315201,-2.2788474559783936,-0.05227777361869812
1788862459725047300,1.47004736328125,-0.2914549708366394,-2.4820473194122314,-0.12469445168972015
1788862459735089400,1.48008935546875,-0.6500802040100098,-2.5744872093200684,-0.32666516304016113
1788862459745131300,1.49013134765625,-0.9929760694503784,-2.4503231048583984,-0.31055036187171936
1788862459755173000,1.500173095703125,-1.4179983139038086,-2.2652156352996826,-0.18417255580425262
1788862459765215500,1.510215576171875,-1.6353013515472412,-1.9707045555114746,-0.10491956025362015
1788862459775257300,1.52025732421875,-1.442582368850708,-1.7013760805130005,-0.15801531076431274
1788862459785299200,1.53029931640625,-0.9215466976165771,-1.5546987056732178,-0.15061545372009277
1788862459795341300,1.54034130859375,-0.5671672821044922,-1.2460922002792358,-0.17490553855895996
1788862459805383200,1.550383056640625,-0.5257197022438049,-0.9502236843109131,-0.17438355088233948
1788862459815425300,1.56042529296875,-0.5595571994781494,-0.8587772846221924,-0.19885696470737457
1788862459825467400,1.57046728515625,-0.4910641312599182,-0.8262361288070679,-0.2666506767272949
1788862459835509200,1.58050927734375,-0.29860973358154297,-0.7129500508308411,-0.29995495080947876
1788862459845551400,1.59055126953125,-0.08830336481332779,-0.6239504218101501,-0.2997565269470215
1788862459855593200,1.60059326171875,0.04909691587090492,-0.7215341925621033,-0.3112705647945404
1788862459865635300,1.61063525390625,0.17563489079475403,-0.8398906588554382,-0.35882261395454407
1788862459875677400,1.620677490234375,0.3184571862220764,-0.9562769532203674,-0.3957288861274719
1788862459885719300,1.63071923828125,0.5248705744743347,-0.9344313144683838,-0.41121914982795715
1788862459895761200,1.64076123046875,0.6987081170082092,-0.8430870771408081,-0.4326947033405304
1788862459905802200,1.65080224609375,0.9680429100990295,-0.7601082921028137,-0.4304877519607544
1788862459915844000,1.660843994140625,1.1767498254776,-0.8082351088523865,-0.4420163333415985
1788862459925886500,1.670886474609375,1.1966575384140015,-0.8959127068519592,-0.4300038814544678
1788862459935928300,1.68092822265625,1.1439988613128662,-0.826735258102417,-0.16987331211566925
1788862459945970200,1.69097021484375,1.1591178178787231,-0.5796450972557068,-0.21991756558418274
1788862459956012300,1.70101220703125,1.1500731706619263,-0.6052824854850769,-0.3876807689666748
1788862459966054100,1.71105419921875,1.0094484090805054,-1.0146570205688477,-0.0823616161942482
1788862459976096500,1.721096435546875,0.7409066557884216,-1.2659413814544678,0.06948097795248032
1788862459986138400,1.731138427734375,0.371955543756485,-1.7274060249328613,0.12371759116649628
1788862459996180200,1.74118017578125,0.22338469326496124,-1.4573827981948853,0.15577952563762665
1788862460006222300,1.751222412109375,0.4649145007133484,-1.1094075441360474,0.1843552440404892
1788862460016264200,1.76126416015625,0.47230765223503113,-0.5636011958122253,0.1758105605840683
1788862460026306300,1.771306396484375,0.2900739312171936,-0.3618648946285248,0.13072191178798676
1788862460036348400,1.781348388671875,0.2771941125392914,0.04669759050011635,0.1714562624692917
1788862460046390300,1.791390380859375,0.42694446444511414,0.09266508370637894,0.1578613519668579
1788862460056432000,1.80143212890625,0.36404162645339966,-0.09181371331214905,0.14556065201759338
1788862460066474200,1.81147412109375,0.13417194783687592,-0.32475483417510986,0.13083656132221222
1788862460076516400,1.821516357421875,-0.010709144175052643,-0.23326866328716278,0.163488507270813
1788862460086558500,1.831558349609375,-0.1642259955406189,0.4987592101097107,0.27421820163726807
1788862460096600300,1.841600341796875,-0.47287991642951965,1.0302480459213257,0.38064372539520264
1788862460106642200,1.85164208984375,-0.8001986742019653,1.1809922456741333,0.3708648681640625
1788862460116684300,1.861684326171875,-0.9859804511070251,0.803832471370697,0.2757938802242279
1788862460126726400,1.871726318359375,-1.2261359691619873,0.3226730525493622,0.1882704496383667
1788862460136768300,1.881768310546875,-1.5554760694503784,-0.24933315813541412,0.1873580664396286
1788862460146810400,1.891810302734375,-1.905502438545227,-1.1618751287460327,0.08237359672784805
1788862460156852200,1.901852294921875,-2.208916425704956,-2.159572124481201,-0.013267358765006065
1788862460166894000,1.91189404296875,-2.166783094406128,-2.8473448753356934,0.006205674260854721
1788862460176936400,1.9219365234375,-1.9784084558486938,-3.1960530281066895,0.0985688865184784
1788862460186978300,1.931978271484375,-1.8444347381591797,-3.053262710571289,0.22237978875637054
1788862460197020400,1.9420205078125,-1.906868815422058,-2.7639176845550537,0.25300756096839905
1788862460207062300,1.952062255859375,-2.1587791442871094,-2.360428810119629,0.03938930481672287
1788862460217104100,1.962104248046875,-2.0882067680358887,-1.8161863088607788,-0.21092912554740906
1788862460227146500,1.972146484375,-1.711551547050476,-1.1633100509643555,-0.23891228437423706
1788862460237188400,1.982188232421875,-1.1234501600265503,-0.6327522993087769,-0.13413777947425842
1788862460247230200,1.992230224609375,-0.5627023577690125,-0.34627336263656616,0.01569591462612152
1788862460257272300,2.002272216796875,-0.056370534002780914,-0.13106735050678253,0.09712956100702286
1788862460267314200,2.012314208984375,0.18785704672336578,-0.13273902237415314,0.09284506738185883
1788862460277356300,2.022356201171875,0.4100459814071655,-0.11298389732837677,-0.012106345035135746
1788862460287398400,2.0323984375,0.5991645455360413,-0.23503416776657104,-0.04299502074718475
1788862460297440300,2.042440185546875,0.5571888089179993,-0.16964022815227509,-0.06834739446640015
1788862460307482400,2.052482421875,0.5242359042167664,-0.06597456336021423,-0.08299665153026581
1788862460317524200,2.062524169921875,0.5465381145477295,0.1348576545715332,-0.1459929645061493
1788862460327566300,2.07256640625,0.5473077893257141,0.3491038680076599,-0.21760989725589752
1788862460337608400,2.0826083984375,0.595535159111023,0.452920526266098,-0.29524722695350647
1788862460347650300,2.092650390625,0.5413649082183838,0.4296908378601074,-0.3497927486896515
1788862460357692200,2.102692138671875,0.5251385569572449,0.2218327671289444,-0.30748650431632996
1788862460367734300,2.112734375,0.5530378222465515,-0.047847989946603775,-0.2551841735839844
1788862460377776400,2.1227763671875,0.5854406356811523,-0.18629465997219086,-0.21665377914905548
1788862460387818200,2.132818359375,0.5569325685501099,-0.27126041054725647,-0.19097371399402618
1788862460397860400,2.1428603515625,0.48092809319496155,-0.33706122636795044,-0.16952252388000488
1788862460407902200,2.152902099609375,0.4005994498729706,-0.31501638889312744,-0.20046153664588928
1788862460417944300,2.1629443359375,0.3723755180835724,-0.25636667013168335,-0.2234915941953659
1788862460427986400,2.172986328125,0.3818955421447754,-0.2284327745437622,-0.19859662652015686
1788862460438028300,2.1830283203125,0.4046902060508728,-0.23604923486709595,-0.14055569469928741
1788862460448070100,2.193070068359375,0.4072346091270447,-0.2845829427242279,-0.09778799116611481
1788862460458112000,2.203112060546875,0.3781850337982178,-0.2767499089241028,-0.11902480572462082
1788862460468154000,2.213154052734375,0.38561177253723145,-0.3032776713371277,-0.16290809214115143
1788862460478196200,2.2231962890625,0.3962199091911316,-0.3952299654483795,-0.16480225324630737
1788862460488238000,2.233238037109375,0.3971978425979614,-0.38395652174949646,-0.16146185994148254
1788862460498280000,2.243280029296875,0.37880373001098633,-0.22806619107723236,-0.21704958379268646
1788862460508322000,2.253322021484375,0.3739791512489319,-0.12501490116119385,-0.23713301122188568
1788862460518364200,2.2633642578125,0.4028272330760956,-0.04948081821203232,-0.2267756164073944
1788862460528406000,2.273406005859375,0.4440167248249054,0.144566148519516,-0.21597276628017426
1788862460538448100,2.2834482421875,0.47762933373451233,0.4408540725708008,-0.2198498547077179
1788862460548490000,2.293489990234375,0.480601966381073,0.7415987253189087,-0.2309858649969101
1788862460558532000,2.303531982421875,0.44163137674331665,0.970587432384491,-0.21591846644878387
1788862460568574200,2.31357421875,0.35862836241722107,1.1132075786590576,-0.2228354960680008
1788862460578616000,2.323615966796875,0.35063397884368896,1.2846227884292603,-0.1928076595067978
1788862460588658200,2.333658203125,0.15157388150691986,1.5560574531555176,-0.15528851747512817
1788862460598700000,2.343699951171875,0.021345229819417,1.800592064857483,-0.059715792536735535
1788862460608742000,2.353741943359375,-0.08623795211315155,1.907436490058899,0.04724287986755371
1788862460618784300,2.3637841796875,0.1843944787979126,1.1462188959121704,0.09420232474803925
1788862460628826000,2.373826171875,0.26320594549179077,-0.0573938712477684,0.17574191093444824
1788862460638868000,2.383867919921875,0.13145212829113007,-1.095007300376892,0.23631972074508667
1788862460648910000,2.39391015625,-0.08474967628717422,-2.115619659423828,0.2253243327140808
1788862460658952000,2.403951904296875,-0.22641518712043762,-2.2649142742156982,0.21165533363819122
1788862460668994300,2.413994384765625,-0.10516145080327988,-1.5867830514907837,0.13673661649227142
1788862460679036200,2.4240361328125,0.02853165566921234,-1.2762153148651123,0.03312922641634941
1788862460689078000,2.434078125,-0.02858063392341137,-1.537236213684082,0.18142202496528625
1788862460699120000,2.4441201171875,-0.03531628102064133,-1.5068724155426025,0.3341628313064575
1788862460709162000,2.454161865234375,0.05462772399187088,-0.8250348567962646,0.30720818042755127
1788862460719204000,2.4642041015625,0.10703803598880768,0.03450823575258255,0.1642703264951706
1788862460729246200,2.47424609375,0.00154409883543849,0.20088255405426025,0.0784696638584137
1788862460739288000,2.4842880859375,0.053105082362890244,0.07160957902669907,0.025059077888727188
1788862460749330000,2.494329833984375,0.060270316898822784,0.03529950976371765,-0.08189346641302109
1788862460759372000,2.5043720703125,-0.035052359104156494,-0.06601367890834808,-0.14436034858226776
1788862460769414100,2.5144140625,-0.2046762853860855,-0.13008320331573486,-0.06893535703420639
1788862460779456300,2.524456298828125,-0.27882546186447144,-0.14936169981956482,-0.014620800502598286
1788862460789498000,2.534498046875,-0.20323988795280457,-0.08002176880836487,0.06626499444246292
1788862460799540000,2.5445400390625,-0.1838604360818863,0.020631253719329834,0.1292053908109665
1788862460809582300,2.554582275390625,-0.14115291833877563,0.08856876194477081,0.13210557401180267
1788862460819624200,2.564624267578125,-0.12060145288705826,0.1139187142252922,0.09532179683446884
1788862460829666000,2.574666015625,-0.10956025123596191,0.08884692192077637,0.03881644457578659
1788862460839708200,2.584708251953125,-0.08034460246562958,0.06930409371852875,-0.0382591150701046
1788862460849750000,2.59475,-0.061726443469524384,0.042613886296749115,-0.13212302327156067
1788862460859792100,2.604792236328125,-0.04433726146817207,-0.004703766666352749,-0.20014521479606628
1788862460869834200,2.614834228515625,-0.0027520006988197565,-0.06798925995826721,-0.20529496669769287
1788862460879876000,2.6248759765625,0.04110207408666611,-0.12059220671653748,-0.17319731414318085
1788862460889918200,2.634918212890625,0.08166388422250748,-0.18163637816905975,-0.16206662356853485
1788862460899961300,2.64496142578125,0.12215030938386917,-0.25566932559013367,-0.1883544921875
1788862460910003200,2.655003173828125,0.16893112659454346,-0.35516396164894104,-0.2692384123802185
1788862460920045000,2.665045166015625,0.21457122266292572,-0.45462462306022644,-0.318537175655365
1788862460930087200,2.675087158203125,0.21151497960090637,-0.47280973196029663,-0.29465311765670776
1788862460940129000,2.68512890625,0.1521952599287033,-0.3973240256309509,-0.2366144210100174
1788862460950171100,2.695171142578125,0.065808966755867,-0.2754457890987396,-0.18246063590049744
1788862460960213200,2.705213134765625,0.008385910652577877,-0.15924908220767975,-0.18709656596183777
1788862460970255000,2.715255126953125,0.006295328959822655,-0.14300459623336792,-0.24546292424201965
1788862460980297200,2.725297119140625,0.04126998782157898,-0.2263467162847519,-0.25583988428115845
1788862460990339000,2.735339111328125,0.05924099683761597,-0.22876858711242676,-0.19199486076831818
1788862461000381200,2.745381103515625,0.0653931125998497,-0.1136162281036377,-0.09763088822364807
1788862461010423300,2.75542333984375,0.07586626708507538,-0.007993399165570736,0.004061387851834297
1788862461020465200,2.765465087890625,0.07131866365671158,0.10907094925642014,0.052820537239313126
1788862461030507000,2.775507080078125,0.04708017036318779,0.14312398433685303,0.10239741206169128
1788862461040549000,2.785549072265625,0.039854373782873154,0.07099135965108871,0.22798572480678558
1788862461050591200,2.79559130859375,0.01179157942533493,-0.06448337435722351,0.3347933888435364
1788862461060633000,2.805633056640625,-0.10867656022310257,-0.20251880586147308,0.37324193120002747
1788862461070675200,2.81567529296875,-0.30899208784103394,-0.21228861808776855,0.40486961603164673
1788862461080717000,2.825717041015625,-0.49753379821777344,-0.06763982772827148,0.4172157347202301
1788862461090759000,2.835759033203125,-0.6300228834152222,-0.01971597969532013,0.39890411496162415
1788862461100801300,2.84580126953125,-0.7505420446395874,-0.21647639572620392,0.44738179445266724
1788862461110843100,2.855843017578125,-0.8364172577857971,-0.6042187809944153,0.49911633133888245
1788862461120885200,2.86588525390625,-0.8664990067481995,-0.8746000528335571,0.537085771560669
1788862461130928000,2.87592822265625,-0.7976602911949158,-0.7475744485855103,0.5625477433204651
1788862461140970200,2.88597021484375,-0.6096222400665283,-0.241902157664299,0.4700096547603607
1788862461151012000,2.89601220703125,-0.4714643359184265,-0.03451620787382126,0.35276344418525696
1788862461161054200,2.90605419921875,-0.39803335070610046,-0.1221475675702095,0.2689930200576782
1788862461171096000,2.916095947265625,-0.3407684564590454,-0.22269095480442047,0.2718122601509094
1788862461181138000,2.926137939453125,-0.275577187538147,-0.29336458444595337,0.3131120204925537
1788862461191180300,2.93618017578125,-0.15489447116851807,-0.2497020661830902,0.31285661458969116
1788862461201222100,2.94622216796875,0.021898681297898293,-0.04049238935112953,0.2898072302341461
1788862461211264300,2.95626416015625,0.15002867579460144,0.10406825691461563,0.2756189703941345
1788862461221306000,2.96630615234375,0.16657602787017822,0.15180496871471405,0.2849698066711426
1788862461231348000,2.976347900390625,0.10369666665792465,0.056559138000011444,0.3152241110801697
1788862461241390300,2.986390380859375,0.04779934883117676,-0.06553372740745544,0.35797762870788574
1788862461251432200,2.99643212890625,0.06054576858878136,-0.1885475218296051,0.3677580952644348
1788862461261474000,3.00647412109375,0.16016055643558502,-0.21541905403137207,0.2981620132923126
1788862461271516200,3.01651611328125,0.28318846225738525,-0.1325521320104599,0.24939368665218353
1788862461281558000,3.02655810546875,0.3628413677215576,-0.026759210973978043,0.23365235328674316
1788862461291600100,3.03660009765625,0.3826366662979126,0.07867426425218582,0.23335540294647217
1788862461301642200,3.046642333984375,0.38270169496536255,0.155406653881073,0.27070513367652893
1788862461311685000,3.05668505859375,0.3743779957294464,0.2220195084810257,0.31580179929733276
1788862461321727000,3.06672705078125,0.3419979512691498,0.2360580861568451,0.33475542068481445
1788862461331769300,3.076769287109375,0.28262704610824585,0.17222051322460175,0.3409222364425659
1788862461341811200,3.086811279296875,0.20992547273635864,0.002673341892659664,0.4053349196910858
1788862461351853000,3.09685302734375,0.1021990031003952,-0.1258111298084259,0.5745433568954468
1788862461361895200,3.106895263671875,-0.05025959014892578,-0.09286975115537643,0.7654020190238953
1788862461371937000,3.11693701171875,-0.21062342822551727,0.04543512687087059,0.8995007276535034
1788862461381979100,3.126979248046875,-0.31602880358695984,0.14495790004730225,0.9546151757240295
1788862461392021200,3.137021240234375,-0.3718965947628021,0.1556108146905899,0.9059230089187622
1788862461402063000,3.14706298828125,-0.40569671988487244,0.157115638256073,0.8096676468849182
1788862461412105000,3.15710498046875,-0.4273386597633362,0.19150663912296295,0.762389063835144
1788862461422147000,3.16714697265625,-0.4336591064929962,0.23493410646915436,0.7774829268455505
1788862461432189200,3.177189208984375,-0.45764485001564026,0.2700337767601013,0.8106286525726318
1788862461442231300,3.187231201171875,-0.4991435408592224,0.2963130474090576,0.8358274698257446
1788862461452273400,3.1972734375,-0.5416679382324219,0.3539336025714874,0.8367778658866882
1788862461462315300,3.207315185546875,-0.5666470527648926,0.4241798222064972,0.8057204484939575
1788862461472357400,3.217357421875,-0.5584987998008728,0.46782156825065613,0.7098439335823059
1788862461482399500,3.2273994140625,-0.533064067363739,0.4173022210597992,0.5797619819641113
1788862461492441300,3.23744140625,-0.5192180275917053,0.4031033217906952,0.5157736539840698
1788862461502483500,3.2474833984375,-0.5167140960693359,0.5411480665206909,0.5588578581809998
1788862461512525300,3.257525390625,-0.5214979648590088,0.7578006982803345,0.6700823307037354
1788862461522567200,3.267567138671875,-0.5286945104598999,0.9673095345497131,0.7652695178985596
1788862461532609500,3.277609619140625,-0.5322495102882385,1.1319204568862915,0.7629334330558777
1788862461542651400,3.2876513671875,-0.5044674873352051,1.1474483013153076,0.641287088394165
1788862461552693200,3.297693359375,-0.4567386209964752,0.9832463264465332,0.4965885281562805
1788862461562735400,3.3077353515625,-0.437225341796875,0.7822163105010986,0.41935694217681885
1788862461572777200,3.317777099609375,-0.4404331147670746,0.6606073379516602,0.41726234555244446
1788862461582819600,3.327819580078125,-0.4449489116668701,0.6240811944007874,0.47652125358581543
1788862461592862500,3.337862548828125,-0.44463279843330383,0.6509578227996826,0.5418397784233093
1788862461602904300,3.347904296875,-0.4503784477710724,0.754825234413147,0.5858081579208374
1788862461612946200,3.3579462890625,-0.46289876103401184,0.8819112777709961,0.6130275130271912
1788862461622988500,3.367988525390625,-0.4943268895149231,0.8914862275123596,0.5784325003623962
1788862461633030400,3.378030517578125,-0.504330039024353,0.7534143924713135,0.4891923666000366
1788862461643072300,3.388072265625,-0.4891928434371948,0.5675672888755798,0.4082576632499695
1788862461653114400,3.3981142578125,-0.4545997083187103,0.4836670458316803,0.38942328095436096
1788862461663156200,3.40815625,-0.38028618693351746,0.5502163767814636,0.4508123993873596
1788862461673198300,3.4181982421875,-0.2919672429561615,0.6532272100448608,0.5141610503196716
1788862461683240400,3.428240478515625,-0.19223716855049133,0.6765943169593811,0.5259599685668945
1788862461693282300,3.4382822265625,-0.1101183220744133,0.6301450729370117,0.5054690837860107
1788862461703324400,3.448324462890625,-0.09270215779542923,0.5523527264595032,0.5107653141021729
1788862461713366300,3.4583662109375,-0.12900637090206146,0.4971911609172821,0.5594226121902466
1788862461723409400,3.468409423828125,-0.1853727400302887,0.454571008682251,0.6200562119483948
1788862461733451300,3.478451171875,-0.16705232858657837,0.3353559374809265,0.621751606464386
1788862461743493400,3.488493408203125,-0.03181691840291023,0.16665996611118317,0.5502480268478394
1788862461753535200,3.49853515625,0.12429012358188629,0.1880326271057129,0.552439272403717
1788862461763577300,3.508577392578125,0.20696502923965454,0.4113788902759552,0.6411014795303345
1788862461773619500,3.518619384765625,0.21438486874103546,0.5531056523323059,0.7203670144081116
1788862461783661300,3.528661376953125,0.17698562145233154,0.52034991979599,0.7641785144805908
1788862461793703400,3.538703369140625,0.1442471295595169,0.37649819254875183,0.7613968253135681
1788862461803745300,3.548745361328125,0.14481529593467712,0.21372435986995697,0.6933009028434753
1788862461813787400,3.558787353515625,0.17721663415431976,0.09679108113050461,0.5626105070114136
1788862461823829500,3.56882958984375,0.2099030762910843,0.11142448335886002,0.4546748101711273
1788862461833872400,3.578872314453125,0.2095177173614502,0.22701925039291382,0.42867597937583923
1788862461843914200,3.588914306640625,0.167522594332695,0.31665512919425964,0.4684010148048401
1788862461853956400,3.598956298828125,0.09401269257068634,0.36276695132255554,0.568903923034668
1788862461863998500,3.60899853515625,0.020427992567420006,0.40195220708847046,0.7016323208808899
1788862461874040300,3.619040283203125,0.0038732513785362244,0.35749632120132446,0.7679301500320435
1788862461884082400,3.62908251953125,0.04527777060866356,0.21541497111320496,0.7194642424583435
1788862461894124300,3.639124267578125,0.10402950644493103,0.02366498112678528,0.6025911569595337
1788862461904166400,3.64916650390625,0.14087045192718506,-0.10982643067836761,0.4792245328426361
1788862461914208500,3.65920849609375,0.1438145935535431,-0.14553649723529816,0.42327311635017395
1788862461924250400,3.66925048828125,0.10713126510381699,-0.05383014306426048,0.43774083256721497
1788862461934292200,3.679292236328125,0.0523415170609951,0.12452761828899384,0.5184136033058167
1788862461944335400,3.68933544921875,0.001830962602980435,0.2627209722995758,0.6242096424102783
1788862461954377500,3.69937744140625,-0.023227786645293236,0.29593324661254883,0.7084318399429321
1788862461964419300,3.70941943359375,-0.0375140905380249,0.21669374406337738,0.7514488697052002
1788862461974461400,3.71946142578125,-0.051303938031196594,0.1262352168560028,0.7534965872764587
1788862461984503300,3.72950341796875,-0.046977877616882324,0.06780601292848587,0.7518095374107361
1788862461994545400,3.73954541015625,-0.02331116609275341,0.002440052106976509,0.7487264275550842
1788862462004587500,3.74958740234375,0.00977457594126463,-0.044934678822755814,0.7311525940895081
1788862462014629400,3.75962939453125,0.04253971204161644,0.018482644110918045,0.7240866422653198
1788862462024671200,3.769671142578125,0.09271637350320816,0.14438733458518982,0.6985990405082703
1788862462034713300,3.77971337890625,0.15071548521518707,0.20842278003692627,0.6277446150779724
1788862462044755500,3.78975537109375,0.20490247011184692,0.15927034616470337,0.5273317098617554
1788862462054798300,3.79979833984375,0.20554295182228088,0.04384788125753403,0.42704853415489197
1788862462064840200,3.809840087890625,0.16600042581558228,-0.03557498753070831,0.3512740135192871
1788862462074882300,3.81988232421875,0.09218984097242355,-0.03602692484855652,0.32257312536239624
1788862462084924400,3.82992431640625,0.01786634512245655,0.006556754931807518,0.30345746874809265
1788862462094966500,3.839966552734375,-0.025421207770705223,0.04364020749926567,0.26057979464530945
1788862462105008400,3.85000830078125,-0.023967675864696503,0.04051044583320618,0.1690303385257721
1788862462115050200,3.86005029296875,0.0026346410159021616,-0.0035366378724575043,0.06328899413347244
1788862462125092400,3.87009228515625,0.07866639643907547,-0.05779198557138443,-0.013155954889953136
1788862462135134500,3.880134521484375,0.12917138636112213,-0.05971825122833252,-0.0605572909116745
1788862462145176300,3.89017626953125,0.14191657304763794,-0.06421493738889694,-0.11859773844480515
1788862462155219200,3.90021923828125,0.10819296538829803,-0.058765046298503876,-0.15891133248806
1788862462165261300,3.91026123046875,0.03814197704195976,-0.037751104682683945,-0.145704984664917
1788862462175303400,3.920303466796875,-0.03470533341169357,-0.06660565733909607,-0.09727726876735687
1788862462185345500,3.930345458984375,-0.10740406066179276,-0.17198529839515686,-0.0494416318833828
1788862462195387400,3.940387451171875,-0.13739417493343353,-0.18099583685398102,-0.03930670768022537
1788862462205429200,3.95042919921875,-0.1262010782957077,-0.06932511925697327,-0.08136308938264847
1788862462215471400,3.960471435546875,-0.11293347924947739,0.009438665583729744,-0.12177229672670364
1788862462225513500,3.970513427734375,-0.09509242326021194,0.09374284744262695,-0.09931522607803345
1788862462235555300,3.980555419921875,-0.08571570366621017,0.22192318737506866,0.012417690828442574
1788862462245598200,3.99059814453125,-0.054896581918001175,0.2832733690738678,0.11730347573757172
1788862462255640300,4.000640380859375,-0.021389488130807877,0.24382798373699188,0.15220792591571808
1788862462265682400,4.010682373046875,0.0036900523118674755,0.0940435528755188,0.10709673911333084
1788862462275724300,4.020724365234375,-0.005296252202242613,-0.12153267860412598,0.006945904344320297
1788862462285766400,4.030766357421875,-0.04995035380125046,-0.22938014566898346,-0.11527470499277115
1788862462295808300,4.040808349609375,-0.09023386240005493,-0.16025061905384064,-0.21410807967185974
1788862462305850400,4.050850341796875,-0.10634098947048187,-0.04720345884561539,-0.3002783954143524
1788862462315892500,4.060892578125,-0.08344899117946625,-0.020597681403160095,-0.37345460057258606
1788862462325934300,4.070934326171875,-0.02544495090842247,-0.08265906572341919,-0.41623154282569885
1788862462335976400,4.0809765625,0.017798926681280136,-0.1791112869977951,-0.4550575017929077
1788862462346019300,4.091019287109375,0.020551078021526337,-0.1995086967945099,-0.5136865377426147
1788862462356061400,4.1010615234375,-0.025901908054947853,-0.1728038489818573,-0.5484219193458557
1788862462366103300,4.111103271484375,-0.08584685623645782,-0.13057714700698853,-0.5572516918182373
1788862462376145400,4.1211455078125,-0.12329568713903427,-0.1344754844903946,-0.5698775053024292
1788862462386187300,4.131187255859375,-0.17887628078460693,-0.22468110918998718,-0.6381005644798279
1788862462396229400,4.1412294921875,-0.2535414397716522,-0.308382123708725,-0.7256858348846436
1788862462406271500,4.151271484375,-0.31642842292785645,-0.29823678731918335,-0.805594801902771
1788862462416313300,4.161313232421875,-0.32830771803855896,-0.17281895875930786,-0.8515694737434387
1788862462426356200,4.171356201171875,-0.24949516355991364,0.03475992754101753,-0.8451116681098938
1788862462436398300,4.1813984375,-0.16992712020874023,0.25824466347694397,-0.767921507358551
1788862462446440700,4.191440673828125,-0.11611378192901611,0.4336850941181183,-0.6331759691238403
1788862462456482600,4.201482666015625,-0.06761123239994049,0.5275380611419678,-0.4807587265968323
1788862462466524700,4.211524658203125,-0.02418369986116886,0.5776874423027039,-0.33841168880462646
1788862462476566500,4.22156640625,-0.01108440849930048,0.609653890132904,-0.23334385454654694
1788862462486608600,4.231608642578125,0.0007843999192118645,0.6064071655273438,-0.17788004875183105
1788862462496650800,4.241650634765625,0.013955328613519669,0.5518887639045715,-0.18376217782497406
1788862462506692600,4.251692626953125,0.02451719529926777,0.471219003200531,-0.23506774008274078
1788862462516735500,4.261735595703125,0.036341097205877304,0.3540968894958496,-0.29234778881073
1788862462526777900,4.27177783203125,0.1128237247467041,0.29210609197616577,-0.33261293172836304
1788862462536819700,4.28181982421875,0.17350012063980103,0.3503968119621277,-0.37434226274490356
1788862462546861600,4.291861572265625,0.21091043949127197,0.4498726725578308,-0.3964502513408661
1788862462556903700,4.301903564453125,0.2507156431674957,0.5422641038894653,-0.3903236389160156
1788862462566945500,4.311945556640625,0.2913987636566162,0.6117996573448181,-0.3600870966911316
1788862462576987600,4.321987548828125,0.34275755286216736,0.6670860648155212,-0.33892855048179626
1788862462587029800,4.33202978515625,0.3903639018535614,0.6940228343009949,-0.34476134181022644
1788862462597071600,4.342071533203125,0.43186527490615845,0.7070528864860535,-0.375201553106308
1788862462607114500,4.352114501953125,0.4589216709136963,0.7111006379127502,-0.4341467618942261
1788862462617156900,4.362156982421875,0.47359198331832886,0.7162775993347168,-0.5185926556587219
1788862462627198700,4.37219873046875,0.4948229193687439,0.6989143490791321,-0.6199856400489807
1788862462637240600,4.382240478515625,0.5199620723724365,0.6584063172340393,-0.6954033970832825
1788862462647282700,4.39228271484375,0.5367428660392761,0.6269376873970032,-0.7341625094413757
1788862462657324500,4.402324462890625,0.5617204308509827,0.5756007432937622,-0.7286942601203918
1788862462667366700,4.41236669921875,0.5935630798339844,0.45858821272850037,-0.6905505061149597
1788862462677408800,4.42240869140625,0.6275303959846497,0.3077276051044464,-0.599521815776825
1788862462687451600,4.43245166015625,0.6595314145088196,0.17418038845062256,-0.47409194707870483
1788862462697493500,4.442493408203125,0.6692788600921631,0.10822080820798874,-0.3300554156303406
1788862462707535600,4.45253564453125,0.6447827219963074,0.13735255599021912,-0.21504390239715576
1788862462717577700,4.46257763671875,0.5800902843475342,0.20810848474502563,-0.15316376090049744
1788862462727619600,4.47261962890625,0.5130317807197571,0.27210545539855957,-0.15699666738510132
1788862462737661700,4.48266162109375,0.44355738162994385,0.30478349328041077,-0.20637352764606476
1788862462747703600,4.49270361328125,0.3957486152648926,0.28006014227867126,-0.29224470257759094
1788862462757745700,4.50274560546875,0.3600127398967743,0.19483710825443268,-0.3679991066455841
1788862462767788500,4.51278857421875,0.3292986750602722,0.07497291266918182,-0.4198596477508545
1788862462777830700,4.52283056640625,0.3105018138885498,-0.021526195108890533,-0.44192633032798767
1788862462787872500,4.53287255859375,0.29897037148475647,-0.0750298723578453,-0.4412725865840912
1788862462797914600,4.54291455078125,0.2870548367500305,-0.09501130878925323,-0.42163124680519104
1788862462807956700,4.552956787109375,0.25908929109573364,-0.08560579270124435,-0.4163611829280853
1788862462817998600,4.56299853515625,0.2213246077299118,-0.06936903297901154,-0.44991809129714966
1788862462828040700,4.573040771484375,0.18437720835208893,-0.05611956864595413,-0.515075147151947
1788862462838082600,4.58308251953125,0.16514651477336884,-0.06393008679151535,-0.5752021670341492
1788862462848125700,4.593125732421875,0.1540592759847641,-0.11744676530361176,-0.5851978063583374
1788862462858167600,4.60316748046875,0.15464438498020172,-0.20011474192142487,-0.5456802248954773
1788862462868209700,4.613209716796875,0.16743440926074982,-0.29329779744148254,-0.49979671835899353
1788862462878251500,4.62325146484375,0.17446835339069366,-0.33977368474006653,-0.49045729637145996
1788862462888293600,4.633293701171875,0.17581233382225037,-0.3474474251270294,-0.5276752710342407
1788862462898335700,4.643335693359375,0.1607593446969986,-0.3480548858642578,-0.5767503976821899
1788862462908377600,4.653377685546875,0.1418313831090927,-0.3289417028427124,-0.6246733069419861
1788862462918419700,4.663419677734375,0.12548169493675232,-0.2754044532775879,-0.6336311101913452
1788862462928462800,4.673462890625,0.08537730574607849,-0.237277090549469,-0.5751855969429016
1788862462938504700,4.683504638671875,0.026306528598070145,-0.22958216071128845,-0.5205819606781006
1788862462948546600,4.693546630859375,-0.02472410723567009,-0.25060224533081055,-0.5345996618270874
1788862462958588700,4.703588623046875,-0.033120784908533096,-0.3199528157711029,-0.602458655834198
1788862462968630500,4.713630615234375,-0.022838443517684937,-0.4416884481906891,-0.6600890159606934
1788862462978672600,4.723672607421875,-0.01247821468859911,-0.5427652597427368,-0.6676095128059387
1788862462988714800,4.73371484375,-0.00874675065279007,-0.5489105582237244,-0.6447610259056091
1788862462998756600,4.743756591796875,-0.010451441630721092,-0.5438553690910339,-0.6378548741340637
1788862463008799500,4.753799560546875,-0.0005290890112519264,-0.5999690890312195,-0.6657342910766602
1788862463018841900,4.763841796875,0.036206286400556564,-0.6754281520843506,-0.7084495425224304
1788862463028883700,4.7738837890625,0.08789537101984024,-0.7243378162384033,-0.7656794190406799
1788862463038925600,4.783925537109375,0.1490657776594162,-0.7428038716316223,-0.8328153491020203
1788862463048967700,4.7939677734375,0.18839648365974426,-0.7331304550170898,-0.8977006077766418
1788862463059009500,4.804009521484375,0.19854073226451874,-0.7104970216751099,-0.9296457171440125
1788862463069051600,4.8140517578125,0.17759785056114197,-0.6606213450431824,-0.9484100937843323
1788862463079093800,4.82409375,0.14352084696292877,-0.5895413160324097,-0.9415479302406311
1788862463089136600,4.83413671875,0.12111561745405197,-0.5281858444213867,-0.9510955810546875
1788862463099178500,4.844178466796875,0.14181716740131378,-0.4945911169052124,-0.9954814314842224
1788862463109220900,4.854220947265625,0.18720054626464844,-0.5262166261672974,-1.043841004371643
1788862463119262700,4.8642626953125,0.2105250358581543,-0.5891398787498474,-1.058930516242981
1788862463129304600,4.8743046875,0.19775009155273438,-0.6145166158676147,-1.0427179336547852
1788862463139346700,4.8843466796875,0.1689344197511673,-0.536562442779541,-1.029152512550354
1788862463149388500,4.894388427734375,0.16650857031345367,-0.5053935050964355,-1.0522613525390625
1788862463159431700,4.904431640625,0.20859263837337494,-0.5360475778579712,-1.0416553020477295
1788862463169473500,4.9144736328125,0.25746119022369385,-0.5406445860862732,-1.0383365154266357
1788862463179515600,4.924515625,0.3007620573043823,-0.5148884057998657,-1.0172616243362427
1788862463189557500,4.9345576171875,0.3096734285354614,-0.4916369915008545,-0.9560930728912354
1788862463199599600,4.944599609375,0.284525990486145,-0.43520697951316833,-0.9030951261520386
1788862463209641700,4.954641845703125,0.2597697377204895,-0.41552260518074036,-0.8926111459732056
1788862463219683600,4.96468359375,0.2425590604543686,-0.49160832166671753,-0.914037823677063
1788862463229725700,4.9747255859375,0.24691392481327057,-0.6298813819885254,-0.9435721039772034
1788862463239768800,4.984768798828125,0.27717384696006775,-0.6712567806243896,-0.9265710711479187
1788862463249810700,4.994810791015625,0.30911874771118164,-0.5212587118148804,-0.8689019083976746
1788862463259852500,5.0048525390625,0.32305827736854553,-0.34293505549430847,-0.735807478427887
1788862463269894700,5.014894775390625,0.30232542753219604,-0.3345640301704407,-0.5634282827377319
1788862463279936500,5.0249365234375,0.293544739484787,-0.3868139088153839,-0.4576762914657593
1788862463289978600,5.034978515625,0.2941579818725586,-0.4218181073665619,-0.4180071949958801
1788862463300020700,5.045020751953125,0.2991580665111542,-0.3962738513946533,-0.3805210590362549
1788862463310063600,5.055063720703125,0.3240105211734772,-0.34283268451690674,-0.35987719893455505
1788862463320105500,5.06510546875,0.36544397473335266,-0.3041188418865204,-0.4346521198749542
1788862463330147800,5.07514794921875,0.3559955954551697,-0.32656335830688477,-0.520318329334259
1788862463340189700,5.085189697265625,0.32468080520629883,-0.32721608877182007,-0.5792876482009888
1788862463350231600,5.0952314453125,0.348287433385849,-0.3293161690235138,-0.6906440854072571
1788862463360273700,5.105273681640625,0.40786153078079224,-0.41081157326698303,-0.8199935555458069
1788862463370315500,5.1153154296875,0.4836650788784027,-0.4432608187198639,-0.9124258160591125
1788862463380358700,5.125358642578125,0.5579760074615479,-0.3443547189235687,-0.9514379501342773
1788862463390400800,5.13540087890625,0.5962783694267273,-0.18725275993347168,-0.9750791192054749
1788862463400442600,5.145442626953125,0.6081619262695312,-0.015559293329715729,-0.9998518228530884
1788862463410484500,5.155484375,0.5997674465179443,0.09203270822763443,-1.016359567642212
1788862463420526800,5.16552685546875,0.5490131974220276,0.09166279435157776,-1.0197798013687134
1788862463430568700,5.175568603515625,0.4699874520301819,0.026687726378440857,-0.9981655478477478
1788862463440610600,5.185610595703125,0.4012155830860138,-0.050174299627542496,-0.9438173174858093
1788862463450654000,5.195654052734375,0.3523974120616913,-0.14271144568920135,-0.8901742696762085
1788862463460696300,5.2056962890625,0.3322146534919739,-0.24357974529266357,-0.8724560141563416
1788862463470738200,5.21573828125,0.32677504420280457,-0.23740138113498688,-0.8547980785369873
1788862463480780000,5.225780029296875,0.30312004685401917,-0.1260969638824463,-0.7998221516609192
1788862463490822100,5.235822265625,0.27243947982788086,-0.010140940546989441,-0.7776885628700256
1788862463500864000,5.245864013671875,0.2378399521112442,0.05389023944735527,-0.817262589931488
1788862463510906000,5.255906005859375,0.21742220222949982,0.0890871211886406,-0.8032851815223694
1788862463520949200,5.26594921875,0.23560386896133423,0.08537760376930237,-0.8269519209861755
1788862463530991000,5.2759912109375,0.29631438851356506,0.11462066322565079,-0.8879199624061584
1788862463541033000,5.286032958984375,0.3353443443775177,0.12396543473005295,-0.912979245185852
1788862463551075300,5.296075439453125,0.3154294490814209,0.13721035420894623,-0.909339964389801
1788862463561117200,5.3061171875,0.2813204526901245,0.1746072620153427,-0.8346814513206482
1788862463571159000,5.316158935546875,0.23333314061164856,0.2419511079788208,-0.7512260675430298
1788862463581201200,5.326201171875,0.23667274415493011,0.3050011992454529,-0.6840046644210815
1788862463591244300,5.336244384765625,0.26355886459350586,0.39588749408721924,-0.5691685080528259
1788862463601286100,5.3462861328125,0.2626211643218994,0.46894946694374084,-0.5159721374511719
1788862463611328000,5.356327880859375,0.28307849168777466,0.48084214329719543,-0.44874557852745056
1788862463621370000,5.3663701171875,0.26150795817375183,0.43976715207099915,-0.29204171895980835
1788862463631412000,5.376411865234375,0.18392479419708252,0.3028080463409424,-0.23307658731937408
1788862463641454300,5.386454345703125,0.09442687779664993,0.22166739404201508,-0.18982365727424622
1788862463651496200,5.39649609375,0.01828213781118393,0.26619037985801697,-0.13227228820323944
1788862463661539000,5.4065390625,-0.048590101301670074,0.3277221620082855,-0.05445258691906929
1788862463671581000,5.416580810546875,-0.14385353028774261,0.24303655326366425,-0.04891782999038696
1788862463681623300,5.426623291015625,-0.21608830988407135,0.21883748471736908,-0.024874811992049217
1788862463691665200,5.4366650390625,-0.25730007886886597,0.3225472867488861,0.022019363939762115
1788862463701707000,5.44670703125,-0.2592338025569916,0.45383286476135254,0.08520552515983582
1788862463711749000,5.4567490234375,-0.2669491469860077,0.43524643778800964,0.1648695468902588
1788862463721791000,5.466791015625,-0.30902791023254395,0.32139497995376587,0.22260820865631104
1788862463731834000,5.476834228515625,-0.3783748149871826,0.28056976199150085,0.30997729301452637
1788862463741876200,5.486876220703125,-0.4496162235736847,0.33196744322776794,0.39457204937934875
1788862463751918000,5.49691796875,-0.4928467273712158,0.330561101436615,0.4611473083496094
1788862463761960000,5.5069599609375,-0.5320239663124084,0.28195175528526306,0.5547699332237244
1788862463772002300,5.517002197265625,-0.5745124220848083,0.31511467695236206,0.6311758160591125
1788862463782044200,5.527044189453125,-0.59553062915802,0.3693177103996277,0.6593427658081055
1788862463792086000,5.5370859375,-0.5869226455688477,0.4293220341205597,0.696918249130249
1788862463802129200,5.547129150390625,-0.5746755599975586,0.4543727934360504,0.7333995699882507
1788862463812171300,5.557171142578125,-0.569227933883667,0.4576145112514496,0.7603853940963745
1788862463822213000,5.567213134765625,-0.5748642683029175,0.4755226969718933,0.7810725569725037
1788862463832255200,5.577255126953125,-0.5703464150428772,0.5105488300323486,0.7909746766090393
1788862463842297000,5.587297119140625,-0.5554244518280029,0.5198222398757935,0.8052380084991455
1788862463852339000,5.5973388671875,-0.5416015386581421,0.4406670331954956,0.858121395111084
1788862463862382000,5.607382080078125,-0.5247002840042114,0.35205885767936707,0.9485465884208679
1788862463872424200,5.617424072265625,-0.5051087737083435,0.32404670119285583,1.048981785774231
1788862463882466000,5.627466064453125,-0.46670249104499817,0.31188535690307617,1.1234967708587646
1788862463892508000,5.6375078125,-0.4003452956676483,0.29828619956970215,1.1568326950073242
1788862463902550300,5.64755029296875,-0.33231377601623535,0.24863876402378082,1.1620367765426636
1788862463912592100,5.657592041015625,-0.2908549904823303,0.2147277444601059,1.19198477268219
1788862463922634200,5.66763427734375,-0.2796124517917633,0.2242663949728012,1.2205122709274292
1788862463932676000,5.677676025390625,-0.2912980020046234,0.2566750943660736,1.2324187755584717
1788862463942719200,5.68771923828125,-0.3228157162666321,0.29199498891830444,1.2336230278015137
1788862463952761000,5.697760986328125,-0.3431057333946228,0.29499441385269165,1.2384254932403564
1788862463962803200,5.70780322265625,-0.3572700321674347,0.28010094165802,1.244655728340149
1788862463972845000,5.717844970703125,-0.3669763207435608,0.3046957552433014,1.237502932548523
1788862463982887000,5.727886962890625,-0.39437466859817505,0.33705660700798035,1.2074187994003296
1788862463992929300,5.73792919921875,-0.43864160776138306,0.33460643887519836,1.183331847190857
1788862464002972200,5.74797216796875,-0.48011791706085205,0.31659919023513794,1.185555338859558
1788862464013014000,5.758013916015625,-0.5087370276451111,0.35759830474853516,1.229951024055481
1788862464023056100,5.76805615234375,-0.5237942934036255,0.41581296920776367,1.3003132343292236
1788862464033098200,5.77809814453125,-0.527451753616333,0.437288761138916,1.3488048315048218
1788862464043140000,5.78814013671875,-0.5118656158447266,0.40302371978759766,1.372549057006836
1788862464053182200,5.79818212890625,-0.4896342158317566,0.34715551137924194,1.3707119226455688
1788862464063225000,5.80822509765625,-0.4973964989185333,0.31697630882263184,1.3702346086502075
1788862464073267200,5.81826708984375,-0.5273734927177429,0.3003409206867218,1.3668173551559448
1788862464083309000,5.82830908203125,-0.5715627670288086,0.27814266085624695,1.3998459577560425
1788862464093351200,5.83835107421875,-0.613365888595581,0.22962334752082825,1.4686503410339355
1788862464103393000,5.84839306640625,-0.6211982369422913,0.21434080600738525,1.5279650688171387
1788862464113435100,5.85843505859375,-0.575562596321106,0.1864842027425766,1.5339566469192505
1788862464123477200,5.868477294921875,-0.5014247298240662,0.11003603786230087,1.4697198867797852
1788862464133520100,5.87852001953125,-0.42624399065971375,-0.06016875058412552,1.3677284717559814
1788862464143562000,5.88856201171875,-0.3448455333709717,-0.17724664509296417,1.3033069372177124
1788862464153604000,5.89860400390625,-0.28118252754211426,-0.202860027551651,1.314892053604126
1788862464163646200,5.908646240234375,-0.22481989860534668,-0.16629482805728912,1.3702090978622437
1788862464173688000,5.91868798828125,-0.1680019199848175,-0.06948713958263397,1.4107881784439087
1788862464183730200,5.928730224609375,-0.1132718175649643,0.029008809477090836,1.391351342201233
1788862464193772000,5.93877197265625,-0.07599741965532303,0.10734282433986664,1.344459891319275
1788862464203815200,5.948815185546875,-0.049318935722112656,0.11928124725818634,1.3115179538726807
1788862464213857300,5.958857177734375,-0.03731834515929222,0.08581922203302383,1.2892799377441406
1788862464223899100,5.968899169921875,-0.0481526181101799,0.07100725173950195,1.2538905143737793
1788862464233941000,5.97894091796875,-0.07631639391183853,0.09666711091995239,1.2249221801757812
1788862464243983000,5.988983154296875,-0.10452033579349518,0.12146567553281784,1.209320306777954
1788862464254025200,5.999025146484375,-0.12021250277757645,0.14326922595500946,1.2065002918243408
1788862464264068000,6.009068115234375,-0.13294027745723724,0.16650211811065674,1.2279362678527832
1788862464274110000,6.01910986328125,-0.15000273287296295,0.1640406847000122,1.2649773359298706
1788862464284152000,6.029152099609375,-0.17283561825752258,0.1403670459985733,1.303266167640686
1788862464294194200,6.039194091796875,-0.18678165972232819,0.11238568276166916,1.323787808418274
1788862464304236300,6.049236328125,-0.18629190325737,0.10603297501802444,1.3329967260360718
1788862464314278100,6.059278076171875,-0.1587747186422348,0.09012935310602188,1.3102357387542725
1788862464324321000,6.069321044921875,-0.11600381135940552,0.092453233897686,1.2481298446655273
1788862464334363100,6.079363037109375,-0.08428598195314407,0.09604842215776443,1.164337158203125
1788862464344405200,6.0894052734375,-0.08296319097280502,0.06967966258525848,1.105554223060608
1788862464354447000,6.099447021484375,-0.07847786694765091,-0.004647016525268555,1.0849151611328125
1788862464364489000,6.109489013671875,-0.06362354755401611,-0.08505237847566605,1.0924768447875977
1788862464374531000,6.119531005859375,-0.04135647788643837,-0.10044292360544205,1.0975258350372314
1788862464384573200,6.1295732421875,-0.013206064701080322,-0.09525641798973083,1.0527559518814087
1788862464394616000,6.139615966796875,0.0017418245552107692,-0.0646076425909996,0.9577808380126953
1788862464404658200,6.149658203125,0.004006044007837772,-0.004696107469499111,0.8536949157714844
1788862464414700000,6.159699951171875,0.02333606593310833,0.05008405074477196,0.7688082456588745
1788862464424742100,6.1697421875,0.07038693130016327,0.08577493578195572,0.6810584664344788
1788862464434784300,6.1797841796875,0.10771512985229492,0.08723008632659912,0.5946764349937439
1788862464444826000,6.189826171875,0.12893040478229523,0.10023776441812515,0.5263460874557495
1788862464454869200,6.199869140625,0.13623899221420288,0.14797690510749817,0.4611648619174957
1788862464464911000,6.2099111328125,0.12965965270996094,0.20774276554584503,0.39347317814826965
1788862464474953200,6.219953125,0.12776190042495728,0.25079596042633057,0.33307942748069763
1788862464484995000,6.2299951171875,0.12168323993682861,0.29010555148124695,0.2806937098503113
1788862464495037200,6.240037109375,0.12258397042751312,0.31191739439964294,0.22852681577205658
1788862464505079300,6.250079345703125,0.12618295848369598,0.30714288353919983,0.18395961821079254
1788862464515121200,6.26012109375,0.13054165244102478,0.254208505153656,0.1457248032093048
1788862464525164000,6.2701640625,0.15418307483196259,0.17156636714935303,0.11285526305437088
1788862464535206100,6.2802060546875,0.16756294667720795,0.13548359274864197,0.07013194262981415
1788862464545248300,6.290248291015625,0.16522495448589325,0.14801856875419617,0.03463840112090111
1788862464555290000,6.3002900390625,0.14663271605968475,0.15103690326213837,0.010597962886095047
1788862464565332200,6.310332275390625,0.1311514973640442,0.1007859855890274,-0.002734087873250246
1788862464575374000,6.3203740234375,0.10763058066368103,0.08548805117607117,-0.039850927889347076
1788862464585417200,6.330417236328125,0.08214759081602097,0.07247743755578995,-0.08248280733823776
1788862464595459300,6.340459228515625,0.06064501404762268,0.03608057647943497,-0.12600001692771912
1788862464605501200,6.350501220703125,0.03391619771718979,0.012376314029097557,-0.1761590540409088
1788862464615543000,6.36054296875,0.025886574760079384,-0.004893181379884481,-0.2275729775428772
1788862464625585200,6.370585205078125,0.025175776332616806,-0.016895249485969543,-0.2572973072528839
1788862464635627300,6.380627197265625,0.04364989697933197,-0.023038744926452637,-0.28321224451065063
1788862464645669000,6.390669189453125,0.06298711150884628,-0.03327193856239319,-0.30429303646087646
1788862464655712000,6.4007119140625,0.058931294828653336,-0.0075363945215940475,-0.3228999376296997
1788862464665754000,6.410754150390625,0.04016932472586632,0.07419122010469437,-0.35014647245407104
1788862464675796200,6.420796142578125,0.03326984494924545,0.14545480906963348,-0.367540568113327
1788862464685838300,6.43083837890625,0.03211962431669235,0.174799382686615,-0.38041216135025024
1788862464695880200,6.440880126953125,0.0388147197663784,0.17502637207508087,-0.3992331326007843
1788862464705922000,6.450922119140625,0.04515490680932999,0.18048958480358124,-0.4209139347076416
1788862464715965200,6.460965087890625,0.05760890990495682,0.17811542749404907,-0.4441045820713043
1788862464726007300,6.47100732421875,0.06698856502771378,0.15900085866451263,-0.48553696274757385
1788862464736049200,6.481049072265625,0.07553011924028397,0.14357316493988037,-0.5343484282493591
1788862464746091000,6.491091064453125,0.0948079451918602,0.09194725006818771,-0.5804080963134766
1788862464756133000,6.501133056640625,0.12480475008487701,0.009616442956030369,-0.6288740634918213
1788862464766175200,6.51117529296875,0.15375889837741852,-0.03883444517850876,-0.7001307010650635
1788862464776218000,6.521218017578125,0.16957508027553558,-0.016491958871483803,-0.7703387141227722
1788862464786260200,6.53126025390625,0.1889604926109314,0.07899754494428635,-0.8002414703369141
1788862464796302000,6.541302001953125,0.21504545211791992,0.2475869357585907,-0.7742232084274292
1788862464806344200,6.55134423828125,0.21208402514457703,0.46200308203697205,-0.7127595543861389
1788862464816386300,6.56138623046875,0.20158304274082184,0.6732668876647949,-0.6441511511802673
1788862464826428200,6.57142822265625,0.19935210049152374,0.8021465539932251,-0.5870322585105896
1788862464836470000,6.581469970703125,0.18706625699996948,0.8038901090621948,-0.550737202167511
1788862464846513200,6.59151318359375,0.16620944440364838,0.6683133840560913,-0.5700544118881226
1788862464856555300,6.60155517578125,0.15447364747524261,0.4434831738471985,-0.6318138241767883
1788862464866597000,6.61159716796875,0.1726457178592682,0.17825496196746826,-0.69422847032547
1788862464876639200,6.62163916015625,0.22246944904327393,-0.07406817376613617,-0.7463963627815247
1788862464886681000,6.63168115234375,0.2759132385253906,-0.24073676764965057,-0.7614488005638123
1788862464896723200,6.64172314453125,0.2991565465927124,-0.25713568925857544,-0.7486950159072876
1788862464906766000,6.65176611328125,0.2957346439361572,-0.098418228328228,-0.7661626935005188
1788862464916808200,6.66180810546875,0.27125364542007446,0.10771187394857407,-0.7797464728355408
1788862464926850000,6.67185009765625,0.2313069999217987,0.2900606691837311,-0.7892638444900513
1788862464936892200,6.68189208984375,0.17915324866771698,0.3901590406894684,-0.8035604953765869
1788862464946934300,6.691934326171875,0.1405177116394043,0.40339893102645874,-0.8336158394813538
1788862464956976000,6.70197607421875,0.1310277134180069,0.33203941583633423,-0.8673533201217651
1788862464967018200,6.712018310546875,0.1377338171005249,0.21292553842067719,-0.9158017635345459
1788862464977061400,6.722061279296875,0.1762954294681549,0.07396037876605988,-1.007187008857727
1788862464987103200,6.732103271484375,0.18633101880550385,-0.06042512506246567,-1.108738660812378
1788862464997145000,6.74214501953125,0.2383134961128235,-0.17715401947498322,-1.1531368494033813
1788862465007187200,6.752187255859375,0.29444682598114014,-0.2295897901058197,-1.0943742990493774
1788862465017229000,6.76222900390625,0.3054214119911194,-0.23741623759269714,-1.0024456977844238
1788862465027271200,6.772271240234375,0.31150221824645996,-0.2072138637304306,-0.9562169313430786
1788862465037314300,6.782314208984375,0.3135033845901489,-0.18694469332695007,-0.9737398624420166
1788862465047356200,6.792356201171875,0.3271501958370209,-0.21760301291942596,-1.0047999620437622
1788862465057398000,6.80239794921875,0.3299747109413147,-0.29533466696739197,-1.0118557214736938
1788862465067440400,6.8124404296875,0.31127211451530457,-0.351150244474411,-1.0461862087249756
1788862465077482200,6.822482177734375,0.2937726378440857,-0.3831040561199188,-1.1057569980621338
1788862465087524000,6.832524169921875,0.29397663474082947,-0.40471160411834717,-1.1364078521728516
1788862465097567000,6.84256689453125,0.3033553957939148,-0.47450199723243713,-1.1417205333709717
1788862465107609300,6.852609375,0.31275689601898193,-0.6019039154052734,-1.1396262645721436
1788862465117651200,6.862651123046875,0.31798499822616577,-0.7105565071105957,-1.1452136039733887
1788862465127693000,6.872693115234375,0.309189110994339,-0.7680842280387878,-1.1485830545425415
1788862465137735200,6.882735107421875,0.29082122445106506,-0.7952727675437927,-1.1291875839233398
1788862465147777000,6.892777099609375,0.2667670249938965,-0.7955383062362671,-1.1284160614013672
1788862465157820200,6.902820068359375,0.2558508813381195,-0.8275673985481262,-1.1612621545791626
1788862465167862300,6.9128623046875,0.254099041223526,-0.893856406211853,-1.2454034090042114
1788862465177904000,6.922904052734375,0.26113465428352356,-0.9724896550178528,-1.2830106019973755
1788862465187946000,6.932946044921875,0.27552077174186707,-0.9776085019111633,-1.2568737268447876
1788862465197988400,6.94298828125,0.29610148072242737,-0.9566739201545715,-1.244127869606018
1788862465208030200,6.9530302734375,0.337741881608963,-0.9007991552352905,-1.2757103443145752
1788862465218073000,6.963072998046875,0.36407047510147095,-0.7592704892158508,-1.2920129299163818
1788862465228115200,6.973115234375,0.3265678286552429,-0.6661048531532288,-1.2519965171813965
1788862465238157300,6.9831572265625,0.2884805500507355,-0.601793110370636,-1.2150225639343262
1788862465248199200,6.99319921875,0.27549099922180176,-0.5856304168701172,-1.223388433456421
1788862465258241300,7.0032412109375,0.2717151641845703,-0.6767945885658264,-1.277564525604248
1788862465268283100,7.013283203125,0.2624013125896454,-0.7353026270866394,-1.324356198310852
1788862465278325000,7.023324951171875,0.26517125964164734,-0.7521471381187439,-1.3341528177261353
1788862465288368000,7.0333681640625,0.2728944420814514,-0.6488513946533203,-1.359898328781128
1788862465298410200,7.04341015625,0.2803950607776642,-0.5533639788627625,-1.372618556022644
1788862465308452000,7.0534521484375,0.286907821893692,-0.509624183177948,-1.4017354249954224
1788862465318494200,7.063494140625,0.3028291165828705,-0.4780959486961365,-1.3994694948196411
1788862465328536300,7.073536376953125,0.3007955253124237,-0.5245555639266968,-1.3695465326309204
1788862465338578200,7.083578125,0.29348909854888916,-0.5636138916015625,-1.333276391029358
1788862465348621000,7.09362109375,0.271679162979126,-0.4718911349773407,-1.278281331062317
1788862465358663200,7.1036630859375,0.24572090804576874,-0.3583049774169922,-1.2179968357086182
1788862465368705300,7.113705322265625,0.21305271983146667,-0.2955675721168518,-1.175415277481079
1788862465378747100,7.1237470703125,0.19196154177188873,-0.2926114499568939,-1.1689190864562988
1788862465388789200,7.133789306640625,0.17541639506816864,-0.2262854278087616,-1.1639330387115479
1788862465398831000,7.1438310546875,0.18623720109462738,-0.16199660301208496,-1.1490398645401
1788862465408874200,7.153874267578125,0.19640009105205536,-0.15576320886611938,-1.107736587524414
1788862465418916400,7.163916259765625,0.18453268706798553,-0.15471462905406952,-1.04500150680542
1788862465428958200,7.173958251953125,0.16816090047359467,-0.13896842300891876,-0.9886607527732849
1788862465439000000,7.184,0.1422947347164154,-0.08964492380619049,-0.9319329261779785
1788862465449042000,7.1940419921875,0.1301640421152115,-0.08439583331346512,-0.9048746824264526
1788862465459083800,7.204083740234375,0.15083317458629608,-0.08213603496551514,-0.9045376181602478
1788862465469125600,7.214125732421875,0.16319157183170319,0.014298621565103531,-0.8391919136047363
1788862465479168800,7.224168701171875,0.18400683999061584,0.05921410396695137,-0.8228197693824768
1788862465489211000,7.2342109375,0.1996537148952484,0.11949820816516876,-0.8356058597564697
1788862465499252700,7.244252685546875,0.19688980281352997,0.21710781753063202,-0.7993357181549072
1788862465509294800,7.254294921875,0.17705431580543518,0.31503546237945557,-0.770208477973938
1788862465519336700,7.264336669921875,0.16363584995269775,0.41723138093948364,-0.7850311994552612
1788862465529378600,7.274378662109375,0.16364170610904694,0.5203748345375061,-0.7160595655441284
1788862465539421700,7.284421630859375,0.15493406355381012,0.6295669078826904,-0.5677470564842224
1788862465549463800,7.2944638671875,0.14167818427085876,0.6493531465530396,-0.43057775497436523
1788862465559505700,7.304505615234375,0.11126487702131271,0.5517511963844299,-0.2993867099285126
1788862465569547800,7.3145478515625,0.09042111039161682,0.4248710572719574,-0.23445911705493927
1788862465579590000,7.32458984375,0.05592964217066765,0.43333932757377625,-0.14440883696079254
1788862465589631700,7.3346318359375,0.0056869760155677795,0.4910210072994232,-0.019645608961582184
1788862465599674600,7.344674560546875,-0.05400671064853668,0.4639568328857422,0.1019701212644577
1788862465609716700,7.354716796875,-0.1268305778503418,0.37393641471862793,0.17237849533557892
1788862465619758800,7.3647587890625,-0.19689592719078064,0.32235708832740784,0.2588874101638794
1788862465629800700,7.37480078125,-0.26391756534576416,0.31898581981658936,0.395386666059494
1788862465639842800,7.3848427734375,-0.29458239674568176,0.3344866931438446,0.5327485799789429
1788862465649884700,7.394884765625,-0.2958753705024719,0.37412118911743164,0.6326147317886353
1788862465659927800,7.404927734375,-0.29705163836479187,0.39899298548698425,0.7163398861885071
1788862465669970000,7.414969970703125,-0.3182607591152191,0.41499248147010803,0.8097901940345764
1788862465680011800,7.42501171875,-0.3474705219268799,0.44813215732574463,0.8939257860183716
1788862465690053600,7.4350537109375,-0.37282222509384155,0.45178014039993286,0.9574296474456787
1788862465700095700,7.445095703125,-0.4082376956939697,0.4093573987483978,1.0459792613983154
1788862465710137900,7.455137939453125,-0.45392370223999023,0.40907618403434753,1.1409207582473755
1788862465720179700,7.4651796875,-0.4799729585647583,0.4588842988014221,1.2202306985855103
1788862465730222600,7.47522265625,-0.47954288125038147,0.5301722884178162,1.244073748588562
1788862465740264700,7.4852646484375,-0.46782755851745605,0.5857165455818176,1.2462550401687622
1788862465750306800,7.495306884765625,-0.46051979064941406,0.5974980592727661,1.2352124452590942
1788862465760348700,7.5053486328125,-0.45389261841773987,0.6056726574897766,1.2200151681900024
1788862465770390800,7.515390869140625,-0.46131882071495056,0.6016526222229004,1.212886095046997
1788862465780432600,7.5254326171875,-0.46087661385536194,0.5458660125732422,1.2107549905776978
1788862465790475800,7.535475830078125,-0.4486532211303711,0.4488145709037781,1.2302807569503784
1788862465800518000,7.545517822265625,-0.4371595084667206,0.3591461479663849,1.2948640584945679
1788862465810559700,7.555559814453125,-0.41892483830451965,0.3406696915626526,1.3559272289276123
1788862465820601600,7.5656015625,-0.3870823085308075,0.40294718742370605,1.4013053178787231
1788862465830643700,7.575643798828125,-0.3468211591243744,0.44414228200912476,1.429140329360962
1788862465840685800,7.585685791015625,-0.31378477811813354,0.47366198897361755,1.4595332145690918
1788862465850728700,7.595728759765625,-0.2994460463523865,0.5104178786277771,1.5047627687454224
1788862465860770800,7.605770751953125,-0.293148934841156,0.5139764547348022,1.5481239557266235
1788862465870812700,7.615812744140625,-0.29318463802337646,0.48739245533943176,1.5554966926574707
1788862465880854800,7.625854736328125,-0.3110712170600891,0.4607938826084137,1.5668777227401733
1788862465890897000,7.63589697265625,-0.3527052104473114,0.4512222111225128,1.6030240058898926
1788862465900938800,7.645938720703125,-0.40186887979507446,0.4122523069381714,1.6406582593917847
1788862465910981600,7.655981689453125,-0.4417388141155243,0.3389147222042084,1.6626999378204346
1788862465921023700,7.666023681640625,-0.46340057253837585,0.23438312113285065,1.658667802810669
1788862465931065900,7.67606591796875,-0.47617867588996887,0.14070749282836914,1.652550220489502
1788862465941107700,7.686107666015625,-0.4720648229122162,0.12610015273094177,1.6779944896697998
1788862465951149800,7.69614990234375,-0.4563995599746704,0.15824690461158752,1.7307586669921875
1788862465961191700,7.706191650390625,-0.4117067754268646,0.16005535423755646,1.753732681274414
1788862465971233800,7.71623388671875,-0.3255447447299957,0.13064393401145935,1.7191073894500732
1788862465981276700,7.726276611328125,-0.22496874630451202,0.09355486929416656,1.680086374282837
1788862465991318800,7.73631884765625,-0.1403510570526123,0.0598381832242012,1.675973892211914
1788862466001360600,7.746360595703125,-0.08881158381700516,0.03803534060716629,1.6855261325836182
1788862466011402800,7.75640283203125,-0.07572374492883682,0.017954571172595024,1.6808277368545532
1788862466021444900,7.76644482421875,-0.08529230952262878,-0.007748305331915617,1.6437811851501465
1788862466031486700,7.77648681640625,-0.11136944591999054,-0.02661573700606823,1.6183063983917236
1788862466041529600,7.786529541015625,-0.14622023701667786,0.01006238255649805,1.6036659479141235
1788862466051572000,7.796572021484375,-0.1725999116897583,0.01541720051318407,1.5837615728378296
1788862466061613800,7.80661376953125,-0.18496660888195038,-0.03692971542477608,1.5579819679260254
1788862466071655700,7.81665576171875,-0.16376306116580963,-0.05673244595527649,1.5209972858428955
1788862466081697800,7.82669775390625,-0.1464073807001114,-0.01773272454738617,1.4629093408584595
1788862466091739600,7.83673974609375,-0.1268206387758255,0.050775229930877686,1.4246835708618164
1788862466101781800,7.84678173828125,-0.10306035727262497,0.09043307602405548,1.3969366550445557
1788862466111824600,7.85682470703125,-0.0845457911491394,0.10294273495674133,1.383543610572815
1788862466121866800,7.86686669921875,-0.05945214629173279,0.12738463282585144,1.3986518383026123
1788862466131908600,7.87690869140625,-0.026400722563266754,0.18676114082336426,1.424241304397583
1788862466141950700,7.88695068359375,0.023037521168589592,0.2442232221364975,1.4199516773223877
1788862466151992800,7.896992919921875,0.08578585833311081,0.23808731138706207,1.3741079568862915
1788862466162034700,7.90703466796875,0.156694695353508,0.15981650352478027,1.297178864479065
1788862466172077600,7.91707763671875,0.18143999576568604,0.09743274748325348,1.2143796682357788
1788862466182120000,7.927119873046875,0.16713565587997437,0.08994655311107635,1.1616836786270142
1788862466192161800,7.937161865234375,0.14764557778835297,0.11332298070192337,1.1605198383331299
1788862466202203600,7.94720361328125,0.11502986401319504,0.14179864525794983,1.1553537845611572
1788862466212245800,7.957245849609375,0.07684919238090515,0.08315689861774445,1.1226900815963745
1788862466222287600,7.96728759765625,0.058194972574710846,-0.036547452211380005,1.0312715768814087
1788862466232330800,7.977330810546875,0.04618837684392929,-0.18378856778144836,0.8999770879745483
1788862466242372900,7.987372802734375,0.042550697922706604,-0.210911363363266,0.7666817307472229
1788862466252414700,7.997414794921875,0.05319588631391525,-0.09068083018064499,0.6891760230064392
1788862466262456600,8.00745654296875,0.08040157705545425,0.08404532819986343,0.6467491984367371
1788862466272499000,8.0174990234375,0.12198390811681747,0.2517661452293396,0.6254109144210815
1788862466282540800,8.027540771484375,0.17050522565841675,0.3838500380516052,0.591218113899231
1788862466292582700,8.037582763671875,0.21115705370903015,0.4346349239349365,0.5311632752418518
1788862466302625500,8.04762548828125,0.21557515859603882,0.4148792028427124,0.4360584616661072
1788862466312668000,8.05766796875,0.2021147459745407,0.3517929017543793,0.327768474817276
1788862466322709800,8.067709716796875,0.1866653561592102,0.23043546080589294,0.2243405133485794
1788862466332752000,8.077751953125,0.18665283918380737,0.0776272714138031,0.13662530481815338
1788862466342793700,8.087793701171876,0.15772391855716705,-0.03980005905032158,0.03040779009461403
1788862466352835600,8.097835693359375,0.08023125678300858,-0.0695720687508583,-0.11920566856861115
1788862466362878700,8.107878662109375,0.03187040239572525,-0.08673527091741562,-0.28345799446105957
1788862466372920800,8.1179208984375,-0.005198136903345585,-0.09464991837739944,-0.41561177372932434
1788862466382962700,8.127962646484375,-0.03894631564617157,-0.05071158707141876,-0.4949054419994354
1788862466393004500,8.138004638671875,-0.05428319424390793,0.021903760731220245,-0.5482309460639954
1788862466403047000,8.148046875,-0.06255903840065002,0.11105803400278091,-0.5851004719734192
1788862466413088800,8.1580888671875,-0.07725755125284195,0.1833633929491043,-0.5756949782371521
1788862466423131600,8.168131591796875,-0.09496530145406723,0.1997225284576416,-0.5330395102500916
1788862466433173800,8.178173828125,-0.11330755800008774,0.20657937228679657,-0.46713319420814514
1788862466443216000,8.1882158203125,-0.1271454393863678,0.20710523426532745,-0.40339839458465576
1788862466453257700,8.1982578125,-0.12736383080482483,0.19382032752037048,-0.36182671785354614
1788862466463299800,8.2082998046875,-0.12311418354511261,0.1821194738149643,-0.33744996786117554
1788862466473342000,8.218342041015624,-0.11839799582958221,0.20588286221027374,-0.33660998940467834
1788862466483383800,8.2283837890625,-0.10164816677570343,0.2632189989089966,-0.36524784564971924
1788862466493426700,8.2384267578125,-0.06986334174871445,0.2875983715057373,-0.4260973632335663
1788862466503468800,8.24846875,-0.02353709191083908,0.2345556616783142,-0.49391573667526245
1788862466513511000,8.258510986328124,0.03790310025215149,0.15174919366836548,-0.5668039917945862
1788862466523552800,8.268552734375,0.10643702745437622,0.06092441827058792,-0.6139589548110962
1788862466533595000,8.278594970703125,0.16065819561481476,-0.059690143913030624,-0.6415705680847168
1788862466543636700,8.28863671875,0.19152729213237762,-0.1267012655735016,-0.680752158164978
1788862466553680000,8.298679931640624,0.20765699446201324,-0.08568165451288223,-0.739773690700531
1788862466563722000,8.308721923828125,0.2154955118894577,0.05915570259094238,-0.8194668292999268
1788862466573763800,8.318763916015625,0.2155623584985733,0.24168848991394043,-0.8818279504776001
1788862466583805700,8.3288056640625,0.21652615070343018,0.40440577268600464,-0.9109277725219727
1788862466593847800,8.338847900390626,0.20826852321624756,0.5313142538070679,-0.907636821269989
1788862466603890000,8.348889892578125,0.17842420935630798,0.601893961429596,-0.9081583619117737
1788862466613931800,8.358931884765624,0.14842769503593445,0.5637729167938232,-0.9212144613265991
1788862466623975000,8.368974853515626,0.13076575100421906,0.42046472430229187,-0.9268848299980164
1788862466634016800,8.379016845703125,0.1353226751089096,0.21369875967502594,-0.9077625274658203
1788862466644059000,8.389058837890625,0.13134872913360596,0.014333801344037056,-0.8909939527511597
1788862466654101000,8.39910107421875,0.13574454188346863,-0.10828346014022827,-0.898751974105835
1788862466664142800,8.409142822265625,0.14658361673355103,-0.13780498504638672,-0.9384081363677979
1788862466674184700,8.419184814453125,0.16663801670074463,-0.14752048254013062,-0.9934300780296326
1788862466684227800,8.429227783203125,0.19785407185554504,-0.1698937863111496,-1.0152180194854736
1788862466694270000,8.43927001953125,0.22565294802188873,-0.15951038897037506,-0.9918872714042664
1788862466704311800,8.449311767578125,0.22629916667938232,-0.0733429417014122,-0.9546250700950623
1788862466714354000,8.45935400390625,0.21439750492572784,0.03969466686248779,-0.9659355282783508
1788862466724395800,8.469395751953124,0.22623157501220703,0.07506206631660461,-1.0162787437438965
1788862466734438000,8.47943798828125,0.24941200017929077,0.008442293852567673,-1.0683199167251587
1788862466744480000,8.48947998046875,0.2628268599510193,-0.08796313405036926,-1.139372706413269
1788862466754523000,8.49952294921875,0.2851364314556122,-0.1619497537612915,-1.1970537900924683
1788862466764564700,8.509564697265626,0.2735205888748169,-0.23267129063606262,-1.216650128364563
1788862466774606800,8.51960693359375,0.2557485103607178,-0.31321805715560913,-1.2200675010681152
1788862466784649000,8.52964892578125,0.24308320879936218,-0.36067911982536316,-1.2327561378479004
1788862466794690800,8.53969091796875,0.23974068462848663,-0.4062492549419403,-1.2405141592025757
1788862466804732700,8.549732666015625,0.24774053692817688,-0.505378782749176,-1.2304975986480713
1788862466814776000,8.559776123046875,0.250870019197464,-0.6437217593193054,-1.2170355319976807
1788862466824818000,8.56981787109375,0.24410776793956757,-0.7441338300704956,-1.2132436037063599
1788862466834859800,8.57985986328125,0.2339123785495758,-0.7396066784858704,-1.2628049850463867
1788862466844902000,8.58990185546875,0.21792256832122803,-0.7162349224090576,-1.3018419742584229
1788862466854943700,8.59994384765625,0.21576806902885437,-0.7632911205291748,-1.350611925125122
1788862466864985900,8.60998583984375,0.24620255827903748,-0.8146765232086182,-1.3963819742202759
1788862466875028700,8.62002880859375,0.29762154817581177,-0.8763926029205322,-1.4093635082244873
1788862466885070800,8.63007080078125,0.3433710038661957,-0.8586670160293579,-1.4202439785003662
1788862466895112700,8.64011279296875,0.3692622780799866,-0.8126819729804993,-1.418766736984253
1788862466905154800,8.65015478515625,0.36614057421684265,-0.7110660672187805,-1.4007132053375244
1788862466915197000,8.660197021484375,0.37141895294189453,-0.5933873653411865,-1.3668503761291504
1788862466925238800,8.67023876953125,0.40170028805732727,-0.5330301523208618,-1.3760319948196411
1788862466935281000,8.680281005859374,0.4325474202632904,-0.5328376293182373,-1.4170116186141968
1788862466945324000,8.690323974609376,0.44750431180000305,-0.5430867075920105,-1.4981555938720703
1788862466955366000,8.700365966796875,0.4552682340145111,-0.571528434753418,-1.5762405395507812
1788862466965407700,8.71040771484375,0.48083651065826416,-0.6406542062759399,-1.6135168075561523
1788862466975449900,8.720449951171876,0.5181868076324463,-0.6494038105010986,-1.6321309804916382
1788862466985491700,8.73049169921875,0.539326548576355,-0.6141014099121094,-1.6163665056228638
1788862466995533800,8.740533935546875,0.5421960949897766,-0.5258418321609497,-1.6471318006515503
1788862467005576000,8.750575927734374,0.4916924834251404,-0.5081518292427063,-1.6649099588394165
1788862467015618800,8.760618896484376,0.42781925201416016,-0.4984273314476013,-1.6556110382080078
1788862467025660700,8.77066064453125,0.3999236822128296,-0.4759424030780792,-1.6473912000656128
1788862467035703000,8.780703125,0.3976597487926483,-0.47594398260116577,-1.6145437955856323
1788862467045745000,8.790744873046876,0.3875490725040436,-0.462678462266922,-1.5446369647979736
1788862467055786800,8.800786865234375,0.36929282546043396,-0.39668211340904236,-1.4443773031234741
1788862467065828900,8.810828857421875,0.35383379459381104,-0.34215110540390015,-1.3972443342208862
1788862467075872000,8.8208720703125,0.3381352722644806,-0.2880394160747528,-1.388681173324585
1788862467085913900,8.830913818359376,0.32539570331573486,-0.26338881254196167,-1.3540161848068237
1788862467095956000,8.8409560546875,0.3239045739173889,-0.30795496702194214,-1.3178105354309082
1788862467105997800,8.850997802734375,0.29786497354507446,-0.345634400844574,-1.2797385454177856
1788862467116039700,8.861039794921876,0.25110065937042236,-0.2893711030483246,-1.1885071992874146
1788862467126082000,8.87108203125,0.21322132647037506,-0.1986067295074463,-1.1172528266906738
1788862467136124000,8.8811240234375,0.1955115646123886,-0.11705061048269272,-1.067055106163025
1788862467146166800,8.891166748046874,0.19377492368221283,-0.04394076392054558,-1.0234148502349854
1788862467156208600,8.901208740234376,0.1855979561805725,0.10869857668876648,-0.993804931640625
1788862467166251000,8.9112509765625,0.1693020761013031,0.21485696732997894,-0.9150587320327759
1788862467176292900,8.92129296875,0.15688322484493256,0.2156015783548355,-0.8211660981178284
1788862467186335000,8.9313349609375,0.13574036955833435,0.20530685782432556,-0.7203378081321716
1788862467196376800,8.941376953125,0.10799289494752884,0.24718932807445526,-0.6312132477760315
1788862467206420000,8.951419921875,0.08305803686380386,0.35686153173446655,-0.5469538569450378
1788862467216461800,8.9614619140625,0.07862653583288193,0.44696933031082153,-0.4389347434043884
1788862467226504000,8.97150390625,0.06890860944986343,0.4436336159706116,-0.302279531955719
1788862467236545800,8.9815458984375,0.05100151523947716,0.41388264298439026,-0.1867649108171463
1788862467246587600,8.991587646484374,0.0206284299492836,0.44144076108932495,-0.09159604460000992
1788862467256630000,9.001630126953126,-0.008642639964818954,0.5176369547843933,0.02964356355369091
1788862467266671900,9.011671875,-0.04161596670746803,0.5500699877738953,0.1025710180401802
1788862467276714800,9.02171484375,-0.07921233773231506,0.4532976746559143,0.1702083945274353
1788862467286756900,9.0317568359375,-0.13195492327213287,0.3196675479412079,0.2566758096218109
1788862467296799000,9.041799072265626,-0.19184860587120056,0.2691609859466553,0.3707467317581177
1788862467306840800,9.0518408203125,-0.26096242666244507,0.2776018977165222,0.4831436574459076
1788862467316883000,9.061883056640625,-0.31358063220977783,0.29829996824264526,0.5919154286384583
1788862467326924800,9.0719248046875,-0.3352164626121521,0.2813761532306671,0.6969943642616272
1788862467336966700,9.081966552734375,-0.3364470899105072,0.2883829176425934,0.8269163966178894
1788862467347009800,9.092009765625,-0.3421803414821625,0.3784193992614746,0.9116661548614502
1788862467357052000,9.102052001953124,-0.33222252130508423,0.45764392614364624,0.9524418115615845
1788862467367093800,9.11209375,-0.32086247205734253,0.41613054275512695,1.0149712562561035
1788862467377135900,9.122135986328125,-0.3266831040382385,0.3746861219406128,1.0984046459197998
1788862467387178000,9.132177978515625,-0.35736143589019775,0.4424416720867157,1.177855372428894
1788862467397219800,9.1422197265625,-0.3857560455799103,0.5499662756919861,1.248998761177063
1788862467407262700,9.1522626953125,-0.38201233744621277,0.5937519073486328,1.333600401878357
1788862467417304800,9.162304931640625,-0.3565674126148224,0.5928312540054321,1.4052311182022095
1788862467427347000,9.172346923828124,-0.33424705266952515,0.6006228923797607,1.4718912839889526
1788862467437388800,9.182388916015626,-0.3412972390651703,0.610170841217041,1.5366628170013428
1788862467447431000,9.192430908203125,-0.34615346789360046,0.5864795446395874,1.5911186933517456
1788862467457473000,9.20247314453125,-0.3395672142505646,0.5356062650680542,1.6010451316833496
1788862467467515000,9.212514892578126,-0.32707810401916504,0.47558102011680603,1.5920250415802002
1788862467477558000,9.22255810546875,-0.3270980715751648,0.45302459597587585,1.5756583213806152
1788862467487600000,9.23260009765625,-0.3420127332210541,0.4970594346523285,1.5644735097885132
1788862467497642000,9.24264208984375,-0.3677138388156891,0.5649665594100952,1.5842221975326538
1788862467507684000,9.25268408203125,-0.38072797656059265,0.600009560585022,1.6054840087890625
1788862467517726000,9.262725830078125,-0.3823290765285492,0.6034737825393677,1.623767614364624
1788862467527767800,9.272767822265624,-0.3880496025085449,0.6082563400268555,1.6718171834945679
1788862467537810200,9.28281005859375,-0.4088006913661957,0.6360946297645569,1.7370352745056152
1788862467547853000,9.29285302734375,-0.41395992040634155,0.6554715037345886,1.8067361116409302
1788862467557895000,9.30289501953125,-0.3800266981124878,0.638846218585968,1.844297170639038
1788862467567937000,9.31293701171875,-0.3210703432559967,0.579068124294281,1.8690859079360962
1788862467577979100,9.322979248046876,-0.27284955978393555,0.5290835499763489,1.889413595199585
1788862467588021000,9.33302099609375,-0.2363899052143097,0.488750159740448,1.9259229898452759
1788862467598063000,9.34306298828125,-0.2086903601884842,0.41154858469963074,1.957214593887329
1788862467608105000,9.35310498046875,-0.1967126727104187,0.3190789818763733,1.964844822883606
1788862467618148000,9.363148193359375,-0.19361089169979095,0.22616046667099,1.9571608304977417
1788862467628190000,9.37318994140625,-0.1788444072008133,0.14574821293354034,1.932588815689087
1788862467638232000,9.383232177734374,-0.14424516260623932,0.08934779465198517,1.9143762588500977
1788862467648274000,9.39327392578125,-0.12249287962913513,0.02908298373222351,1.9013588428497314
1788862467658315800,9.403315673828125,-0.12403909862041473,-0.028429578989744186,1.8946820497512817
1788862467668358100,9.413358154296875,-0.13557948172092438,-0.06488996744155884,1.8999351263046265
1788862467678400000,9.42339990234375,-0.14950434863567352,-0.0634704977273941,1.91044020652771
1788862467688443000,9.43344287109375,-0.14489047229290009,-0.048321399837732315,1.9167168140411377
1788862467698485000,9.443485107421875,-0.14355330169200897,-0.11657422035932541,1.8796107769012451
1788862467708527000,9.453527099609374,-0.11933397501707077,-0.15953613817691803,1.8010655641555786
1788862467718569000,9.46356884765625,-0.09411890059709549,-0.12362074106931686,1.7453076839447021
1788862467728611000,9.473611083984375,-0.08309530466794968,-0.0443139523267746,1.7055662870407104
1788862467738653000,9.48365283203125,-0.07298940420150757,0.04646308720111847,1.6845667362213135
1788862467748694800,9.49369482421875,-0.057316530495882034,0.09341989457607269,1.650451898574829
1788862467758738000,9.503738037109375,-0.018526257947087288,0.0913812443614006,1.592949628829956
1788862467768780000,9.513780029296875,0.03156474977731705,0.06058964878320694,1.5327870845794678
1788862467778822000,9.52382177734375,0.07747285813093185,0.024893702939152718,1.4814794063568115
1788862467788864000,9.533864013671876,0.11579354107379913,-0.0013523180969059467,1.4362688064575195
1788862467798906000,9.543906005859375,0.13947677612304688,-0.010011320002377033,1.3912869691848755
1788862467808948000,9.553947998046874,0.1621718555688858,-0.04247649759054184,1.3529410362243652
1788862467818990800,9.563990966796876,0.16607871651649475,-0.08264468610286713,1.3058158159255981
1788862467829033000,9.574032958984375,0.1335236132144928,-0.10409842431545258,1.244499683380127
1788862467839075000,9.584074951171875,0.08626210689544678,-0.13026663661003113,1.1581517457962036
1788862467849117000,9.594116943359374,0.026738520711660385,-0.13211917877197266,1.034031629562378
1788862467859159000,9.604158935546875,-0.019127238541841507,-0.1218566745519638,0.9017215371131897
1788862467869201000,9.614200927734375,-0.053655967116355896,-0.07229793816804886,0.7916869521141052
1788862467879243000,9.624242919921874,-0.06170910224318504,0.010959930717945099,0.7232275009155273
1788862467889286100,9.6342861328125,-0.02791544981300831,0.05742470175027847,0.6685207486152649
1788862467899328000,9.644327880859375,0.008001537062227726,0.08096197992563248,0.609713613986969
1788862467909369900,9.654369873046875,0.02748909220099449,0.1386473923921585,0.5246238708496094
1788862467919412000,9.664411865234374,0.03626473993062973,0.2424963116645813,0.4237281084060669
1788862467929454000,9.6744541015625,0.040215734392404556,0.32259827852249146,0.314480185508728
1788862467939496000,9.684495849609375,0.03765750303864479,0.3324812650680542,0.19939300417900085
1788862467949538000,9.6945380859375,0.022882143035531044,0.25933024287223816,0.08211014419794083
1788862467959581000,9.704580810546876,0.019704459235072136,0.13210035860538483,-0.022906284779310226
1788862467969623000,9.714623046875,0.02147214114665985,0.003963313065469265,-0.11715644598007202
1788862467979665200,9.7246650390625,0.027038946747779846,-0.08834397792816162,-0.20681948959827423
1788862467989707000,9.73470703125,0.03650036081671715,-0.15896329283714294,-0.2856527864933014
1788862467999748900,9.744748779296875,0.05208251625299454,-0.1711866557598114,-0.35555222630500793
1788862468009791000,9.754791015625,0.07406213879585266,-0.10399137437343597,-0.40508508682250977
1788862468019833000,9.7648330078125,0.09800422191619873,0.001971546560525894,-0.4611792266368866
1788862468029876000,9.7748759765625,0.11696071922779083,0.12186046689748764,-0.5262757539749146
1788862468039917800,9.784917724609375,0.12684372067451477,0.23166872560977936,-0.5805214047431946
1788862468049960000,9.7949599609375,0.12701191008090973,0.3083222210407257,-0.6260886192321777
1788862468060002000,9.805001953125,0.12997999787330627,0.357159823179245,-0.6656597256660461
1788862468070044200,9.815044189453126,0.12655921280384064,0.3602626919746399,-0.6872397065162659
1788862468080086000,9.8250859375,0.1423000991344452,0.31013932824134827,-0.680591881275177
1788862468090128000,9.8351279296875,0.16378486156463623,0.24001188576221466,-0.6596502065658569
1788862468100170000,9.845169921875,0.1819864958524704,0.19446516036987305,-0.634014904499054
1788862468110213000,9.855213134765625,0.19424580037593842,0.1826598346233368,-0.6369904279708862
1788862468120255000,9.8652548828125,0.19670629501342773,0.19726967811584473,-0.6775519847869873
1788862468130296800,9.875296875,0.19364020228385925,0.2067987322807312,-0.73816978931427
1788862468140339000,9.8853388671875,0.18857567012310028,0.18017937242984772,-0.7955198884010315
1788862468150381000,9.895381103515625,0.18062210083007812,0.15633147954940796,-0.8419193625450134
1788862468160423200,9.905423095703124,0.19079644978046417,0.1555466502904892,-0.8757468461990356
1788862468170465000,9.915465087890626,0.2154233157634735,0.16312770545482635,-0.9200496673583984
1788862468180508000,9.9255078125,0.23616427183151245,0.16551657021045685,-0.9614802002906799
1788862468190550000,9.935550048828125,0.2537968158721924,0.18799583613872528,-0.9520134925842285
1788862468200592100,9.945592041015624,0.25250041484832764,0.22063660621643066,-0.9604002833366394
1788862468210634000,9.955634033203125,0.24899938702583313,0.22206847369670868,-1.000583529472351
1788862468220675800,9.96567578125,0.2607085108757019,0.16356733441352844,-1.0532417297363281
1788862468230718000,9.975718017578124,0.2679831385612488,0.09769433736801147,-1.109147310256958
1788862468240760000,9.985760009765626,0.2547674775123596,0.05472903326153755,-1.157918095588684
1788862468250803000,9.995802978515625,0.2272595763206482,0.030108530074357986,-1.1819782257080078
1788862468260845000,10.005844970703125,0.2095050811767578,-0.012307371012866497,-1.1882076263427734
1788862468270887000,10.015886962890624,0.19466759264469147,-0.1085910052061081,-1.2007026672363281
1788862468280929000,10.025928955078125,0.18543921411037445,-0.1847720593214035,-1.2280386686325073
1788862468290971100,10.03597119140625,0.17459334433078766,-0.22733478248119354,-1.251801609992981
1788862468301013000,10.046012939453124,0.16280245780944824,-0.2527455985546112,-1.236403465270996
1788862468311054800,10.056054931640626,0.13843829929828644,-0.2627151906490326,-1.1848489046096802
1788862468321098000,10.066097900390625,0.09495685994625092,-0.20204465091228485,-1.1438250541687012
1788862468331140000,10.07614013671875,0.05303633213043213,-0.1367093026638031,-1.1362788677215576
1788862468341182000,10.086181884765624,0.03889601305127144,-0.12102382630109787,-1.2073389291763306
1788862468351224000,10.09622412109375,0.08764544874429703,-0.18134036660194397,-1.3311548233032227
1788862468361266000,10.106265869140625,0.13834963738918304,-0.3155650198459625,-1.4857898950576782
1788862468371308000,10.11630810546875,0.200413316488266,-0.4024447500705719,-1.620563268661499
1788862468381350100,10.12635009765625,0.2578590214252472,-0.5074777007102966,-1.6088058948516846
1788862468391393000,10.13639306640625,0.31172841787338257,-0.6794499754905701,-1.505022406578064
1788862468401435000,10.146434814453125,0.34535136818885803,-0.770078718662262,-1.4562664031982422
1788862468411477000,10.15647705078125,0.36104100942611694,-0.7136847972869873,-1.4670658111572266
1788862468421519000,10.16651904296875,0.3461834788322449,-0.6278034448623657,-1.4747258424758911
1788862468431561000,10.17656103515625,0.3168882727622986,-0.5992549657821655,-1.4618148803710938
1788862468441603000,10.18660302734375,0.28096142411231995,-0.6315996050834656,-1.461252212524414
1788862468451645400,10.1966455078125,0.2644260823726654,-0.7218227982521057,-1.482509970664978
1788862468461688600,10.2066884765625,0.27436766028404236,-0.8765904903411865,-1.5468175411224365
1788862468471730400,10.21673046875,0.30839258432388306,-1.019860029220581,-1.6230695247650146
1788862468481772500,10.2267724609375,0.35139918327331543,-1.0994813442230225,-1.65420401096344
1788862468491814400,10.236814453125,0.3700852394104004,-1.0785081386566162,-1.636555552482605
1788862468501856500,10.2468564453125,0.36615094542503357,-0.9826745390892029,-1.635756015777588
1788862468511898600,10.256898681640624,0.3668452799320221,-0.8913040161132812,-1.5953643321990967
1788862468521940500,10.2669404296875,0.3591628670692444,-0.8208240270614624,-1.5441961288452148
1788862468531983400,10.2769833984375,0.3282199501991272,-0.7360516786575317,-1.515694499015808
1788862468542025500,10.287025390625,0.29136231541633606,-0.6718835830688477,-1.4927680492401123
1788862468552067600,10.297067626953124,0.2995242476463318,-0.6538207530975342,-1.4932754039764404
1788862468562109400,10.307109375,0.3473130464553833,-0.6968627572059631,-1.5305546522140503
1788862468572151300,10.3171513671875,0.3952650725841522,-0.6843323707580566,-1.606604814529419
1788862468582193400,10.327193359375,0.4113833010196686,-0.6070671677589417,-1.630665898323059
1788862468592235500,10.337235595703126,0.3936789035797119,-0.5551385283470154,-1.6050735712051392
1788862468602277600,10.347277587890625,0.36441609263420105,-0.5613841414451599,-1.570478081703186
1788862468612320500,10.357320556640625,0.33802902698516846,-0.5800802111625671,-1.5397768020629883
1788862468622362400,10.3673623046875,0.3132038414478302,-0.5594750642776489,-1.5067754983901978
1788862468632404500,10.377404541015625,0.30989956855773926,-0.5055052042007446,-1.466872215270996
1788862468642446600,10.387446533203125,0.29553714394569397,-0.4176988899707794,-1.4433867931365967
1788862468652488400,10.397488525390624,0.29601287841796875,-0.3444945812225342,-1.4179850816726685
1788862468662530300,10.4075302734375,0.3008230924606323,-0.3184363543987274,-1.403009057044983
1788862468672572400,10.417572509765625,0.2949548363685608,-0.2732184827327728,-1.3463449478149414
1788862468682615600,10.427615478515625,0.2472970336675644,-0.18892516195774078,-1.259334683418274
1788862468692657400,10.437657470703124,0.1768428534269333,-0.1690509170293808,-1.178188681602478
1788862468702699500,10.447699462890625,0.07131803035736084,-0.2177787721157074,-1.055588722229004
1788862468712741400,10.457741455078125,-0.03470247611403465,-0.20291005074977875,-0.9616061449050903
1788862468722783500,10.467783447265624,-0.13828904926776886,-0.2124340534210205,-0.907230794429779
1788862468732825600,10.47782568359375,-0.21464325487613678,-0.17315781116485596,-0.7761704921722412
1788862468742867500,10.487867431640625,-0.2431686371564865,0.0017266366630792618,-0.6193302869796753
1788862468752909300,10.497909423828125,-0.24284619092941284,0.13673768937587738,-0.553376317024231
1788862468762952400,10.507952392578124,-0.2293117344379425,0.170035719871521,-0.585125744342804
1788862468772994600,10.51799462890625,-0.2341550588607788,0.21248212456703186,-0.6222254037857056
1788862468783036400,10.528036376953125,-0.24860166013240814,0.3945837616920471,-0.5873915553092957
1788862468793078500,10.53807861328125,-0.2504035234451294,0.6023324131965637,-0.4447973072528839
1788862468803120400,10.548120361328126,-0.2520568072795868,0.6554060578346252,-0.33315253257751465
1788862468813162500,10.55816259765625,-0.21349279582500458,0.5519630908966064,-0.31899896264076233
1788862468823204600,10.56820458984375,-0.16796712577342987,0.5145469903945923,-0.2971873879432678
1788862468833247500,10.57824755859375,-0.1577327996492386,0.5559601187705994,-0.14724908769130707
1788862468843289300,10.588289306640625,-0.17832408845424652,0.5710636973381042,0.025424689054489136
1788862468853331500,10.59833154296875,-0.21136702597141266,0.5700846314430237,0.1542346179485321
1788862468863373600,10.60837353515625,-0.2557983994483948,0.5520334839820862,0.2821773886680603
1788862468873415400,10.61841552734375,-0.29719796776771545,0.5491726994514465,0.4115898907184601
1788862468883457500,10.62845751953125,-0.3305402398109436,0.5885688066482544,0.5717180967330933
1788862468893499400,10.63849951171875,-0.3476788401603699,0.6535509824752808,0.7552804350852966
1788862468903541500,10.64854150390625,-0.3327736556529999,0.6656494736671448,0.9056723117828369
1788862468913584400,10.65858447265625,-0.33536848425865173,0.626750111579895,1.0393266677856445
1788862468923626500,10.66862646484375,-0.34555238485336304,0.643206000328064,1.1899334192276
1788862468933668400,10.67866845703125,-0.33419784903526306,0.6853262782096863,1.3384127616882324
1788862468943710500,10.68871044921875,-0.29898473620414734,0.6658514142036438,1.4073848724365234
1788862468953752600,10.698752685546875,-0.2693025767803192,0.6333590745925903,1.3928889036178589
1788862468963794400,10.70879443359375,-0.2540314793586731,0.6584018468856812,1.3682684898376465
1788862468973836500,10.71883642578125,-0.23204946517944336,0.6852239966392517,1.3944708108901978
1788862468983879700,10.728879638671875,-0.2061733901500702,0.63462233543396,1.4861541986465454
1788862468993921500,10.738921630859375,-0.19098830223083496,0.5237364768981934,1.5788788795471191
1788862469003963400,10.74896337890625,-0.18503481149673462,0.4348774552345276,1.6264171600341797
1788862469014005500,10.759005615234376,-0.20020921528339386,0.40086862444877625,1.6400851011276245
1788862469024047400,10.76904736328125,-0.21215802431106567,0.38584810495376587,1.6600673198699951
1788862469034089500,10.77908935546875,-0.2310144454240799,0.45053061842918396,1.7067095041275024
1788862469044131600,10.789131591796876,-0.25626760721206665,0.5233460068702698,1.7534202337265015
1788862469054173400,10.79917333984375,-0.25816723704338074,0.5111456513404846,1.78305184841156
1788862469064216300,10.80921630859375,-0.24924297630786896,0.4581908881664276,1.815954327583313
1788862469074258700,10.8192587890625,-0.2606104910373688,0.39938682317733765,1.8630872964859009
1788862469084300500,10.829300537109376,-0.2987903654575348,0.3710601031780243,1.895127773284912
1788862469094342400,10.83934228515625,-0.34283551573753357,0.3604443371295929,1.8966256380081177
1788862469104384500,10.849384521484374,-0.3846399486064911,0.37700921297073364,1.9083805084228516
1788862469114426400,10.85942626953125,-0.438359797000885,0.4247501492500305,1.9655158519744873
1788862469124468500,10.869468505859375,-0.5049092769622803,0.5040026307106018,2.049426555633545
1788862469134510600,10.879510498046875,-0.5496240854263306,0.5343176126480103,2.120429039001465
1788862469144553500,10.889553466796874,-0.5556633472442627,0.47011518478393555,2.1316728591918945
1788862469154595300,10.89959521484375,-0.546836256980896,0.368469774723053,2.121819496154785
1788862469164637400,10.909637451171875,-0.5531244277954102,0.3092302680015564,2.1558079719543457
1788862469174679600,10.919679443359374,-0.5641918182373047,0.3371928632259369,2.2232108116149902
1788862469184721400,10.929721435546876,-0.5810708999633789,0.39277249574661255,2.2837395668029785
1788862469194763500,10.939763427734375,-0.5558549165725708,0.4261077344417572,2.283369779586792
1788862469204805400,10.949805419921875,-0.49695727229118347,0.400534987449646,2.231757164001465
1788862469214848500,10.9598486328125,-0.4604828357696533,0.2872127294540405,2.1783971786499023
1788862469224890400,10.969890380859376,-0.45023980736732483,0.12222535163164139,2.1265177726745605
1788862469234932500,10.979932373046875,-0.4510871469974518,-0.08500716835260391,2.0443568229675293
1788862469244974300,10.989974365234374,-0.43248921632766724,-0.19544312357902527,1.9410464763641357
1788862469255016400,11.000016357421876,-0.38892337679862976,-0.22094103693962097,1.8557993173599243
1788862469265058600,11.01005859375,-0.324054092168808,-0.21048173308372498,1.7838928699493408
1788862469275100400,11.020100341796875,-0.24711523950099945,-0.15426599979400635,1.7480007410049438
1788862469285142500,11.030142578125,-0.1915944516658783,-0.037792645394802094,1.722948431968689
1788862469295184400,11.040184326171875,-0.1586746722459793,0.13335742056369781,1.6947987079620361
1788862469305227500,11.0502275390625,-0.09171587973833084,0.22355735301971436,1.6536355018615723
1788862469315269400,11.060269287109374,-0.018628830090165138,0.25146791338920593,1.6056329011917114
1788862469325311500,11.0703115234375,0.031878285109996796,0.29233410954475403,1.5448909997940063
1788862469335353300,11.080353271484375,0.06586720049381256,0.3092819154262543,1.4894227981567383
1788862469345395500,11.0903955078125,0.10167686641216278,0.2527400851249695,1.4253495931625366
1788862469355437600,11.1004375,0.1316748857498169,0.14845041930675507,1.3298258781433105
1788862469365479400,11.1104794921875,0.14155015349388123,0.021551333367824554,1.2094533443450928
1788862469375522300,11.120522216796875,0.11431166529655457,-0.10592801868915558,1.0926564931869507
1788862469385564700,11.130564697265624,0.07963144779205322,-0.22845792770385742,0.9862435460090637
1788862469395606500,11.1406064453125,0.04385760426521301,-0.3637736141681671,0.9027270674705505
1788862469405648400,11.1506484375,-0.0017807201948016882,-0.39021188020706177,0.7987934947013855
1788862469415690500,11.1606904296875,-0.04917355626821518,-0.25252965092658997,0.6837685704231262
1788862469425732400,11.170732421875,-0.09059077501296997,-0.04148931801319122,0.580534040927887
1788862469435774500,11.1807744140625,-0.07666885852813721,0.15244978666305542,0.5034199953079224
1788862469445816600,11.190816650390625,-0.03576802462339401,0.3304847478866577,0.42861074209213257
1788862469455858400,11.2008583984375,0.023244306445121765,0.4615963101387024,0.3599468767642975
1788862469465901300,11.2109013671875,0.09067022055387497,0.4843445122241974,0.29092440009117126
1788862469475943400,11.220943359375,0.11945966631174088,0.375548392534256,0.20578493177890778
1788862469485985300,11.2309853515625,0.09884866327047348,0.20624591410160065,0.10525672882795334
1788862469496027400,11.24102734375,0.06782127916812897,0.01811012253165245,0.002473276574164629
1788862469506069500,11.251069580078125,0.05761711671948433,-0.13162636756896973,-0.09474648535251617
1788862469516111400,11.261111328125,0.051681485027074814,-0.18063144385814667,-0.19328361749649048
1788862469526153200,11.2711533203125,0.0428544357419014,-0.10545255243778229,-0.28940004110336304
1788862469536196400,11.2811962890625,0.05012772977352142,0.03146291896700859,-0.3696219027042389
1788862469546238500,11.291238525390625,0.07634308934211731,0.14375218749046326,-0.42135089635849
1788862469556280300,11.3012802734375,0.10899827629327774,0.23242934048175812,-0.4558223783969879
1788862469566322400,11.311322509765626,0.14300976693630219,0.29470735788345337,-0.4888935387134552
1788862469576364300,11.3213642578125,0.16692101955413818,0.32388418912887573,-0.5306770205497742
1788862469586406400,11.331406494140625,0.17693157494068146,0.33493179082870483,-0.5849335789680481
1788862469596448500,11.341448486328124,0.17667043209075928,0.31516510248184204,-0.6458442807197571
1788862469606490400,11.351490478515625,0.18426203727722168,0.2609862983226776,-0.7093875408172607
1788862469616532200,11.3615322265625,0.2130967676639557,0.17418231070041656,-0.7512764930725098
1788862469626575400,11.371575439453125,0.19248709082603455,0.0821240171790123,-0.738702654838562
1788862469636617500,11.381617431640626,0.13299667835235596,0.03684425726532936,-0.6829979419708252
1788862469646659300,11.391659423828125,0.09380906075239182,0.14324605464935303,-0.675777018070221
1788862469656701400,11.401701416015625,0.11997374892234802,0.38635823130607605,-0.7359595894813538
1788862469666743300,11.411743408203124,0.18642467260360718,0.6448968052864075,-0.8326693773269653
1788862469676785400,11.421785400390625,0.2299438714981079,0.8349117040634155,-0.9417086839675903
1788862469686827500,11.43182763671875,0.26061683893203735,0.8906649947166443,-1.0372776985168457
1788862469696869400,11.441869384765624,0.322212815284729,0.7811643481254578,-1.1361126899719238
1788862469706912300,11.451912353515626,0.39606520533561707,0.5329409241676331,-1.2373276948928833
1788862469716954400,11.461954345703125,0.4211575388908386,0.25101104378700256,-1.2346724271774292
1788862469726996500,11.47199658203125,0.35971254110336304,0.15866753458976746,-1.1600788831710815
1788862469737038300,11.482038330078124,0.25901854038238525,0.29425984621047974,-1.114906668663025
1788862469747080400,11.49208056640625,0.18788579106330872,0.5108277797698975,-1.1277316808700562
1788862469757122300,11.502122314453125,0.14096075296401978,0.6706200242042542,-1.1817914247512817
1788862469767164400,11.512164306640624,0.09518395364284515,0.6839470267295837,-1.2275264263153076
1788862469777206500,11.52220654296875,0.059649109840393066,0.5316450595855713,-1.2206275463104248
1788862469787249400,11.53224951171875,0.0451631098985672,0.2999087870121002,-1.2477118968963623
1788862469797291300,11.542291259765625,0.061527069658041,0.10729464143514633,-1.3383578062057495
1788862469807333400,11.55233349609375,0.09015178680419922,-0.09205495566129684,-1.4214526414871216
1788862469817375500,11.56237548828125,0.1483464241027832,-0.3138050436973572,-1.4255435466766357
1788862469827417300,11.572417236328125,0.19341829419136047,-0.43675628304481506,-1.3983529806137085
1788862469837459200,11.582459228515624,0.2420354187488556,-0.3893524408340454,-1.3843632936477661
1788862469847501300,11.592501220703125,0.2521924674510956,-0.24422454833984375,-1.4014333486557007
1788862469857543400,11.60254345703125,0.22739432752132416,-0.18657422065734863,-1.429117202758789
1788862469867585500,11.61258544921875,0.2132582664489746,-0.280729740858078,-1.425605297088623
1788862469877628400,11.62262841796875,0.20958058536052704,-0.41737934947013855,-1.4121620655059814
1788862469887670300,11.632670166015625,0.20603246986865997,-0.49337103962898254,-1.390972375869751
1788862469897712400,11.64271240234375,0.2057659775018692,-0.5331944823265076,-1.4146445989608765
1788862469907754500,11.65275439453125,0.22441023588180542,-0.5868486166000366,-1.452557921409607
1788862469917796400,11.66279638671875,0.25064000487327576,-0.7129807472229004,-1.4891608953475952
1788862469927838200,11.672838134765625,0.2920106053352356,-0.8584634065628052,-1.554115891456604
1788862469937880300,11.68288037109375,0.338588684797287,-1.0094141960144043,-1.6362941265106201
1788862469947922400,11.69292236328125,0.37793660163879395,-1.0826375484466553,-1.7022085189819336
1788862469957965300,11.70296533203125,0.39277347922325134,-1.0240930318832397,-1.7673372030258179
1788862469968007400,11.71300732421875,0.3956475555896759,-0.889297366142273,-1.830704689025879
1788862469978049300,11.72304931640625,0.4124416708946228,-0.8810461759567261,-1.8757365942001343
1788862469988091400,11.73309130859375,0.43926581740379333,-0.9378455281257629,-1.9381757974624634
1788862469998133500,11.743133544921875,0.44810742139816284,-0.9835976362228394,-1.9805272817611694
1788862470008175400,11.75317529296875,0.4363682270050049,-1.0152075290679932,-1.9956670999526978
1788862470018217200,11.76321728515625,0.42075005173683167,-1.0147074460983276,-1.944505214691162
1788862470028259300,11.77325927734375,0.427000492811203,-0.9983130693435669,-1.9256411790847778
1788862470038301400,11.783301513671875,0.4652468264102936,-1.0006299018859863,-1.9086633920669556
1788862470048344300,11.79334423828125,0.5107077956199646,-1.0098062753677368,-1.8718087673187256
1788862470058386400,11.803386474609376,0.5448998808860779,-0.9071894288063049,-1.8275575637817383
1788862470068428300,11.81342822265625,0.5459030866622925,-0.7107104063034058,-1.760176420211792
1788862470078470400,11.823470458984374,0.5472792983055115,-0.5941886305809021,-1.7097525596618652
1788862470088512500,11.833512451171876,0.5273064374923706,-0.6107734441757202,-1.6830666065216064
1788862470098554400,11.843554443359375,0.4892094135284424,-0.626713216304779,-1.6097512245178223
1788862470108596200,11.85359619140625,0.45193982124328613,-0.5937533974647522,-1.5634210109710693
1788862470118638300,11.863638427734376,0.4356575310230255,-0.5004239678382874,-1.5306073427200317
1788862470128681500,11.873681396484375,0.433376282453537,-0.39415237307548523,-1.4714704751968384
1788862470138723300,11.883723388671875,0.41947081685066223,-0.36228132247924805,-1.379289984703064
1788862470148765400,11.893765380859374,0.38022249937057495,-0.36179742217063904,-1.339609146118164
1788862470158807300,11.903807373046876,0.32707273960113525,-0.312718003988266,-1.3088058233261108
1788862470168849400,11.913849365234375,0.28621798753738403,-0.27765509486198425,-1.2529186010360718
1788862470178891500,11.9238916015625,0.2383391112089157,-0.22792726755142212,-1.164755940437317
1788862470188933400,11.933933349609376,0.1929178237915039,-0.16649825870990753,-1.0947561264038086
1788862470198975200,11.943975341796875,0.16962581872940063,-0.10280262678861618,-0.9973850846290588
1788862470209017300,11.954017333984375,0.14773596823215485,-0.08143262565135956,-0.8926650881767273
1788862470219060500,11.964060546875,0.11446885019540787,-0.05327235162258148,-0.8242619633674622
1788862470229102300,11.974102294921876,0.08362971246242523,-0.041732341051101685,-0.7650830745697021
1788862470239144400,11.98414453125,0.04619072377681732,0.017111003398895264,-0.6845805048942566
1788862470249186300,11.994186279296875,0.011981621384620667,0.06584338843822479,-0.6202896237373352
1788862470259228400,12.004228515625,-0.034149184823036194,0.09008126705884933,-0.5569770336151123
1788862470269270500,12.0142705078125,-0.09761949628591537,0.12044715881347656,-0.4848701059818268
1788862470279312400,12.0243125,-0.15509125590324402,0.1437930464744568,-0.39276862144470215
1788862470289354200,12.034354248046874,-0.1732444316148758,0.15348348021507263,-0.2822234630584717
1788862470299396400,12.044396240234375,-0.1886732429265976,0.24170860648155212,-0.17166265845298767
1788862470309439500,12.054439453125,-0.1910778135061264,0.3706740438938141,-0.0767473354935646
1788862470319481300,12.0644814453125,-0.1803492307662964,0.3944806456565857,-0.0007572685135528445
1788862470329523200,12.074523193359376,-0.17395657300949097,0.31470033526420593,0.06320387125015259
1788862470339565300,12.0845654296875,-0.20058193802833557,0.3305204212665558,0.2080937623977661
1788862470349607400,12.094607421875,-0.26854845881462097,0.45724374055862427,0.37415462732315063
1788862470359649500,12.1046494140625,-0.34069857001304626,0.5538679361343384,0.4785112738609314
1788862470369691400,12.11469140625,-0.3945394456386566,0.4894964396953583,0.56312495470047
1788862470379733200,12.124733154296875,-0.43711742758750916,0.37981799244880676,0.6849661469459534
1788862470389775400,12.134775390625,-0.479413241147995,0.3590024411678314,0.854817271232605
1788862470399818500,12.144818603515626,-0.5149024128913879,0.44835957884788513,1.0126279592514038
1788862470409860400,12.1548603515625,-0.5258477330207825,0.5795000791549683,1.1242634057998657
1788862470419902200,12.164902099609375,-0.5057159662246704,0.6853708624839783,1.2338086366653442
1788862470429944300,12.1749443359375,-0.46112218499183655,0.7196516394615173,1.3494318723678589
1788862470439986400,12.184986328125,-0.44005486369132996,0.7004337906837463,1.4577093124389648
1788862470450028500,12.195028564453125,-0.4716458320617676,0.7268949747085571,1.5541870594024658
1788862470460069600,12.205069580078124,-0.5197510123252869,0.7989311218261719,1.6239033937454224
1788862470470111700,12.21511181640625,-0.5347582101821899,0.805108368396759,1.6752099990844727
1788862470480153900,12.22515380859375,-0.5308087468147278,0.7124364376068115,1.7189570665359497
1788862470490196700,12.23519677734375,-0.5268611311912537,0.5930938124656677,1.781114935874939
1788862470500238600,12.245238525390626,-0.5358931422233582,0.5374621152877808,1.87015962600708
1788862470510281000,12.255281005859375,-0.5672752857208252,0.578164279460907,1.9287384748458862
1788862470520322800,12.26532275390625,-0.5930194854736328,0.6343824863433838,1.9426767826080322
1788862470530364700,12.27536474609375,-0.6085355877876282,0.624569833278656,1.9481819868087769
1788862470540406800,12.28540673828125,-0.593680739402771,0.621414303779602,1.9640227556228638
1788862470550448600,12.29544873046875,-0.5677029490470886,0.6354662179946899,1.988516926765442
1788862470560490800,12.30549072265625,-0.5304412245750427,0.6646060943603516,2.0530426502227783
1788862470570532900,12.315532958984376,-0.4811133146286011,0.6756094694137573,2.1150407791137695
1788862470580575700,12.32557568359375,-0.4328099489212036,0.653808057308197,2.1520304679870605
1788862470590617600,12.33561767578125,-0.3946279287338257,0.5953084826469421,2.1838271617889404
1788862470600660000,12.345659912109374,-0.3738667666912079,0.5413102507591248,2.199134349822998
1788862470610701800,12.355701904296875,-0.3637382388114929,0.5110260844230652,2.2040867805480957
1788862470620743700,12.36574365234375,-0.3454105854034424,0.5006108283996582,2.2112956047058105
1788862470630785800,12.375785888671874,-0.32548508048057556,0.4297364056110382,2.2073476314544678
1788862470640827600,12.38582763671875,-0.31952354311943054,0.2576349079608917,2.1956284046173096
1788862470650869800,12.395869873046875,-0.29515373706817627,0.03976677730679512,2.1909594535827637
1788862470660911900,12.405911865234375,-0.243235781788826,-0.11187127977609634,2.1911935806274414
1788862470670954800,12.415954833984374,-0.19675084948539734,-0.19333124160766602,2.1675832271575928
1788862470680996600,12.42599658203125,-0.16972388327121735,-0.21062089502811432,2.1099159717559814
1788862470691038700,12.436038818359375,-0.1604773849248886,-0.21579834818840027,2.0578904151916504
1788862470701080800,12.446080810546874,-0.16940966248512268,-0.24484387040138245,2.0519447326660156
1788862470711122700,12.456122802734376,-0.17470775544643402,-0.2551793158054352,2.0455405712127686
1788862470721164800,12.466164794921875,-0.13342522084712982,-0.1251799464225769,2.0427770614624023
1788862470731206700,12.47620654296875,-0.0659516230225563,0.0782669261097908,2.017793893814087
1788862470741248800,12.486248779296876,0.005360055714845657,0.20453764498233795,1.9506474733352661
1788862470751291000,12.496290771484375,0.07954586297273636,0.20013223588466644,1.8508646488189697
1788862470761332700,12.506332763671875,0.140300914645195,0.08420787006616592,1.7583370208740234
1788862470771375600,12.516375732421874,0.17463412880897522,-0.03598298132419586,1.6927447319030762
