time,seconds_elapsed,z,y,x
1788862458299096600,0.0440966796875,10.471789148712158,3.3054946670532224,0.9452607429504394
1788862458309138400,0.054138427734375,10.285639969635008,2.749590969085693,0.8301894256591796
1788862458319180800,0.064180908203125,9.789142400360106,2.396146949005127,0.6452373474121094
1788862458329222700,0.07422265625,9.019256929016112,2.3300071281433103,0.6001964286804199
1788862458339263700,0.084263671875,9.690980132293701,3.047968350982666,0.26979659957885743
1788862458349305600,0.0943056640625,10.021080686187744,3.8045360755920408,0.4617816452026367
1788862458359347500,0.104347412109375,9.382577030944823,3.9796120719909664,1.2110171272277832
1788862458369389600,0.1143896484375,8.789862482452392,4.0075943038940425,1.6633716033935546
1788862458379431700,0.124431640625,8.231115670013427,4.008492129516601,1.6383821235656737
1788862458389473800,0.134473876953125,7.605929761505126,3.997718222045898,1.333121411895752
1788862458399515600,0.144515625,7.528866395568847,4.145859449768066,1.077690022277832
1788862458409557500,0.1545576171875,7.0853405380249015,4.2588358406066895,1.141585279083252
1788862458419599600,0.164599609375,5.589563050842285,4.236689475250244,1.5550339782714844
1788862458429640400,0.174640380859375,4.563647639465332,3.84987626953125,2.571671858215332
1788862458439682800,0.184682861328125,5.7620952079772945,3.69021294631958,2.702455123901367
1788862458449725200,0.19472509765625,7.051821714782714,3.3541268882751463,2.655169641113281
1788862458459767300,0.204767333984375,6.76691171722412,3.020435031890869,2.430413960266113
1788862458469809400,0.214809326171875,5.221604183197021,3.1247324417114255,2.0060417160034176
1788862458479851300,0.224851318359375,4.553472282409667,3.7898715904235836,1.8733131614685057
1788862458489893000,0.23489306640625,3.993229093933105,3.8111201301574704,1.8435352783203125
1788862458499935200,0.244935302734375,4.1569326324462885,3.3393127655029295,1.9003975677490232
1788862458509976000,0.25497607421875,4.558859236145019,2.5987562644958495,1.7898153785705566
1788862458520018400,0.265018310546875,5.214720853424072,1.9402011703491209,1.7527052528381346
1788862458530060300,0.275060302734375,5.724087256622314,1.1520599113464354,1.7069161460876463
1788862458540102100,0.28510205078125,5.711517697906494,0.3356371452331543,1.9135656768798828
1788862458550144300,0.295144287109375,6.2970496414184565,0.17552490921020505,2.4070704940795897
1788862458560186000,0.30518603515625,6.591237170410156,0.428412459564209,1.9638439117431639
1788862458570228200,0.315228271484375,8.5294930519104,1.5924433792114256,2.469619012451172
1788862458580270300,0.325270263671875,9.106046739196778,0.9910498497009277,3.777451669311523
1788862458590311200,0.335311279296875,6.813000099182129,-0.9325415466308593,4.7955859252929685
1788862458600353300,0.345353271484375,4.740668924713135,-1.2831424522399901,4.8704047271728514
1788862458610395100,0.35539501953125,3.7612908081054686,-0.8134300140380859,4.855291329193115
1788862458620437200,0.365437255859375,3.0597897216796874,-1.135150862121582,5.003432556915283
1788862458630479400,0.375479248046875,3.212719352722168,-1.39177935256958,5.585373197937011
1788862458640521200,0.385521240234375,3.6884172950744625,-1.0919055946350098,6.879888108062744
1788862458650563300,0.395563232421875,4.235193099212646,-0.6470329986572265,8.45332751159668
1788862458660605200,0.405605224609375,4.951209033203125,-0.12599486236572266,9.613767128753661
1788862458670647000,0.41564697265625,5.5726540016174315,0.3694552436828613,10.263643241882324
1788862458680688000,0.425688232421875,5.63744708404541,0.5608417388916015,10.877007779693603
1788862458690730200,0.435730224609375,5.731419499206543,0.9071031539916992,11.201122829437255
1788862458700772400,0.4457724609375,5.689371332550048,1.5652093353271483,11.43440785369873
1788862458710814200,0.455814208984375,5.335927312469482,2.1631611999511717,11.852495318603514
1788862458720856000,0.46585595703125,4.4099698204040525,2.6241946571350097,12.29033494720459
1788862458730898200,0.475898193359375,2.9240684150695797,3.2984616996765133,12.60921268081665
1788862458740940300,0.485940185546875,1.566705711364746,3.7250785079956055,12.377424032592772
1788862458750982400,0.495982421875,0.13108254089355467,3.5941456047058105,12.035801383209227
1788862458761023200,0.506023193359375,-0.7119757186889648,4.00909067993164,11.960084755706786
1788862458771065300,0.5160654296875,-1.7051204948425291,4.567538217163086,12.318766091918945
1788862458781107200,0.526107177734375,-3.8398505500793454,4.854992053985596,13.129053716278076
1788862458791149000,0.536149169921875,-5.491999333190917,5.40715481185913,13.261333358001709
1788862458801191400,0.54619140625,-6.979696389770507,6.725462100982666,14.496891052246093
1788862458811233300,0.5562333984375,-7.464971138763428,6.538115821075439,13.208511283874511
1788862458821275100,0.566275146484375,-15.404443119049072,6.129455525207519,9.746794958496093
1788862458831317200,0.576317138671875,-22.19724214172363,5.744587608337402,10.54047280883789
1788862458841359000,0.586359130859375,-22.91295880050659,4.912602531433105,9.592817864227294
1788862458851401200,0.596401123046875,-18.55266866455078,4.109048599243164,8.645911107635497
1788862458861442300,0.6064423828125,-10.5214688331604,4.089745348358154,7.270741529083251
1788862458871484200,0.616484130859375,-5.58612138595581,4.919785136413574,5.255871194458008
1788862458881526300,0.6265263671875,-6.542156036376952,5.517437725830078,4.099471792602539
1788862458891568000,0.636568115234375,-6.750900493621826,5.173720149993896,2.962824554443359
1788862458901610200,0.6466103515625,-5.479130499267578,2.2577321655273437,7.392546538543701
1788862458911652400,0.65665234375,-5.267991840362549,0.1131260284423828,8.96344210281372
1788862458921694200,0.666694091796875,-4.165910888671875,0.6370072792053222,8.780285675811767
1788862458931736300,0.676736328125,-2.5273791275024413,0.1997662010192871,10.209923342132567
1788862458941778200,0.686778076171875,-0.36092590026855464,-1.8492215072631835,6.747907741546631
1788862458951819300,0.6968193359375,-2.803310868835449,-3.2480338272094724,3.893720087432861
1788862458961861000,0.706861083984375,-3.5351883888244626,-3.786429925537109,6.810605897521972
1788862458971903200,0.7169033203125,-5.353285274505615,-4.229955783081055,1.0805331367492674
1788862458981945300,0.7269453125,-10.11220998687744,-4.608838195800781,3.665073828887939
1788862458991987200,0.7369873046875,-4.639962817382812,-0.3821744400024414,13.744363542938231
1788862459002029000,0.747029052734375,-7.422174784088134,1.6654665298461913,12.34181028289795
1788862459012071200,0.7570712890625,-7.64827720336914,-3.3327287109375,13.903577953338623
1788862459022113300,0.76711328125,-8.67613790359497,-8.380005085754394,12.797606423950194
1788862459032155400,0.7771552734375,-7.916278151702881,-10.941501586914061,9.80021558303833
1788862459042197200,0.787197265625,-6.272509074401855,-15.067908148193359,7.67401487121582
1788862459052239000,0.797239013671875,-4.749198268127441,-17.337312046813963,5.106233590698242
1788862459062280200,0.8072802734375,-5.348347233581543,-17.81330926437378,3.7530607398986815
1788862459072322000,0.817322021484375,-5.118054961395264,-15.57218687286377,3.146429894256592
1788862459082364400,0.827364501953125,-5.446060588836669,-11.294945606994629,4.4008419265747065
1788862459092406300,0.83740625,-5.72648145828247,-7.18245534286499,4.995202488708496
1788862459102448000,0.8474482421875,-5.82239916229248,-6.290764862060547,3.8660371307373045
1788862459112490200,0.857490234375,-5.6389434600830075,-5.4884080307006835,1.4727332962036133
1788862459122532000,0.867531982421875,-4.746804066467285,-3.4489971290588377,-0.8093897987365722
1788862459132574200,0.87757421875,-0.013766659545898436,-2.5074773262023924,-1.3154641746520996
1788862459142616300,0.8876162109375,-2.227505369567871,-3.258508459472656,1.0434230110168456
1788862459152658200,0.897658203125,-8.674791165161132,-2.468870824432373,4.627692533874511
1788862459162700300,0.9077001953125,-11.139771411895751,-3.158251264953613,4.04739790649414
1788862459172741000,0.9177412109375,-9.045144234466552,-6.207117441558838,2.070385885620117
1788862459182783200,0.927783203125,-6.085910982513427,-8.072350172424317,2.8440122970581054
1788862459192825300,0.937825439453125,-4.554370108032226,-7.953238639831542,3.675997373962402
1788862459202867200,0.9478671875,-5.97592734375,-7.2355766921997065,3.7963060073852537
1788862459212909300,0.957909423828125,-6.336553968811034,-6.479008967590332,4.428973796081543
1788862459222951200,0.967951171875,-5.626822814178467,-6.691943277740478,4.759223987579346
1788862459232993000,0.977992919921875,-5.5545478515625,-6.970269220733642,4.85858335647583
1788862459243035400,0.988035400390625,-5.666476779174804,-6.90128628540039,4.904372463226318
1788862459253077200,0.9980771484375,-5.535843151092529,-5.906645133209228,4.09258846282959
1788862459263119000,1.008119140625,-5.389497574615478,-3.162740393066406,2.5279776779174803
1788862459273161200,1.0181611328125,-6.162974348449707,-2.399738251495361,2.0727800872802735
1788862459283202000,1.0282021484375,-7.8724343338012694,-3.693953886413574,2.590675833892822
1788862459293244200,1.038244140625,-8.275109125518798,-4.26482134475708,3.0419828468322754
1788862459303286300,1.048286376953125,-7.607426137542724,-5.6197898468017575,3.8691795204162593
1788862459313328400,1.058328369140625,-7.410503050994873,-8.175151206207275,4.298340167999267
1788862459323370200,1.068370361328125,-7.16958650894165,-9.288006065368652,4.643554119873047
1788862459333412000,1.078412109375,-5.609464852142334,-9.25044702682495,4.809202947235107
1788862459343454200,1.0884541015625,-5.418527269744873,-6.7948939491271965,3.7119103988647457
1788862459353496300,1.098496337890625,-5.154716174316406,-6.076334175872803,3.5996821960449217
1788862459363538200,1.1085380859375,-6.797886701202392,-4.839878656005859,4.355801007843017
1788862459373580300,1.118580322265625,-7.2723875427246085,-5.336525862884521,4.167706539916992
1788862459383622100,1.1286220703125,-6.7100494277954095,-6.6902972640991205,3.8085762908935545
1788862459393664000,1.1386640625,-5.752817676544189,-7.830086891937255,3.47937356262207
1788862459403705300,1.148705322265625,-6.12257219543457,-8.679878843688964,2.975843025970459
1788862459413747200,1.158747314453125,-6.900837372589111,-8.62511148071289,2.808398547363281
1788862459423789300,1.168789306640625,-7.576301515960693,-6.676081691741943,3.3852515098571776
1788862459433831200,1.1788310546875,-6.9433344520568845,-5.437381607818603,3.810820854949951
1788862459443873300,1.188873291015625,-5.9296893241882325,-2.8995278480529785,4.727949728393554
1788862459453915400,1.198915283203125,-6.890512377929687,-1.0547954689025878,4.2706572113037105
1788862459463957200,1.208957275390625,-7.9928926048278806,-3.4575264724731443,2.3050176483154297
1788862459473999400,1.218999267578125,-5.085882876586914,-0.7769184387207031,4.548683879089356
1788862459484041200,1.229041259765625,-8.460360478973389,-0.3550900337219238,3.909581673431396
1788862459494083000,1.2390830078125,-8.013841869354248,-2.2795792556762695,3.7639842849731444
1788862459504125400,1.24912548828125,-6.950666694641113,-1.3869909492492676,3.8220436752319333
1788862459514167300,1.259167236328125,-7.631517791748046,-4.790498246765137,2.5311200675964356
1788862459524209200,1.269209228515625,-7.088183652496338,-10.452934810638427,1.9868881027221679
1788862459534251300,1.279251220703125,-7.114519870758056,-11.422885758209228,3.1386487388610838
1788862459544292000,1.2892919921875,-5.753116951751709,-8.927529077911377,4.592228421783447
1788862459554334200,1.299334228515625,-6.864475434875488,-5.304204140472412,4.892551092529296
1788862459564376300,1.309376220703125,-8.05080235748291,-2.7581203125,4.988169521331787
1788862459574418400,1.31941845703125,-8.027758166503906,2.966266219329834,5.399224018859863
1788862459584460300,1.329460205078125,-7.410503050994873,-0.34491467666625975,3.3194109642028806
1788862459594502100,1.339502197265625,-4.914547820281983,-1.5224129806518554,3.112162882995605
1788862459604544300,1.349544189453125,-8.395866671752929,-0.8010100929260253,3.920654856109619
1788862459614586400,1.35958642578125,-11.479598410034178,-0.9038111267089843,6.7160349319458
1788862459624628200,1.369628173828125,-9.107094202423095,-3.0355484298706052,8.88757583770752
1788862459634670300,1.37967041015625,-9.189544522094726,-5.644031138610839,10.215160658264159
1788862459644712200,1.389712158203125,-4.911854343414307,-5.504568891906738,12.879458193206787
1788862459654754300,1.39975439453125,-4.060266740417481,-8.4391119392395,12.85806001586914
1788862459664796400,1.40979638671875,-5.1319712585449215,-11.473912181091308,8.316858016967773
1788862459674838300,1.41983837890625,-10.639233627319335,-12.609362318420409,2.0011036750793454
1788862459684880400,1.42988037109375,-12.85222414932251,-17.782035005187986,-5.208136798858642
1788862459694922200,1.439922119140625,-9.164255767059325,-20.574422328948973,-6.462548831176758
1788862459704963300,1.44996337890625,-1.5200187789916992,-8.329277938079834,1.9987094734191893
1788862459715005400,1.46000537109375,-5.323956304168701,-0.24660277099609373,5.896469776153564
1788862459725047300,1.47004736328125,-10.848576634979247,-2.3054665611267087,5.134814373016357
1788862459735089400,1.48008935546875,-11.380687953948973,-3.6540006462097168,3.3963246925354
1788862459745131300,1.49013134765625,-9.03407105178833,-3.899406316375732,2.343474512481689
1788862459755173000,1.500173095703125,-6.918045697021484,-3.8673838691711424,3.1528643112182615
1788862459765215500,1.510215576171875,-6.848613848876953,-5.812074167633057,1.779340746307373
1788862459775257300,1.52025732421875,-7.641693148803711,-7.33523533630371,-1.7540519912719725
1788862459785299200,1.53029931640625,-8.097339652252197,-7.064241635894775,-5.628169552612304
1788862459795341300,1.54034130859375,-8.15255592803955,-7.255328855895995,-6.200383749389648
1788862459805383200,1.550383056640625,-8.42788911895752,-6.715885294342041,-3.478625374603271
1788862459815425300,1.56042529296875,-8.927080165100097,-6.0324903579711915,-1.772307778930664
1788862459825467400,1.57046728515625,-9.304316564178466,-4.583699078369141,-2.4250270065307618
1788862459835509200,1.58050927734375,-9.28980171661377,-4.348468765258789,-4.051737397003174
1788862459845551400,1.59055126953125,-9.205555745697021,-5.182698406219482,-4.895394207000732
1788862459855593200,1.60059326171875,-9.895385099029541,-5.644330413818359,-4.50094948348999
1788862459865635300,1.61063525390625,-10.371831229400634,-6.105513508605957,-3.346645008087158
1788862459875677400,1.620677490234375,-10.392032305908202,-6.4828995452880855,-2.8522423652648925
1788862459885719300,1.63071923828125,-10.248829119110107,-6.3618427238464355,-2.863914098358154
1788862459895761200,1.64076123046875,-9.80635072479248,-6.159682321166992,-2.8776807579040526
1788862459905802200,1.65080224609375,-9.527575868988036,-6.144269647979736,-3.1808465431213375
1788862459915844000,1.660843994140625,-9.543736730194091,-6.259640240478515,-3.2709283805847167
1788862459925886500,1.670886474609375,-10.107421583557128,-6.62071577835083,-2.018760912322998
1788862459935928300,1.68092822265625,-7.810185090637207,-2.9008745864868164,-0.4255693450927734
1788862459945970200,1.69097021484375,-7.989450939941406,-4.701763147735595,-0.5865794067382812
1788862459956012300,1.70101220703125,-10.519224269104003,-6.610839696502685,0.021697452545166016
1788862459966054100,1.71105419921875,-9.796025730133056,-3.0175919174194332,-0.5798457145690917
1788862459976096500,1.721096435546875,-8.928726178741455,3.65804086151123,1.4740800346374512
1788862459986138400,1.731138427734375,-9.779864868927001,1.5206173294067382,4.601356315612793
1788862459996180200,1.74118017578125,-10.58491517715454,-1.5075988578796387,4.631134198760986
1788862460006222300,1.751222412109375,-7.087585102081299,-2.4875755249023435,2.608033795928955
1788862460016264200,1.76126416015625,-7.045387297821044,-2.68779063873291,1.6121955429077148
1788862460026306300,1.771306396484375,-6.845022546386718,-3.2486323776245114,1.401356159210205
1788862460036348400,1.781348388671875,-7.663989151763915,-3.548955048370361,0.22655133209228515
1788862460046390300,1.791390380859375,-6.460004991912841,-3.4056022239685055,-1.8257284034729002
1788862460056432000,1.80143212890625,-8.221389225769043,-1.654094071960449,-1.6632219657897949
1788862460066474200,1.81147412109375,-9.68499462814331,-0.04534019393920898,0.07496843948364257
1788862460076516400,1.821516357421875,-10.006715476226805,0.06015431671142578,1.1857283721923828
1788862460086558500,1.831558349609375,-8.099284941101073,-1.1444283935546875,0.8488941261291504
1788862460096600300,1.841600341796875,-5.270535679626464,-1.3189058395385742,3.0967502098083495
1788862460106642200,1.85164208984375,-7.518840676116943,-1.4432546882629393,3.3571196403503416
1788862460116684300,1.861684326171875,-10.006865113830566,-2.6440964584350586,2.1679496032714844
1788862460126726400,1.871726318359375,-12.061838326263427,-3.7970541954040526,0.6395511184692383
1788862460136768300,1.881768310546875,-11.799523606872558,-3.903296894073486,1.67908355178833
1788862460146810400,1.891810302734375,-12.2958715385437,-3.718195178222656,2.690184840393066
1788862460156852200,1.901852294921875,-13.367576056671142,-4.273949238586425,1.5313912368774414
1788862460166894000,1.91189404296875,-11.559953803253173,-5.674257934570313,-0.3315969299316406
1788862460176936400,1.9219365234375,-9.46128641052246,-6.810755535125732,-2.3395839347839353
1788862460186978300,1.931978271484375,-7.838466597747802,-6.254552561950684,-2.187402491760254
1788862460197020400,1.9420205078125,-6.458957528686523,-5.30495232849121,-0.7378630241394043
1788862460207062300,1.952062255859375,-6.505045910644531,-4.904671738433837,-0.36376901473999024
1788862460217104100,1.962104248046875,-6.328174263000488,-5.170727397918701,-1.1318588348388672
1788862460227146500,1.972146484375,-5.284152701568603,-5.161300228881836,-3.22394217300415
1788862460237188400,1.982188232421875,-5.092317293548584,-6.178087746429443,-6.166715288543701
1788862460247230200,1.992230224609375,-5.482422526550293,-7.5813891944885246,-9.09706848297119
1788862460257272300,2.002272216796875,-5.389497574615478,-7.95473501586914,-9.807847100830077
1788862460267314200,2.012314208984375,-5.699097776794433,-5.099200623321533,-8.528146313476562
1788862460277356300,2.022356201171875,-7.714117749023437,-2.780565953063965,-7.0004960166931145
1788862460287398400,2.0323984375,-8.850016799163818,-3.883544730377197,-6.2693666847229
1788862460297440300,2.042440185546875,-9.361328491210937,-4.956147074127197,-4.282328944396973
1788862460307482400,2.052482421875,-9.283217662048338,-4.900182610321044,-2.880074959564209
1788862460317524200,2.062524169921875,-9.83822353439331,-4.664353746795654,-2.4595932929992674
1788862460327566300,2.07256640625,-9.875932210540771,-4.3534068061828615,-2.085050370788574
1788862460337608400,2.0826083984375,-9.543138179779053,-3.640832537078857,-2.0765210273742674
1788862460347650300,2.092650390625,-9.449913952636718,-3.9481881752014156,-2.9415760147094723
1788862460357692200,2.102692138671875,-9.376890802001952,-3.1239842536926266,-3.264793238830566
1788862460367734300,2.112734375,-9.382277755737304,-3.797802383422851,-4.41805025100708
1788862460377776400,2.1227763671875,-9.0144685256958,-4.254346712493896,-4.505288973999023
1788862460387818200,2.132818359375,-8.688557824707031,-4.626046520233154,-3.50496159286499
1788862460397860400,2.1428603515625,-8.830264635467529,-4.620509928894043,-2.189198143005371
1788862460407902200,2.152902099609375,-8.949376168060303,-5.129128144073486,-1.566107160949707
1788862460417944300,2.1629443359375,-8.95730696105957,-5.180603479766845,-1.8372504989624023
1788862460427986400,2.172986328125,-8.685415435028075,-4.829254386138916,-2.463633508300781
1788862460438028300,2.1830283203125,-8.365639875793457,-4.237886576080322,-3.003825257873535
1788862460448070100,2.193070068359375,-8.388085516357421,-3.6750995483398436,-3.1084219429016113
1788862460458112000,2.203112060546875,-8.552088330078124,-3.2028432708740233,-2.756623936462402
1788862460468154000,2.213154052734375,-8.63798031463623,-3.2172084808349606,-2.8015152175903317
1788862460478196200,2.2231962890625,-8.68257232055664,-3.193416101837158,-3.1624411178588865
1788862460488238000,2.233238037109375,-8.647108208465575,-3.333177623748779,-3.144334967803955
1788862460498280000,2.243280029296875,-8.565256439208984,-3.8717233596801757,-2.916436897277832
1788862460508322000,2.253322021484375,-8.685265797424316,-4.326621675109863,-2.7914894981384277
1788862460518364200,2.2633642578125,-8.721328459930419,-4.6179660896301264,-3.1144074470520016
1788862460528406000,2.273406005859375,-8.636035025787352,-4.754435584259033,-3.3255461059570313
1788862460538448100,2.2834482421875,-8.551639417266845,-5.125536841583251,-3.497180437469482
1788862460548490000,2.293489990234375,-8.525153561401366,-5.285050527191162,-3.528005783843994
1788862460558532000,2.303531982421875,-8.529792327117919,-5.2934302330017085,-3.4509424179077146
1788862460568574200,2.31357421875,-8.733149830627442,-4.945073891448974,-3.3119290840148925
1788862460578616000,2.323615966796875,-8.665962546539307,-4.695328730773926,-3.5495535987854003
1788862460588658200,2.333658203125,-8.355464518737792,-3.9278374610900877,-3.525312306976318
1788862460598700000,2.343699951171875,-8.169614614868163,-2.300229244995117,-2.332102054595947
1788862460608742000,2.353741943359375,-8.386289865112305,-2.609230896759033,-1.884535981750488
1788862460618784300,2.3637841796875,-9.255833980560302,-2.3597850112915038,-1.7586907569885253
1788862460628826000,2.373826171875,-11.44054299545288,0.023942016601562498,-2.4378958404541016
1788862460638868000,2.383867919921875,-10.643423480224609,1.4311340423583983,-1.4088380393981932
1788862460648910000,2.39391015625,-11.05791964263916,1.0651204635620117,-0.501136334991455
1788862460658952000,2.403951904296875,-10.588506479644774,0.48228199691772455,-0.6426935081481934
1788862460668994300,2.413994384765625,-7.997232095336914,-2.486528061676025,-2.1142297035217283
1788862460679036200,2.4240361328125,-8.020575561523437,-6.457760427856445,-2.6408044311523438
1788862460689078000,2.434078125,-10.024671988677978,-6.085162794494629,-0.9496002334594726
1788862460699120000,2.4441201171875,-9.824756150054931,-4.828356560516357,-0.5210381362915039
1788862460709162000,2.454161865234375,-8.163180197906494,-4.565443290710449,-1.5363292778015136
1788862460719204000,2.4642041015625,-6.171952604675292,-4.06086529083252,-1.8332102836608886
1788862460729246200,2.47424609375,-6.386532928466797,-3.2248399986267087,-1.7800889343261719
1788862460739288000,2.4842880859375,-7.9849618118286125,-2.855235117340088,-2.756175023651123
1788862460749330000,2.494329833984375,-7.947702048492431,-3.3209073402404785,-3.832518307495117
1788862460759372000,2.5043720703125,-7.893982148742675,-3.2664392524719235,-4.305073860168457
1788862460769414100,2.5144140625,-8.008454915618897,-3.0934581825256346,-4.498405644226074
1788862460779456300,2.524456298828125,-7.836072396087646,-3.1452327934265134,-4.7846623802185055
1788862460789498000,2.534498046875,-7.980622321319579,-3.7624879089355465,-4.819527941894531
1788862460799540000,2.5445400390625,-7.766490910339355,-4.383783239746093,-4.155286618804931
1788862460809582300,2.554582275390625,-8.239944288635254,-4.571578432464599,-3.393032665252685
1788862460819624200,2.564624267578125,-8.513481828308105,-4.653579839324951,-3.296217135620117
1788862460829666000,2.574666015625,-8.765321915435791,-4.44992306060791,-3.3918355644226073
1788862460839708200,2.584708251953125,-8.703820860290527,-4.486733911132812,-3.5947441551208494
1788862460849750000,2.59475,-8.600271638488769,-4.375253896331787,-3.717746265411377
1788862460859792100,2.604792236328125,-8.508094874572754,-4.077475064849853,-3.906738558959961
1788862460869834200,2.614834228515625,-8.428786944580077,-3.7538089279174804,-4.237138388061523
1788862460879876000,2.6248759765625,-8.252064934539794,-3.439719597625732,-4.470423412322998
1788862460889918200,2.634918212890625,-8.3256866355896,-3.1675287963867187,-4.350862966918945
1788862460899961300,2.64496142578125,-8.724171574401854,-2.989609685516357,-3.9854479385375976
1788862460910003200,2.655003173828125,-9.21917276763916,-3.0168437294006347,-3.6424785507202144
1788862460920045000,2.665045166015625,-9.715670336914062,-3.1721675621032714,-3.4100913520812988
1788862460930087200,2.675087158203125,-9.253290141296386,-3.309684519958496,-3.2122704399108883
1788862460940129000,2.68512890625,-8.482357206726073,-3.2501287536621093,-2.8387749809265137
1788862460950171100,2.695171142578125,-8.152256652832031,-3.194164289855957,-2.535160282897949
1788862460960213200,2.705213134765625,-8.091653423309326,-3.171718649291992,-2.579901926422119
1788862460970255000,2.715255126953125,-8.492382926177978,-3.186832047271728,-2.93693724899292
1788862460980297200,2.725297119140625,-9.011475773620605,-3.139696202087402,-3.473687333679199
1788862460990339000,2.735339111328125,-8.355763793945313,-2.883217349243164,-3.8591538009643553
1788862461000381200,2.745381103515625,-7.412747615051269,-2.392854921722412,-4.111891713714599
1788862461010423300,2.75542333984375,-7.1592615142822265,-2.042104378509521,-4.491223039245606
1788862461020465200,2.765465087890625,-7.486668591308593,-1.7555483673095702,-4.786308393859863
1788862461030507000,2.775507080078125,-8.397811960601807,-1.3437456817626952,-4.621557392120361
1788862461040549000,2.785549072265625,-9.01476780090332,-0.8970774345397948,-4.351611154937744
1788862461050591200,2.79559130859375,-8.686762173461913,-0.38142625198364255,-4.050390658569336
1788862461060633000,2.805633056640625,-9.077316319274901,0.37888241271972656,-3.0460230621337887
1788862461070675200,2.81567529296875,-9.433154541015625,0.6272808349609375,-1.6693571075439453
1788862461080717000,2.825717041015625,-9.509918631744384,-0.13347674255371092,-0.9808744926452636
1788862461090759000,2.835759033203125,-10.192116467285155,-1.572541577911377,-1.5984288833618163
1788862461100801300,2.84580126953125,-10.677840129089354,-2.0965724662780763,-2.215983274078369
1788862461110843100,2.855843017578125,-10.088267970275878,-2.083105081939697,-2.633472188568115
1788862461120885200,2.86588525390625,-9.565733457946777,-2.5016414596557617,-3.087472678375244
1788862461130928000,2.87592822265625,-7.69286920928955,-3.6372412345886227,-3.8741175613403316
1788862461140970200,2.88597021484375,-6.618171939086913,-4.566191478729248,-6.074837799835205
1788862461151012000,2.89601220703125,-7.258471245574951,-4.042609503173828,-7.6231380859375
1788862461161054200,2.90605419921875,-8.219892849731444,-3.2537200561523436,-6.127510236358642
1788862461171096000,2.916095947265625,-7.802852848052978,-3.4364275703430174,-4.751293194580078
1788862461181138000,2.926137939453125,-7.256226681518554,-3.649810793304443,-4.697872570037841
1788862461191180300,2.93618017578125,-7.3675570587158195,-3.157054164123535,-5.435885231781006
1788862461201222100,2.94622216796875,-7.764994534301757,-2.2381296394348142,-6.620865415954589
1788862461211264300,2.95626416015625,-8.38883370437622,-1.350180098724365,-7.114968783569336
1788862461221306000,2.96630615234375,-9.368211820983886,-1.25126964263916,-5.898115789794922
1788862461231348000,2.976347900390625,-9.987112950134277,-1.9882348411560058,-3.6152445068359373
1788862461241390300,2.986390380859375,-10.175805968475341,-3.004423808288574,-2.08130943069458
1788862461251432200,2.99643212890625,-9.473257418823241,-3.6456209403991697,-2.417694763946533
1788862461261474000,3.00647412109375,-9.386467608642578,-3.472490232849121,-4.00879140472412
1788862461271516200,3.01651611328125,-8.91316386795044,-2.9885622222900388,-5.7207952293396
1788862461281558000,3.02655810546875,-7.975385005187988,-2.55386498336792,-6.511330690002441
1788862461291600100,3.03660009765625,-7.598597518920898,-2.3897125320434567,-6.25649785079956
1788862461301642200,3.046642333984375,-7.376984227752685,-2.5383026725769042,-5.148281757354736
1788862461311685000,3.05668505859375,-7.178265489959716,-2.6892870147705077,-4.122815258789062
1788862461321727000,3.06672705078125,-7.508665319061278,-2.3843255783081054,-3.3414076919555664
1788862461331769300,3.076769287109375,-8.083572992706298,-1.7049708572387694,-2.7816134162902832
1788862461341811200,3.086811279296875,-8.78447552871704,-1.0078092613220215,-2.5406968742370606
1788862461351853000,3.09685302734375,-8.75260271911621,-0.5734112976074218,-2.4096143333435056
1788862461361895200,3.106895263671875,-8.175001568603514,-0.5668272430419922,-1.9942203453063965
1788862461371937000,3.11693701171875,-7.743446719360351,-1.3142670738220215,-1.802235299682617
1788862461381979100,3.126979248046875,-7.650372129821777,-2.287510048675537,-2.488622988128662
1788862461392021200,3.137021240234375,-8.218396473693847,-3.005920184326172,-3.5506010620117183
1788862461402063000,3.14706298828125,-8.977208762359618,-3.425803300476074,-4.101417081451416
1788862461412105000,3.15710498046875,-9.10320362472534,-3.5244144813537597,-4.317643418884277
1788862461422147000,3.16714697265625,-8.891466415405272,-3.4817677642822265,-4.306121323394775
1788862461432189200,3.177189208984375,-8.763675901794434,-3.407397875213623,-4.170699291992188
1788862461442231300,3.187231201171875,-8.673743701934814,-3.239354846191406,-4.027496105194092
1788862461452273400,3.1972734375,-8.478167353820801,-3.086874127960205,-4.084956945037842
1788862461462315300,3.207315185546875,-8.065017929840087,-2.9722517234802246,-4.294000677490234
1788862461472357400,3.217357421875,-7.902511492156982,-2.916287259674072,-4.4659342842102046
1788862461482399500,3.2273994140625,-8.613589385223388,-3.069665803527832,-4.684554823303222
1788862461492441300,3.23744140625,-9.527126956176756,-3.5443162826538086,-4.452466899871826
1788862461502483500,3.2474833984375,-9.175179312133789,-4.109048599243164,-3.7015854042053222
1788862461512525300,3.257525390625,-8.254010223388672,-4.538957434844971,-2.7961282638549805
1788862461522567200,3.267567138671875,-7.359027715301513,-4.7667058677673335,-2.0397101768493653
1788862461532609500,3.277609619140625,-6.987926457977294,-4.8792333457946775,-1.9545663803100586
1788862461542651400,3.2876513671875,-7.642890249633789,-4.934599259185791,-2.5960627876281737
1788862461552693200,3.297693359375,-8.762478800964354,-5.009268423461914,-3.183240744781494
1788862461562735400,3.3077353515625,-9.141211576080321,-5.003432556915283,-3.150021196746826
1788862461572777200,3.317777099609375,-8.811559934997558,-4.727051902770996,-2.6038439430236813
1788862461582819600,3.327819580078125,-8.246827618408203,-4.348169490051269,-1.9843442634582518
1788862461592862500,3.337862548828125,-8.06920778274536,-3.982604824066162,-1.5837643981933593
1788862461602904300,3.347904296875,-8.081178791046142,-3.756801679992676,-1.539920580291748
1788862461612946200,3.3579462890625,-8.032995482635497,-3.81785382232666,-1.7148469390869139
1788862461622988500,3.367988525390625,-8.393921382904052,-4.0529344978332515,-1.8448820167541502
1788862461633030400,3.378030517578125,-9.476998358917236,-4.465784646606445,-1.8498200576782224
1788862461643072300,3.388072265625,-10.172214665985107,-5.172223773956299,-1.7082628845214842
1788862461653114400,3.3981142578125,-9.980828170776366,-5.8840498550415035,-1.4772224243164063
1788862461663156200,3.40815625,-8.781183501434326,-6.42888037033081,-1.4221557861328125
1788862461673198300,3.4181982421875,-7.645583726501465,-6.670096187591552,-1.7884686401367187
1788862461683240400,3.428240478515625,-7.593509840393066,-6.380547424316406,-2.3087585884094235
1788862461693282300,3.4382822265625,-7.813477117919922,-5.934627365112305,-2.6741736167907715
1788862461703324400,3.448324462890625,-7.715464487457275,-5.501725777435302,-2.6108769104003904
1788862461713366300,3.4583662109375,-7.243657122802734,-5.136310749053955,-2.15792388381958
1788862461723409400,3.468409423828125,-6.641814680480957,-5.0842368629455565,-1.6820763038635254
1788862461733451300,3.478451171875,-7.196371640014648,-5.352985999298095,-1.581370196533203
1788862461743493400,3.488493408203125,-9.028833735656738,-6.047154843139648,-1.9399018951416014
1788862461753535200,3.49853515625,-9.642796823883057,-6.629993309783935,-2.1812673500061033
1788862461763577300,3.508577392578125,-7.943512195587158,-6.4375593513488765,-2.0479402450561524
1788862461773619500,3.518619384765625,-6.838288854217529,-5.848436105346679,-1.8442834663391112
1788862461783661300,3.528661376953125,-7.09940647277832,-5.47808303604126,-1.8240823898315428
1788862461793703400,3.538703369140625,-7.514950098419189,-5.5635261077880855,-1.7521067024230956
1788862461803745300,3.548745361328125,-7.877671649932861,-5.957521918487548,-1.5918448287963867
1788862461813787400,3.558787353515625,-8.300397880554199,-6.474220564270019,-1.3997101455688477
1788862461823829500,3.56882958984375,-8.359804009246826,-6.967126831054687,-1.1367968757629394
1788862461833872400,3.578872314453125,-7.80779088897705,-7.179013677978515,-1.003619408416748
1788862461843914200,3.588914306640625,-7.623287723541259,-7.1121256690979,-1.0078092613220215
1788862461853956400,3.598956298828125,-7.944858934020996,-6.870012026214599,-1.1927613395690917
1788862461863998500,3.60899853515625,-7.775169891357422,-6.534374880981445,-1.2173019065856934
1788862461874040300,3.619040283203125,-7.541435954284667,-6.336254693603515,-1.3836989219665528
1788862461884082400,3.62908251953125,-7.973589353942871,-6.21205548248291,-1.722478456878662
1788862461894124300,3.639124267578125,-8.460210841369628,-6.137835231018066,-1.8180968856811521
1788862461904166400,3.64916650390625,-8.44644418182373,-6.208164904785156,-1.467795255279541
1788862461914208500,3.65920849609375,-7.881711865234375,-6.488585774230956,-0.7826046676635742
1788862461924250400,3.66925048828125,-7.331793671417236,-6.934356195831298,-0.37978023834228514
1788862461934292200,3.679292236328125,-6.711096891021728,-7.26505530014038,-0.22101474075317382
1788862461944335400,3.68933544921875,-6.259789878082275,-7.38042589263916,-0.4150947128295898
1788862461954377500,3.69937744140625,-6.408828931427002,-7.2331824905395505,-0.9953893402099608
1788862461964419300,3.70941943359375,-6.896048969268798,-6.919392435455322,-1.5719430274963377
1788862461974461400,3.71946142578125,-7.185148819732666,-6.476165853118896,-1.7753005310058592
1788862461984503300,3.72950341796875,-6.989572471618652,-6.2413844528198235,-1.717989328765869
1788862461994545400,3.73954541015625,-6.658125179290771,-6.322338396453857,-1.5945383056640625
1788862462004587500,3.74958740234375,-6.594080284881591,-6.545896976470947,-1.4814122772216796
1788862462014629400,3.75962939453125,-6.445340506744384,-6.9339072830200195,-1.445499252319336
1788862462024671200,3.769671142578125,-6.02036971206665,-7.405415372467041,-1.510591609954834
1788862462034713300,3.77971337890625,-6.19933628616333,-7.762450695037841,-1.7348983779907226
1788862462044755500,3.78975537109375,-6.775889973449707,-7.899518740081787,-2.066046395111084
1788862462054798300,3.79979833984375,-7.1130234947204585,-7.718008326721191,-2.1549311317443847
1788862462064840200,3.809840087890625,-6.954108359527588,-7.231835752105712,-1.8792986656188964
1788862462074882300,3.81988232421875,-6.250811621856689,-6.898143895721435,-1.6549918975830078
1788862462084924400,3.82992431640625,-5.497685562133789,-6.788160256958007,-1.4254478134155273
1788862462094966500,3.839966552734375,-5.321113189697265,-6.908917803192138,-1.5949872184753418
1788862462105008400,3.85000830078125,-5.622932236480713,-7.196222002410888,-2.0073884544372556
1788862462115050200,3.86005029296875,-6.299743118286132,-7.359775903320312,-2.2725462882995604
1788862462125092400,3.87009228515625,-6.902034473419189,-7.39913059310913,-2.277783604431152
1788862462135134500,3.880134521484375,-7.38671067199707,-7.739705779266357,-1.863586717224121
1788862462145176300,3.89017626953125,-7.591863826751709,-8.54939485321045,-1.3998597831726074
1788862462155219200,3.90021923828125,-7.7866919868469235,-9.40472339630127,-1.0057143348693847
1788862462165261300,3.91026123046875,-7.362170104980469,-9.882067352294921,-0.7906850982666015
1788862462175303400,3.920303466796875,-6.489184324645996,-9.63366893005371,-0.637755467224121
1788862462185345500,3.930345458984375,-5.816413658142089,-8.898798657989502,-0.42287586822509765
1788862462195387400,3.940387451171875,-5.205892234802246,-8.20956785507202,-0.44861353607177734
1788862462205429200,3.95042919921875,-4.750245731353759,-7.954435740661621,-0.8207622566223144
1788862462215471400,3.960471435546875,-5.077802445983886,-8.0184806350708,-1.0226233840942383
1788862462225513500,3.970513427734375,-5.6681227928161615,-8.107365371704102,-0.9886556480407714
1788862462235555300,3.980555419921875,-5.702389804077148,-7.854028908538818,-0.9217676391601562
1788862462245598200,3.99059814453125,-5.8654947921752925,-7.467365340423584,-0.965910732269287
1788862462255640300,4.000640380859375,-6.506691924285889,-7.2158245285034175,-1.1879729362487792
1788862462265682400,4.010682373046875,-6.957400386810303,-7.355286775207519,-1.3159130874633789
1788862462275724300,4.020724365234375,-7.218069092559814,-7.738658316040039,-1.1483189712524413
1788862462285766400,4.030766357421875,-6.913706206512451,-8.026860340881347,-0.8864531646728515
1788862462295808300,4.040808349609375,-5.9665001747131345,-8.071302709197997,-0.9472060317993164
1788862462305850400,4.050850341796875,-5.358672228240967,-7.733570637512207,-1.4682441680908203
1788862462315892500,4.060892578125,-5.843946977233887,-7.198915479278564,-2.2768857788085937
1788862462325934300,4.070934326171875,-6.6234092552185055,-7.0196496299743645,-2.870498152923584
1788862462335976400,4.0809765625,-6.961590239715576,-6.985382618713379,-2.945167317199707
1788862462346019300,4.091019287109375,-6.896348244476318,-7.027281147766113,-2.701108385467529
1788862462356061400,4.1010615234375,-6.433369498443603,-7.120505374908447,-2.2367829010009763
1788862462366103300,4.111103271484375,-5.906944408416748,-7.238868719482421,-1.7794903839111327
1788862462376145400,4.1211455078125,-5.787683238220215,-7.554903338623046,-1.4303858543395995
1788862462386187300,4.131187255859375,-6.079326927947998,-8.159888170623779,-0.8931868568420409
1788862462396229400,4.1412294921875,-6.5111810523986815,-8.674641527557373,-0.16280571289062498
1788862462406271500,4.151271484375,-6.650942574310302,-8.913612780761719,0.35359365768432616
1788862462416313300,4.161313232421875,-6.573430295562744,-8.663119432067871,0.4182371025085449
1788862462426356200,4.171356201171875,-6.2769982025146485,-8.10137986755371,0.03411737365722656
1788862462436398300,4.1813984375,-5.784690486145019,-7.414692903900146,-0.35404257049560545
1788862462446440700,4.191440673828125,-5.338620789337158,-6.930166342926025,-0.6310217750549316
1788862462456482600,4.201482666015625,-5.103839389038086,-6.9433344520568845,-0.92565821685791
1788862462466524700,4.211524658203125,-5.100248086547851,-7.318775199890136,-1.1103110198974608
1788862462476566500,4.22156640625,-5.058199919891357,-7.821557548522949,-1.2693757926940916
1788862462486608600,4.231608642578125,-5.111620544433594,-8.218995024108887,-1.4833575660705565
1788862462496650800,4.241650634765625,-5.293130957794189,-8.539967684173584,-1.670853483581543
1788862462506692600,4.251692626953125,-5.577741680145263,-8.622717279052734,-1.7755998062133789
1788862462516735500,4.261735595703125,-5.990891104125976,-8.390180442810058,-1.7775450950622558
1788862462526777900,4.27177783203125,-6.328024625396728,-7.95503429107666,-1.5219640678405761
1788862462536819700,4.28181982421875,-6.385934378051758,-7.395389653015136,-1.041926634979248
1788862462546861600,4.291861572265625,-6.555473783111572,-6.760178025054931,-0.2699462371826172
1788862462556903700,4.301903564453125,-6.919691710662842,-6.566098052978515,0.18255787658691405
1788862462566945500,4.311945556640625,-7.390451612091064,-6.63986939163208,0.23882161560058593
1788862462576987600,4.321987548828125,-7.834576020050048,-6.801926916503906,0.0004489128112792969
1788862462587029800,4.33202978515625,-8.20403126373291,-6.8326026252746574,-0.5846341178894042
1788862462597071600,4.342071533203125,-8.422502165222168,-6.826467483520507,-1.1487678840637205
1788862462607114500,4.352114501953125,-8.51662421798706,-6.807463507843017,-1.5548843406677244
1788862462617156900,4.362156982421875,-8.564508251190185,-6.739677673339843,-1.8192939865112303
1788862462627198700,4.37219873046875,-8.524854286193847,-6.730100866699218,-2.067243495941162
1788862462637240600,4.382240478515625,-8.295160564422607,-6.742071875,-2.2327426856994625
1788862462647282700,4.39228271484375,-7.790881839752196,-6.617124475860595,-2.251148110961914
1788862462657324500,4.402324462890625,-7.357680976867675,-6.375609383392334,-2.112733327484131
1788862462667366700,4.41236669921875,-7.198167291259765,-6.098031628417968,-1.8828899681091307
1788862462677408800,4.42240869140625,-7.2909426055908195,-5.698648863983154,-1.546803910064697
1788862462687451600,4.43245166015625,-7.376984227752685,-5.4035635093688965,-1.196352642059326
1788862462697493500,4.442493408203125,-7.584681221771239,-5.207238973236084,-0.7640496047973633
1788862462707535600,4.45253564453125,-7.926902421569824,-5.121496626281738,-0.43290158767700193
1788862462717577700,4.46257763671875,-8.474725688934326,-5.177161814880371,-0.23223756103515625
1788862462727619600,4.47261962890625,-9.087940589141844,-5.335927312469482,-0.241964005279541
1788862462737661700,4.48266162109375,-9.531167171478272,-5.568913061523437,-0.4520552009582519
1788862462747703600,4.49270361328125,-9.666888478088378,-5.7614966575622555,-0.6676829879760742
1788862462757745700,4.50274560546875,-9.502137476348876,-5.84215132598877,-0.8499415893554687
1788862462767788500,4.51278857421875,-9.131934044647217,-5.773617303466796,-0.9066542411804198
1788862462777830700,4.52283056640625,-8.59293939590454,-5.644629689025878,-0.79801734085083
1788862462787872500,4.53287255859375,-8.167818963623047,-5.544821407318115,-0.6513724891662598
1788862462797914600,4.54291455078125,-7.982118697357177,-5.499481213378906,-0.44891281127929683
1788862462807956700,4.552956787109375,-8.11514652709961,-5.517886638641357,-0.3532943824768066
1788862462817998600,4.56299853515625,-8.439860127258301,-5.584924285125732,-0.4364928901672363
1788862462828040700,4.573040771484375,-8.756044384002685,-5.679046337890624,-0.6926724678039551
1788862462838082600,4.58308251953125,-8.927379440307616,-5.729174935150146,-1.1423334671020506
1788862462848125700,4.593125732421875,-8.967931230926514,-5.687725318908691,-1.543661520385742
1788862462858167600,4.60316748046875,-8.996063100433348,-5.547365246582031,-1.6385317611694334
1788862462868209700,4.613209716796875,-9.01431888809204,-5.341613541412353,-1.6240169136047362
1788862462878251500,4.62325146484375,-9.004742081451415,-5.105635040283203,-1.4772224243164063
1788862462888293600,4.633293701171875,-8.795099798583983,-4.975151049804687,-1.2931681716918944
1788862462898335700,4.643335693359375,-8.488641986083984,-4.946869542694092,-1.0866682785034179
1788862462908377600,4.653377685546875,-8.148216437530516,-4.977545251464844,-0.7598597518920898
1788862462918419700,4.663419677734375,-7.902361854553222,-5.040991595458984,-0.4736030158996582
1788862462928462800,4.673462890625,-7.961019795227051,-5.040991595458984,-0.25423428878784177
1788862462938504700,4.683504638671875,-8.441057228088379,-5.03725065536499,-0.0818517692565918
1788862462948546600,4.693546630859375,-8.866626573181152,-5.212476289367675,-0.20440496673583983
1788862462958588700,4.703588623046875,-8.98873085784912,-5.393986702728271,-0.5889736083984375
1788862462968630500,4.713630615234375,-8.882637796783447,-5.410746114349365,-0.8904933799743652
1788862462978672600,4.723672607421875,-8.63169553527832,-5.231031352233886,-1.0298059890747069
1788862462988714800,4.73371484375,-8.315660916137695,-4.873996029663085,-1.0441711990356444
1788862462998756600,4.743756591796875,-8.186972576904296,-4.488679199981689,-1.1088146438598632
1788862463008799500,4.753799560546875,-8.303839545440674,-4.28412459564209,-1.2297218276977537
1788862463018841900,4.763841796875,-8.450933309936524,-4.273201050567627,-1.4172177452087402
1788862463028883700,4.7738837890625,-8.449137658691406,-4.377348822784423,-1.6077064147949218
1788862463038925600,4.783925537109375,-8.336460543060301,-4.553023369598389,-1.880795041656494
1788862463048967700,4.7939677734375,-8.321047869873047,-4.703708436584472,-2.152387292480469
1788862463059009500,4.804009521484375,-8.29246708755493,-4.945672441864013,-2.265214045715332
1788862463069051600,4.8140517578125,-8.329277938079834,-5.221753820800781,-2.3041198226928707
1788862463079093800,4.82409375,-8.540416596984862,-5.157708926391601,-2.240224565887451
1788862463089136600,4.83413671875,-8.921393936157227,-4.965574243164062,-2.194884371948242
1788862463099178500,4.844178466796875,-9.126547090911865,-4.849605100250244,-2.305167285919189
1788862463109220900,4.854220947265625,-9.098564859008789,-4.75653051071167,-2.468870824432373
1788862463119262700,4.8642626953125,-9.106794927215576,-4.3902176567077635,-2.4513632247924804
1788862463129304600,4.8743046875,-8.979752601623535,-3.942202671051025,-2.2459107948303223
1788862463139346700,4.8843466796875,-8.833407025146483,-3.69634808807373,-1.9946692581176757
1788862463149388500,4.894388427734375,-9.141361213684082,-3.8051346260070797,-1.8825906929016112
1788862463159431700,4.904431640625,-9.311948081970215,-4.294150315093994,-2.302922721862793
1788862463169473500,4.9144736328125,-8.435670274353027,-4.6067432693481445,-2.814982601928711
1788862463179515600,4.924515625,-8.054244022369383,-4.564246189880371,-2.8655601119995118
1788862463189557500,4.9345576171875,-8.189217140960693,-4.152293866729736,-2.4685715492248534
1788862463199599600,4.944599609375,-8.489240536499024,-3.621230010986328,-1.9029414070129393
1788862463209641700,4.954641845703125,-8.898649020385742,-3.45393516998291,-1.6253636520385741
1788862463219683600,4.96468359375,-9.405621221923827,-3.5200749908447264,-1.8378490493774413
1788862463229725700,4.9747255859375,-9.197924227905274,-3.5658640975952145,-2.325218724822998
1788862463239768800,4.984768798828125,-8.374468494415282,-3.4831145027160644,-2.855684030151367
1788862463249810700,4.994810791015625,-7.461529473876952,-3.1411925781249996,-3.3282395828247067
1788862463259852500,5.0048525390625,-6.95231270828247,-2.807201446533203,-3.303100465393066
1788862463269894700,5.014894775390625,-6.662165394592285,-2.408716507720947,-2.8356325912475584
1788862463279936500,5.0249365234375,-7.569867098999023,-1.9539678298950194,-2.517353408050537
1788862463289978600,5.034978515625,-8.26792652053833,-2.242768405151367,-2.7832594299316407
1788862463300020700,5.045020751953125,-8.278700428009033,-2.403778466796875,-3.227982388305664
1788862463310063600,5.055063720703125,-8.12083275604248,-2.404975567626953,-3.692607147979736
1788862463320105500,5.06510546875,-8.464550331878662,-2.4443302574157713,-3.808127378082275
1788862463330147800,5.07514794921875,-8.68840818710327,-2.626588858795166,-3.531896361541748
1788862463340189700,5.085189697265625,-9.106794927215576,-2.6048914062499997,-3.0371944435119627
1788862463350231600,5.0952314453125,-9.336039736175536,-2.8495488883972167,-2.9782372276306153
1788862463360273700,5.105273681640625,-9.533711010742186,-3.184587483215332,-3.390937738800049
1788862463370315500,5.1153154296875,-9.746645320892334,-3.046471974945068,-3.938461730957031
1788862463380358700,5.125358642578125,-9.555558100891112,-2.75168589553833,-4.184765226745605
1788862463390400800,5.13540087890625,-8.943241026306152,-2.5541642585754394,-4.116081566619873
1788862463400442600,5.145442626953125,-8.577825997924805,-2.60459213104248,-3.8744168365478515
1788862463410484500,5.155484375,-8.294412376403809,-2.935440872955322,-3.6541502838134763
1788862463420526800,5.16552685546875,-8.494926765441894,-3.1687258972167966,-3.3623569564819333
1788862463430568700,5.175568603515625,-9.028983373260498,-2.983324906158447,-2.910750668334961
1788862463440610600,5.185610595703125,-9.152883309173584,-2.4733599525451657,-2.618209152984619
1788862463450654000,5.195654052734375,-8.638878140258788,-1.881393592071533,-2.488174075317383
1788862463460696300,5.2056962890625,-8.35082575302124,-1.5411176811218261,-2.5086744270324703
1788862463470738200,5.21573828125,-8.141183470153807,-1.5062521194458007,-2.970456072235107
1788862463480780000,5.225780029296875,-7.82724377746582,-1.2189479202270508,-3.375375428009033
1788862463490822100,5.235822265625,-8.214206620788573,-0.9790788414001464,-3.4192192459106443
1788862463500864000,5.245864013671875,-8.932616756439208,-0.9925462257385254,-3.1651345947265623
1788862463510906000,5.255906005859375,-8.647257846069335,-1.1245265922546386,-3.1543606872558594
1788862463520949200,5.26594921875,-8.079832052612304,-1.1180921752929687,-3.693804248809814
1788862463530991000,5.2759912109375,-8.432677522277832,-1.3998597831726074,-4.329764064788818
1788862463541033000,5.286032958984375,-8.686313260650634,-1.6225205375671385,-4.430021259307861
1788862463551075300,5.296075439453125,-8.647407483673096,-1.6072575019836426,-3.981856636047363
1788862463561117200,5.3061171875,-8.197746484375,-1.5312415992736816,-3.4816181266784665
1788862463571159000,5.316158935546875,-8.017283534240722,-1.1110592079162598,-3.2618004867553707
1788862463581201200,5.326201171875,-8.630648072052,-0.7121253562927246,-3.2324715164184568
1788862463591244300,5.336244384765625,-8.88682764968872,-0.5415384880065918,-3.567659748840332
1788862463601286100,5.3462861328125,-8.525003923797607,-0.08304887008666992,-3.69021294631958
1788862463611328000,5.356327880859375,-8.99576382522583,0.22789807052612304,-3.698592652130127
1788862463621370000,5.3663701171875,-8.489539811706543,0.09771335525512695,-3.456479009246826
1788862463631412000,5.376411865234375,-8.559270935058594,0.13766659545898435,-2.4679729988098145
1788862463641454300,5.386454345703125,-9.2956375831604,-0.2688987739562988,-1.9080290855407713
1788862463651496200,5.39649609375,-8.956858048248291,-0.5858312187194824,-2.098966667938232
1788862463661539000,5.4065390625,-8.394220658111571,-0.44053310546874996,-2.446874096679687
1788862463671581000,5.416580810546875,-8.929624004364014,-0.14859014053344727,-2.477849080657959
1788862463681623300,5.426623291015625,-9.619602995300292,-0.1518821678161621,-2.5972598884582516
1788862463691665200,5.4366650390625,-9.055469229125976,-0.13766659545898435,-3.0454245117187497
1788862463701707000,5.44670703125,-8.403498189544678,0.10160393295288085,-3.362805869293213
1788862463711749000,5.4567490234375,-8.347384088134765,0.42871173477172847,-3.4023101966857907
1788862463721791000,5.466791015625,-8.633491186523438,0.5930138236999511,-3.0635306617736813
1788862463731834000,5.476834228515625,-8.953865296173095,0.5957073005676269,-2.7262475028991697
1788862463741876200,5.486876220703125,-8.553734343719482,0.4617816452026367,-2.3225252479553222
1788862463751918000,5.49691796875,-8.558223471832274,0.35239655685424803,-2.1487959899902345
1788862463761960000,5.5069599609375,-8.398859423828124,0.27129297561645505,-2.328510752105713
1788862463772002300,5.517002197265625,-7.581838107299804,0.30481179885864257,-2.3599346488952637
1788862463782044200,5.527044189453125,-7.414094353485107,0.2876034744262695,-2.5393501358032227
1788862463792086000,5.5370859375,-7.824699938201904,0.06329670639038086,-2.762459803009033
1788862463802129200,5.547129150390625,-7.783998509979248,-0.24435820693969726,-2.6530747146606446
1788862463812171300,5.557171142578125,-7.975983555603027,-0.5431845016479492,-2.4064719436645507
1788862463822213000,5.567213134765625,-8.379107260131835,-0.8640075241088867,-2.3605331993103027
1788862463832255200,5.577255126953125,-8.851363537597656,-1.1754033775329589,-2.4697686500549314
1788862463842297000,5.587297119140625,-9.569923310852051,-1.4266449142456055,-2.618209152984619
1788862463852339000,5.5973388671875,-10.08003790206909,-1.591695191192627,-2.7259482276916502
1788862463862382000,5.607382080078125,-10.009857865905762,-1.7366940292358397,-2.5948656867980957
1788862463872424200,5.617424072265625,-9.491213931274414,-1.8180968856811521,-2.4239795433044433
1788862463882466000,5.627466064453125,-9.262118759918213,-1.6953940505981444,-2.4102128837585446
1788862463892508000,5.6375078125,-9.240720582580567,-1.5126865364074706,-2.6315268997192383
1788862463902550300,5.64755029296875,-9.405920497131348,-1.4214075981140135,-2.871096703338623
1788862463912592100,5.657592041015625,-9.157372437286377,-1.3648445838928223,-2.814683326721191
1788862463922634200,5.66763427734375,-8.749011416625976,-1.4413093994140624,-2.596362062835693
1788862463932676000,5.677676025390625,-8.535328918457031,-1.6469114669799805,-2.403179916381836
1788862463942719200,5.68771923828125,-8.515127841949463,-1.8507178833007811,-2.2559365142822263
1788862463952761000,5.697760986328125,-8.523507547760008,-2.076820302581787,-2.2034137153625486
1788862463962803200,5.70780322265625,-8.685415435028075,-2.2916999015808104,-2.249053184509277
1788862463972845000,5.717844970703125,-8.809315370941162,-2.407519406890869,-2.332700605010986
1788862463982887000,5.727886962890625,-9.00204860458374,-2.558054836273193,-2.3035212722778318
1788862463992929300,5.73792919921875,-9.37823754043579,-2.745850028991699,-2.1027076080322264
1788862464002972200,5.74797216796875,-9.51201355819702,-2.920776387786865,-1.815104133605957
1788862464013014000,5.758013916015625,-9.291148455047606,-2.96207636642456,-1.3768155921936034
1788862464023056100,5.76805615234375,-8.64456436920166,-2.8520927276611325,-1.0416273597717285
1788862464033098200,5.77809814453125,-8.35785872039795,-2.530072604370117,-0.9264064048767089
1788862464043140000,5.78814013671875,-8.431929334259033,-2.1459528755187987,-0.9855132583618164
1788862464053182200,5.79818212890625,-8.594435771942138,-1.9161095161437987,-1.0694599540710448
1788862464063225000,5.80822509765625,-8.623615104675292,-1.9092261863708495,-1.037437506866455
1788862464073267200,5.81826708984375,-8.646808933258056,-2.1820155380249022,-0.8973767097473144
1788862464083309000,5.82830908203125,-8.769511768341063,-2.6816554969787596,-0.8295908752441405
1788862464093351200,5.83835107421875,-8.658331028747558,-3.3360207382202147,-0.7906850982666015
1788862464103393000,5.84839306640625,-8.334964167022704,-3.91362188873291,-0.9039607643127441
1788862464113435100,5.85843505859375,-8.313865264892577,-4.378097010803223,-1.263539926147461
1788862464123477200,5.868477294921875,-8.802282403564453,-4.755034134674072,-1.7497125007629393
1788862464133520100,5.87852001953125,-9.457395832824707,-5.046977099609375,-2.1193173820495605
1788862464143562000,5.88856201171875,-9.77417863998413,-5.258863946533203,-2.3184850326538085
1788862464153604000,5.89860400390625,-9.203161544036865,-5.267542927551269,-2.4754548789978026
1788862464163646200,5.908646240234375,-8.53009160232544,-5.200056368255615,-2.5623943267822265
1788862464173688000,5.91868798828125,-8.166322587585448,-5.120598800659179,-2.64304899520874
1788862464183730200,5.928730224609375,-8.212710244750976,-5.110722718811035,-2.7160721458435058
1788862464193772000,5.93877197265625,-8.593687583923339,-5.243151998138427,-2.6753707176208494
1788862464203815200,5.948815185546875,-8.666411459350586,-5.575347478485107,-2.51555775680542
1788862464213857300,5.958857177734375,-8.56061767349243,-6.037278761291503,-2.177676047515869
1788862464223899100,5.968899169921875,-8.499116618347168,-6.42888037033081,-1.7262193969726563
1788862464233941000,5.97894091796875,-8.343643148040771,-6.608295857238769,-1.2975076622009276
1788862464243983000,5.988983154296875,-8.105569720458984,-6.738181297302246,-0.9980828170776367
1788862464254025200,5.999025146484375,-7.9761331932067865,-6.714239280700683,-0.9160814102172851
1788862464264068000,6.009068115234375,-7.781604308319092,-6.540809297943115,-0.8463502868652343
1788862464274110000,6.01910986328125,-7.510610607910156,-6.301838044738769,-0.7006032608032227
1788862464284152000,6.029152099609375,-7.332990772247314,-6.102820031738281,-0.5871779571533203
1788862464294194200,6.039194091796875,-7.256525956726073,-6.005256314086914,-0.5015852478027344
1788862464304236300,6.049236328125,-7.190685411071777,-5.992686755371094,-0.6292261238098145
1788862464314278100,6.059278076171875,-7.184101356506347,-6.158784495544433,-0.8301894256591796
1788862464324321000,6.069321044921875,-7.247398062896728,-6.469282523345947,-1.0809820495605469
1788862464334363100,6.079363037109375,-7.148487606811523,-6.883778685760498,-1.301248602294922
1788862464344405200,6.0894052734375,-7.199514029693603,-7.2717889923095695,-1.4628572143554686
1788862464354447000,6.099447021484375,-7.311293319702148,-7.5923127395629875,-1.5556325286865234
1788862464364489000,6.109489013671875,-7.310994044494628,-7.911190473175048,-1.633144807434082
1788862464374531000,6.119531005859375,-7.128885080718994,-8.060229526519775,-1.6690578323364256
1788862464384573200,6.1295732421875,-7.15686731262207,-8.159888170623779,-1.7750012557983397
1788862464394616000,6.139615966796875,-7.580790644073486,-8.10182878036499,-1.7079636093139647
1788862464404658200,6.149658203125,-7.822156098937988,-7.963264359283447,-1.5846622238159178
1788862464414700000,6.159699951171875,-7.75691410369873,-7.991096953582764,-1.5562310791015623
1788862464424742100,6.1697421875,-7.736264114379883,-8.181136710357665,-1.6922516609191893
1788862464434784300,6.1797841796875,-7.832032180786133,-8.31955149383545,-1.784428424835205
1788862464444826000,6.189826171875,-7.624933737182617,-8.251915296936035,-1.5812205589294432
1788862464454869200,6.199869140625,-7.129034718322753,-8.181435985565185,-1.3420996681213377
1788862464464911000,6.2099111328125,-6.657526628875732,-8.05065271987915,-1.2190975578308105
1788862464474953200,6.219953125,-6.2772974777221675,-7.939771255493164,-1.1622352684020996
1788862464484995000,6.2299951171875,-5.938817218017578,-7.850437606048583,-1.1777975791931152
1788862464495037200,6.240037109375,-5.768978537750244,-7.770980038452148,-1.2551602203369139
1788862464505079300,6.250079345703125,-5.84828646774292,-7.765144171905517,-1.3998597831726074
1788862464515121200,6.26012109375,-6.098330903625488,-7.862258976745605,-1.5882535263061524
1788862464525164000,6.2701640625,-6.536619445037841,-8.075193286895752,-1.7230770072937012
1788862464535206100,6.2802060546875,-6.713491092681885,-8.19744720916748,-1.818246523284912
1788862464545248300,6.290248291015625,-6.576123772430419,-8.08342335510254,-1.8206407249450682
1788862464555290000,6.3002900390625,-6.406285092163086,-7.8815622276306145,-1.7747019805908202
1788862464565332200,6.310332275390625,-6.330418827056884,-7.680748563385009,-1.5222633430480956
1788862464575374000,6.3203740234375,-6.199635561370849,-7.549067472076415,-1.1807903312683106
1788862464585417200,6.330417236328125,-5.935824465942383,-7.528267845153808,-1.031751277923584
1788862464595459300,6.340459228515625,-5.954828441619873,-7.592612014770507,-0.9323919090270996
1788862464605501200,6.350501220703125,-5.963956335449218,-7.602488096618652,-0.8655039001464844
1788862464615543000,6.36054296875,-6.188861653900146,-7.601290995788574,-1.0194809944152832
1788862464625585200,6.370585205078125,-6.546944439697265,-7.583334483337402,-1.2451345008850097
1788862464635627300,6.380627197265625,-6.885424699401855,-7.713968111419677,-1.3922282653808593
1788862464645669000,6.390669189453125,-7.222408583068847,-7.858518036651611,-1.4080898513793945
1788862464655712000,6.4007119140625,-7.370998723602295,-7.973140441131592,-1.3215993164062498
1788862464665754000,6.410754150390625,-7.153724922943115,-7.931690824890136,-1.2600982612609863
1788862464675796200,6.420796142578125,-6.927472866058349,-7.848492317199707,-1.300500414276123
1788862464685838300,6.43083837890625,-6.773346134185791,-7.711573909759521,-1.3762170417785644
1788862464695880200,6.440880126953125,-6.528838289642334,-7.5339540740966795,-1.3507786491394043
1788862464705922000,6.450922119140625,-6.138583419036864,-7.419930220031738,-1.24498486328125
1788862464715965200,6.460965087890625,-5.863250228118896,-7.472303381347656,-1.2424410240173338
1788862464726007300,6.47100732421875,-5.886892969512939,-7.701398552703857,-1.3634978454589843
1788862464736049200,6.481049072265625,-6.150404789733886,-8.010699479675292,-1.5921441040039062
1788862464746091000,6.491091064453125,-6.552331393432617,-8.087912483215332,-1.8592472267150877
1788862464756133000,6.501133056640625,-7.091924592590332,-8.13923818130493,-1.8435352783203125
1788862464766175200,6.51117529296875,-7.558345003509521,-8.150311363983153,-1.7521067024230956
1788862464776218000,6.521218017578125,-7.912088298797607,-7.917475252532959,-1.6069582267761229
1788862464786260200,6.53126025390625,-8.199392498016357,-7.569717461395263,-1.499668064880371
1788862464796302000,6.541302001953125,-8.274959487915039,-7.228094812011718,-1.492036547088623
1788862464806344200,6.55134423828125,-8.046612504577636,-6.8822823097229,-1.4655506912231444
1788862464816386300,6.56138623046875,-7.66728117904663,-6.650643299102783,-1.4429554130554199
1788862464826428200,6.57142822265625,-7.349450908660888,-6.628945846557617,-1.454926421356201
1788862464836470000,6.581469970703125,-7.160009702301025,-6.675782416534424,-1.3664905975341797
1788862464846513200,6.59151318359375,-7.009174997711181,-6.739677673339843,-1.3051391799926757
1788862464856555300,6.60155517578125,-6.790404821014404,-6.855197903442383,-1.3229460548400878
1788862464866597000,6.61159716796875,-6.517465831756591,-6.823325093841552,-1.3705308128356932
1788862464876639200,6.62163916015625,-6.4375593513488765,-6.692392190551757,-1.3013982398986816
1788862464886681000,6.63168115234375,-6.481403169250488,-6.610241146087646,-1.156249764251709
1788862464896723200,6.64172314453125,-6.591985358428954,-6.485144109344482,-0.9163806854248047
1788862464906766000,6.65176611328125,-6.969521032714844,-6.375310108184814,-0.6573579933166503
1788862464916808200,6.66180810546875,-7.442675135803222,-6.332663391113281,-0.5615899269104003
1788862464926850000,6.67185009765625,-8.084321180725096,-6.250961259460449,-0.5336076950073242
1788862464936892200,6.68189208984375,-8.70172593383789,-6.188562378692627,-0.6923731925964355
1788862464946934300,6.691934326171875,-9.179369165039063,-6.227318518066406,-1.04057989654541
1788862464956976000,6.70197607421875,-9.41699367980957,-6.407931105804443,-1.5272013839721679
1788862464967018200,6.712018310546875,-9.549123683929443,-6.5114803276062005,-1.8544588233947752
1788862464977061400,6.722061279296875,-9.586832360076905,-6.559065085601806,-1.9559131187438963
1788862464987103200,6.732103271484375,-9.427767587280274,-6.594379560089111,-1.9336171157836912
1788862464997145000,6.74214501953125,-8.934562045288086,-6.399401762390136,-2.0561703132629394
1788862465007187200,6.752187255859375,-8.520215520477294,-6.1756935447692864,-1.9343653038024902
1788862465017229000,6.76222900390625,-8.286182308197022,-5.638494547271728,-1.481711552429199
1788862465027271200,6.772271240234375,-8.47173293685913,-5.262006336212158,-1.024119760131836
1788862465037314300,6.782314208984375,-8.523956460571288,-5.226841499328613,-0.8521861534118652
1788862465047356200,6.792356201171875,-8.517372406005858,-5.274725532531738,-0.856824919128418
1788862465057398000,6.80239794921875,-8.548048114776611,-5.310339282226562,-0.9068038787841797
1788862465067440400,6.8124404296875,-8.68930601272583,-5.406705899047851,-1.0380360572814942
1788862465077482200,6.822482177734375,-8.768015392303466,-5.557091690826415,-1.1463736824035644
1788862465087524000,6.832524169921875,-8.711003465270995,-5.613804342651367,-1.374571028137207
1788862465097567000,6.84256689453125,-8.58710352935791,-5.485116003417969,-1.5620669456481933
1788862465107609300,6.852609375,-8.728810340118407,-5.229235700988769,-1.527650296783447
1788862465117651200,6.862651123046875,-8.81604906311035,-4.8704047271728514,-1.3455413330078123
1788862465127693000,6.872693115234375,-8.622418003845214,-4.525789325714111,-1.160738892364502
1788862465137735200,6.882735107421875,-8.494477852630615,-4.076427601623535,-0.979976667022705
1788862465147777000,6.892777099609375,-8.60655641784668,-3.5850177108764645,-0.9376292251586914
1788862465157820200,6.902820068359375,-8.713547304534911,-3.372831588745117,-1.100584575653076
1788862465167862300,6.9128623046875,-8.80422769241333,-3.400364907836914,-1.364246033477783
1788862465177904000,6.922904052734375,-8.876053742218017,-3.4281975021362303,-1.7329530891418456
1788862465187946000,6.932946044921875,-8.341697859191894,-3.416825044250488,-2.1972785736083984
1788862465197988400,6.94298828125,-7.763498158264159,-3.519027527618408,-2.64304899520874
1788862465208030200,6.9530302734375,-7.8532807205200195,-3.775656018066406,-2.9755437507629394
1788862465218073000,6.963072998046875,-8.078934226989746,-4.029441394042968,-3.1311668586730956
1788862465228115200,6.973115234375,-8.18427910003662,-3.829226280212402,-2.853289828491211
1788862465238157300,6.9831572265625,-8.530241239929198,-3.3188124137878416,-2.509721890258789
1788862465248199200,6.99319921875,-8.84837078552246,-3.2134675407409667,-2.440738954925537
1788862465258241300,7.0032412109375,-8.99531491241455,-3.2249896362304686,-2.463633508300781
1788862465268283100,7.013283203125,-9.007136283111572,-3.243694336700439,-2.584391054534912
1788862465278325000,7.023324951171875,-8.748562503814696,-3.2294787643432614,-2.7726351600646972
1788862465288368000,7.0333681640625,-8.743325187683105,-3.1741128509521483,-2.955193036651611
1788862465298410200,7.04341015625,-8.595782510375976,-3.229179489135742,-3.1022868011474607
1788862465308452000,7.0534521484375,-8.841936368560791,-3.340809141540527,-3.2014965324401854
1788862465318494200,7.063494140625,-8.921543573760985,-3.4585739356994627,-3.273172944641113
1788862465328536300,7.073536376953125,-8.671349500274658,-3.4011130958557128,-3.2130186279296873
1788862465338578200,7.083578125,-8.75843858566284,-3.1048306404113766,-2.945765867614746
1788862465348621000,7.09362109375,-8.95042363128662,-2.5049334869384765,-2.696768894958496
1788862465358663200,7.1036630859375,-8.546551738739014,-1.9428946472167967,-2.410661796569824
1788862465368705300,7.113705322265625,-8.062773365783691,-1.617732134246826,-2.2577321655273437
1788862465378747100,7.1237470703125,-7.8721350585937495,-1.5569792671203613,-2.409315058135986
1788862465388789200,7.133789306640625,-7.908945909118652,-1.7169418655395507,-2.7269956909179687
1788862465398831000,7.1438310546875,-7.840711161804199,-1.788917552947998,-3.0542531303405758
1788862465408874200,7.153874267578125,-7.801805384826659,-1.9265841484069823,-3.152714673614502
1788862465418916400,7.163916259765625,-7.7693340248107905,-1.872564973449707,-3.034500966644287
1788862465428958200,7.173958251953125,-7.490409531402587,-1.679682102203369,-2.8930934310913083
1788862465439000000,7.184,-7.752574613189696,-1.3997101455688477,-2.8700492401123046
1788862465449042000,7.1940419921875,-8.20343271331787,-1.1236287666320801,-2.891597055053711
1788862465459083800,7.204083740234375,-8.649203134918212,-1.2074258247375487,-3.0538042175292968
1788862465469125600,7.214125732421875,-7.955333566284179,-1.392976453399658,-3.162291480255127
1788862465479168800,7.224168701171875,-7.228394087219238,-1.3117232345581054,-3.158700177764892
1788862465489211000,7.2342109375,-8.032845845031737,-1.2568062339782715,-3.4543840827941894
1788862465499252700,7.244252685546875,-7.747337297058105,-1.1137526847839354,-3.6037224113464355
1788862465509294800,7.254294921875,-7.604583023071289,-0.8075941474914551,-3.541473168182373
1788862465519336700,7.264336669921875,-8.4268416557312,-0.4052186309814453,-3.5872622749328613
1788862465529378600,7.274378662109375,-9.213187263488768,-0.11866261978149413,-3.864989667510986
1788862465539421700,7.284421630859375,-8.631994810485839,0.2362777763366699,-3.8545150352478026
1788862465549463800,7.2944638671875,-8.078485314178467,0.38681320571899414,-3.637540509796142
1788862465559505700,7.304505615234375,-8.290072885894775,0.05746083984375,-3.4789246498107906
1788862465569547800,7.3145478515625,-8.686911811065674,-0.005237316131591796,-3.2679356285095214
1788862465579590000,7.32458984375,-9.140613025665283,-0.09606734161376952,-3.1777041534423827
1788862465589631700,7.3346318359375,-8.600271638488769,0.06434416961669921,-2.896535095977783
1788862465599674600,7.344674560546875,-8.340351120758056,0.14634557647705076,-2.5891794578552245
1788862465609716700,7.354716796875,-8.95715732345581,0.026186580657958983,-2.4501661239624024
1788862465619758800,7.3647587890625,-9.46802010269165,-0.2480991470336914,-2.4275708457946776
1788862465629800700,7.37480078125,-8.882338521575928,-0.36062662506103516,-2.645143921661377
1788862465639842800,7.3848427734375,-8.124124783325195,-0.1514332550048828,-3.04527487411499
1788862465649884700,7.394884765625,-7.876624186706542,0.0469862075805664,-3.408594976043701
1788862465659927800,7.404927734375,-7.786093436431885,0.23074118499755858,-3.3993174446105954
1788862465669970000,7.414969970703125,-7.586027960205078,0.4445733207702636,-3.1197944007873533
1788862465680011800,7.42501171875,-7.523629079437256,0.610371785736084,-2.816778253173828
1788862465690053600,7.4350537109375,-7.8435542762756345,0.6474819114685059,-2.602946117401123
1788862465700095700,7.445095703125,-8.14612151107788,0.5238812507629395,-2.512714642333984
1788862465710137900,7.455137939453125,-7.73117643585205,0.47644613037109373,-2.3952491233825683
1788862465720179700,7.4651796875,-7.349001995849609,0.49844285812377925,-2.4465748214721676
1788862465730222600,7.47522265625,-7.472004106140136,0.4182371025085449,-2.647089210510254
1788862465740264700,7.4852646484375,-8.022520850372313,0.23089082260131835,-2.919429649353027
1788862465750306800,7.495306884765625,-8.419509413146972,-0.09935936889648436,-3.0635306617736813
1788862465760348700,7.5053486328125,-8.776095822906493,-0.6519710395812988,-3.022230683135986
1788862465770390800,7.515390869140625,-9.171737647247314,-1.3067851936340331,-2.7850550811767576
1788862465780432600,7.5254326171875,-9.66673884048462,-1.8372504989624023,-2.385373041534424
1788862465790475800,7.535475830078125,-9.915735813140868,-2.1779753227233885,-1.8640356300354002
1788862465800518000,7.545517822265625,-9.61526350479126,-2.258629991149902,-1.5376760162353516
1788862465810559700,7.555559814453125,-9.068038787841797,-2.086546746826172,-1.4823101028442383
1788862465820601600,7.5656015625,-8.723423386383056,-1.7534534408569336,-1.6294038673400877
1788862465830643700,7.575643798828125,-8.579023098754883,-1.468992356109619,-1.9200000938415527
1788862465840685800,7.585685791015625,-8.622866916656493,-1.3431471313476562,-2.1447557746887207
1788862465850728700,7.595728759765625,-8.28034644165039,-1.4221557861328125,-2.1637597503662107
1788862465860770800,7.605770751953125,-8.12113203125,-1.712303099822998,-2.1025579704284665
1788862465870812700,7.615812744140625,-8.492532563781738,-2.134281142425537,-1.932569652557373
1788862465880854800,7.625854736328125,-8.821884929656981,-2.665344998168945,-1.6672621810913084
1788862465890897000,7.63589697265625,-8.754548007965088,-3.193565739440918,-1.284489190673828
1788862465900938800,7.645938720703125,-8.774300171661377,-3.7434839332580565,-1.0844237144470215
1788862465910981600,7.655981689453125,-9.099013771820069,-4.223222090911865,-1.0518027168273925
1788862465921023700,7.666023681640625,-9.491513206481933,-4.594622623443604,-1.1279682571411132
1788862465931065900,7.67606591796875,-9.782408708190918,-4.745457328033447,-1.1020809516906738
1788862465941107700,7.686107666015625,-9.549722234344483,-4.7855602058410645,-1.1240776794433593
1788862465951149800,7.69614990234375,-8.781482776641845,-4.681412433624267,-1.2943652725219725
1788862465961191700,7.706191650390625,-8.462006492614746,-4.453065450286865,-1.6692074699401855
1788862465971233800,7.71623388671875,-8.80437733001709,-4.278737641906738,-2.1625626495361328
1788862465981276700,7.726276611328125,-9.047388798522949,-4.114136277770996,-2.50253928527832
1788862465991318800,7.73631884765625,-8.750807067871094,-4.129399313354492,-2.603544667816162
1788862466001360600,7.746360595703125,-8.398560148620605,-4.220827889251709,-2.366219428253174
1788862466011402800,7.75640283203125,-8.19744720916748,-4.484938259887695,-1.9348142166137694
1788862466021444900,7.76644482421875,-8.214505895996094,-4.942081139373779,-1.371428638458252
1788862466031486700,7.77648681640625,-8.192359530639648,-5.380369680786132,-0.9651625442504882
1788862466041529600,7.786529541015625,-8.027608528900146,-5.663484027099609,-0.8125321884155273
1788862466051572000,7.796572021484375,-7.89727417602539,-5.846490816497802,-0.802506468963623
1788862466061613800,7.80661376953125,-8.224681253051758,-6.022614276123046,-0.9156324974060058
1788862466071655700,7.81665576171875,-8.421903614807128,-6.2487166954040525,-1.3359645263671873
1788862466081697800,7.82669775390625,-8.467543083953856,-6.405686541748047,-1.8462287551879881
1788862466091739600,7.83673974609375,-8.43357534790039,-6.504447360229491,-2.1302409271240235
1788862466101781800,7.84678173828125,-8.295759114837645,-6.670994013214111,-2.2384289146423337
1788862466111824600,7.85682470703125,-8.222287051391602,-6.810456259918213,-2.038513076019287
1788862466121866800,7.86686669921875,-7.908496996307373,-6.921936274719238,-1.6959926010131834
1788862466131908600,7.87690869140625,-7.319373750305175,-7.0184525291442865,-1.4278420150756834
1788862466141950700,7.88695068359375,-6.908618527984618,-7.050774251556396,-1.237203707885742
1788862466151992800,7.896992919921875,-6.891110928344726,-7.089380753326416,-1.2981062126159668
1788862466162034700,7.90703466796875,-7.142502102661132,-7.275978845214843,-1.4053963745117186
1788862466172077600,7.91707763671875,-7.334337510681152,-7.508515681457519,-1.4050970993041991
1788862466182120000,7.927119873046875,-7.022492744445801,-7.6951137733459465,-1.3673884231567381
1788862466192161800,7.937161865234375,-6.60754766921997,-7.890390846252441,-1.368735161590576
1788862466202203600,7.94720361328125,-6.353762293243408,-8.021922299957275,-1.4504372932434082
1788862466212245800,7.957245849609375,-6.536619445037841,-8.106168270874022,-1.4565724349975586
1788862466222287600,7.96728759765625,-7.332392221832275,-8.190414241790771,-1.5077484954833984
1788862466232330800,7.977330810546875,-8.324339897155761,-8.157194693756104,-1.584512586212158
1788862466242372900,7.987372802734375,-8.715642230987548,-8.027159616088866,-1.6793828269958495
1788862466252414700,7.997414794921875,-8.083722630310058,-7.810634003448486,-1.9283797996520995
1788862466262456600,8.00745654296875,-7.407809574127197,-7.498938874816894,-2.1350293304443357
1788862466272499000,8.0174990234375,-7.031471000671386,-7.175422375488281,-2.2559365142822263
1788862466282540800,8.027540771484375,-6.714538555908203,-6.961141326904296,-2.2273557319641113
1788862466292582700,8.037582763671875,-6.6605193809509275,-7.0001967414855955,-2.182614088439941
1788862466302625500,8.04762548828125,-6.742221512603759,-7.237222705841064,-1.8855834449768065
1788862466312668000,8.05766796875,-6.871957315063476,-7.696460511779785,-1.577629256439209
1788862466322709800,8.067709716796875,-7.125742691040038,-8.326285186004638,-1.4659996040344236
1788862466332752000,8.077751953125,-7.6485764785766595,-8.901192859649658,-1.3486837226867674
1788862466342793700,8.087793701171876,-7.998279558563232,-9.200019154357909,-1.1864765602111815
1788862466352835600,8.097835693359375,-8.091204510498047,-9.163657216644287,-0.9715969612121581
1788862466362878700,8.107878662109375,-8.15958889541626,-8.95670841064453,-1.0330980163574217
1788862466372920800,8.1179208984375,-8.336161267852782,-8.810662109374999,-1.1942577156066894
1788862466382962700,8.127962646484375,-8.10137986755371,-8.588150992584229,-1.3453916954040526
1788862466393004500,8.138004638671875,-7.473650119781493,-8.305485559082031,-1.4106336906433106
1788862466403047000,8.148046875,-6.675333503723144,-7.94216545715332,-1.3525743003845214
1788862466413088800,8.1580888671875,-5.785139398956298,-7.5433812431335445,-1.2328642173767088
1788862466423131600,8.168131591796875,-5.03066660079956,-7.239317632293701,-1.0380360572814942
1788862466433173800,8.178173828125,-4.544643663787841,-7.1860466453552245,-0.7432499778747558
1788862466443216000,8.1882158203125,-4.323030372619629,-7.253084291839599,-0.5987000526428222
1788862466453257700,8.1982578125,-4.594622623443604,-7.29767629776001,-0.6328174263000488
1788862466463299800,8.2082998046875,-5.16504116897583,-7.25278501663208,-0.8330325401306152
1788862466473342000,8.218342041015624,-5.6824880027771,-7.082198148345947,-1.1649287452697754
1788862466483383800,8.2283837890625,-6.1085062606811515,-6.948721405792236,-1.6506524070739745
1788862466493426700,8.2384267578125,-6.553678131866454,-6.934655471038818,-2.1103391258239745
1788862466503468800,8.24846875,-6.961590239715576,-7.054066278839111,-2.4133552734375
1788862466513511000,8.258510986328124,-7.063194172668457,-7.276128482818603,-2.5378537597656248
1788862466523552800,8.268552734375,-7.023390570068359,-7.517194662475585,-2.6089316215515135
1788862466533595000,8.278594970703125,-7.271040804290771,-7.612364178466796,-2.351854218292236
1788862466543636700,8.28863671875,-7.677606173706054,-7.747038021850585,-1.8104653678894043
1788862466553680000,8.298679931640624,-7.848193041992187,-7.9749360923767085,-1.2681786918640137
1788862466563722000,8.308721923828125,-7.959373781585693,-8.09569363861084,-0.8364742050170898
1788862466573763800,8.318763916015625,-8.1341505027771,-8.010699479675292,-0.5541080467224121
1788862466583805700,8.3288056640625,-8.384793489074706,-7.7633485206604,-0.43185412445068355
1788862466593847800,8.338847900390626,-8.642170167541503,-7.46332512512207,-0.4578910675048828
1788862466603890000,8.348889892578125,-8.766219741058348,-7.174823825073242,-0.5692214447021484
1788862466613931800,8.358931884765624,-8.672097688293457,-7.0004960166931145,-0.8038532073974609
1788862466623975000,8.368974853515626,-8.368333352661132,-6.944381915283203,-1.099387474822998
1788862466634016800,8.379016845703125,-7.962216896057129,-6.8976949829101555,-1.401954709625244
1788862466644059000,8.389058837890625,-7.656357633972168,-6.720673697662353,-1.5575778175354003
1788862466654101000,8.39910107421875,-7.42486826095581,-6.465391945648193,-1.4873977813720702
1788862466664142800,8.409142822265625,-7.205948446655273,-6.271910523986816,-1.4266449142456055
1788862466674184700,8.419184814453125,-7.091026766967773,-6.106112059020996,-1.3293804718017577
1788862466684227800,8.429227783203125,-7.168539045715332,-6.099228729248047,-1.2764087600708007
1788862466694270000,8.43927001953125,-7.401824069976806,-6.03937368774414,-1.2137106040954588
1788862466704311800,8.449311767578125,-7.7705311256408685,-5.853972696685791,-1.1155483360290526
1788862466714354000,8.45935400390625,-8.237101174163818,-5.733963338470459,-1.0615291610717772
1788862466724395800,8.469395751953124,-8.713696942138672,-5.922656356811523,-1.196502279663086
1788862466734438000,8.47943798828125,-9.088090226745605,-6.26906740951538,-1.2981062126159668
1788862466744480000,8.48947998046875,-9.259724558258057,-6.431723484802245,-1.3168109130859373
1788862466754523000,8.49952294921875,-9.296086495971679,-6.421697765350341,-1.265934127807617
1788862466764564700,8.509564697265626,-9.025242433166504,-6.253205823516845,-1.296759474182129
1788862466774606800,8.51960693359375,-8.883685260009765,-5.58597174835205,-1.3016975151062011
1788862466784649000,8.52964892578125,-8.75305163192749,-5.087079977416992,-1.1575965026855468
1788862466794690800,8.53969091796875,-8.5432597114563,-4.837035541534424,-0.9470563941955565
1788862466804732700,8.549732666015625,-8.2490721824646,-4.715380169677734,-0.8464999244689941
1788862466814776000,8.559776123046875,-8.397063772583007,-4.732289218902587,-0.9473556694030761
1788862466824818000,8.56981787109375,-8.464400694274902,-4.742464575958252,-1.0365396812438965
1788862466834859800,8.57985986328125,-8.51004016342163,-4.80725765838623,-1.0874164665222168
1788862466844902000,8.58990185546875,-8.515277479553221,-4.9443257034301755,-1.2933178092956543
1788862466854943700,8.59994384765625,-8.7593364112854,-4.97335539855957,-1.6059107635498047
1788862466864985900,8.60998583984375,-9.11756883468628,-4.933851071166992,-2.01127903213501
1788862466875028700,8.62002880859375,-8.894758442687987,-4.824765258026122,-2.446874096679687
1788862466885070800,8.63007080078125,-8.517522043609619,-4.578012849426269,-2.6472388481140134
1788862466895112700,8.64011279296875,-8.276455863952636,-4.332457541656494,-2.5987562644958495
1788862466905154800,8.65015478515625,-8.11424870147705,-4.073584487152099,-2.3642741394042965
1788862466915197000,8.660197021484375,-7.858817311859131,-3.6973955513000485,-2.1254525238037107
1788862466925238800,8.67023876953125,-7.8176669708251945,-3.6171897956848142,-2.194734734344482
1788862466935281000,8.680281005859374,-8.10167914276123,-3.7216368431091307,-2.488772625732422
1788862466945324000,8.690323974609376,-8.424447454071045,-3.6924575103759762,-2.60474176864624
1788862466955366000,8.700365966796875,-8.725069400024413,-3.5359365768432616,-2.7253496772766113
1788862466965407700,8.71040771484375,-8.882637796783447,-3.453186981964111,-2.9492075325012204
1788862466975449900,8.720449951171876,-8.91929900970459,-3.5543420021057126,-3.1860838592529297
1788862466985491700,8.73049169921875,-8.579472011566162,-3.7012861289978027,-3.0482676261901855
1788862466995533800,8.740533935546875,-8.302792082214355,-3.8590041633605954,-2.8303952751159667
1788862467005576000,8.750575927734374,-8.499565531158447,-3.6490626052856445,-2.611774736022949
1788862467015618800,8.760618896484376,-8.690652751159668,-3.0651766754150387,-2.423680268096924
1788862467025660700,8.77066064453125,-8.795997624206542,-2.4583961921691895,-2.6286837852478024
1788862467035703000,8.780703125,-8.866177660369873,-2.054524299621582,-3.0379426315307616
1788862467045745000,8.790744873046876,-8.788216468811035,-1.4990695144653319,-3.3845033218383787
1788862467055786800,8.800786865234375,-8.532036891174316,-0.8928875816345214,-3.4024598342895507
1788862467065828900,8.810828857421875,-8.551938692474364,-0.565630142211914,-3.2365117317199705
1788862467075872000,8.8208720703125,-8.735992945098877,-0.8864531646728515,-3.023128508758545
1788862467085913900,8.830913818359376,-8.145522960662841,-1.4939818359375,-2.9887118598937987
1788862467095956000,8.8409560546875,-7.856273472595214,-1.6626234153747557,-3.243843974304199
1788862467105997800,8.850997802734375,-8.009502378845214,-1.6003741722106932,-3.2327707916259762
1788862467116039700,8.861039794921876,-7.499687062835693,-1.4440028762817383,-2.7834090675354
1788862467126082000,8.87108203125,-6.915501857757568,-1.2918214332580567,-2.510769353485107
1788862467136124000,8.8811240234375,-7.023540207672118,-1.1321581100463867,-2.555810272216797
1788862467146166800,8.891166748046874,-7.356783151245117,-0.9925462257385254,-2.7925369613647457
1788862467156208600,8.901208740234376,-7.38012661743164,-0.6723217536926269,-3.024924160003662
1788862467166251000,8.9112509765625,-7.470657367706298,-0.2041056915283203,-3.0796915229797364
1788862467176292900,8.92129296875,-7.3932947265625,-0.05955576629638672,-2.9795839660644527
1788862467186335000,8.9313349609375,-7.50776749343872,-0.22729952011108398,-2.788197470855713
1788862467196376800,8.941376953125,-7.541585591888428,-0.28086978225708004,-2.728043154144287
1788862467206420000,8.951419921875,-7.700949639892578,0.0565630142211914,-2.9454665924072265
1788862467216461800,8.9614619140625,-7.842506813049316,0.5814917282104491,-3.1700726356506346
1788862467226504000,8.97150390625,-7.89757345123291,1.1993453941345213,-3.379415643310547
1788862467236545800,8.9815458984375,-8.014290782165526,1.4555249717712402,-3.2519244049072262
1788862467246587600,8.991587646484374,-8.111405587005615,1.0447697494506836,-3.0256723480224608
1788862467256630000,9.001630126953126,-8.06965669555664,0.5301660301208496,-2.8571804061889647
1788862467266671900,9.011671875,-8.064718654632568,0.36391865234375,-2.6966192573547363
1788862467276714800,9.02171484375,-8.801683853149413,0.43140521163940426,-2.7027543991088865
1788862467286756900,9.0317568359375,-9.193884012603759,0.361973363494873,-2.7706898712158203
1788862467296799000,9.041799072265626,-9.002347879791259,0.29837738189697266,-2.7736826232910157
1788862467306840800,9.0518408203125,-8.578574185943603,0.23837270278930664,-2.7090391784667966
1788862467316883000,9.061883056640625,-8.566303902435303,0.33324294357299805,-2.6593594940185543
1788862467326924800,9.0719248046875,-8.323442071533202,0.2642600082397461,-2.845658310699463
1788862467336966700,9.081966552734375,-7.704840217590331,-0.09247603912353515,-3.1004911499023438
1788862467347009800,9.092009765625,-7.271340079498291,-0.20709844360351562,-3.2263363746643066
1788862467357052000,9.102052001953124,-7.859266224670409,-0.0674865592956543,-3.1663316955566403
1788862467367093800,9.11209375,-8.48400322036743,-0.05162497329711914,-3.1043817276000976
1788862467377135900,9.122135986328125,-8.486846334838866,-0.10145429534912109,-2.9789854156494138
1788862467387178000,9.132177978515625,-8.288277234649657,-0.06688800888061523,-2.633322550964355
1788862467397219800,9.1422197265625,-8.287678684234619,-0.023044190979003905,-2.343474512481689
1788862467407262700,9.1522626953125,-8.435969549560546,-0.13512275619506836,-2.4907179145812988
1788862467417304800,9.162304931640625,-8.579023098754883,-0.34431612625122066,-2.7534815467834473
1788862467427347000,9.172346923828124,-8.571092305755615,-0.7746738746643066,-2.7437551025390623
1788862467437388800,9.182388916015626,-8.29351455078125,-1.0193313568115234,-2.490568276977539
1788862467447431000,9.192430908203125,-8.1586910697937,-1.094299796295166,-2.373102758026123
1788862467457473000,9.20247314453125,-8.307131572723389,-1.2490250785827637,-2.4340052627563473
1788862467467515000,9.212514892578126,-8.595782510375976,-1.5357307273864744,-2.436249826812744
1788862467477558000,9.22255810546875,-8.742427362060546,-1.9327192901611328,-2.13877027053833
1788862467487600000,9.23260009765625,-8.635137200164795,-2.4275708457946776,-1.7112556365966796
1788862467497642000,9.24264208984375,-8.48445213317871,-2.8664579376220702,-1.553986515045166
1788862467507684000,9.25268408203125,-8.653991538238525,-3.135506349182129,-1.5870564254760742
1788862467517726000,9.262725830078125,-8.991873247528076,-3.278410260772705,-1.5107412475585937
1788862467527767800,9.272767822265624,-8.966135579681396,-3.312976547241211,-1.2894272315979003
1788862467537810200,9.28281005859375,-8.639327053070067,-3.296366773223877,-1.0965443603515623
1788862467547853000,9.29285302734375,-8.425644554901123,-3.2561142578125,-1.05973350982666
1788862467557895000,9.30289501953125,-8.674042977142333,-3.277961347961426,-1.3069348312377929
1788862467567937000,9.31293701171875,-9.02060366744995,-3.446453289794922,-1.5842133110046386
1788862467577979100,9.322979248046876,-8.97601166152954,-3.669862232208252,-1.7334020019531249
1788862467588021000,9.33302099609375,-8.636334300994873,-3.878008139038086,-1.6786346389770508
1788862467598063000,9.34306298828125,-8.415169922637938,-4.09228918762207,-1.5032593673706054
1788862467608105000,9.35310498046875,-8.371475742340087,-4.247762657928466,-1.2176011817932129
1788862467618148000,9.363148193359375,-8.20388162612915,-4.465186096191406,-1.0803834991455077
1788862467628190000,9.37318994140625,-8.143278396606444,-4.738424360656738,-1.1026795021057127
1788862467638232000,9.383232177734374,-8.245480879974364,-5.011363349914551,-1.311872872161865
1788862467648274000,9.39327392578125,-8.281693180084227,-5.2265422241210935,-1.4188637588500976
1788862467658315800,9.403315673828125,-8.309675411987305,-5.374384176635742,-1.334917063140869
1788862467668358100,9.413358154296875,-8.265681956481933,-5.6024318847656245,-1.1885714866638184
1788862467678400000,9.42339990234375,-8.057984962463378,-5.786486137390137,-1.0423755477905272
1788862467688443000,9.43344287109375,-7.887547731781005,-5.9774237197875975,-1.070657054901123
1788862467698485000,9.443485107421875,-7.940519443511962,-6.223727215576171,-1.2041337974548338
1788862467708527000,9.453527099609374,-8.333018878173828,-6.459406441497802,-1.3018471527099609
1788862467718569000,9.46356884765625,-8.24144066467285,-6.5577183471679685,-1.6418237884521483
1788862467728611000,9.473611083984375,-8.114996889495849,-6.654982789611816,-1.707813971710205
1788862467738653000,9.48365283203125,-7.908496996307373,-6.7926493850708,-1.7465701110839842
1788862467748694800,9.49369482421875,-7.947402773284912,-6.994510512542724,-1.7643769859313965
1788862467758738000,9.503738037109375,-8.115745077514648,-7.218069092559814,-1.7561469177246092
1788862467768780000,9.513780029296875,-8.245181604766845,-7.502530177307128,-1.8001403732299803
1788862467778822000,9.52382177734375,-8.148964625549317,-7.69945326385498,-1.821538550567627
1788862467788864000,9.533864013671876,-7.9463553100585935,-7.840411886596679,-1.7422306205749511
1788862467798906000,9.543906005859375,-7.676857985687255,-7.962516171264648,-1.4472949035644531
1788862467808948000,9.553947998046874,-7.488464242553711,-8.022520850372313,-1.1752537399291991
1788862467818990800,9.563990966796876,-7.400776606750488,-8.065317205047608,-1.0966939979553223
1788862467829033000,9.574032958984375,-7.2717889923095695,-8.048258518218994,-1.0013748443603514
1788862467839075000,9.584074951171875,-7.359326990509032,-8.10137986755371,-0.929548794555664
1788862467849117000,9.594116943359374,-7.610718164825439,-8.311321425628662,-0.9184756118774413
1788862467859159000,9.604158935546875,-7.809586540222168,-8.428936582183837,-0.8735843307495117
1788862467869201000,9.614200927734375,-7.798662995147705,-8.444049980163573,-1.0048165092468262
1788862467879243000,9.624242919921874,-7.498340324401855,-8.247575806427001,-1.2083236503601074
1788862467889286100,9.6342861328125,-7.378480603790282,-8.080879515838623,-1.4761749610900878
1788862467899328000,9.644327880859375,-7.365911045074462,-7.87841983795166,-1.552639776611328
1788862467909369900,9.654369873046875,-7.162104628753662,-7.622240260314941,-1.5708955642700195
1788862467919412000,9.664411865234374,-6.810905172729492,-7.389404148864745,-1.6692074699401855
1788862467929454000,9.6744541015625,-6.5114803276062005,-7.43100340270996,-1.7685668388366698
1788862467939496000,9.684495849609375,-6.487538311004638,-7.744344544982909,-1.8713678726196288
1788862467949538000,9.6945380859375,-6.710947253417968,-8.29246708755493,-1.844433103942871
1788862467959581000,9.704580810546876,-7.029824987030029,-8.929025453948974,-1.7152958518981933
1788862467969623000,9.714623046875,-7.359925540924072,-9.27603505706787,-1.5307926864624022
1788862467979665200,9.7246650390625,-7.519888139343261,-9.190891260528565,-1.316362000274658
1788862467989707000,9.73470703125,-7.623736636352539,-8.729408890533447,-1.0637737251281738
1788862467999748900,9.744748779296875,-7.685985879516601,-8.31895294342041,-0.9961375282287597
1788862468009791000,9.754791015625,-7.502380539703369,-8.010100929260254,-1.0787374855041503
1788862468019833000,9.7648330078125,-7.231835752105712,-7.792827128601074,-1.1620856307983398
1788862468029876000,9.7748759765625,-6.948272492980957,-7.730727523040771,-1.1088146438598632
1788862468039917800,9.784917724609375,-6.487239035797119,-7.715165212249755,-1.1034276901245117
1788862468049960000,9.7949599609375,-6.05897621383667,-7.676409072875976,-1.1673229469299315
1788862468060002000,9.805001953125,-5.7429415946960445,-7.6276272140502925,-1.2343605934143065
1788862468070044200,9.815044189453126,-5.538835903167724,-7.625681925201415,-1.363048932647705
1788862468080086000,9.8250859375,-5.59899021987915,-7.6101196144104,-1.470937644958496
1788862468090128000,9.8351279296875,-5.814917282104492,-7.570764924621582,-1.5180734901428221
1788862468100170000,9.845169921875,-6.119579443359375,-7.5162968368530265,-1.498470964050293
1788862468110213000,9.855213134765625,-6.507440112304687,-7.502380539703369,-1.4363713584899902
1788862468120255000,9.8652548828125,-7.032368826293945,-7.558494641113281,-1.41093296585083
1788862468130296800,9.875296875,-7.492803733062743,-7.634061631011963,-1.4229039741516112
1788862468140339000,9.8853388671875,-7.83951406097412,-7.601889546203613,-1.3869909492492676
1788862468150381000,9.895381103515625,-8.065616480255127,-7.371447636413574,-1.2880804931640624
1788862468160423200,9.905423095703124,-8.085219006347655,-7.147889056396484,-1.3299790222167969
1788862468170465000,9.915465087890626,-8.030002730560302,-6.994510512542724,-1.3919289901733398
1788862468180508000,9.9255078125,-7.921515467834472,-6.918644247436523,-1.3415011177062988
1788862468190550000,9.935550048828125,-7.6850880538940425,-6.890811653137207,-1.2820949890136717
1788862468200592100,9.945592041015624,-7.599495344543457,-6.815693576049804,-1.1156979736328125
1788862468210634000,9.955634033203125,-7.917026339721679,-6.775889973449707,-0.8759785324096679
1788862468220675800,9.96567578125,-8.2483239944458,-6.960393138885498,-0.7618050407409668
1788862468230718000,9.975718017578124,-8.40125362548828,-7.1954738143920896,-0.678007982635498
1788862468240760000,9.985760009765626,-8.399457974243164,-7.22106184463501,-0.5187935722351074
1788862468250803000,9.995802978515625,-8.301594981384277,-7.031770275878906,-0.4387374542236328
1788862468260845000,10.005844970703125,-8.153753028869628,-6.67129328842163,-0.44322658233642576
1788862468270887000,10.015886962890624,-8.051400907897948,-6.432322035217285,-0.548421817779541
1788862468280929000,10.025928955078125,-7.889044107818603,-6.338648895263671,-0.624437720489502
1788862468290971100,10.03597119140625,-7.692569934082031,-6.309319924926758,-0.7685387329101562
1788862468301013000,10.046012939453124,-7.854926734161377,-6.195296070861816,-0.8448539108276367
1788862468311054800,10.056054931640626,-8.317306929779052,-5.96320814743042,-0.8075941474914551
1788862468321098000,10.066097900390625,-8.839392529296875,-5.783343747711181,-0.6438906089782714
1788862468331140000,10.07614013671875,-9.176974963378905,-5.626373901367187,-0.601393529510498
1788862468341182000,10.086181884765624,-9.41639512939453,-5.579088418579102,-0.7445967163085937
1788862468351224000,10.09622412109375,-9.360580303192139,-5.626822814178467,-1.0859200904846191
1788862468361266000,10.106265869140625,-9.173383660888671,-5.540481916809082,-1.3465887962341307
1788862468371308000,10.11630810546875,-9.036614891052245,-5.185840795898438,-1.6672621810913084
1788862468381350100,10.12635009765625,-8.799439289093018,-4.923675714111328,-1.816301234436035
1788862468391393000,10.13639306640625,-8.071452346801758,-4.757727611541748,-1.939602619934082
1788862468401435000,10.146434814453125,-7.524077992248535,-4.7664065925598145,-1.8218378257751464
1788862468411477000,10.15647705078125,-7.376984227752685,-4.8136920753479,-1.4387655601501463
1788862468421519000,10.16651904296875,-7.612214540863037,-4.727949728393554,-1.0274117874145507
1788862468431561000,10.17656103515625,-8.48505068359375,-4.497058905792236,-0.869544115447998
1788862468441603000,10.18660302734375,-9.336638286590576,-4.2521021484374995,-1.0217255584716796
1788862468451645400,10.1966455078125,-9.887304668426513,-4.0991725173950195,-1.376516316986084
1788862468461688600,10.2066884765625,-10.105177019500731,-4.1109938880920405,-1.837998686981201
1788862468471730400,10.21673046875,-9.848698166656494,-4.322581459808349,-2.1639093879699707
1788862468481772500,10.2267724609375,-9.30147344970703,-4.548234966278076,-2.3377882835388184
1788862468491814400,10.236814453125,-8.58710352935791,-4.62873999710083,-2.452859600830078
1788862468501856500,10.2468564453125,-8.258349713897704,-4.403535403442382,-2.412158172607422
1788862468511898600,10.256898681640624,-8.322244970703125,-3.967940338897705,-2.2334908737182615
1788862468521940500,10.2669404296875,-8.212111694335936,-3.6783915756225585,-2.046144593811035
1788862468531983400,10.2769833984375,-8.251017471313476,-3.441664886474609,-1.8953098892211913
1788862468542025500,10.287025390625,-8.391227906036377,-3.1476269950866698,-1.9535189170837401
1788862468552067600,10.297067626953124,-8.537723120117187,-2.9376854370117185,-2.236633263397217
1788862468562109400,10.307109375,-8.60565859222412,-2.935590510559082,-2.674472891998291
1788862468572151300,10.3171513671875,-8.777442561340331,-3.1100679565429687,-2.9749452003479
1788862468582193400,10.327193359375,-8.349479014587402,-3.2028432708740233,-3.009361849212646
1788862468592235500,10.337235595703126,-8.067412131500244,-2.9631238296508786,-2.8553847549438474
1788862468602277600,10.347277587890625,-8.341997134399413,-2.4967034187316894,-2.7117326553344725
1788862468612320500,10.357320556640625,-8.565406076812744,-2.1568764205932616,-2.7451018409729
1788862468622362400,10.3673623046875,-8.478616266632079,-1.763329522705078,-2.8248586837768555
1788862468632404500,10.377404541015625,-8.216151909637452,-1.3792097938537597,-2.8302456375122067
1788862468642446600,10.387446533203125,-7.972691528320312,-0.963366893005371,-2.762459803009033
1788862468652488400,10.397488525390624,-7.75691410369873,-0.6171054779052734,-2.863465185546875
1788862468662530300,10.4075302734375,-7.70573804321289,-0.6241384452819824,-3.0795418853759764
1788862468672572400,10.417572509765625,-7.80794052658081,-0.8188169677734375,-2.9976901161193847
1788862468682615600,10.427615478515625,-7.461978386688232,-0.9006687370300293,-2.819322092437744
1788862468692657400,10.437657470703124,-7.444470787048339,-0.8077437850952148,-2.599055539703369
1788862468702699500,10.447699462890625,-7.98645818786621,-0.6727706665039062,-2.5131635551452636
1788862468712741400,10.457741455078125,-8.315511278533934,-0.395192911529541,-2.5245360130310055
1788862468722783500,10.467783447265624,-8.456619538879394,-0.582239916229248,-2.652027251434326
1788862468732825600,10.47782568359375,-8.553734343719482,-0.7947253135681152,-3.0448259613037107
1788862468742867500,10.487867431640625,-8.423250353240967,-0.6142623634338379,-3.653701371002197
1788862468752909300,10.497909423828125,-8.373121755981446,-0.3145382431030273,-4.078522528076172
1788862468762952400,10.507952392578124,-8.533383629608155,-0.35224691925048823,-4.131793515014648
1788862468772994600,10.51799462890625,-8.361150747680664,-0.21039047088623045,-3.8443396781921386
1788862468783036400,10.528036376953125,-7.799261545562744,0.33099837951660155,-3.259855197906494
1788862468793078500,10.53807861328125,-6.828562409973144,0.6280290229797363,-2.860771708679199
1788862468803120400,10.548120361328126,-6.238092425537109,0.6539163284301758,-2.664896085357666
1788862468813162500,10.55816259765625,-6.995707613372803,0.5204395858764648,-3.004423808288574
1788862468823204600,10.56820458984375,-8.198943585205077,0.29927520751953124,-3.7585973312377927
1788862468833247500,10.57824755859375,-7.6470801025390625,0.39968203964233395,-3.8723219100952146
1788862468843289300,10.588289306640625,-6.7657146163940425,0.9982324546813964,-3.2722751190185546
1788862468853331500,10.59833154296875,-6.976404362487792,1.389235513305664,-2.912097406768799
1788862468863373600,10.60837353515625,-7.599794619750976,1.3992612327575682,-2.779668127441406
1788862468873415400,10.61841552734375,-7.85911658706665,1.246780514526367,-2.7633576286315917
1788862468883457500,10.62845751953125,-7.895179249572753,1.0351929428100586,-2.987963671875
1788862468893499400,10.63849951171875,-7.376535314941406,0.8447042732238769,-3.288585617828369
1788862468903541500,10.64854150390625,-7.359027715301513,0.4330512252807617,-3.133411422729492
1788862468913584400,10.65858447265625,-7.626130838012695,-0.11896189498901366,-2.685845349884033
1788862468923626500,10.66862646484375,-7.423671160125732,-0.18136077575683593,-2.4808418327331543
1788862468933668400,10.67866845703125,-6.789955908203124,0.0992097312927246,-2.6472388481140134
1788862468943710500,10.68871044921875,-6.905775413513183,0.2838625343322754,-2.744054377746582
1788862468953752600,10.698752685546875,-7.902361854553222,0.28969840087890625,-2.69437469329834
1788862468963794400,10.70879443359375,-8.768165029907227,0.16460136413574217,-2.6631004341125486
1788862468973836500,10.71883642578125,-9.068936613464356,-0.29014731369018554,-2.564788528442383
1788862468983879700,10.728879638671875,-9.044396046447753,-0.9382277755737304,-2.3014263458251953
1788862468993921500,10.738921630859375,-8.973916735076903,-1.4487912796020508,-1.8070237030029295
1788862469003963400,10.74896337890625,-9.066243136596679,-1.7871219017028808,-1.4490905548095703
1788862469014005500,10.759005615234376,-9.294590119934082,-1.9301754508972166,-1.5770307060241697
1788862469024047400,10.76904736328125,-9.407716148376464,-1.970876879119873,-1.9443910232543944
1788862469034089500,10.77908935546875,-8.947281241607666,-2.0192098251342774,-2.157175695800781
1788862469044131600,10.789131591796876,-8.31895294342041,-2.009034468078613,-2.2746412147521973
1788862469054173400,10.79917333984375,-8.352471766662598,-2.023100402832031,-2.2649147705078123
1788862469064216300,10.80921630859375,-8.585906428527831,-2.123507234954834,-2.1838111892700196
1788862469074258700,10.8192587890625,-8.428188394165039,-2.246060432434082,-1.976712745666504
1788862469084300500,10.829300537109376,-8.299799330139159,-2.3740005836486815,-1.7835305992126465
1788862469094342400,10.83934228515625,-8.562562962341309,-2.567781280517578,-1.6795324645996093
1788862469104384500,10.849384521484374,-8.89311242904663,-2.920926025390625,-1.4778209747314452
1788862469114426400,10.85942626953125,-8.542511523437499,-3.295020034790039,-1.1686696853637695
1788862469124468500,10.869468505859375,-7.9940897056579585,-3.530100710296631,-0.8876502655029296
1788862469134510600,10.879510498046875,-7.841309712219238,-3.6960488128662106,-0.8705915786743164
1788862469144553500,10.889553466796874,-8.377610884094238,-3.872471547698974,-1.0975918235778808
1788862469154595300,10.89959521484375,-9.171139096832276,-4.105756571960449,-1.2451345008850097
1788862469164637400,10.909637451171875,-9.086144937896728,-4.400093738555908,-1.1294646331787108
1788862469174679600,10.919679443359374,-8.280944992065429,-4.6987703956604,-1.013196215057373
1788862469184721400,10.929721435546876,-7.701697827911376,-5.051466227722168,-1.0046668716430665
1788862469194763500,10.939763427734375,-7.803750673675537,-5.481225425720215,-1.0877157417297363
1788862469204805400,10.949805419921875,-8.303989183044433,-5.960664308166503,-1.4116811538696288
1788862469214848500,10.9598486328125,-8.711901290893554,-6.436511888122558,-1.5511434005737303
1788862469224890400,10.969890380859376,-8.704569048309326,-6.930615255737305,-1.5090952339172363
1788862469234932500,10.979932373046875,-8.685116159820556,-7.426663912200928,-1.4161702819824218
1788862469244974300,10.989974365234374,-8.772504520416259,-7.611017440032959,-1.5851111366271973
1788862469255016400,11.000016357421876,-8.73988352279663,-7.455394332122802,-1.8695722213745116
1788862469265058600,11.01005859375,-8.590395556640624,-7.275978845214843,-1.989282304382324
1788862469275100400,11.020100341796875,-8.337059093475341,-7.041197444915771,-2.044797855377197
1788862469285142500,11.030142578125,-7.873182521820068,-6.705111386871337,-2.103006883239746
1788862469295184400,11.040184326171875,-7.473201206970215,-6.407033280181884,-2.122160496520996
1788862469305227500,11.0502275390625,-7.482927651214599,-6.395361547088623,-2.157175695800781
1788862469315269400,11.060269287109374,-7.830386167144775,-6.767959180450439,-2.266860059356689
1788862469325311500,11.0703115234375,-7.715464487457275,-7.148038694000244,-2.357241172027588
1788862469335353300,11.080353271484375,-7.440729846954345,-7.465420051574706,-2.3165397438049316
1788862469345395500,11.0903955078125,-7.419630944824219,-7.8636057151794425,-2.249801372528076
1788862469355437600,11.1004375,-7.541735229492187,-8.212859882354735,-2.1260510742187497
1788862469365479400,11.1104794921875,-7.6294228652954095,-8.417863399505615,-1.9078794479370116
1788862469375522300,11.120522216796875,-7.663689876556396,-8.496273503875733,-1.5316905120849609
1788862469385564700,11.130564697265624,-7.74374599456787,-8.517970956420898,-1.1716624374389648
1788862469395606500,11.1406064453125,-7.959373781585693,-8.581866213226318,-0.843956085205078
1788862469405648400,11.1506484375,-8.053196559143066,-8.64411545639038,-0.5683236190795898
1788862469415690500,11.1606904296875,-7.866299192047118,-8.563011875152588,-0.6151601890563965
1788862469425732400,11.170732421875,-7.830685442352294,-8.311171788024902,-0.7689876457214355
1788862469435774500,11.1807744140625,-7.881113314819335,-8.060379164123535,-1.1903671379089356
1788862469445816600,11.190816650390625,-7.788188362884521,-7.902511492156982,-1.7658733619689941
1788862469455858400,11.2008583984375,-7.460781285858154,-7.768286561584472,-2.2489035469055176
1788862469465901300,11.2109013671875,-7.260266896820068,-7.785644523620605,-2.5445874519348144
1788862469475943400,11.220943359375,-7.286752752685547,-7.9931918800354,-2.52184253616333
1788862469485985300,11.2309853515625,-7.342567578887939,-8.194005544281005,-2.0424036537170407
1788862469496027400,11.24102734375,-7.1778165771484375,-8.371475742340087,-1.547552098083496
1788862469506069500,11.251069580078125,-7.089231115722656,-8.46619634552002,-1.2226888603210448
1788862469516111400,11.261111328125,-7.019350354766845,-8.325836273193358,-0.9651625442504882
1788862469526153200,11.2711533203125,-6.789955908203124,-8.092551248931885,-0.9718962364196777
1788862469536196400,11.2811962890625,-6.56325493850708,-7.794622779846191,-1.2259808876037597
1788862469546238500,11.291238525390625,-6.624755993652343,-7.519289588928222,-1.5004162528991698
1788862469556280300,11.3012802734375,-6.693589291381835,-7.4122987022399895,-1.6961422386169434
1788862469566322400,11.311322509765626,-6.570736818695068,-7.518840676116943,-1.8161515968322752
1788862469576364300,11.3213642578125,-6.401197413635254,-7.7605054061889645,-1.782483135986328
1788862469586406400,11.331406494140625,-6.227617793273925,-7.8733321594238275,-1.6843208679199217
1788862469596448500,11.341448486328124,-6.036530573272705,-7.889642658233642,-1.5230115310668944
1788862469606490400,11.351490478515625,-6.027701954650879,-7.7976155319213865,-1.3711293632507324
1788862469616532200,11.3615322265625,-6.1833250625610345,-7.767538373565674,-1.2407950103759764
1788862469626575400,11.371575439453125,-6.530484303283691,-7.779808657073974,-1.137096150970459
1788862469636617500,11.381617431640626,-6.973411610412597,-7.587823611450195,-1.1088146438598632
1788862469646659300,11.391659423828125,-7.296628834533691,-7.517493937683105,-1.4254478134155273
1788862469656701400,11.401701416015625,-7.512256621551513,-7.820510085296631,-2.010530844116211
1788862469666743300,11.411743408203124,-7.841160074615478,-8.20956785507202,-2.4015339027404785
1788862469676785400,11.421785400390625,-8.353519229888915,-8.340351120758056,-2.3759458724975584
1788862469686827500,11.43182763671875,-8.666860372161866,-8.100781317138672,-2.080411605072021
1788862469696869400,11.441869384765624,-8.66940421142578,-7.809287265014648,-1.830367169189453
1788862469706912300,11.451912353515626,-8.354267417907714,-7.468113528442382,-1.5336358009338378
1788862469716954400,11.461954345703125,-7.735216651153564,-6.982090591430664,-0.9466074813842773
1788862469726996500,11.47199658203125,-6.917147871398925,-6.328024625396728,-0.05237316131591797
1788862469737038300,11.482038330078124,-6.424989792633056,-5.912929912567138,0.6584054565429687
1788862469747080400,11.49208056640625,-6.6525885879516595,-5.947196923828125,0.8147767524719238
1788862469757122300,11.502122314453125,-7.212532501220703,-6.213701496124267,0.524779076385498
1788862469767164400,11.512164306640624,-7.861211513519287,-6.32697716217041,0.12659341278076172
1788862469777206500,11.52220654296875,-8.231714220428467,-6.260388428497314,-0.34671032791137696
1788862469787249400,11.53224951171875,-8.509142337799071,-6.210858381652832,-0.8632593360900879
1788862469797291300,11.542291259765625,-8.991873247528076,-6.109254448699951,-1.2313678413391111
1788862469807333400,11.55233349609375,-9.368211820983886,-5.954379528808594,-1.5529390518188475
1788862469817375500,11.56237548828125,-9.472209955596924,-5.85442160949707,-1.6398784996032714
1788862469827417300,11.572417236328125,-9.422380633544922,-5.936123741149902,-1.4036007232666015
1788862469837459200,11.582459228515624,-9.400234268188475,-5.8913820976257325,-0.9715969612121581
1788862469847501300,11.592501220703125,-9.223811533355713,-5.95048895111084,-0.5493196434020996
1788862469857543400,11.60254345703125,-8.819041815185546,-5.817910034179687,-0.09157821350097656
1788862469867585500,11.61258544921875,-8.64396581878662,-5.632808318328857,0.053420624542236325
1788862469877628400,11.62262841796875,-8.593089033508301,-5.450549716949463,0.012419921112060545
1788862469887670300,11.632670166015625,-8.419659050750733,-5.285649077606201,-0.09083002548217772
1788862469897712400,11.64271240234375,-8.195651557922362,-5.286397265624999,-0.39594109954833984
1788862469907754500,11.65275439453125,-8.774150534057616,-5.146336468505859,-0.833182177734375
1788862469917796400,11.66279638671875,-9.332149158477783,-4.8618753837585444,-1.2633902885437012
1788862469927838200,11.672838134765625,-9.739163440704345,-4.752939208221435,-1.5683517250061034
1788862469937880300,11.68288037109375,-9.80066449584961,-4.787655132293701,-1.6678607315063476
1788862469947922400,11.69292236328125,-9.567978022003173,-4.843170683288574,-1.7063175956726073
1788862469957965300,11.70296533203125,-8.877250843048095,-4.935945997619629,-1.79400523147583
1788862469968007400,11.71300732421875,-8.17844323348999,-4.803067805480957,-1.7947534194946289
1788862469978049300,11.72304931640625,-8.257152613067626,-4.528183527374267,-1.6997335411071777
1788862469988091400,11.73309130859375,-8.82278275527954,-4.285770609283447,-1.553238327026367
1788862469998133500,11.743133544921875,-8.773402346038818,-4.116680117034912,-1.4655506912231444
1788862470008175400,11.75317529296875,-8.688557824707031,-3.919158480072021,-1.5179238525390624
1788862470018217200,11.76321728515625,-8.909273290252685,-3.445106551361084,-1.7341501899719238
1788862470028259300,11.77325927734375,-9.074024291992187,-2.896385458374023,-2.0753239265441894
1788862470038301400,11.783301513671875,-9.10365253753662,-2.7910405853271483,-2.4316110610961914
1788862470048344300,11.79334423828125,-8.703820860290527,-2.7115830177307125,-2.770091320800781
1788862470058386400,11.803386474609376,-8.404545652770995,-2.4733599525451657,-2.946364418029785
1788862470068428300,11.81342822265625,-7.949497699737548,-2.2225673286437986,-2.9918542495727536
1788862470078470400,11.823470458984374,-7.942913645172118,-2.090138049316406,-2.9587843391418454
1788862470088512500,11.833512451171876,-8.31251852645874,-2.0950760902404784,-2.881421697998047
1788862470098554400,11.843554443359375,-8.309226499176026,-1.873163523864746,-2.685994987487793
1788862470108596200,11.85359619140625,-7.924059307098388,-1.6015712730407714,-2.679859845733642
1788862470118638300,11.863638427734376,-8.093000161743163,-1.472134745788574,-2.7659014678955076
1788862470128681500,11.873681396484375,-7.883507516479492,-1.445499252319336,-2.748393868255615
1788862470138723300,11.883723388671875,-7.666981903839111,-1.277605860900879,-2.614767488098144
1788862470148765400,11.893765380859374,-7.727884408569335,-1.024119760131836,-2.484582772827148
1788862470158807300,11.903807373046876,-7.879766576385498,-0.7508814956665039,-2.442833881378174
1788862470168849400,11.913849365234375,-7.618349682617187,-0.3661632164001465,-2.540247961425781
1788862470178891500,11.9238916015625,-7.369352709960937,-0.06569090805053711,-2.4940099418640136
1788862470188933400,11.933933349609376,-7.107337265777588,0.09846154327392577,-2.346766539764404
1788862470198975200,11.943975341796875,-7.32251613998413,0.09083002548217772,-2.351255667877197
1788862470209017300,11.954017333984375,-7.432799053955078,0.18121113815307616,-2.4582465545654295
1788862470219060500,11.964060546875,-7.742848168945312,0.31528643112182614,-2.5011925468444822
1788862470229102300,11.974102294921876,-8.100781317138672,0.27667992935180663,-2.588281632232666
1788862470239144400,11.98414453125,-8.208071479034423,0.048183308410644526,-2.8459575859069823
1788862470249186300,11.994186279296875,-8.311321425628662,0.13602058181762694,-2.9275100799560545
1788862470259228400,12.004228515625,-8.553734343719482,0.31483751831054685,-3.1111154197692867
1788862470269270500,12.0142705078125,-8.655487914276122,0.5789478889465332,-3.2041900093078612
1788862470279312400,12.0243125,-8.475773152160643,0.8578723823547363,-3.045873424530029
1788862470289354200,12.034354248046874,-8.210914593505859,0.8333318153381347,-3.1206922264099117
1788862470299396400,12.044396240234375,-7.791630027770996,0.6501753883361816,-3.1479262702941893
1788862470309439500,12.054439453125,-7.2532339294433585,0.5662286926269531,-3.1681273468017577
1788862470319481300,12.0644814453125,-7.561487393188476,0.6419453201293945,-3.322254078674316
1788862470329523200,12.074523193359376,-8.405742753601073,0.7155670211791991,-3.5788825691223143
1788862470339565300,12.0845654296875,-8.737788596343993,0.5255272644042969,-3.4624645133972165
1788862470349607400,12.094607421875,-7.559542104339599,0.3942950859069824,-2.906860090637207
1788862470359649500,12.1046494140625,-7.508665319061278,0.690128628540039,-2.583792504119873
1788862470369691400,12.11469140625,-8.34424169845581,0.6610989334106445,-2.61746096496582
1788862470379733200,12.124733154296875,-8.8995468460083,0.31483751831054685,-2.468721186828613
1788862470389775400,12.134775390625,-8.239046463012695,0.19003975677490234,-2.097769567108154
1788862470399818500,12.144818603515626,-7.20804337310791,0.2262520568847656,-1.7839795120239257
1788862470409860400,12.1548603515625,-6.7290534034729,0.5205892234802246,-1.890371848297119
1788862470419902200,12.164902099609375,-6.674136402893066,1.0494085151672363,-2.4555530776977537
1788862470429944300,12.1749443359375,-6.6151791870117185,1.3283330085754395,-2.8941408943176268
1788862470439986400,12.184986328125,-6.962338427734375,1.1384428894042968,-2.5746646102905273
1788862470450028500,12.195028564453125,-7.192630699920654,0.7432499778747558,-1.818246523284912
1788862470460069600,12.205069580078124,-7.440430571746826,0.29403789138793945,-1.2802993377685545
1788862470470111700,12.21511181640625,-8.035838597106933,-0.25483283920288086,-1.37906015625
1788862470480153900,12.22515380859375,-8.730157078552246,-0.7921814743041992,-1.8351555725097655
1788862470490196700,12.23519677734375,-9.222614432525635,-1.2654852149963378,-2.104503259277344
1788862470500238600,12.245238525390626,-8.948179067230225,-1.8505682456970214,-1.903839232635498
1788862470510281000,12.255281005859375,-8.544905725097657,-2.3605331993103027,-1.3485340850830076
1788862470520322800,12.26532275390625,-8.800486752319335,-2.621501180267334,-1.0197802696228027
1788862470530364700,12.27536474609375,-9.34681364364624,-2.742109088897705,-1.09804073638916
1788862470540406800,12.28540673828125,-9.312396994781494,-2.8610709838867185,-1.3093290328979492
1788862470550448600,12.29544873046875,-8.904335249328613,-2.901173861694336,-1.5376760162353516
1788862470560490800,12.30549072265625,-8.54281079864502,-2.8458079483032224,-1.7127520126342772
1788862470570532900,12.315532958984376,-8.203133438110351,-2.776525737762451,-1.835454847717285
1788862470580575700,12.32557568359375,-8.249820370483398,-2.766350380706787,-1.8863316329956055
1788862470590617600,12.33561767578125,-8.287678684234619,-2.943820578765869,-1.8127099319458007
1788862470600660000,12.345659912109374,-8.20956785507202,-3.2225954345703123,-1.5861585998535155
1788862470610701800,12.355701904296875,-8.211513143920898,-3.5076550697326656,-1.4438532386779783
1788862470620743700,12.36574365234375,-8.115745077514648,-3.8085762908935545,-1.4272434646606444
1788862470630785800,12.375785888671874,-8.164227661132813,-4.024054440307617,-1.4414590370178222
1788862470640827600,12.38582763671875,-8.586504978942871,-4.138976119995117,-1.286434479522705
1788862470650869800,12.395869873046875,-8.772953433227539,-4.406827430725097,-1.0672153900146484
1788862470660911900,12.405911865234375,-8.610446995544432,-4.8427217704772945,-1.1294646331787108
1788862470670954800,12.415954833984374,-8.434173898315429,-5.410446839141845,-1.2910732452392577
1788862470680996600,12.42599658203125,-8.82338130569458,-6.067355919647216,-1.501613353729248
1788862470691038700,12.436038818359375,-9.248801013183593,-6.611288609313965,-1.7208324432373046
1788862470701080800,12.446080810546874,-9.25134485244751,-7.083694524383544,-1.7446248222351073
1788862470711122700,12.456122802734376,-9.030330111694335,-7.355885325622558,-1.6189292350769042
1788862470721164800,12.466164794921875,-8.570044842529297,-7.338078450775146,-1.910872200012207
1788862470731206700,12.47620654296875,-7.998429196166992,-7.136366960906982,-2.529474053955078
1788862470741248800,12.486248779296876,-7.992144416809081,-6.913706206512451,-2.9481600692749024
1788862470751291000,12.496290771484375,-8.623465467071533,-6.802375829315185,-3.063231386566162
1788862470761332700,12.506332763671875,-9.03437032699585,-6.950367419433594,-2.978386865234375
1788862470771375600,12.516375732421874,-9.056067779541015,-7.213579964447021,-2.5095722526550293
1788862470781417700,12.526417724609376,-8.462006492614746,-7.466766790008545,-1.7477672119140624
1788862470791459800,12.5364599609375,-7.599345706939697,-7.578994992828369,-1.0486603271484374
1788862470801501700,12.546501708984374,-7.098807922363281,-7.548020008850097,-0.610371785736084
1788862470811543800,12.556543701171876,-7.0634934478759765,-7.53978994064331,-0.5253776268005371
1788862470821585700,12.566585693359375,-7.227945174407958,-7.6461822769165035,-0.6121674369812011
1788862470831627800,12.576627685546875,-7.3557356880187985,-7.838616235351562,-0.7583633758544921
1788862470841670000,12.586669921875,-7.4962453979492185,-8.046911779785155,-0.8743325187683105
1788862470851711700,12.596711669921875,-7.562834131622314,-8.25460877380371,-0.8240542839050292
1788862470861754600,12.606754638671875,-7.497292861175537,-8.355614156341552,-0.8339303657531738
1788862470871796700,12.616796630859374,-7.699902176666259,-8.397063772583007,-0.8502408645629882
1788862470881838800,12.6268388671875,-8.24802471923828,-8.407089492034912,-0.9623194297790527
1788862470891880700,12.636880615234375,-8.678681742858886,-8.400355799865721,-1.241692835998535
1788862470901922800,12.6469228515625,-8.907926551818846,-8.30009860534668,-1.7220295440673827
1788862470911964700,12.656964599609376,-8.692897315216063,-8.118588191986083,-2.198924587249756
1788862470922006800,12.6670068359375,-8.315960191345214,-7.927351334381103,-2.5704747573852536
1788862470932049000,12.677048828125,-8.200439961242676,-7.851933982086181,-2.786850732421875
1788862470942090800,12.6870908203125,-7.9658081985473626,-7.836521308898925,-2.699312734222412
1788862470952132600,12.697132568359375,-7.499537425231933,-7.83951406097412,-2.351854218292236
1788862470962175700,12.70717578125,-6.950965969848633,-7.948899149322509,-1.8291700683593748
1788862470972217900,12.7172177734375,-6.491877801513671,-8.221389225769043,-1.341351480102539
1788862470982259700,12.727259765625,-6.259640240478515,-8.322244970703125,-1.0603320602416992
1788862470992301800,12.7373017578125,-6.20562106552124,-8.276006951141357,-0.8819640365600585
1788862471002343700,12.74734375,-6.178686296844482,-8.143727309417724,-0.884208600616455
