time,seconds_elapsed,z,y,x
1788861982859067000,0.04506689453125,9.101108698272705,3.455880458831787,0.39100305862426754
1788861982869073200,0.0550732421875,9.599850831604003,3.9194577552795407,0.09202712631225586
1788861982879079200,0.0650791015625,9.90241806640625,4.057124350738525,-0.23119009780883787
1788861982889086000,0.0750859375,9.990554615020752,4.023006977081298,-0.3767874862670898
1788861982899092000,0.085092041015625,9.49974327468872,3.8787563270568843,-0.34656069030761716
1788861982909098200,0.09509814453125,8.416067748260497,3.628861528778076,-0.36526539077758785
1788861982919104000,0.10510400390625,7.527968569946289,3.4331355430603026,-0.022296002960205077
1788861982929110000,0.115110107421875,7.014412313842773,3.4714427696228025,1.1016320388793945
1788861982939116000,0.125115966796875,6.3621419990539545,3.323750454711914,2.459892568206787
1788861982949122000,0.1351220703125,6.150255152130127,3.0068180099487303,3.1949124778747557
1788861982959128000,0.145128173828125,6.307973186492919,2.8681039512634277,3.6783915756225585
1788861982969134000,0.155134033203125,6.815095025634765,2.9791350532531737,3.8334161331176757
1788861982979140000,0.16514013671875,8.02521432723999,3.319111688995361,3.499275363922119
1788861982989146000,0.17514599609375,8.03778388595581,2.7980735527038574,3.7428853828430175
1788861982999152000,0.185152099609375,6.664559596252441,1.8767548263549803,4.52040237197876
1788861983009158100,0.195158203125,5.926397296905518,1.6505027694702148,4.665850122833252
1788861983019164200,0.2051640625,6.51192924041748,1.8707693222045898,4.076427601623535
1788861983029170000,0.215169921875,8.836250139617919,2.6836007858276365,2.3036709098815917
1788861983039176000,0.225176025390625,11.83034895324707,4.148403289031982,-1.2388497215270995
1788861983049182200,0.23518212890625,11.247660124206542,4.2229228157043455,-2.7774235633850095
1788861983059188200,0.245188232421875,8.398560148620605,2.3656208778381345,-0.34431612625122066
1788861983069195000,0.255195068359375,8.607603881072997,1.2642881141662596,-0.06599018325805664
1788861983079201000,0.265200927734375,8.801534215545654,1.1561001266479491,0.2018611274719238
1788861983089207300,0.275207275390625,8.469338735198974,0.994042601776123,1.0534487304687499
1788861983099213000,0.285213134765625,8.385840952301026,0.9901520240783691,1.7570447433471679
1788861983109219000,0.295218994140625,8.58022019958496,0.7433996154785156,1.798494359588623
1788861983119225000,0.30522509765625,8.585607153320312,0.6192004043579101,1.3754688537597655
1788861983129231000,0.315231201171875,7.984512899017333,0.5975029518127442,0.9241618408203125
1788861983139237000,0.325237060546875,7.295581371307373,0.7368155609130859,0.5415384880065918
1788861983149243100,0.3352431640625,6.581361088562011,0.7088333290100097,0.3537432952880859
1788861983159249200,0.345249267578125,5.391143588256836,0.528669654083252,0.15367781906127928
1788861983169255000,0.3552548828125,4.554968658447265,-0.009726444244384765,0.03591302490234375
1788861983179261000,0.365260986328125,4.615272612762451,-0.4516062881469726,-0.03681085052490234
1788861983189267200,0.37526708984375,5.735609352111816,0.09382277755737305,0.4327519500732422
1788861983199273200,0.385273193359375,7.391349437713623,-0.22864625854492185,1.373822840118408
1788861983209279000,0.395279052734375,7.783250321960449,-1.1355997749328612,2.1273978126525876
1788861983219286500,0.40528662109375,7.5996449821472165,-1.6074071395874023,2.4760534294128416
1788861983229292300,0.415292236328125,7.299322311401367,-1.6310498809814453,2.6409540687561033
1788861983239298300,0.42529833984375,6.977451825714111,-2.1748329330444336,2.909852842712402
1788861983249304600,0.4353046875,7.518092488098144,-3.0330045906066894,2.3946505729675294
1788861983259310600,0.445310546875,9.415048390960694,-3.7816415222167965,1.938255881500244
1788861983269316400,0.45531640625,11.455955668640136,-4.270806848907471,1.8360533981323242
1788861983279322400,0.465322265625,13.025654132080078,-5.593154353332519,3.2411504974365233
1788861983289328400,0.475328369140625,13.473968392944336,-6.085162794494629,5.110124168395996
1788861983299334400,0.48533447265625,11.59287407608032,-4.7189714721679685,6.541707123565674
1788861983309340400,0.49534033203125,8.307730123138427,-3.4389714096069333,8.214206620788573
1788861983319346400,0.505346435546875,5.303007039642334,-3.491643846130371,10.588805754852295
1788861983329352400,0.5153525390625,3.587411912536621,-4.485237535095215,13.409324948120116
1788861983339358200,0.525358154296875,2.8746880058288573,-4.809352584838867,16.335637927246093
1788861983349364500,0.535364501953125,0.1375169578552246,-6.086359895324707,23.533954856109617
1788861983359371500,0.54537158203125,2.2144868980407715,-2.6542718154907226,17.72786619262695
1788861983369377300,0.555377197265625,5.315875873565673,0.3085527389526367,18.012476914978027
1788861983379383600,0.565383544921875,6.9156514953613275,0.8143278396606445,17.32818415298462
1788861983389389600,0.5753896484375,7.372944012451171,-0.22535423126220702,17.758841176605223
1788861983399395600,0.5853955078125,7.914033587646484,-1.6985364402770995,17.688661140441894
1788861983409401300,0.5954013671875,7.587374698638915,-2.6976667205810547,16.50398023147583
1788861983419407400,0.605407470703125,5.912780274963379,-3.087622315979004,15.644012922668455
1788861983429413600,0.61541357421875,4.087500784301757,-3.050362552642822,14.31403390045166
1788861983439419400,0.62541943359375,3.069665803527832,-2.73866742401123,12.489652235412597
1788861983449425400,0.63542529296875,2.187402491760254,-2.872443441772461,10.820145490264892
1788861983459431400,0.645431396484375,1.8142063079833983,-2.7117326553344725,9.764601833343505
1788861983470063400,0.6560634765625,1.717989328765869,-2.5822961280822754,8.984840280151367
1788861983480069400,0.6660693359375,1.3640963958740233,-2.1875521293640134,8.910320753479004
1788861983490075400,0.676075439453125,0.5750573112487792,-1.7368436668395995,8.980650427246093
1788861983500081700,0.68608154296875,-0.1283890640258789,-1.4679448928833008,8.68242268295288
1788861983510087400,0.69608740234375,-0.011073182678222656,-1.5631144088745117,7.883058603668212
1788861983520093400,0.706093505859375,0.6464344482421874,-1.6395792243957519,7.758410479736328
1788861983530099500,0.716099365234375,1.1628338188171385,-2.5960627876281737,8.046762142181397
1788861983540106500,0.7261064453125,0.8351274665832519,-4.002805900573731,8.388085516357421
1788861983550112500,0.736112548828125,-3.533542375183105,-5.0942625823974605,8.155399042510986
1788861983560118500,0.746118408203125,-6.502801346588134,-5.6958057495117185,7.172279985809325
1788861983570124300,0.756124267578125,-6.762123313903809,-6.2116065696716305,7.084592350006103
1788861983580130300,0.76613037109375,-4.056525800323486,-4.970063371276855,8.275707675933837
1788861983590136600,0.776136474609375,-1.4598644622802734,-3.305195391845703,8.779687125396729
1788861983600142600,0.786142578125,-1.7067665084838866,-3.319261326599121,9.035866703033447
1788861983610148400,0.7961484375,-2.081758343505859,-3.13460852355957,9.083152185821532
1788861983620154400,0.806154296875,0.9015665626525878,-3.8687306076049803,8.492682201385497
1788861983630160400,0.816160400390625,6.251559809875488,-5.057601369476318,7.62897395248413
1788861983640166400,0.82616650390625,5.604826086425781,-5.307047254943847,9.160664464569091
1788861983650172400,0.83617236328125,1.4429554130554199,-6.225822142028808,9.929801747894286
1788861983660179500,0.846179443359375,-2.18979669342041,-5.113266558074951,7.949497699737548
1788861983670185200,0.856185302734375,-4.676025479888915,-1.875707363128662,5.552004012298584
1788861983680191500,0.86619140625,-5.993734218597412,-1.0797849487304687,4.2788872795104975
1788861983690197500,0.876197509765625,-5.773467665863037,-2.441487142944336,4.567388579559326
1788861983700203500,0.88620361328125,-2.4269722953796387,-3.6831799789428707,5.862352402496337
1788861983710209300,0.896209228515625,-0.3661632164001465,-3.9552211425781247,5.956175180053711
1788861983720215600,0.906215576171875,-0.8804676605224608,-3.365200070953369,5.621884773254394
1788861983730221600,0.9162216796875,-1.5090952339172363,-2.249053184509277,4.931756144714355
1788861983740227600,0.9262275390625,-1.6645687042236328,-0.9186252494812012,3.312228359222412
1788861983750233300,0.9362333984375,-0.8158242156982422,-0.25213936233520506,1.9898808547973632
1788861983760239400,0.9462392578125,0.8487444885253905,-0.7516296836853027,2.5522189697265625
1788861983770246400,0.956246337890625,2.5975591636657716,-1.6475100173950195,6.052841072082519
1788861983780252400,0.96625244140625,4.307318424224853,-2.918980736541748,10.634445223999023
1788861983790258400,0.976258544921875,3.05170929107666,-4.94761773071289,13.074136715698241
1788861983800264400,0.986264404296875,1.014542953491211,-5.768828900146484,13.923180479431151
1788861983810270500,0.9962705078125,-0.38411972885131834,-6.6234092552185055,12.216114695739746
1788861983820276500,1.0062763671875,-1.0854711776733397,-8.176348307037353,9.635165306091308
1788861983830282500,1.016282470703125,-1.0850222648620604,-9.341127414703369,8.776844010925293
1788861983840288500,1.02628857421875,0.04548983154296875,-9.957933617401123,8.640673791503906
1788861983850294300,1.036294189453125,1.7310078002929687,-11.416900254058838,7.732523174285888
1788861983860300500,1.046300537109375,4.093187013244629,-13.056778753662108,6.495020191192626
1788861983870307300,1.056307373046875,4.345027100372314,-14.685584070587158,5.380369680786132
1788861983880313300,1.066313232421875,2.860622071075439,-14.162600645446776,6.606350568389892
1788861983890319400,1.0763193359375,-0.028880057525634766,-13.816039955139159,6.9075710647583
1788861983900325600,1.08632568359375,-1.4612112007141111,-15.463998885345458,3.9805098976135254
1788861983910331400,1.096331298828125,-2.1519383796691893,-14.665233356475829,1.5210662422180175
1788861983920337400,1.10633740234375,-4.339340871429443,-9.639953709411621,1.1595417915344237
1788861983930343400,1.116343505859375,-5.789927802276611,-7.257573419952392,-0.5035305366516113
1788861983940349400,1.126349365234375,-3.31357509765625,-7.1230492141723625,-2.4808418327331543
1788861983950355500,1.13635546875,0.610371785736084,-7.602039183807372,-2.742857276916504
1788861983960361500,1.146361572265625,3.83072265625,-10.249278031921387,-2.182614088439941
1788861983970368500,1.156368408203125,2.0790648666381837,-11.916390575408935,-0.9605237785339354
1788861983980374300,1.166374267578125,1.0507552536010742,-11.196783338928222,-0.323666136932373
1788861983990380500,1.176380615234375,2.357241172027588,-8.99546455001831,-0.730979694366455
1788861984000386600,1.186386474609375,3.86229619064331,-7.888445557403564,0.9382277755737304
1788861984010392300,1.196392333984375,0.28730419921875,-7.574805139923095,3.442413074493408
1788861984020398300,1.2063984375,-2.714126856994629,-7.606677949523926,3.660734338378906
1788861984030404400,1.216404296875,-6.798784526824951,-7.260266896820068,3.7957074569702147
1788861984040410600,1.22641064453125,-8.239794651031493,-7.023390570068359,5.1882349975585935
1788861984050416400,1.23641650390625,-2.5555109970092773,-7.54008921585083,5.178658190917968
1788861984060423400,1.24642333984375,0.3085527389526367,-9.573364975738524,4.474762902832031
1788861984070429400,1.256429443359375,-1.1623849060058593,-11.991658290100096,3.602525310516357
1788861984080435500,1.266435546875,-2.0049942527770996,-12.223446938323974,1.343895319366455
1788861984090441500,1.27644140625,-1.472882933807373,-13.102567860412597,1.1935095275878906
1788861984100447500,1.286447509765625,-0.814627114868164,-14.439430212402343,2.6089316215515135
1788861984110453200,1.296453369140625,-0.5487210929870605,-13.878438835906982,4.482843333435058
1788861984120459500,1.30645947265625,-0.32441432495117184,-12.043432901000976,6.09683452758789
1788861984130465500,1.316465576171875,-0.8524854286193847,-10.233117170715332,7.1215528381347655
1788861984140471600,1.326471435546875,-1.6424223388671875,-8.973018909454344,7.127089429473877
1788861984150478300,1.336478271484375,-1.3379098152160644,-7.622539535522461,6.106261696624755
1788861984160484600,1.346484619140625,-1.5460557220458984,-7.006631158447266,4.834342064666748
1788861984170490600,1.35649072265625,-1.4235025245666504,-7.931840462493896,3.6821325157165523
1788861984180496400,1.366496337890625,-0.7790133651733397,-7.099855385589599,2.1838111892700196
1788861984190502400,1.37650244140625,-1.5078981330871581,-4.994304663085937,0.7835024932861328
1788861984200508400,1.38650830078125,-1.5219640678405761,-4.409071994781494,1.8599954147338866
1788861984210515000,1.396514892578125,-1.5397709426879882,-5.27322915649414,3.896563201904297
1788861984220521000,1.40652099609375,-1.193210252380371,-6.139032331848144,5.832125606536865
1788861984230527000,1.41652685546875,-1.8435352783203125,-5.061342309570312,6.813000099182129
1788861984240533800,1.42653369140625,-0.36691140441894526,-4.456956027984619,8.728959977722168
1788861984250540000,1.4365400390625,-0.5850830307006836,-4.056675437927246,4.288464086151123
1788861984260546000,1.446546142578125,-3.4454058265686034,-3.3143232856750484,2.086546746826172
1788861984270551800,1.4565517578125,-1.9324200149536133,-3.781342247009277,0.33324294357299805
1788861984280557800,1.466557861328125,-2.3675661666870114,-5.245845475006103,1.3358148887634276
1788861984290563800,1.476563720703125,-2.1281460006713866,-8.300697155761718,3.872770822906494
1788861984300570000,1.486570068359375,-1.7118541870117185,-10.592397057342529,6.644657794952392
1788861984310575900,1.496575927734375,-1.2237363235473633,-11.086051512145996,8.295459839630126
1788861984320583000,1.5065830078125,-0.8632593360900879,-11.245864472961426,9.297133959197998
1788861984330589000,1.5165888671875,-0.4170400016784668,-12.070218032073974,10.09320601119995
1788861984340595000,1.526594970703125,-1.0588356842041016,-12.960262499237059,7.956231391906738
1788861984350601000,1.53660107421875,-1.4425065002441406,-12.79356620864868,5.492448246002197
1788861984360607000,1.54660693359375,-0.8895955543518066,-10.469394947052,5.001337630462646
1788861984370612700,1.55661279296875,-0.6310217750549316,-7.223306408691406,4.329614427185058
1788861984380618800,1.56661865234375,-0.44202948150634763,-6.219836637878418,2.9510031837463377
1788861984390625000,1.576625,-0.35359365768432616,-7.519888139343261,2.084601457977295
1788861984400631800,1.5866318359375,-0.8515876029968261,-9.334842635345458,2.185157927703857
1788861984410637800,1.596637939453125,-1.5357307273864744,-11.097423970031738,3.160944741821289
1788861984420643800,1.606643798828125,-1.7509096015930175,-11.828104389190672,3.17306538772583
1788861984430650000,1.616650146484375,-0.8451531860351562,-10.711059677124023,2.8529905532836914
1788861984440656000,1.62665576171875,0.08664017257690429,-9.662249712371825,2.4437317070007323
1788861984450662000,1.636661865234375,1.3626000198364256,-9.424475559997559,2.1327847663879393
1788861984460668000,1.64666796875,0.8319850769042968,-8.471433661651611,2.441936055755615
1788861984470674000,1.656673828125,-6.6519900375366205,-6.911910555267333,5.587468124389648
1788861984480681000,1.666680908203125,-1.7087117973327637,-6.203526139068603,7.312041507720947
1788861984490687000,1.67668701171875,0.9202712631225586,-7.047182949066162,5.719598128509521
1788861984500692700,1.686692626953125,-1.930025813293457,-7.081001047515869,3.197306679534912
1788861984510698800,1.69669873046875,-1.3025953407287596,-8.223184877014159,3.0048727210998534
1788861984520705000,1.706705078125,-1.3798083442687987,-7.507019305419921,3.605966975402832
1788861984530711000,1.7167109375,-2.011877582550049,-6.8134490119934075,4.451120161437988
1788861984540716800,1.726716796875,-1.881393592071533,-8.116792540740967,5.173869787597656
1788861984550723800,1.736723876953125,-1.7236755577087401,-8.355763793945313,4.5413516365051265
1788861984560729900,1.746729736328125,-1.4450503395080565,-7.593659477996826,4.338592683410644
1788861984570735900,1.75673583984375,-1.5081974082946776,-6.533177780151367,4.459499867248535
1788861984580742000,1.766741943359375,-1.445499252319336,-7.420977683258056,3.572448152160644
1788861984590748000,1.776747802734375,1.203984159851074,-8.77834038696289,3.7247792327880855
1788861984600754000,1.78675390625,-1.3347674255371094,-6.319345644378662,4.199280074310303
1788861984610760000,1.796760009765625,-3.547757947540283,-4.017320748138427,3.2414497726440428
1788861984620766000,1.806765869140625,-2.0609587165832517,-1.9370587806701658,3.0576947952270506
1788861984630772700,1.816772705078125,2.909254292297363,-3.896563201904297,3.6948517120361326
1788861984640779000,1.826779052734375,-0.6953659446716308,-7.183053893280029,4.2794858299255365
1788861984650785000,1.836784912109375,-5.582829358673095,-9.6028435836792,6.091896486663818
1788861984660791000,1.846791015625,-3.535038751220703,-10.513687677764892,6.6605193809509275
1788861984670796800,1.856796875,-0.9606734161376953,-11.9005289894104,6.087407358551025
1788861984680802800,1.866802734375,-1.2945149101257323,-12.67280866241455,5.118354236602783
1788861984690809000,1.87680908203125,-1.4395137481689453,-10.314370389556885,4.142118509674072
1788861984700816000,1.88681591796875,-0.7181108604431152,-9.579200842285156,3.7753567428588863
1788861984710822000,1.89682177734375,1.2081740127563476,-10.37497361907959,4.167856177520751
1788861984720828000,1.906827880859375,1.3862427612304686,-9.596708441925049,5.621884773254394
1788861984730834000,1.916833984375,0.13512275619506836,-10.190919366455077,5.22235237121582
1788861984740840000,1.92683984375,-1.1414356414794922,-11.729044295501708,4.857685530853272
1788861984750846000,1.936845947265625,-2.0075380920410155,-11.31350066986084,5.288791467285156
1788861984760852000,1.94685205078125,-1.9713257919311522,-10.413430483245849,5.532700761413574
1788861984770859000,1.95685888671875,-1.2874819427490234,-11.537358525085448,5.008969148254394
1788861984780865000,1.966864990234375,-1.000477018737793,-11.813439904022216,4.670638526153565
1788861984790870800,1.976870849609375,-0.7966706024169922,-10.979509538269042,3.068319065093994
1788861984800876800,1.986876708984375,-1.5544354278564452,-9.39035818634033,2.3630770385742186
1788861984810882800,1.9968828125,-1.5038579177856444,-9.054421765899658,3.558681492614746
1788861984820889000,2.00688916015625,-0.9195230751037597,-9.053374302673339,4.049792108154296
1788861984830894800,2.016894775390625,-1.08532154006958,-7.031171725463866,4.331110803222656
1788861984840902000,2.02690185546875,-0.4682160621643066,-5.816712933349609,3.6590883247375485
1788861984850908000,2.036907958984375,-0.5262754524230957,-4.802169979858398,3.8489784439086914
1788861984860914000,2.046913818359375,-0.755220986175537,-2.851194902038574,4.099621430206299
1788861984870920000,2.056919921875,-1.46195938873291,-2.2468086204528808,4.013430170440674
1788861984880926000,2.066926025390625,-1.1857283721923828,-3.116951286315918,3.6563948478698727
1788861984890932000,2.076931884765625,-1.413476805114746,-3.463511976623535,3.8084266532897946
1788861984900937700,2.086937744140625,-3.623175299835205,-3.5404257049560544,4.422838654327393
1788861984910944000,2.096944091796875,1.8742109870910644,-0.3528454696655273,3.584868073272705
1788861984920950800,2.10695068359375,4.4562078399658205,-2.602946117401123,1.6947955001831054
1788861984930956800,2.116956787109375,-2.120364845275879,-5.008071322631836,1.5988777961730956
1788861984940962800,2.126962890625,-3.502567391204834,-4.946570267486572,2.667290287017822
1788861984950969000,2.136968994140625,-6.168959852600097,-2.535309920501709,3.145083155822754
1788861984960974800,2.146974853515625,-0.6911760917663574,-2.915688709259033,2.0407576400756833
1788861984970980900,2.15698095703125,2.459144380187988,-2.179022785949707,1.0335469291687012
1788861984980988000,2.16698779296875,-2.671031227111816,-6.657676266479492,1.7069161460876463
1788861984990994000,2.176993896484375,-4.781370352935791,-8.266729419708252,1.4390648353576658
1788861985001000000,2.187,-2.9158383468627926,-9.882067352294921,3.42191272277832
1788861985011006000,2.197005859375,0.3468599655151367,-11.511471219635009,5.418826544952393
1788861985021011700,2.20701171875,0.3736450965881347,-13.844920012664794,7.760056493377685
1788861985031018000,2.21701806640625,1.6814777534484862,-15.714043321228026,10.064176316070556
1788861985041024000,2.22702392578125,0.5524620330810547,-17.625663709259033,11.305120964050293
1788861985051030800,2.23703076171875,-0.8092401611328125,-19.170372692871094,8.141931658172608
1788861985061036800,2.247036865234375,-1.294814185333252,-18.590078065490722,3.962852660369873
1788861985071043000,2.25704296875,-1.8492215072631835,-17.6466129737854,2.8514941772460936
1788861985081049000,2.267049072265625,-2.946364418029785,-17.243489269256592,3.6028245857238765
1788861985091054800,2.277054931640625,-3.3672949974060056,-18.118121063232422,4.803666355895996
1788861985101060900,2.287060791015625,-3.031807489776611,-18.058415659332276,5.321711740112304
1788861985111067000,2.29706689453125,-0.8940846824645996,-16.5747588180542,3.7831378982543944
1788861985121074000,2.307073974609375,-0.14993687896728514,-17.36484536590576,0.8243535591125488
1788861985131080000,2.317079833984375,-1.8837877937316894,-16.971897018432617,-1.301248602294922
1788861985141086000,2.3270859375,-3.149273008728027,-15.225177269744872,-0.6223427940368652
1788861985151091700,2.337091796875,-3.599382920837402,-11.538405988311768,1.103278052520752
1788861985161098000,2.347097900390625,-2.932897033691406,-8.088361396026611,2.9321488456726073
1788861985171104000,2.35710400390625,0.1505354293823242,-3.860051626586914,3.8166567214965816
1788861985181110000,2.367110107421875,1.4851532173156738,-1.6130933685302733,5.023334358215331
1788861985191116800,2.37711669921875,0.922515827178955,-1.4857517677307128,6.325929698944091
1788861985201123000,2.387123046875,0.8608651344299316,-2.2285528327941893,6.712144354248046
1788861985211128300,2.39712841796875,0.17971476211547852,-3.9537247665405273,5.881506015777587
1788861985221134300,2.40713427734375,-2.038662713623047,-7.256226681518554,5.348047958374023
1788861985231140400,2.417140380859375,-3.050362552642822,-9.31464155883789,5.055207167816162
1788861985241146400,2.427146484375,-3.3643022453308102,-9.69786346206665,4.765209491729736
1788861985251153200,2.437153076171875,-2.940229276275635,-9.625289224243163,4.703409161376952
1788861985261159400,2.447159423828125,-1.8414403518676756,-8.756493296813964,4.548085328674316
1788861985271165400,2.45716552734375,-1.1786954048156737,-7.9834654357910155,4.527285701751708
1788861985281171200,2.467171142578125,-0.8747814315795898,-7.738508678436279,4.693383441925048
1788861985291177200,2.47717724609375,-0.9332897346496581,-7.889343383026122,4.613476961517334
1788861985301183200,2.487183349609375,-1.281346800994873,-8.138489993286132,4.187309066009521
1788861985311189500,2.497189453125,-1.512536898803711,-8.325387360382079,3.8118683181762694
1788861985321196300,2.5071962890625,-1.5921441040039062,-8.476521340179444,3.688866207885742
1788861985331202300,2.517202392578125,-1.9219453826904296,-8.617779238128662,3.918559929656982
1788861985341208300,2.527208251953125,-2.2643162200927733,-8.86722512359619,4.38587816619873
1788861985351214300,2.53721435546875,-2.099714855957031,-8.934711682891844,4.71148959197998
1788861985361220400,2.547220458984375,-1.7495628631591795,-8.652944075012206,4.538059609222412
1788861985371226400,2.557226318359375,-1.317110188293457,-8.302043894195556,4.070142822265625
1788861985381233200,2.567233154296875,-1.0027215827941893,-8.277652964782714,3.54970323638916
1788861985391239400,2.577239501953125,-1.0362404060363768,-8.68885709991455,3.1147067222595215
1788861985401245400,2.587245361328125,-1.2912228828430174,-9.230395587921143,2.935590510559082
1788861985411251200,2.597251220703125,-1.694346587371826,-9.65237363052368,3.0985458610534664
1788861985421257200,2.60725732421875,-2.1327847663879393,-9.804555073547363,3.5399767921447753
1788861985431263200,2.61726318359375,-2.6783634696960448,-9.699509475708007,4.194940583801269
1788861985441270300,2.627270263671875,-3.2864906913757324,-9.514407759857177,5.202001657104492
1788861985451276300,2.6372763671875,-3.273172944641113,-9.034669602203369,5.895123037719726
1788861985461282300,2.6472822265625,-2.5673323677062987,-8.646360020446776,6.310666663360595
1788861985471288300,2.657288330078125,-2.422183892059326,-8.181435985565185,5.888090070343017
1788861985481294300,2.66729443359375,-2.6837504234313965,-8.166771500396727,5.5078609191894525
1788861985491300400,2.67730029296875,-3.4515409683227536,-8.677035729217529,5.6203883972167965
1788861985501307100,2.68730712890625,-4.938040924072265,-9.415347666168213,6.14801058807373
1788861985511313400,2.6973134765625,-5.741594856262207,-9.975291579437256,6.5774705108642575
1788861985521319400,2.7073193359375,-5.090372004699707,-10.248230568695067,6.310367388153076
1788861985531325400,2.717325439453125,-4.633977313232422,-10.518326443481445,5.599888045501709
1788861985541331200,2.727331298828125,-4.892551092529296,-10.709413663482666,5.477484485626221
1788861985551337200,2.737337158203125,-4.396502436065673,-10.373177967834472,5.789329251861572
1788861985561343500,2.747343505859375,-3.2248399986267087,-9.526528405761718,5.972635316467285
1788861985571350300,2.757350341796875,-2.750937707519531,-8.55463216934204,6.03937368774414
1788861985581356300,2.767356201171875,-3.23067586517334,-7.594258028411865,5.9485436622619625
1788861985591362300,2.7773623046875,-4.4391491531372065,-7.031171725463866,5.902455280303955
1788861985601368300,2.787368408203125,-6.023063188934326,-7.171531797790527,5.840505312347411
1788861985611374300,2.797374267578125,-7.144597029113769,-7.706635868835448,6.292111600494384
1788861985621380400,2.80738037109375,-7.519738501739502,-8.49163473815918,7.250690090179443
1788861985631387100,2.81738720703125,-7.3736922004699705,-9.21962168045044,7.964012547302246
1788861985641393400,2.827393310546875,-6.889614552307129,-9.439738595581055,8.206575102996826
1788861985651399400,2.8373994140625,-6.045059916687011,-8.999504765319823,7.89727417602539
1788861985661405400,2.847405517578125,-4.862773209381103,-8.211213868713378,7.448211727142334
1788861985671411200,2.8574111328125,-3.4364275703430174,-7.436689631652832,6.8870707130432125
1788861985681418500,2.86741845703125,-2.654720728302002,-6.805817494201659,6.332513753509521
1788861985691424300,2.87742431640625,-2.807949634552002,-6.405237628936767,5.9014078170776365
1788861985701430300,2.88743017578125,-3.4082957008361814,-6.207416716766357,5.364508094787597
1788861985711436300,2.897436279296875,-3.7582980560302732,-5.96919365158081,4.818031565856933
1788861985721442300,2.9074423828125,-4.056525800323486,-5.800402434539794,4.5331215682983395
1788861985731448300,2.9174482421875,-4.518307445526123,-5.796362219238281,4.397100986480712
1788861985741455400,2.927455322265625,-5.17776036529541,-5.84140313796997,4.236539837646484
1788861985751461400,2.93746142578125,-6.244826117706299,-5.661987651062011,3.9743747558593747
1788861985761467100,2.947467041015625,-7.201309680938721,-5.360318241882324,4.020912050628662
1788861985771473400,2.957473388671875,-7.295731008911132,-5.129876332092285,4.310909726715088
1788861985781479400,2.9674794921875,-6.826916396331787,-5.010764799499511,4.6167689888000485
1788861985791485200,2.977485107421875,-6.618770489501952,-4.957344174957275,5.030068050384521
1788861985801492200,2.9874921875,-6.627898383331298,-4.887463414001465,5.092766206359863
1788861985811498500,2.99749853515625,-6.227168880462646,-4.74396095199585,5.0200423309326165
1788861985821504300,3.007504150390625,-5.906495495605468,-4.398298087310791,4.801571429443359
1788861985831510300,3.01751025390625,-5.670516994476318,-4.145260899353027,4.989366622161865
1788861985841516300,3.027516357421875,-5.038148480987549,-3.7829882606506344,5.1590556648254395
1788861985851522300,3.037522216796875,-4.605246893310547,-3.340360228729248,5.3205146392822265
1788861985861529300,3.047529296875,-4.872200378417968,-2.9129952323913573,5.354781650543212
1788861985871535400,3.057535400390625,-5.497685562133789,-2.7617116149902343,5.256469744873047
1788861985881541400,3.067541259765625,-5.998223346710205,-2.8266543350219724,4.971559747314453
1788861985891547100,3.077547119140625,-6.328024625396728,-3.0448259613037107,4.62903927230835
1788861985901553400,3.087553466796875,-6.4463879699707025,-3.4855087043762203,4.406977068328858
1788861985911560200,3.097560302734375,-6.546196251678467,-3.7255274208068845,4.394108234405517
1788861985921566200,3.107566162109375,-6.845471459197998,-3.7262756088256834,4.534767581939697
1788861985931572500,3.117572509765625,-7.090877129364014,-3.770418701934814,4.572775533294678
1788861985941578500,3.12757861328125,-7.0847419876098625,-3.6520553573608394,4.086752596282959
1788861985951584300,3.137584228515625,-7.010521736145019,-3.388244261932373,3.349338484954834
1788861985961590300,3.14759033203125,-6.969072119903564,-3.078494422149658,2.8630162727355954
1788861985971597300,3.157597412109375,-7.42441934814453,-2.7536311843872068,2.6734254287719725
1788861985981603300,3.167603271484375,-8.144475497436522,-2.6759692680358884,2.918232548522949
1788861985991609300,3.177609375,-8.174253380584716,-2.7295395301818846,3.305943579864502
1788861986001615400,3.187615478515625,-7.885153530120849,-2.723554026031494,3.525162669372558
1788861986011621000,3.19762109375,-7.691073558044433,-2.6206033546447753,3.958962082672119
1788861986021628400,3.20762841796875,-7.682244939422607,-2.466177347564697,4.402936853027343
1788861986031634400,3.217634521484375,-8.00635998916626,-2.4633342330932617,5.208436074066162
1788861986041640200,3.22764013671875,-7.867645930480957,-2.319532495880127,5.575197840881347
1788861986051646200,3.237646240234375,-7.518691038513183,-2.093430076599121,5.786935050201416
1788861986061652500,3.247652587890625,-7.861061875915527,-1.786224076080322,5.592855078125
1788861986071658500,3.257658447265625,-8.046462866973876,-1.4716858329772948,5.002534731292724
1788861986081665300,3.267665283203125,-8.525452836608887,-1.795800882720947,4.611830947875976
1788861986091671300,3.27767138671875,-9.066841687011719,-2.772186247253418,4.5036429603576655
1788861986101677300,3.28767724609375,-9.352350234985352,-3.413533016967773,4.512321941375732
1788861986111683300,3.297683349609375,-9.747243871307372,-3.7243303199768065,4.695628005981445
1788861986121689300,3.307689453125,-8.902988510894774,-3.8979099403381343,3.5039141296386718
1788861986131696000,3.317696044921875,-5.779004257202148,-3.8200983863830564,2.19638074798584
1788861986141702400,3.327702392578125,-5.993734218597412,-3.557334754180908,3.167229521179199
1788861986151708400,3.33770849609375,-8.553734343719482,-3.329436683654785,3.8799534278869627
1788861986161714400,3.34771435546875,-8.829666085052489,-3.2954689476013184,4.50079984588623
1788861986171720200,3.35772021484375,-9.278429258728027,-3.5865140869140624,4.957044899749755
1788861986181727500,3.3677275390625,-10.038737923431396,-3.7997476722717285,4.679467144775391
1788861986191733200,3.377733154296875,-9.503783489990234,-3.539677516937256,4.122815258789062
1788861986201739300,3.3877392578125,-8.202385250091552,-3.097049485015869,4.161421760559082
1788861986211745800,3.397745849609375,-7.778611556243896,-2.7096377288818356,4.307916974639892
1788861986221751800,3.407751708984375,-8.381202186584472,-2.5397990486145017,4.2037692024230955
1788861986231757600,3.417757568359375,-8.419359775543212,-2.726546778106689,4.334103555297851
1788861986241764600,3.4277646484375,-7.899967652893066,-2.9186814613342285,4.41790061340332
1788861986251770600,3.4377705078125,-7.900566203308105,-3.248482740020752,4.312406102752686
1788861986261776600,3.447776611328125,-7.969848413848877,-3.356820365142822,4.209904344177246
1788861986271782700,3.45778271484375,-8.15195737762451,-3.365798621368408,4.139873945617675
1788861986281788700,3.46778857421875,-8.258499351501465,-3.3828573081970212,3.6394857986450195
1788861986291795700,3.477795654296875,-8.526201024627685,-3.026719811248779,3.0123546012878415
1788861986301801700,3.4878017578125,-8.43971048965454,-2.836680054473877,2.806453258514404
1788861986311807700,3.497807861328125,-7.771428951263427,-3.506158693695068,3.3660978965759276
1788861986321813500,3.5078134765625,-8.058134600067138,-4.262277505493164,3.839700912475586
1788861986331819800,3.51781982421875,-8.655188639068603,-4.348618402862549,3.4626141510009765
1788861986341826600,3.52782666015625,-8.636035025787352,-3.9811084480285643,2.9460651428222655
1788861986351832600,3.53783251953125,-8.020725199127197,-3.561674244689941,2.6414029815673827
1788861986361838600,3.547838623046875,-9.554361000061034,-3.449446041870117,3.7032314178466796
1788861986371844900,3.557844970703125,-11.462689360809325,-3.3711855751037594,4.585045816802978
1788861986381850600,3.5678505859375,-10.737844808197021,-3.305195391845703,4.409820182800293
1788861986391857700,3.577857666015625,-8.975263473510742,-3.2582091842651364,3.794809631347656
1788861986401863700,3.58786376953125,-9.725247143554688,-3.1675287963867187,3.248931652832031
1788861986411869700,3.59786962890625,-10.318410604858398,-3.036895168304443,2.816030065155029
1788861986421875700,3.607875732421875,-8.475473876953124,-2.4959552307128905,1.8828899681091307
1788861986431881700,3.6178818359375,-6.982988417053222,-2.276436865997314,1.350180098724365
1788861986441888500,3.627888427734375,-7.857919486236572,-2.5758617111206052,1.6208745239257811
1788861986451894800,3.637894775390625,-9.601646482849121,-2.931101382446289,2.0254946044921875
1788861986461900800,3.64790087890625,-9.417891505432129,-2.947561518859863,2.0739771881103515
1788861986471906600,3.657906494140625,-9.254636879730224,-3.554042726898193,2.4193407775878906
1788861986481912600,3.66791259765625,-9.68559317855835,-4.950909757995605,3.2014965324401854
1788861986491920000,3.677919921875,-9.600000469207764,-6.076633451080322,3.2213983337402343
1788861986501925600,3.687925537109375,-8.63738176422119,-5.812523080444335,2.5589526618957517
1788861986511931600,3.697931640625,-7.500435250854491,-5.0200423309326165,2.5043349365234375
1788861986521937700,3.707937744140625,-6.552630668640137,-4.23309817276001,2.887556839752197
1788861986531943700,3.717943603515625,-8.182932361602782,-3.2926258331298826,2.2774843292236326
1788861986541950700,3.72795068359375,-9.293093743896485,-2.2628198440551754,0.9213187263488769
1788861986551956700,3.737956787109375,-7.4776903350830075,-1.2817957138061522,0.6373065544128418
1788861986561962500,3.74796240234375,-7.126191603851318,-0.3366846084594726,0.8493430389404296
1788861986571968500,3.757968505859375,-9.278728533935546,0.637156916809082,-0.2510918991088867
1788861986581974800,3.767974853515625,-8.34439133605957,1.3341688751220702,-1.5981296081542968
1788861986591981600,3.777981689453125,-5.437082332611084,0.7496843948364257,0.17298106994628906
1788861986601987600,3.787987548828125,-6.055534548950195,-0.8858546142578124,2.198326036834717
1788861986611993600,3.79799365234375,-8.926032701873778,-2.0130746833801267,0.8801683853149413
1788861986621999600,3.80799951171875,-9.528174419403076,-1.9155109657287597,-0.9213187263488769
1788861986632005600,3.818005615234375,-8.027608528900146,-1.3031938911437988,0.12913725204467771
1788861986642012700,3.8280126953125,-6.942586264038085,-0.48228199691772455,2.389562894439697
1788861986652018400,3.838018310546875,-7.263110011291504,-0.4777928688049316,3.8667853187561034
1788861986662024700,3.848024658203125,-7.904606418609618,-1.036090768432617,3.4885014564514156
1788861986672030700,3.85803076171875,-7.952041539001464,-1.2232874107360838,2.5143606559753415
1788861986682036700,3.86803662109375,-8.130559200286864,-0.838269856262207,2.0657471199035644
1788861986692043500,3.87804345703125,-7.897872726440429,-0.3842693664550781,2.183960826873779
1788861986702049800,3.8880498046875,-7.841010437011718,-0.7300818687438965,2.5158570320129394
1788861986712055800,3.898055908203125,-7.913435037231445,-1.252017830657959,2.3312042289733887
1788861986722061600,3.9080615234375,-7.82679486465454,-1.335515613555908,2.0682909591674803
1788861986732067600,3.918067626953125,-7.4405802093505855,-1.0582371337890624,2.124105785369873
1788861986742074600,3.92807470703125,-7.0184525291442865,-0.9091980804443359,2.2450129692077634
1788861986752080600,3.93808056640625,-7.797465894317627,-1.2517185554504393,2.2527941246032714
1788861986762086700,3.948086669921875,-7.972242615509033,-1.4784195251464842,2.5733178718566894
1788861986772092700,3.9580927734375,-6.963535528564453,-1.3147159866333007,3.116203098297119
1788861986782098700,3.9680986328125,-7.109581829833984,-1.21296241607666,3.582773146820068
1788861986792105700,3.978105712890625,-8.31955149383545,-1.0754454582214354,3.871872997283935
1788861986802111700,3.98811181640625,-8.218845386505127,-0.711227530670166,4.058620726776123
1788861986812117500,3.998117431640625,-6.546495526885986,-0.5981015022277831,4.234444911193847
1788861986822123800,4.008123779296875,-6.1845221633911125,-1.0441711990356444,3.993827644348144
1788861986832130600,4.018130615234375,-7.3840171951293945,-1.6032172866821288,3.113509621429443
1788861986842136600,4.028136474609375,-8.14672006149292,-1.6678607315063476,2.5291747787475582
1788861986852142600,4.038142578125,-7.578994992828369,-1.253214931488037,2.5667338172912597
1788861986862148900,4.04814892578125,-6.942586264038085,-1.1363479629516602,2.827701798248291
1788861986872154600,4.058154541015625,-7.579743180847167,-1.7727566917419433,3.1585505401611327
1788861986882161700,4.06816162109375,-8.762927713775634,-2.723554026031494,3.336320013427734
1788861986892167700,4.078167724609375,-9.72285294189453,-3.1311668586730956,4.15588516921997
1788861986902173700,4.088173583984375,-10.562768811798096,-3.4056022239685055,5.976675531768798
1788861986912179700,4.0981796875,-10.91636246948242,-4.7493479057312005,7.733869912719726
1788861986922186500,4.1081865234375,-9.982923097229003,-6.7948939491271965,8.830563910675048
1788861986932192500,4.118192626953125,-9.186252494812011,-8.857797954559326,8.981847528076171
1788861986942198800,4.12819873046875,-8.971971446228027,-10.814159986114502,8.048408155822754
1788861986952204800,4.138204833984375,-9.018059828186034,-12.042086162567138,6.679972269439697
1788861986962210600,4.14821044921875,-8.815749787902831,-11.904120291900634,6.0042088508605955
1788861986972217600,4.158217529296875,-8.45931301574707,-10.402207662963866,6.183474700164795
1788861986982224000,4.168223876953125,-8.109460298156737,-8.345139524078368,6.309319924926758
1788861986992229600,4.178229736328125,-7.6997525390625,-6.6519900375366205,5.907393321228027
1788861987002235600,4.188235595703125,-6.566397328186035,-5.617994195556641,5.53509496307373
1788861987012242400,4.198242431640625,-5.551555099487304,-4.816385552215576,5.688922419738769
1788861987022248700,4.208248779296875,-5.725134719848633,-4.160972847747803,5.896469776153564
1788861987032254700,4.218254638671875,-5.904849481964111,-3.8507740951538083,5.849034655761718
1788861987042260700,4.2282607421875,-5.426906975555419,-3.9284360115051267,5.76493832244873
1788861987052266500,4.2382666015625,-5.135412923431396,-4.530128816223145,5.959467207336425
1788861987062273800,4.248273681640625,-5.553051475524902,-5.571157625579834,5.94330634613037
1788861987072279800,4.25827978515625,-5.981015022277831,-6.893056217193603,5.587617761993408
1788861987082285600,4.26828564453125,-6.273556537628173,-8.46574743270874,5.137358212280273
1788861987092291600,4.27829150390625,-5.820753148651122,-9.483432775878907,5.1228433647155756
1788861987102298600,4.288298583984375,-5.444564212799072,-9.673771807861328,6.054935998535156
1788861987112304600,4.2983046875,-5.6304141166687005,-9.506925879669188,6.810755535125732
1788861987122310700,4.308310546875,-5.7583542678833,-9.368511096191405,6.905326500701904
1788861987132316700,4.318316650390625,-6.476315490722656,-9.431658164978026,6.5403603851318355
1788861987142322400,4.328322509765625,-7.111527118682861,-9.622745384979247,6.063166066741943
1788861987152329700,4.338329833984375,-7.663091326141357,-10.0104564163208,5.5032221534729
1788861987162335700,4.348335693359375,-7.480832724761963,-10.518924993896483,5.377227291107177
1788861987172341500,4.358341552734375,-7.556698989868163,-10.650007534790038,5.344905568695068
1788861987182347500,4.368347412109375,-7.371447636413574,-10.594491983795166,5.429450814819336
1788861987192354600,4.3783544921875,-7.007528984069824,-9.954791227722167,5.6115597785949705
1788861987202360600,4.388360595703125,-7.045088022613525,-8.879345769500732,5.928641860961914
1788861987212366800,4.398366943359375,-7.251887191009521,-7.830386167144775,6.065260993194579
1788861987222373000,4.408373046875,-6.534374880981445,-7.176469838714599,5.96320814743042
1788861987232380000,4.4183798828125,-5.609614489746093,-6.731297967529296,5.450549716949463
1788861987242386000,4.428385986328125,-4.726154077148437,-6.129904438018799,4.611531672668456
1788861987252392000,4.438391845703125,-3.5036148544311523,-5.186738621520996,4.103362370300292
1788861987262398000,4.44839794921875,-3.653851008605957,-4.41146619644165,4.165611613464355
1788861987272404000,4.458404052734375,-4.67991605758667,-4.076277964019775,4.8804304466247554
1788861987282410800,4.46841064453125,-5.821052423858642,-4.230853608703613,6.022913551330566
1788861987292416800,4.478416748046875,-7.295431733703613,-5.161898779296875,7.035211940765381
1788861987302423000,4.488423095703125,-7.890241208648681,-6.192153681182861,7.813776393127441
1788861987312429000,4.498428955078125,-7.544129431152343,-6.197241359710693,8.117840003967284
1788861987322435800,4.508435791015625,-6.641216130065917,-5.138256037902832,8.11514652709961
1788861987332441900,4.51844189453125,-6.223577577972412,-4.14361488571167,7.7979148071289055
1788861987342447900,4.52844775390625,-6.655282064819335,-3.972579104614258,7.040000344085693
1788861987352454000,4.538453857421875,-6.65872372970581,-3.8034886123657223,6.312163039398193
1788861987362461000,4.5484609375,-5.414487054443359,-3.2966660484313963,6.0345852844238275
1788861987372466700,4.558466796875,-5.019593418121338,-3.4777275489807127,5.718401027679443
1788861987382473000,4.568472900390625,-6.4089785690307615,-4.523245486450195,4.653130926513672
1788861987392479000,4.57847900390625,-7.481131999969482,-5.236867218780517,3.8187516479492185
1788861987402485800,4.58848583984375,-7.483226926422119,-4.8226703315734865,4.267365184020996
1788861987412491800,4.59849169921875,-7.376684952545165,-4.472069425964356,5.389796849822997
1788861987422498000,4.608498046875,-7.976282830810546,-5.090671279907227,6.300491306304932
1788861987432504000,4.618504150390625,-8.17904178390503,-5.84170241317749,6.741174049377441
1788861987442509800,4.628509765625,-8.002020498657226,-6.164021811676025,6.778433812713622
1788861987452516900,4.638516845703125,-7.375038938903808,-6.01378565750122,6.82437255706787
1788861987462523000,4.64852294921875,-7.275978845214843,-5.333533110809326,6.4375593513488765
1788861987472529000,4.65852880859375,-8.332569965362548,-4.935945997619629,5.934777002716064
1788861987482535000,4.668534912109375,-7.978527394866943,-4.38602780380249,5.383960983276367
1788861987492541700,4.678541748046875,-6.809109521484374,-3.221697608947754,5.0680760017395015
1788861987502548000,4.6885478515625,-6.518662932586669,-2.635267839813232,5.28654690322876
1788861987512554000,4.698553955078125,-7.251288640594482,-2.6403555183410643,5.199607455444336
1788861987522560000,4.70856005859375,-8.130708837890625,-2.682553322601318,4.68006569519043
1788861987532566800,4.71856689453125,-7.548468921661376,-2.2916999015808104,4.678270043945313
1788861987542573000,4.728572998046875,-7.699153988647461,-2.10046304397583,5.205443321990966
1788861987552578800,4.738578857421875,-9.021800768280029,-2.9103017555236814,5.379471855163574
1788861987562584800,4.748584716796875,-9.556007013702391,-3.6750995483398436,5.244648374176025
1788861987572592000,4.758592041015625,-8.813056311035156,-4.027196829986572,4.987271695709228
1788861987582598000,4.768597900390625,-8.225279803466796,-4.789450783538818,4.528033889770508
1788861987592604000,4.77860400390625,-8.533084354400634,-5.021538706970214,4.161721035766601
1788861987602610000,4.78860986328125,-8.246528343200684,-4.045003704833984,3.7829882606506344
1788861987612617000,4.798616943359375,-7.531110959625244,-3.1184476623535153,3.752611827087402
1788861987622623000,4.808623046875,-7.295431733703613,-3.098246585845947,3.6164416076660153
1788861987632629000,4.81862890625,-7.160608252716064,-3.30055662612915,3.367145359802246
1788861987642634800,4.828634765625,-6.959345675659179,-3.0349498794555663,3.21122297668457
1788861987652642000,4.83864208984375,-6.485742659759521,-2.681954772186279,3.028515462493896
1788861987662648000,4.84864794921875,-6.766163529205322,-2.5248352882385254,2.8464064987182613
1788861987672653800,4.85865380859375,-7.6756608848571775,-2.3778911613464353,2.5679309181213377
1788861987682659800,4.868659912109375,-7.452700855255126,-2.13877027053833,2.10046304397583
1788861987692667000,4.8786669921875,-5.650615193176269,-1.3392565536499024,1.3805565322875977
1788861987702673000,4.8886728515625,-4.2320507095336914,-0.9100959060668945,0.9282020561218262
1788861987712679000,4.898678955078125,-5.772420202636718,-0.9874585472106933,0.5972036766052246
1788861987722685000,4.908684814453125,-7.238719081878662,-0.46716859893798823,-0.2651578338623047
1788861987732692000,4.91869189453125,-7.867496292877197,0.6171054779052734,-1.5937901176452636
1788861987742698000,4.928697998046875,-7.950694800567627,1.3376105400085447,-1.5049053810119628
1788861987752704000,4.9387041015625,-9.695319622802733,1.30229606552124,0.5708674583435058
1788861987762709800,4.948709716796875,-10.05504842224121,0.591218172454834,2.4314614234924314
1788861987772717000,4.958717041015625,-8.98828194503784,-1.482459740447998,3.9873932273864745
1788861987782723000,4.96872314453125,-9.492411032104492,-3.244292887115478,4.4945150665283204
1788861987792728800,4.978728759765625,-9.911695597839355,-3.5116952850341794,2.70036019744873
1788861987802734800,4.98873486328125,-9.967211148834227,-3.145083155822754,1.3953706550598144
1788861987812742000,4.998741943359375,-10.130016861724853,-3.443161262512207,1.9364602302551268
1788861987822748000,5.008747802734375,-10.245836367034912,-3.524564118957519,2.1945850967407226
1788861987832754000,5.01875390625,-9.53131680908203,-2.590675833892822,1.81944362411499
1788861987842760000,5.028760009765625,-7.614159829711913,-1.6231190879821777,2.16405902557373
1788861987852767000,5.03876708984375,-6.4448915939331055,-0.914884309387207,2.405574118041992
1788861987862773000,5.04877294921875,-7.23348176574707,-0.27563246612548825,1.979705497741699
1788861987872779000,5.058779052734375,-7.691672108459472,-0.3128922294616699,1.7983447219848632
1788861987882784800,5.06878466796875,-7.423371884918213,-0.9536404487609863,1.900547205352783
1788861987892792000,5.0787919921875,-7.083395249176025,-1.3230956924438475,1.4009072463989256
1788861987902797800,5.0887978515625,-7.013963401031494,-0.9504980590820312,1.005564697265625
1788861987912803800,5.098803955078125,-6.795642137145996,-0.2904465888977051,1.2801497001647948
1788861987922811000,5.108810791015625,-6.764667153167724,-0.17387889556884764,1.6512509574890135
1788861987932817000,5.11881689453125,-7.108684004211425,-0.4565443290710449,1.8956091644287107
1788861987942823000,5.128822998046875,-6.962338427734375,-0.7691372833251953,2.2554876014709473
1788861987952829000,5.138828857421875,-6.470329986572265,-0.9250596664428711,2.4958055931091305
1788861987962835700,5.148835693359375,-6.115239952850342,-1.1103110198974608,2.551171506500244
1788861987972842000,5.158842041015625,-5.840206037139892,-1.4867992309570313,2.7220576499938964
1788861987982848000,5.168847900390625,-6.208314542388916,-2.252494849395752,2.5163059448242184
1788861987992853800,5.178853759765625,-7.095366257476806,-2.8847137252807618,1.7963994331359863
1788861988002861000,5.188861083984375,-7.558345003509521,-2.5386019477844237,1.8493711448669432
1788861988012867000,5.1988671875,-7.875726361083984,-1.6077064147949218,2.8731916297912594
1788861988022872800,5.208872802734375,-7.832481093597412,-1.34060329208374,3.7229835815429686
1788861988032878800,5.21887890625,-7.3463085189819335,-1.9393033447265624,4.357895934295654
1788861988042886100,5.22888623046875,-6.969072119903564,-3.130867583465576,4.929661218261718
1788861988052892000,5.238891845703125,-6.769904469299316,-4.40548069229126,5.041290870666503
1788861988062898000,5.24889794921875,-6.556221971130371,-5.274575894927978,4.979939453125
1788861988072904000,5.258904052734375,-6.282834069061279,-6.0419175270080565,5.036352829742431
1788861988082911000,5.268910888671875,-6.928221054077148,-7.144297753906249,4.6903906898498535
1788861988092917000,5.2789169921875,-7.628375402069091,-7.996932820129394,4.4184991638183595
1788861988102923000,5.288923095703125,-7.38012661743164,-8.046911779785155,5.181501305389404
1788861988112928800,5.2989287109375,-7.327903093719482,-7.325658529663086,6.301987682342529
1788861988122936000,5.30893603515625,-7.152228546905517,-6.552032118225097,6.503100621795654
1788861988132942000,5.318942138671875,-6.31410832824707,-6.124068571472168,5.868786819458007
1788861988142947800,5.32894775390625,-5.71361262435913,-6.030993981933594,5.078849909210205
1788861988152955000,5.338954833984375,-5.513247872924804,-6.081571492004394,4.469675224304199
1788861988162961000,5.3489609375,-5.3214124649047845,-6.1647699996948235,4.305822048187256
1788861988172967000,5.358966796875,-5.446509501647949,-6.603507453918457,4.557811772918701
1788861988182973000,5.368972900390625,-6.010343992614746,-7.543680518341064,4.655225852966308
1788861988192979700,5.378979736328125,-6.489034687042236,-8.506448860931396,4.435258575439453
1788861988202986000,5.388986083984375,-6.957550024414062,-9.299677798461914,4.489876300811767
1788861988212991500,5.398991455078125,-7.166294481658936,-10.181791472625731,5.200505281066894
1788861988222997800,5.408997802734375,-6.43546442489624,-10.75101291732788,6.557419071960449
1788861988233004500,5.419004638671875,-6.329969914245605,-10.846182433319091,7.828440878295898
1788861988243010600,5.429010498046875,-7.527669294738769,-10.857255615997314,8.217648285675049
1788861988253016600,5.4390166015625,-8.405892391204834,-10.7007346824646,8.237849362182617
1788861988263023600,5.449023681640625,-8.866476935577392,-10.421660551452636,7.990498403167724
1788861988273029600,5.459029541015625,-8.88697728729248,-10.167426262664794,6.64615417098999
1788861988283035400,5.469035400390625,-7.4214265960693355,-9.721356565856933,5.633706143951415
1788861988293041400,5.47904150390625,-6.569090805053711,-9.216329653167724,5.58597174835205
1788861988303048700,5.489048583984375,-6.663661770629883,-8.679579568481445,5.7249850822448725
1788861988313054500,5.499054443359375,-6.112546475982666,-8.070554521179199,6.042665715026855
1788861988323060500,5.509060546875,-5.625176800537109,-7.645883001708984,6.545896976470947
1788861988333067800,5.51906787109375,-5.833771620178222,-7.294384270477295,6.6790744438171386
1788861988343073500,5.529073486328125,-5.660341637420654,-7.0373068672180175,6.5303346656799315
1788861988353079600,5.53907958984375,-5.20993245010376,-7.097760459136962,6.2870239219665525
1788861988363085600,5.54908544921875,-5.954080253601074,-7.555950801849365,5.711966610717773
1788861988373092600,5.559092529296875,-6.67129328842163,-7.9834654357910155,4.669890338134765
1788861988383098600,5.5690986328125,-5.860107838439941,-7.9198694541931145,3.7714661651611325
1788861988393104600,5.579104736328125,-4.893448918151855,-7.425616448974609,3.469198205566406
1788861988403110400,5.5891103515625,-4.274098876190186,-6.538714371490478,3.5154362251281737
1788861988413117700,5.59911767578125,-3.883544730377197,-5.579387693786621,3.9489363632202146
1788861988423123700,5.609123779296875,-4.104409833526611,-5.055506443023681,4.967968444824218
1788861988433129500,5.61912939453125,-4.441244079589843,-4.796334113311767,6.303184783172607
1788861988443136500,5.629136474609375,-4.911854343414307,-4.585794004821777,7.4699091796875
1788861988453142500,5.639142578125,-6.110601187133788,-4.4205940902709955,7.960271607208251
1788861988463148500,5.6491484375,-7.471704830932617,-4.191050006103516,7.711424272155761
1788861988473154600,5.659154541015625,-7.858518036651611,-3.567510111236572,7.322216864776611
1788861988483161600,5.66916162109375,-8.052897283935547,-2.589628370666504,6.957849299621581
1788861988493167600,5.679167724609375,-8.482506844329833,-2.4232313552856444,6.918494609832763
1788861988503173600,5.689173583984375,-8.990227233886719,-3.264793238830566,6.968922482299805
1788861988513180400,5.699180419921875,-8.975113835906981,-4.157680820465088,7.136666236114501
1788861988523186700,5.709186767578125,-7.720552165985107,-4.508132088470458,7.255628131103515
1788861988533192700,5.719192626953125,-6.291961962890625,-4.439448428344726,7.049577150726318
1788861988543198500,5.729198486328125,-6.047603755950927,-4.574571184539795,6.378452497863769
1788861988553205500,5.73920556640625,-5.991340016937255,-4.771494271087646,5.433640667724609
1788861988563211800,5.749211669921875,-5.278017559814453,-4.63502477645874,4.796184475708007
1788861988573217500,5.759217529296875,-5.49678773651123,-4.294599227905273,4.498106369018554
1788861988583223600,5.7692236328125,-7.353640761566162,-4.385728528594971,4.377947373199462
1788861988593230600,5.779230712890625,-8.066514305877686,-4.511274478149414,4.266317720794677
1788861988603236600,5.789236572265625,-7.403619721221923,-4.361187961578369,4.529530265808106
1788861988613242600,5.79924267578125,-7.283011812591552,-4.542099824523926,5.079448459625244
1788861988623249400,5.80924951171875,-7.450157015991211,-4.771194995880126,5.188683910369873
1788861988633255400,5.81925537109375,-6.969221757507324,-4.441244079589843,4.586093280029297
1788861988643261700,5.82926171875,-6.5966241241455075,-4.026897554779053,3.7229835815429686
1788861988653267700,5.839267822265625,-6.151302615356445,-3.5137902114868163,3.1076737548828124
1788861988663274500,5.8492744140625,-6.725911013793945,-2.5585037490844726,2.643797183227539
1788861988673280500,5.859280517578125,-8.525602474212645,-1.4369699089050292,2.1721394561767577
1788861988683286800,5.869286865234375,-8.078784589385986,-0.9081506172180175,2.280327443695068
1788861988693293600,5.87929345703125,-8.88682764968872,-1.6279074913024902,2.934243772125244
1788861988703299600,5.889299560546875,-8.689605287933349,-3.0538042175292968,2.73881706161499
1788861988713305600,5.8993056640625,-7.3091983932495115,-4.0143279960632325,2.7263971405029297
1788861988723311600,5.9093115234375,-9.503783489990234,-4.248510845947266,3.865588217926025
1788861988733318700,5.919318603515625,-9.886556480407714,-3.8175545471191406,4.759373625183105
1788861988743324400,5.929324462890625,-7.931391549682616,-3.003077069854736,3.911078049468994
1788861988753330400,5.939330322265625,-6.762123313903809,-2.0471920570373534,1.8611925155639648
1788861988763337700,5.949337646484375,-7.104494151306152,-1.6370353851318358,0.626981559753418
1788861988773343500,5.959343505859375,-8.502259008026122,-1.891120036315918,0.4516062881469726
1788861988783349500,5.969349609375,-8.51632494277954,-2.2667104217529297,0.309001651763916
1788861988793356500,5.9793564453125,-7.032518463897705,-2.488622988128662,0.5505167442321777
1788861988803362600,5.989362548828125,-5.475988109588623,-2.722356925201416,1.3588590797424316
1788861988813368600,5.99936865234375,-5.1985599922180175,-2.014870334625244,1.2240355987548828
1788861988823374600,6.00937451171875,-6.252457635498047,-0.941070890045166,-0.13721768264770506
1788861988833381600,6.019381591796875,-7.11885936126709,-0.6453869850158691,-1.7414824325561522
1788861988843387600,6.0293876953125,-6.640916854858398,-0.6347627151489258,-2.2272060943603513
1788861988853393700,6.0393935546875,-6.623708530426025,-0.9874585472106933,-1.4850035797119139
1788861988863400400,6.049400390625,-7.616853306579589,-1.0758943710327147,-1.2361562446594239
1788861988873406700,6.05940673828125,-8.363694586944579,-0.9470563941955565,-0.2572270408630371
1788861988883412500,6.06941259765625,-8.479963005065917,-1.0471639511108397,1.379658706665039
1788861988893418500,6.07941845703125,-7.5354504501342765,-0.6690297264099121,2.035221048736572
1788861988903425500,6.089425537109375,-7.351845110321045,-0.0020949264526367185,2.302922721862793
1788861988913431600,6.099431640625,-8.251616021728514,0.3833715408325195,2.6815058593749996
1788861988923437600,6.1094375,-8.964788841247557,0.32441432495117184,3.215113554382324
1788861988933444600,6.119444580078125,-8.463951781463622,-0.27249007644653317,3.759495156860351
1788861988943450600,6.12945068359375,-7.761852144622802,-1.1972504676818847,3.8148610702514647
1788861988953456600,6.13945654296875,-7.385214295959472,-2.239476377868652,3.571251051330566
1788861988963462700,6.149462646484375,-6.887220350646972,-3.388094624328613,3.3355718254089353
1788861988973469400,6.159469482421875,-6.619219402313232,-4.254645987701416,2.8290485366821287
1788861988983475700,6.169475830078125,-7.106738715362549,-4.416404237365723,2.175132208251953
1788861988993481700,6.179481689453125,-8.17754540786743,-3.7907694160461425,1.8676269325256347
1788861989003488500,6.189488525390625,-8.65054987335205,-2.9140426956176757,2.2872107734680176
1788861989013494500,6.19949462890625,-8.322244970703125,-2.516006669616699,3.4298435157775877
1788861989023500800,6.209500732421875,-7.895478524780273,-2.605938869476318,4.613476961517334
1788861989033507600,6.219507568359375,-7.833977469635009,-3.255216432189941,5.220556719970703
1788861989043513600,6.229513671875,-8.200888874053955,-4.677222580718994,5.302558126831054
1788861989053519400,6.239519287109375,-8.007856365203857,-6.170755503845214,5.095310045623779
1788861989063525600,6.249525634765625,-7.111527118682861,-7.10539197692871,5.246743300628662
1788861989073532700,6.25953271484375,-7.518391763305663,-7.342866854095458,5.491101507568359
1788861989083538400,6.269538330078125,-8.410830432128906,-7.278373046874999,5.68862314453125
1788861989093544400,6.27954443359375,-7.639897497558593,-7.2821139869689935,6.201131937408447
1788861989103551700,6.2895517578125,-6.209810918426514,-7.415141816711425,6.719027684020996
1788861989113557500,6.2995576171875,-6.098330903625488,-7.589619262695312,6.768857006072998
1788861989123563500,6.3095634765625,-6.832752262878418,-7.50133307647705,6.057180562591553
1788861989133570600,6.319570556640625,-6.65887336730957,-7.1501336204528805,4.967818807220459
1788861989143576600,6.32957666015625,-5.738003553771972,-7.071723516082764,4.104110558319092
1788861989153582600,6.33958251953125,-5.936572653961181,-6.894253318023681,3.309534882354736
1788861989163588600,6.349588623046875,-7.293486444854736,-6.190208392333984,2.779967402648926
1788861989173595600,6.359595703125,-8.141632382965087,-5.907692596435546,3.9968203964233395
1788861989183601700,6.3696015625,-7.579743180847167,-6.508038662719726,6.750152305603027
1788861989193607700,6.379607666015625,-7.305607090759277,-7.3484034454345695,9.216928203582762
1788861989203614500,6.389614501953125,-8.31850403060913,-8.493280751800537,10.390535929870605
1788861989213619700,6.39961962890625,-9.150040194702148,-9.313594095611572,9.641300447845458
1788861989223626000,6.4096259765625,-8.802432041168212,-9.230545225524901,8.026411428070068
1788861989233632800,6.4196328125,-8.290222523498535,-8.504204296874999,6.608445494842529
1788861989243638800,6.429638671875,-7.713519198608398,-7.776815904998779,5.6097641273498535
1788861989253644800,6.439644775390625,-6.491728163909912,-7.765892359924316,5.022586170196533
1788861989263651800,6.44965185546875,-5.363310993957519,-8.244283779144286,4.46937594909668
1788861989273657900,6.459657958984375,-5.17117631072998,-8.492233288574218,3.8988077659606932
1788861989283664000,6.469663818359375,-5.581332982635498,-8.58066911239624,3.858704888153076
1788861989293670000,6.479669921875,-5.881356378173828,-8.997409838867187,4.6645033843994135
1788861989303677000,6.489677001953125,-6.220285550689697,-9.08464856185913,5.334281298828125
1788861989313682700,6.4996826171875,-6.570287905883789,-8.49013836212158,5.571606538391113
1788861989323688700,6.509688720703125,-6.269665959930419,-7.388356685638428,6.22477467880249
1788861989333696000,6.519696044921875,-6.598120500183105,-6.304232246398925,6.886921075439453
1788861989343701800,6.52970166015625,-7.8918872222900385,-5.795165118408203,7.372046186828613
1788861989353707800,6.539707763671875,-7.843105363464355,-5.645527514648437,8.0437693901062
1788861989363714800,6.54971484375,-7.465569689178467,-5.981015022277831,8.722525560760497
1788861989373720800,6.559720947265625,-7.10539197692871,-6.536469807434082,8.731803092193603
1788861989383726800,6.569726806640625,-6.621763241577148,-6.898742446136474,7.225700610351562
1788861989393732900,6.57973291015625,-5.895272675323486,-7.437587457275391,5.219958169555664
1788861989403740000,6.589739990234375,-3.5791818443298338,-7.606079399108887,3.850624457550049
1788861989413746000,6.599745849609375,-1.6479589302062987,-7.619846058654785,3.1452327934265134
1788861989423752000,6.609751953125,-3.394379403686523,-8.199841410827636,3.094954558563232
1788861989433758700,6.6197587890625,-6.644657794952392,-9.177274238586426,3.717596627807617
1788861989443765000,6.629764892578125,-7.886200993347168,-9.87712931137085,5.473444270324706
1788861989453770800,6.639770751953125,-8.51662421798706,-9.675717096710205,7.916278151702881
1788861989463777800,6.64977783203125,-9.366565807342528,-9.096021019744873,9.597157354736327
1788861989473783800,6.65978369140625,-10.097695139312744,-8.431480421447754,9.708637369537353
1788861989483789800,6.669789794921875,-10.05534769744873,-7.686883705139159,8.329726850891113
1788861989493796900,6.679796875,-8.3639938621521,-6.126911685943603,6.081421854400634
1788861989503803000,6.689802978515625,-5.480177962493896,-4.093187013244629,4.451718711853027
1788861989513808600,6.69980859375,-3.900154504394531,-2.6331729133605957,3.8640918418884276
1788861989523816000,6.70981591796875,-4.480449131774902,-2.1863550285339355,3.84314257736206
1788861989533821700,6.71982177734375,-5.365405920410156,-2.4762030670166015,3.7174469902038574
1788861989543827700,6.72982763671875,-6.257395676422119,-3.197157041931152,3.4671032791137693
1788861989553833700,6.739833740234375,-6.801777278900146,-3.760991532897949,3.46021994934082
1788861989563840800,6.7498408203125,-6.78606533050537,-3.9146693519592284,3.602674948120117
1788861989573846800,6.7598466796875,-7.118260810852051,-3.7954081817626952,3.635295945739746
1788861989583852800,6.769852783203125,-6.694936029815674,-3.1329625099182126,3.9368157173156737
1788861989593859800,6.77985986328125,-5.800103159332275,-1.9731214431762694,4.644601583099365
1788861989603865900,6.789865966796875,-5.8922799232482905,-1.1885714866638184,5.351489623260497
1788861989613871900,6.799871826171875,-6.438756452178954,-1.108365731048584,5.484667090606689
1788861989623878700,6.809878662109375,-6.6647092338562,-1.3016975151062011,5.069273102569579
1788861989633885000,6.819885009765625,-7.015908689880371,-1.6403274124145506,4.589235669708252
1788861989643891000,6.829890869140625,-6.410774220275878,-1.7302596122741698,4.150348577880859
1788861989653897700,6.839897705078125,-5.323357753753662,-1.7331027267456054,3.6330513816833494
1788861989663903700,6.84990380859375,-5.702090528869628,-2.1167735427856442,2.683900061035156
1788861989673910000,6.859909912109375,-6.797138513183594,-2.068590234375,1.5349825393676757
1788861989683916800,6.869916748046875,-8.960748625946044,-1.7814356727600096,0.7116764434814453
1788861989693922800,6.8799228515625,-10.852167937469481,-1.6677110939025879,-0.20036475143432617
1788861989703928800,6.8899287109375,-10.18268929824829,-1.4821604652404785,-0.9484031326293945
1788861989713936000,6.899935791015625,-10.404452227020263,-1.7034744812011717,-0.036361937713623046
1788861989723942000,6.90994189453125,-13.12591132659912,-2.4645313339233397,2.726546778106689
1788861989733947600,6.91994775390625,-15.326033014678954,-3.857956700134277,6.245574305725097
1788861989743953700,6.92995361328125,-13.570035734558104,-5.08782816543579,7.480234174346923
1788861989753961000,6.9399609375,-12.014552843475341,-5.52207649154663,6.935852571868896
1788861989763966700,6.949966796875,-12.007819151306151,-4.761318914031982,6.527341913604736
1788861989773972700,6.95997265625,-11.488576666259766,-3.6756980987548826,6.0610711402893065
1788861989783979800,6.969979736328125,-10.807875206756592,-3.0591911712646485,4.667945049285889
1788861989793985800,6.97998583984375,-9.602544308471678,-3.0980969482421874,3.7611411705017086
1788861989803991800,6.98999169921875,-7.00318949356079,-3.081187899017334,3.8235400512695312
1788861989813998800,6.999998779296875,-4.953004684448242,-3.093009269714355,3.3858500602722166
1788861989824004900,7.0100048828125,-4.8600797325134275,-3.188178785705566,1.5842133110046386
1788861989834011000,7.020010986328125,-5.045480723571777,-3.103932814788818,-0.3829226280212402
1788861989844017700,7.030017578125,-5.833771620178222,-2.5471312911987303,-1.9364602302551268
1788861989854024000,7.04002392578125,-6.369623879241943,-1.9086276359558105,-2.8185739044189453
1788861989864030000,7.050030029296875,-6.72276862411499,-1.790114653778076,-2.522889999389648
1788861989874036700,7.06003662109375,-6.251110897064208,-1.748665037536621,-0.5551555099487304
1788861989884042800,7.070042724609375,-5.67575431060791,-1.664419066619873,2.0892402236938477
1788861989894049000,7.080049072265625,-5.393388152313232,-1.9358616798400878,3.782090435028076
1788861989904055800,7.090055908203125,-5.18419478225708,-2.3992893386840817,4.211400720214844
1788861989914061800,7.100061767578125,-4.816535189819335,-2.6699837638854977,3.7644331977844234
1788861989924067800,7.11006787109375,-4.974851774597168,-2.3024738090515133,2.0313304710388183
1788861989934075000,7.120074951171875,-5.388599748992919,-1.973271080780029,-0.3489548919677734
1788861989944081000,7.130080810546875,-5.441421823120117,-1.4531307701110838,-2.1369746192932126
1788861989954086700,7.140086669921875,-4.811896424102783,-0.7510311332702636,-2.6412533439636228
1788861989964092700,7.1500927734375,-4.484339709472656,-0.5563526107788086,-1.5123872611999511
1788861989974100000,7.160099853515625,-4.803067805480957,-0.6525695899963379,-0.3103483901977539
1788861989984105700,7.170105712890625,-5.029918412780761,-0.9253589416503906,-0.027383681488037107
1788861989994111700,7.18011181640625,-5.789628527069091,-1.125574055480957,-0.44756607284545896
1788861990004119000,7.190119140625,-5.944653084564209,-0.9683049339294433,-0.6096235977172851
1788861990014124800,7.200124755859375,-6.3992521247863765,-0.18435352783203124,0.22834698333740233
1788861990024130800,7.210130859375,-6.774094322204589,0.48288054733276364,1.8795979408264158
1788861990034137600,7.2201376953125,-6.516867281341552,0.563086302947998,3.8516719207763668
1788861990044143900,7.230143798828125,-6.2216322891235345,0.1767220100402832,5.738452466583252
1788861990054150000,7.24014990234375,-6.542754586791991,-0.4896142395019531,6.893654767608642
1788861990064156700,7.25015673828125,-7.81452458114624,-1.1387421646118163,7.012317387390136
1788861990074162700,7.26016259765625,-8.42070651397705,-1.5786767196655274,6.158036307525634
1788861990084169000,7.2701689453125,-8.157793244171142,-2.092083338165283,5.0483238380432125
1788861990094175700,7.28017578125,-8.301744618988037,-2.6530747146606446,3.9214030441284176
1788861990104181800,7.290181640625,-8.737938233947753,-2.925265515899658,3.1809961807250975
1788861990114187800,7.300187744140625,-8.315511278533934,-3.0066683723449703,2.8172271659851074
1788861990124194800,7.31019482421875,-7.264307112121582,-3.210175513458252,2.7207109115600585
1788861990134200800,7.320200927734375,-7.106738715362549,-3.7612908081054686,2.793135511779785
1788861990144206800,7.330206787109375,-7.926603146362305,-4.620509928894043,3.0755016700744626
1788861990154214000,7.3402138671875,-7.8624086143493646,-5.419425095367432,3.999813148498535
1788861990164220000,7.350219970703125,-6.896946794891357,-5.738901379394531,5.018994867706298
1788861990174226000,7.360225830078125,-6.175543907165527,-5.922805994415283,5.644779326629639
1788861990184232700,7.370232666015625,-6.607846944427489,-6.134842478942871,5.67590394821167
1788861990194239000,7.380239013671875,-7.1686886833190915,-6.232855109405517,5.449951166534423
1788861990204244700,7.39024462890625,-7.075614093780517,-6.12287147064209,5.121047713470459
1788861990214252800,7.400252685546875,-7.146243042755127,-5.915174476623535,4.707000463867187
1788861990224258600,7.410258544921875,-7.512705534362793,-5.7323173248291015,4.425232855987549
1788861990234264600,7.4202646484375,-7.736114476776122,-5.712864436340332,4.192247106933594
1788861990244271900,7.43027197265625,-6.985083343505859,-5.826738652801513,4.272153587341308
1788861990254277600,7.440277587890625,-5.894674124908447,-5.989544365692138,4.578611399841308
1788861990264283600,7.45028369140625,-6.149357326507568,-6.569988630676269,4.409221632385254
1788861990274290700,7.460290771484375,-6.9168485961914055,-7.752424975585937,4.020014225006103
1788861990284296700,7.470296630859375,-7.153126372528075,-9.02045402984619,4.230255058288574
1788861990294302700,7.480302734375,-7.379528067016601,-10.172065028381347,5.351639260864258
1788861990304309500,7.4903095703125,-7.920168729400634,-10.540622446441649,6.72935267868042
1788861990314315500,7.5003154296875,-8.511386901855468,-10.12507882080078,7.443273686218261
1788861990324321800,7.51032177734375,-7.959673056793212,-9.777769942474364,7.661744587707519
1788861990334328600,7.52032861328125,-6.65273822555542,-9.763853645324707,7.81437494354248
1788861990344334600,7.53033447265625,-6.236745687103271,-9.460388584899901,7.389553786468506
1788861990354340600,7.540340576171875,-6.253954011535644,-8.582464763641356,5.80324554901123
1788861990364347600,7.55034765625,-5.311087470245361,-7.288398766326904,3.8992566787719722
1788861990374353700,7.560353759765625,-3.5122938354492184,-5.828983216857909,2.5644892532348633
1788861990384359700,7.570359619140625,-2.3312042289733887,-4.355052819824219,2.2088006690979003
1788861990394366700,7.58036669921875,-1.9840449882507323,-3.0843302886962887,2.4621371322631833
1788861990404372700,7.590372802734375,-1.9406500831604003,-2.306514024353027,2.794931163024902
1788861990414378800,7.600378662109375,-2.1164742675781247,-2.327164013671875,3.3547254386901852
1788861990424385500,7.610385498046875,-2.6282348724365234,-3.1153052726745605,4.128202212524414
1788861990434391800,7.620391845703125,-3.5495535987854003,-4.250456134796142,4.417152425384521
1788861990444397600,7.6303974609375,-4.74396095199585,-5.568015235900878,4.1201217819213865
1788861990454404600,7.640404541015625,-5.613205792236328,-6.899939546966553,3.9993642356872554
1788861990464410600,7.65041064453125,-6.404788716125488,-7.962067258453368,4.73079284286499
1788861990474416600,7.660416748046875,-7.855974197387694,-8.930671467590331,5.998821897125244
1788861990484423700,7.670423583984375,-9.90181951599121,-9.971101726531982,6.560411824035644
1788861990494429700,7.6804296875,-11.297190171051025,-10.931475867462158,6.518962207794189
1788861990504435500,7.690435546875,-10.748469078063964,-11.58150161819458,6.989123558807373
1788861990514442800,7.70044287109375,-10.048165092468262,-11.800271794891357,7.127089429473877
1788861990524448500,7.710448486328125,-10.682927807617187,-12.068422380828856,6.055534548950195
1788861990534454500,7.72045458984375,-10.898854869842529,-12.404358801269531,5.287594366455078
1788861990544461800,7.7304619140625,-10.401309837341309,-12.291681685638427,6.533776330566406
1788861990554467600,7.740467529296875,-10.075099861145018,-10.882843646240234,9.615413142395019
1788861990564473600,7.7504736328125,-10.660781442260742,-9.22575682220459,12.287491832733153
1788861990574481000,7.76048095703125,-10.16383496017456,-9.138967012023926,13.403937994384766
1788861990584486700,7.770486572265625,-8.189217140960693,-8.92543415145874,13.022062829589842
1788861990594492700,7.78049267578125,-6.178536659240723,-8.214056983184815,10.9045410987854
1788861990604499500,7.79049951171875,-5.38845011138916,-7.674912696838378,7.61655403137207
1788861990614505700,7.800505615234375,-4.524143312072754,-6.911611280059814,5.366303746032714
1788861990624511700,7.81051171875,-4.30926371307373,-5.704484730529785,4.704157349395752
1788861990634518500,7.8205185546875,-5.1419969779968255,-4.748001167297363,5.153967986297607
1788861990644524500,7.830524658203125,-5.105784677886962,-4.44333900604248,5.635202519989013
1788861990654530800,7.84053076171875,-5.144989730072021,-4.450072698211669,5.493046796417236
1788861990664537600,7.85053759765625,-5.364358457183838,-4.671536351776123,5.071218391418457
1788861990674543600,7.860543701171875,-4.885368487548828,-4.659864618682861,4.308515525054931
1788861990684549600,7.870549560546875,-4.5611038002014155,-4.285321696472168,3.3078888687133787
1788861990694556700,7.880556640625,-4.670788163757324,-3.7186440910339353,2.4136545486450194
1788861990704562700,7.890562744140625,-5.01166262512207,-3.1171009239196774,1.7606360458374022
1788861990714568700,7.900568603515625,-5.526864894866943,-2.4817396583557128,1.3061866432189941
1788861990724575700,7.91057568359375,-5.225494760894775,-1.6967407890319823,1.2975076622009276
1788861990734581800,7.920581787109375,-4.791545709991455,-1.434575707244873,2.352602406311035
1788861990744587800,7.930587890625,-5.717503202056885,-2.2457611572265623,3.856609961700439
1788861990754594600,7.940594482421875,-6.855646816253662,-3.4425627120971676,4.764610941314697
1788861990764600800,7.950600830078125,-7.880963677215576,-3.927538185882568,4.997895965576172
1788861990774606600,7.960606689453125,-9.520991814422606,-3.520523903656006,4.483890796661377
1788861990784613600,7.970613525390625,-9.192537274169922,-2.554463533782959,3.8346132339477537
1788861990794619600,7.98061962890625,-8.093748349761963,-1.0465654006958007,3.373430139160156
1788861990804625700,7.990625732421875,-7.521085240173339,0.3054103492736816,3.491045295715332
1788861990814632700,8.0006328125,-7.779210106658935,0.4134486991882324,4.562600176239013
1788861990824638700,8.010638671875,-10.026467639923094,-0.972943699645996,5.945251634979248
1788861990834644500,8.02064453125,-11.406425621795654,-2.4123078102111815,5.963657060241699
1788861990844651800,8.03065185546875,-11.139472136688232,-2.9049148017883297,4.719121109771728
1788861990854657500,8.040657470703126,-10.094253474426269,-2.9050644393920897,3.585616261291504
1788861990864663600,8.05066357421875,-10.007164389038085,-2.6515783386230467,3.8928222618103026
1788861990874670800,8.0606708984375,-11.75343522491455,-2.8520927276611325,4.883273561096191
1788861990884676600,8.070676513671875,-12.636147449493407,-4.042609503173828,5.27981321105957
1788861990894682600,8.0806826171875,-9.951199925231933,-5.419275457763671,4.8506525634765625
1788861990904689700,8.090689697265624,-6.374861195373534,-5.967547637939453,3.7753567428588863
1788861990914695700,8.10069580078125,-6.003460662841796,-5.668422068023681,3.3165678497314452
1788861990924701700,8.11070166015625,-5.898415065002441,-5.40146858291626,3.4120366409301757
1788861990934708500,8.12070849609375,-4.677821131134033,-4.657919329833984,2.674472891998291
1788861990944714500,8.130714599609375,-4.362684337615967,-3.312228359222412,1.523161168670654
1788861990954720800,8.140720703125,-4.658517880249023,-2.1065981857299803,0.49260699157714843
1788861990964727600,8.1507275390625,-3.9414544830322265,-0.9258078544616699,-0.5985504150390625
1788861990974733600,8.160733642578125,-4.021959513854981,-0.08948328704833984,-1.7642273483276367
1788861990984739600,8.170739501953125,-6.450278547668456,0.2768295669555664,-2.752882996368408
1788861990994746600,8.18074658203125,-7.997381732940673,0.5008370597839356,-3.2330700668334957
1788861991004752600,8.190752685546874,-7.581838107299804,0.4670189613342285,-1.9367595054626463
1788861991014758700,8.200758544921875,-6.870909851837157,0.03860650177001953,-0.045938744354248044
1788861991024765700,8.210765625,-7.241412558746338,-0.6648398735046386,1.4963760375976562
1788861991034771700,8.220771728515626,-7.537246101379394,-1.096095447540283,2.9302035568237303
1788861991044777700,8.23077783203125,-6.496516567230224,-2.2189760261535643,3.738695529937744
1788861991054784500,8.240784423828124,-7.148487606811523,-3.661482526397705,2.8037597816467286
1788861991064790800,8.250790771484375,-8.71459476776123,-4.5504795303344725,0.9739911628723144
1788861991074797600,8.260797607421875,-8.743923738098143,-4.426130681610108,-0.02154781494140625
1788861991084803600,8.270803466796876,-8.040926275634765,-3.1938650146484373,-0.19557634811401367
1788861991094809900,8.280809814453125,-7.909095546722412,-1.735945841217041,0.35015199279785153
1788861991104816600,8.290816650390624,-8.77819074935913,-0.9279027809143066,1.1058218917846678
1788861991114822700,8.30082275390625,-8.321496782684326,-1.2894272315979003,1.872564973449707
1788861991124828700,8.31082861328125,-6.6708443756103515,-2.0223522148132322,2.387168692779541
1788861991134835700,8.320835693359374,-5.1714755859374995,-2.2508488357543945,2.881272060394287
1788861991144841700,8.330841796875,-4.999242704010009,-2.3325509674072262,3.4088942512512204
1788861991154847700,8.34084765625,-6.356156494903564,-2.484133860015869,3.536086214447021
1788861991164854800,8.350854736328126,-7.50776749343872,-2.4423849685668944,3.554192364501953
1788861991174860800,8.36086083984375,-8.059630976104735,-1.7515081520080564,3.627365152740478
1788861991184866600,8.370866455078126,-7.694664860534668,-1.1264718811035155,4.042609503173828
1788861991194873600,8.38087353515625,-6.2684688591003415,-1.53213942489624,4.726752627563476
1788861991204880000,8.3908798828125,-4.844966334533691,-2.4396914916992185,4.994454300689697
1788861991214885600,8.4008857421875,-4.576666110992432,-3.594893792724609,4.570381331634521
1788861991224892200,8.41089208984375,-5.69490792388916,-4.900332247924805,3.4898481948852536
1788861991234898200,8.420898193359376,-6.477063678741454,-5.964554885864257,2.383278115081787
1788861991244904200,8.430904296875,-6.414814435577393,-6.20592034072876,2.2738930267333983
1788861991254911200,8.4409111328125,-6.648997285461426,-5.470900431060791,2.8751369186401368
1788861991264917200,8.450917236328126,-6.426785443878173,-4.44303973083496,4.026299004364013
1788861991274923000,8.460923095703125,-5.908590422058105,-4.045452617645264,5.078700271606445
1788861991284930300,8.470930419921874,-5.440374359893799,-4.255394175720214,5.520580115509033
1788861991294936000,8.48093603515625,-5.493794984436035,-4.818330841064453,5.47134934387207
1788861991304942000,8.490942138671874,-5.944204171752929,-5.396680179595947,5.321262827301025
1788861991314949400,8.500949462890626,-6.826467483520507,-6.146065299224853,5.306598342132568
1788861991324955100,8.510955078125,-8.406341304016113,-7.433397604370117,5.689820245361328
1788861991334962200,8.520962158203124,-10.202890374755858,-9.663746088409424,6.640767217254639
1788861991344968200,8.53096826171875,-10.779144786834717,-12.706028210449219,8.46544815750122
1788861991354974200,8.54097412109375,-10.711059677124023,-16.08110436325073,10.187926614379883
1788861991364981200,8.550981201171876,-11.154136621856688,-17.889175529479978,9.97184991455078
1788861991374987000,8.560987060546875,-11.03233161239624,-16.959926010131834,8.608950619506835
1788861991384993000,8.570992919921874,-10.15006830062866,-13.75768128967285,7.324910341644287
1788861991395000300,8.581000244140625,-7.774272065734863,-9.995043743133545,5.984307049560546
1788861991405006000,8.591006103515625,-5.092018018341064,-7.567023984527587,5.436334144592285
1788861991415012000,8.60101220703125,-3.986196126556396,-6.162525435638427,5.641188024139404
1788861991425019400,8.611019287109375,-3.4549826332092284,-5.658845261383056,6.6714429260253905
1788861991435025200,8.621025146484374,-3.8057331764221187,-6.123619658660888,7.550114935302734
1788861991445031200,8.63103125,-4.747402616882324,-7.0449383850097655,7.226598435974121
1788861991455038200,8.6410380859375,-5.212177014160156,-7.912088298797607,5.946897648620605
1788861991465044200,8.651044189453126,-5.354931288146973,-8.275109125518798,4.355651370239258
1788861991475050200,8.66105029296875,-5.616048906707763,-7.702894928741455,3.326743206787109
1788861991485057000,8.67105712890625,-5.670068081665039,-6.970867771148681,3.414131567382812
1788861991495063300,8.681063232421875,-5.736656815338135,-7.040000344085693,4.182969575500488
1788861991505069300,8.6910693359375,-5.950788226318359,-7.519289588928222,4.943577515411377
1788861991515076000,8.701076171875,-5.674706847381591,-7.800907559204101,5.765387235260009
1788861991525082000,8.71108203125,-6.418854650878906,-8.099135303497315,5.9670987251281735
1788861991535089200,8.721089111328125,-7.459584185028076,-8.461407942199706,5.017648129272461
1788861991545095200,8.73109521484375,-6.81180299835205,-8.521113346099852,3.890428060150146
1788861991555101200,8.74110107421875,-5.740846668243408,-8.424597091674805,3.611054653930664
1788861991565108200,8.751108154296874,-5.45818123474121,-8.310872512817383,3.8168063591003416
1788861991575114200,8.7611142578125,-5.334281298828125,-8.204330538940429,4.005948290252685
1788861991585120300,8.771120361328125,-4.869357263946533,-8.022371212768554,4.246266281890869
1788861991595127000,8.781126953125,-4.929810855865478,-7.66758045425415,4.668094686889648
1788861991605133300,8.79113330078125,-5.213972665405273,-7.177666939544677,4.923974989318848
1788861991615139300,8.801139404296874,-4.951657946014404,-6.60141252746582,5.149478858184814
1788861991625146000,8.81114599609375,-5.028122761535644,-6.0513446960449215,5.764339772033691
1788861991635152100,8.821152099609375,-5.6474728034973145,-5.308992543792725,6.545896976470947
1788861991645158400,8.831158447265626,-5.8631005905151365,-4.748599717712402,6.886921075439453
1788861991655165200,8.841165283203125,-5.832424881744385,-4.506037162017822,6.873902603912353
1788861991665171200,8.851171142578124,-6.64615417098999,-4.712088142395019,6.699125882720947
1788861991675177200,8.86117724609375,-7.92286220626831,-5.38231496963501,6.50579409866333
1788861991685184300,8.871184326171875,-8.11439833908081,-5.940163956451416,6.619518677520752
1788861991695190300,8.881190185546876,-7.518691038513183,-6.240935540008545,6.8213798049926755
1788861991705197000,8.891197021484375,-7.487865692138671,-6.189759479522705,6.40344197769165
1788861991715203300,8.901203369140624,-7.663390601348876,-5.491999333190917,5.0477252876281735
1788861991725209300,8.911209228515625,-7.059752507781982,-4.59028313293457,4.009838867950439
1788861991735216000,8.921216064453125,-6.726509564208984,-4.143016335296631,3.93920991897583
1788861991745222100,8.93122216796875,-7.324461428833008,-4.5021465843200685,4.068496808624268
1788861991755228200,8.941228271484375,-7.175721650695801,-5.383063157653808,4.27769017868042
1788861991765235200,8.951235107421875,-6.437260076141357,-5.999420447540283,4.414608586120605
1788861991775241200,8.9612412109375,-6.439355002593993,-5.858461824798583,4.134187716674805
1788861991785247000,8.9712470703125,-6.555024870300293,-4.991311911010742,3.6917093223571773
1788861991795254300,8.981254150390624,-6.399701037597656,-3.9166146408081053,3.5187282524108885
1788861991805260300,8.99126025390625,-6.255001474761962,-3.2516251296997067,3.8441900405883787
1788861991815266000,9.00126611328125,-7.327005268096923,-2.9855694702148434,4.074781587982177
1788861991825273300,9.0112734375,-8.20418090133667,-2.9523499221801757,3.7964556449890137
1788861991835279000,9.021279052734375,-8.119186742401123,-3.0529063919067383,3.1733646629333494
1788861991845285000,9.03128515625,-8.271667460632324,-2.9893104103088377,2.760065601348877
1788861991855292200,9.041292236328125,-8.993070348358154,-2.7078420776367187,2.9421745651245117
1788861991865298200,9.051298095703125,-9.195380388641357,-2.3555951583862305,3.7440824836730955
1788861991875305200,9.06130517578125,-8.28648158340454,-2.6696844886779783,4.547187503051758
1788861991885311200,9.071311279296875,-7.614459104919433,-3.2052374725341797,4.50768317565918
1788861991895317000,9.08131689453125,-7.319074475097656,-3.1316157714843746,4.105606934356689
1788861991905324300,9.09132421875,-7.7587097549438475,-2.908655741882324,3.514538399505615
1788861991915330000,9.101330078125,-8.130110287475585,-2.5362077461242674,2.7705402336120604
1788861991925336000,9.111336181640626,-9.156474611663818,-1.943493197631836,1.9783587593078613
1788861991935343400,9.12134326171875,-10.326491035461425,-1.4686930809020995,1.0969932731628418
1788861991945349000,9.13134912109375,-8.851213899993896,-1.3186065643310547,0.5472247169494628
1788861991955355100,9.141355224609375,-6.598270137786865,-1.7503110511779785,0.4842272857666015
1788861991965362400,9.151362548828125,-5.221155270385742,-2.3599346488952637,0.5099649536132812
1788861991975368200,9.1613681640625,-5.795614031219482,-2.9978397537231443,0.9519944351196289
1788861991985374200,9.171374267578125,-7.532906610870361,-3.21750775604248,1.1323077476501464
1788861991995381000,9.181381103515625,-7.513304084777832,-2.635417477416992,0.20245967788696287
1788861992005387300,9.19138720703125,-8.339602932739258,-1.599925259399414,-1.1397896278381348
1788861992015393300,9.201393310546875,-8.390928630828856,-1.0316016403198243,-0.37499183502197264
1788861992025400000,9.211400146484374,-6.884227598571777,-1.5191209533691405,1.737142942047119
1788861992035406000,9.221406005859375,-5.95632481765747,-1.4372691841125487,1.772906329345703
1788861992045413400,9.231413330078125,-7.350797647094726,-1.2722189071655272,1.5716437522888183
1788861992055419100,9.241419189453126,-8.743474825286865,-1.8887258346557616,2.2577321655273437
1788861992065425200,9.251425048828125,-8.010699479675292,-2.4142530990600584,1.356764153289795
1788861992075432200,9.26143212890625,-7.311293319702148,-2.43235924911499,0.1854009910583496
1788861992085438200,9.271438232421875,-8.139088543701172,-1.7814356727600096,-0.3500023551940918
1788861992095444200,9.2814443359375,-7.9667060241699215,-0.8450035484313965,-0.29777883148193357
1788861992105451000,9.291450927734376,-6.84382544555664,-0.5225345123291015,0.7170633972167968
1788861992115457300,9.301457275390625,-6.093542500305175,-0.6899789909362792,1.6853683311462402
1788861992125463300,9.31146337890625,-5.661838013458252,-1.219995383453369,2.2340894241333005
1788861992135470000,9.321469970703125,-5.442020373535156,-1.8556559242248534,2.3466169021606444
1788861992145476000,9.33147607421875,-4.801272154235839,-2.1562778701782226,2.0986673927307127
1788861992155483100,9.341483154296874,-4.421491915893554,-2.0843021827697754,1.8981530036926269
1788861992165489200,9.3514892578125,-4.707000463867187,-1.759588582611084,1.8327613708496093
1788861992175495200,9.3614951171875,-4.587440018463134,-1.359158354949951,1.9737199935913086
1788861992185502200,9.371502197265626,-4.468328485870361,-1.3798083442687987,2.203264077758789
1788861992195508200,9.38150830078125,-5.3752820022583006,-1.9330185653686522,2.380584638214111
1788861992205514200,9.39151416015625,-6.3423898353576655,-2.877231845092773,2.5356091957092284
1788861992215521000,9.40152099609375,-6.440552103424072,-3.541473168182373,2.849249613189697
1788861992225527300,9.41152734375,-6.4466872451782224,-3.748870886993408,3.3016040893554686
1788861992235533300,9.421533203125,-7.194575988769531,-3.4856583419799803,3.7900212280273435
1788861992245540000,9.4315400390625,-8.208520391845703,-3.1120132453918457,4.714332706451415
1788861992255546000,9.441546142578124,-8.246079430389404,-3.0297125633239745,6.038176586914062
1788861992265552400,9.451552490234375,-7.325059979248047,-3.6447231147766113,7.136366960906982
1788861992275559200,9.46155908203125,-7.19532417678833,-5.0866310646057125,7.2532339294433585
1788861992285565200,9.471565185546876,-7.761103956604003,-7.0455369354248045,6.4649430328369135
1788861992295572200,9.481572265625,-7.991994779205322,-9.1163717338562,5.735010801696777
1788861992305578200,9.491578125,-8.643067993164061,-11.188553270721435,5.469404055023193
1788861992315584300,9.501584228515625,-9.517849424743652,-12.451195371246337,5.9014078170776365
1788861992325591000,9.511591064453125,-9.955539415740967,-12.459724714660643,7.276128482818603
1788861992335597300,9.521597412109376,-9.79946739501953,-12.23856033630371,9.04664061050415
1788861992345603300,9.531603271484375,-9.548076220703125,-12.631508683776854,9.674071083068847
1788861992355610000,9.541610107421874,-9.579949030303954,-12.994978423309325,8.237101174163818
1788861992365616000,9.5516162109375,-8.93830298538208,-12.070517307281493,6.197390997314453
1788861992375622400,9.561622314453125,-7.530811684417724,-9.785401460266113,5.174169062805175
1788861992385629200,9.571629150390624,-6.4837973709106445,-7.425766086578369,5.169231021881103
1788861992395635200,9.58163525390625,-5.497685562133789,-5.727977834320068,5.3752820022583006
1788861992405641000,9.591640869140624,-4.526687151336669,-4.824615620422363,5.683535466003417
1788861992415648300,9.601648193359376,-4.142268147277832,-4.389020555877686,5.849633206176757
1788861992425654300,9.611654296875,-4.547786053466797,-4.440645529174804,5.680542713928222
1788861992435661000,9.6216611328125,-5.187935722351074,-5.02423218383789,4.655974040985107
1788861992445667300,9.631667236328125,-4.95450106048584,-6.008847616577148,3.5709517761230467
1788861992455673300,9.64167333984375,-4.404882141876221,-7.033715564727783,4.057423625946044
1788861992465680100,9.65168017578125,-5.036801742553711,-8.072200534820556,5.578190592956543
1788861992475686400,9.661686279296875,-6.715586019134521,-9.432855265808104,6.8308069740295405
1788861992485692200,9.671692138671874,-7.9946882560729975,-10.857255615997314,7.60398447265625
1788861992495699200,9.68169921875,-8.230816394805908,-11.315595596313475,8.282591005706786
1788861992505705200,9.691705322265625,-8.870966063690185,-11.036820740509032,7.885303167724609
1788861992515711200,9.701711181640626,-9.041702569580078,-10.393079769134522,5.81611438293457
1788861992525718300,9.71171826171875,-7.479934899139404,-9.411906001281737,3.5345898384094236
1788861992535724300,9.721724365234374,-5.690418795776367,-8.141482745361328,2.2928970024108883
1788861992545731300,9.7317314453125,-4.2694601104736325,-6.93974314956665,2.2819734573364254
1788861992555737300,9.7417373046875,-3.484610878753662,-6.350320628356934,3.3258453811645508
1788861992565743000,9.7517431640625,-3.773710729217529,-6.677578067779541,4.851700026702881
1788861992575750100,9.761750244140625,-4.911106155395507,-7.491756269836426,6.292710150909423
1788861992585756400,9.77175634765625,-7.141305001831054,-8.226626541900634,6.6325371490478515
1788861992595762200,9.78176220703125,-8.373121755981446,-8.429984045410155,6.074688162231445
1788861992605769200,9.791769287109375,-8.13370158996582,-7.789385463714599,5.400121844482421
1788861992615775200,9.801775146484376,-6.515819818115234,-6.62041650314331,5.616797094726562
1788861992625781200,9.81178125,-5.22863715057373,-5.140051689147949,6.729651953887939
1788861992635788300,9.821788330078125,-5.647023890686035,-4.548983154296875,7.926453508758544
1788861992645794000,9.8317939453125,-6.012139643859863,-5.0185459548950195,8.896703731536865
1788861992655801300,9.84180126953125,-6.113145026397705,-5.411195027160645,8.89356134185791
1788861992665807400,9.851807373046874,-5.716755014038085,-5.074211143493652,7.942913645172118
1788861992675813000,9.861813232421875,-5.447257689666747,-4.308216249847412,6.579565437316894
1788861992685820200,9.871820068359375,-5.763142671203613,-3.5631706207275387,5.469703330230713
1788861992695826200,9.881826171875,-6.25664748840332,-3.0750527572631836,5.112967282867431
1788861992705832200,9.891832275390625,-6.818087777709961,-3.1016882507324217,5.239710333251953
1788861992715839200,9.901839111328124,-7.41244833984375,-3.6439749267578123,5.143493354034423
1788861992725845000,9.911844970703125,-7.288548403930664,-4.1648634254455565,4.5498809799194335
1788861992735851300,9.921851318359375,-6.641515405273437,-4.328267688751221,4.154688068389892
1788861992745858300,9.9318583984375,-6.723217536926269,-4.535665407562256,4.059368914794922
1788861992755864000,9.941864013671875,-7.124096677398681,-4.525639688110351,3.913023338317871
1788861992765871400,9.951871337890625,-7.101501399230957,-3.718943366241455,3.7270237968444824
1788861992775877000,9.961877197265625,-7.218069092559814,-2.479644731903076,3.937563905334472
1788861992785883100,9.971883056640625,-8.039579537200927,-1.8133084823608396,4.436306038665771
1788861992795890200,9.98189013671875,-9.166051418304443,-2.479195819091797,4.743811314392089
1788861992805896200,9.991896240234375,-8.98274535369873,-3.941155207824707,5.1337669097900385
1788861992815902200,10.001902099609374,-7.982417972564697,-5.1508255966186525,5.3844098960876465
1788861992825909200,10.0119091796875,-7.385962483978271,-5.2162172294616695,5.091569105529785
1788861992835915000,10.0219150390625,-7.167042669677734,-4.172943856048584,4.840477206420898
1788861992845921300,10.03192138671875,-7.703493479156494,-2.8850130004882812,4.956296711730957
1788861992855928000,10.041927978515625,-7.158513326263427,-1.953070004272461,5.093514394378662
1788861992865934000,10.05193408203125,-6.394762996673584,-2.1212626708984375,4.753687396240234
1788861992875941400,10.06194140625,-6.401945601654052,-3.4448072761535644,3.7562031295776364
1788861992885947100,10.071947021484375,-5.314529135131836,-4.0738837623596185,2.6274866844177245
1788861992895953200,10.081953125,-5.957821193695068,-3.7152024261474605,1.3682862487792968
1788861992905960200,10.091960205078125,-7.528267845153808,-2.3982418754577637,0.13676876983642577
1788861992915966200,10.10196630859375,-8.664466170501708,-0.6567594429016113,-0.31528643112182614
1788861992925972200,10.11197216796875,-9.744999307250977,0.5624877525329589,0.09906009368896483
1788861992935979000,10.12197900390625,-10.869974812316894,0.27308862686157226,0.9967360786437988
1788861992945985000,10.131985107421874,-9.208249222564696,-1.3018471527099609,1.5484499237060545
1788861992955991300,10.1419912109375,-5.412841040802002,-2.4583961921691895,1.6494553062438964
1788861992965998000,10.151998046875,-4.726752627563476,-2.5526678825378415,1.6904560096740722
1788861992976004000,10.162004150390626,-6.343736573791504,-1.995118170928955,1.4975731384277342
1788861992986011400,10.172011474609375,-6.995258700561523,-1.4024036224365233,0.687584789276123
1788861992996017200,10.18201708984375,-7.869591219329833,-0.7556698989868164,-0.7555202613830566
1788861993006023200,10.192023193359375,-7.249044076538086,-1.1198878265380858,-0.5978022270202636
1788861993016030200,10.2020302734375,-8.006958539581298,-2.558653386688232,0.5698199951171875
1788861993026036200,10.2120361328125,-8.5800705619812,-3.584119885253906,1.1034276901245117
1788861993036042200,10.222042236328125,-9.728090258026123,-3.6285622535705566,0.8111854499816894
1788861993046049000,10.232049072265625,-8.590994107055664,-2.611774736022949,0.04159925384521484
1788861993056055300,10.24205517578125,-6.945878291320801,-1.7989432723999021,0.502483073425293
1788861993066062300,10.252062255859375,-8.272714923858642,-1.6521487831115722,1.6524480583190917
1788861993076068000,10.262068115234374,-7.283161450195312,-1.8517653465270996,2.7467478546142576
1788861993086074000,10.27207421875,-5.200206005859375,-2.065896757507324,3.588609013366699
1788861993096081200,10.2820810546875,-5.721094504547119,-1.9713257919311522,2.9767408515930174
1788861993106087200,10.292087158203126,-6.9235822883605955,-1.7836802368164062,1.7823334983825683
1788861993116093200,10.30209326171875,-8.060977714538573,-1.1311106468200682,0.7059902145385741
1788861993126100200,10.312100341796874,-7.853729633331298,-0.13512275619506836,0.08604162216186523
1788861993136106200,10.322106201171875,-6.509535038757324,0.34117373657226563,0.8684966522216796
1788861993146112300,10.3321123046875,-5.763890859222411,0.0282815071105957,2.0407576400756833
1788861993156119000,10.342119140625,-4.706252275848389,-1.0561422073364257,2.684797886657715
1788861993166125300,10.352125244140625,-4.074931225585937,-2.6372131286621094,2.712031930541992
1788861993176132000,10.362132080078124,-5.308094718170166,-3.99023634185791,1.7369933044433592
1788861993186138000,10.37213818359375,-6.822127993011474,-4.669291787719726,1.0362404060363768
1788861993196144000,10.38214404296875,-6.90143592300415,-4.314800304412842,1.6792331893920898
1788861993206151200,10.392151123046874,-5.962310321807861,-3.201047619628906,2.9236195022583007
1788861993216157200,10.4021572265625,-6.204423964691162,-2.754828285217285,3.9086838478088377
1788861993226163500,10.41216357421875,-6.599018325805663,-3.150021196746826,4.5213001976013185
1788861993236170500,10.42217041015625,-6.463147381591797,-3.930231662750244,4.875193130493164
1788861993246176500,10.432176513671875,-7.1297829063415525,-4.828356560516357,4.8774376945495606
1788861993256182500,10.4421826171875,-7.706785506439209,-5.474192458343506,4.610484209442139
1788861993266189300,10.452189208984375,-7.590367450714111,-6.216245335388183,4.753837033843994
1788861993276195600,10.462195556640625,-6.881085208892822,-6.801178728485107,5.144840092468262
1788861993286202400,10.472202392578126,-7.015908689880371,-6.764667153167724,5.553799663543701
1788861993296208400,10.48220849609375,-7.75676446609497,-6.633883887481689,6.399701037597656
1788861993306214400,10.49221435546875,-7.7781626434326165,-7.033117014312744,7.686434792327881
1788861993316221400,10.502221435546875,-8.198494672393798,-8.187571127319336,8.14627114868164
1788861993326227500,10.5122275390625,-8.464550331878662,-9.374945513153076,7.474099032592773
1788861993336233500,10.5222333984375,-8.308478311157225,-10.47597900161743,6.265176831817627
1788861993346240500,10.532240478515625,-7.838915510559081,-10.715997718048095,4.996249951934814
1788861993356246500,10.54224658203125,-7.326257080078125,-9.75547393951416,4.247912295532227
1788861993366252500,10.55225244140625,-7.6565072715759275,-8.518419869232178,4.383334326934814
1788861993376259300,10.56225927734375,-7.465270413970947,-7.711424272155761,5.2736780693054195
1788861993386265600,10.572265625,-6.607846944427489,-7.441328397369384,6.589740794372558
1788861993396272400,10.5822724609375,-6.019322248840331,-7.575553327941894,7.486369316101074
1788861993406278400,10.5922783203125,-6.054786360931396,-8.204330538940429,7.721300354003906
1788861993416284700,10.60228466796875,-6.421997040557861,-9.12370397644043,6.714388918304443
1788861993426291500,10.61229150390625,-5.767482161712646,-9.374795875549315,5.894225212097168
1788861993436297500,10.62229736328125,-5.389048661804199,-8.92513487625122,6.179135209655762
1788861993446303500,10.632303466796875,-6.094589963531494,-8.888772938537597,7.087136189270019
1788861993456310500,10.642310546875,-7.168539045715332,-9.122207600402831,7.066785475158691
1788861993466316500,10.652316650390626,-7.4405802093505855,-8.687360723876953,6.651541124725341
1788861993476323300,10.6623232421875,-8.003816149902343,-8.60580822982788,6.590488982391357
1788861993486329600,10.67232958984375,-7.9928926048278806,-8.923638500213622,6.327725350189208
1788861993496335600,10.682335693359375,-6.8958993316650385,-8.98873085784912,6.248866333007812
1788861993506342400,10.69234228515625,-5.9585693817138665,-8.790012120056153,6.516717643737793
1788861993516348400,10.702348388671876,-6.111199737548827,-8.767267204284668,6.410774220275878
1788861993526354400,10.7123544921875,-6.351368091583252,-8.87336026535034,5.557540603637695
1788861993536361500,10.722361572265624,-5.463867463684082,-8.749609967041016,4.808903672027587
1788861993546367500,10.732367431640625,-5.041440508270264,-8.393622107696533,4.386925629425049
1788861993556374500,10.74237451171875,-4.9337014335632325,-7.715763762664794,3.948038537597656
1788861993566380500,10.752380615234374,-4.142268147277832,-6.666205609893798,3.8304233810424804
1788861993576386600,10.762386474609375,-3.5543420021057126,-5.62427897491455,4.144063798522949
1788861993586393300,10.772393310546875,-3.9763200447082516,-4.873696754455566,4.3628339752197265
1788861993596399600,10.782399658203126,-4.6865001121521,-4.682908809661865,4.142866697692871
1788861993606405400,10.7924052734375,-4.548234966278076,-4.791246434783935,4.065055143737792
1788861993616412400,10.802412353515624,-4.631433473968506,-4.878934070587158,4.3150995796203615
1788861993626418400,10.81241845703125,-5.664830765533447,-4.823418519592285,4.6909892402648925
1788861993636424400,10.822424560546875,-6.796988875579833,-5.030516963195801,5.161000953674316
1788861993646431500,10.832431396484376,-7.0549641044616695,-5.201552744293212,6.161328334808349
1788861993656437500,10.8424375,-7.773523877716064,-5.325602317810058,7.212382863616943
1788861993666444500,10.852444580078124,-9.248501737976074,-5.507112731170654,7.661744587707519
1788861993676450600,10.862450439453125,-8.831012823486327,-6.038026949310303,7.9563810295104975
1788861993686456300,10.872456298828125,-7.519738501739502,-6.751798319244385,8.020725199127197
1788861993696463400,10.88246337890625,-7.6467808273315425,-7.192331424713134,7.226149523162841
1788861993706469600,10.8924697265625,-7.64812756576538,-7.598148606109619,5.805041200256348
1788861993716475400,10.902475341796874,-6.725761376190185,-7.783399959564209,4.883572836303711
1788861993726482400,10.912482421875,-6.226570330047607,-6.992714861297607,4.8415246696472165
1788861993736488400,10.922488525390625,-7.22674807357788,-5.808183589935302,5.095609320831299
1788861993746495500,10.93249560546875,-7.808539076995849,-5.02423218383789,5.320365001678466
1788861993756501500,10.94250146484375,-7.884854254913329,-4.970063371276855,5.391592501068115
1788861993766507300,10.95250732421875,-8.62526111831665,-5.185391883087158,5.0014872680664055
1788861993776514600,10.9625146484375,-8.813355586242675,-4.988618434143066,4.676324755096435
1788861993786520600,10.9725205078125,-8.321347145080566,-4.579808500671386,4.914098907470703
1788861993796526300,10.9825263671875,-8.083722630310058,-4.510376652526856,5.327846881866455
1788861993806533400,10.992533447265625,-7.470507730102539,-4.913201081848144,5.4433671119689935
1788861993816539600,11.00253955078125,-5.895571950531005,-5.117755686187744,5.248389314270019
1788861993826546400,11.01254638671875,-4.719869297790527,-5.051615865325927,4.744709140014648
1788861993836552400,11.022552490234375,-4.659864618682861,-4.816834465026855,3.831171569061279
1788861993846558200,11.03255810546875,-5.194519776916503,-3.8748657493591305,2.833986577606201
1788861993856565500,11.0425654296875,-5.45234536819458,-2.4371476524353026,2.1630115623474118
1788861993866571500,11.052571533203125,-5.571756175994873,-1.1795932304382324,1.6192285102844237
1788861993876577300,11.062577392578126,-6.841431243896484,-0.12180500946044921,1.2677297790527342
1788861993886584600,11.07258447265625,-7.31682991104126,0.07870937957763671,1.2758102096557618
1788861993896590600,11.082590576171874,-6.217442436218262,-0.6162076522827148,1.343296768951416
1788861993906596400,11.092596435546875,-5.691466259002685,-1.866729106903076,1.0875661041259765
1788861993916603400,11.102603271484375,-4.715978720092773,-2.4934113914489746,0.44113165588378905
1788861993926609400,11.112609375,-4.215740210723877,-2.115127529144287,-0.05910685348510742
1788861993936616400,11.122616455078125,-5.2542251808166505,-0.7751227874755859,-0.5283703788757323
1788861993946622500,11.13262255859375,-7.665186252593994,1.064222637939453,-1.7094599853515624
1788861993956628500,11.14262841796875,-9.542838904571532,2.0670938583374023,-1.8956091644287107
1788861993966635500,11.152635498046875,-10.141538957214355,1.4459481651306152,-0.18345570220947263
1788861993976641500,11.1626416015625,-10.459219589996337,-0.7225999885559081,1.97910694732666
1788861993986647300,11.172647216796875,-10.011952792358398,-4.2131963714599605,3.4677018295288082
1788861993996654600,11.182654541015625,-9.956736516571045,-4.717175820922852,2.790591672515869
1788861994006660400,11.192660400390626,-10.484807620239257,-2.8930934310913083,1.8357541229248047
1788861994016667400,11.20266748046875,-10.980557001495361,-1.419761584472656,1.6780360885620116
1788861994026673700,11.212673583984374,-10.084826305389404,-1.5298948608398437,2.9337948593139647
1788861994036679400,11.222679443359375,-8.911517854309082,-2.6500819625854493,3.6647745536804197
1788861994046686500,11.2326865234375,-7.84639739074707,-3.048566901397705,3.017741555023193
1788861994056692500,11.2426923828125,-7.972691528320312,-2.966715132141113,2.294991928863525
1788861994066698500,11.252698486328125,-8.748412866210938,-2.615066763305664,1.472134745788574
1788861994076705500,11.26270556640625,-8.45242968597412,-2.1365257064819336,1.0624269866943359
1788861994086711300,11.272711181640625,-7.904307143402099,-2.182614088439941,1.0733505317687988
1788861994096718600,11.282718505859375,-5.787084687805176,-2.5164555824279784,1.2955623733520507
1788861994106724600,11.292724609375,-3.5889082885742187,-2.565387078857422,1.8983026412963866
1788861994116730400,11.30273046875,-3.2008979820251464,-2.2596774543762206,1.9816507865905761
1788861994126737400,11.3127373046875,-3.591751403045654,-1.8601450523376464,1.2262801628112792
1788861994136743400,11.322743408203126,-4.036324723815918,-1.5331868881225585,0.5903203468322754
1788861994146749400,11.33274951171875,-3.83072265625,-1.152359186553955,0.6497264755249023
1788861994156756500,11.342756591796874,-3.6414310874938964,-0.5288192916870117,0.8852560638427733
1788861994166762200,11.35276220703125,-4.217086949157714,-0.021098902130126954,0.9793781166076659
1788861994176769500,11.36276953125,-3.81785382232666,0.2223614791870117,1.3570634284973144
1788861994186775600,11.372775634765626,-2.8622680847167965,-0.1188122573852539,2.018162361907959
1788861994196781300,11.38278125,-4.042459865570068,-1.0971429107666015,2.3205799591064453
1788861994206788600,11.39278857421875,-6.235997499084473,-2.2876596862792966,2.3027730842590333
1788861994216794400,11.40279443359375,-7.103446688079834,-3.521122454071045,3.0398879203796385
1788861994226800400,11.41280029296875,-7.5631334068298335,-4.5970168251037595,4.732289218902587
1788861994236807700,11.4228076171875,-9.114875357818603,-5.626074626159667,6.699574795532226
1788861994246813400,11.4328134765625,-10.136900191497801,-7.467215702819824,8.432827159881592
1788861994256820500,11.442820556640624,-9.284714038085937,-10.032303506469725,9.563339256286621
1788861994266826800,11.45282666015625,-8.646210382843018,-11.93973404159546,9.66628992767334
1788861994276832500,11.46283251953125,-9.462034598541258,-13.22212830581665,8.758139310455322
1788861994286839600,11.472839599609374,-10.505756884765624,-14.400075522613525,7.297526660156249
1788861994296845300,11.48284521484375,-10.057741899108887,-14.084340178680419,5.757306804656982
1788861994306851600,11.4928515625,-9.674819271087646,-11.778574342346191,4.736179796600341
1788861994316858600,11.502858642578126,-10.21486138305664,-9.412354914093017,4.806060557556152
1788861994326864400,11.512864501953125,-9.886855755615233,-7.9007158409118645,5.817012208557129
1788861994336871700,11.52287158203125,-8.400804712677001,-7.02922643661499,7.518242125701904
1788861994346877700,11.532877685546875,-7.283311087799071,-6.873902603912353,8.935459870910645
1788861994356883500,11.542883544921875,-6.9144543945312495,-7.25263537902832,9.143306502532958
1788861994366890500,11.552890380859376,-6.612036797332763,-7.701548190307617,8.492532563781738
1788861994376896500,11.562896484375,-6.121225457000732,-7.7389575912475586,7.195773089599609
1788861994386902500,11.572902587890624,-5.24749148864746,-7.1854480949401855,5.749226374053955
1788861994396909600,11.58290966796875,-4.649689261627197,-6.374113007354736,4.664653022003174
1788861994406915300,11.592915283203125,-4.259584028625488,-5.661389100646972,4.113986640167236
1788861994416922600,11.602922607421876,-4.015076184082031,-5.258714308929443,4.340687609863281
1788861994426928600,11.6129287109375,-4.3345524681091305,-5.1714755859374995,4.779275426483154
1788861994436934400,11.622934326171874,-4.909909054565429,-5.506514180755615,4.891653266906738
1788861994446941700,11.632941650390626,-5.6574985229492185,-6.1085062606811515,4.514416867828369
1788861994456947500,11.642947509765625,-5.479729049682617,-6.566995878601074,4.483142608642578
1788861994466953500,11.652953369140626,-5.999270809936523,-7.081599597930908,5.039644857025146
1788861994476960500,11.66296044921875,-7.204751345825195,-8.06322227859497,5.733963338470459
1788861994486966500,11.672966552734374,-7.626879026031494,-8.951171819305419,6.65932228012085
1788861994496973600,11.6829736328125,-8.847173684692383,-9.55091933517456,6.928520329284668
1788861994506979600,11.6929794921875,-8.96374137802124,-9.520542901611327,6.325780061340332
1788861994516985300,11.7029853515625,-8.805275155639649,-8.870816426086424,5.1313727081298826
1788861994526992600,11.71299267578125,-7.98032304611206,-7.870489044952392,3.8150107078552242
1788861994536998400,11.722998291015625,-6.087257720947266,-6.695384942626953,3.425803300476074
1788861994547004400,11.73300439453125,-5.348646508789062,-5.953332065582275,3.5110967346191404
1788861994557011700,11.74301171875,-4.306420598602295,-5.70134234085083,4.420444452667236
1788861994567017500,11.753017578125,-4.008342491912842,-6.143222184753418,5.927594397735596
1788861994577023500,11.7630234375,-4.945073891448974,-6.6702458251953125,6.823025818634033
1788861994587030500,11.773030517578125,-6.4369608009338375,-6.992415586090088,6.757634185791015
1788861994597036500,11.78303662109375,-6.5966241241455075,-7.263708561706543,6.596175211334228
1788861994607043600,11.793043701171875,-6.2672717582702635,-6.947823580169677,6.660818656158447
1788861994617049300,11.80304931640625,-7.358578802490234,-6.412869146728515,6.795791774749755
1788861994627055600,11.8130556640625,-8.103624431610108,-6.320243470001221,7.146691955566406
1788861994637062700,11.823062744140625,-7.688380081176757,-6.7562874473571775,7.723096005249023
1788861994647068400,11.833068359375,-7.3478048950195305,-7.066935112762451,7.987056738281249
1788861994657074400,11.843074462890625,-6.961590239715576,-6.661417206573486,7.539191390228271
1788861994667081500,11.85308154296875,-6.547243714904785,-5.951237139129638,6.424989792633056
1788861994677087500,11.86308740234375,-5.9208607055664055,-5.462820000457763,5.287145453643799
1788861994687094500,11.873094482421875,-5.395483078765869,-4.8618753837585444,4.189703267669677
1788861994697100500,11.8831005859375,-5.073313317871094,-4.217386224365234,3.403357659912109
1788861994707106600,11.8931064453125,-5.3399675277709955,-3.8959646514892574,3.3042975662231444
1788861994717113600,11.903113525390625,-6.7082537765502925,-4.015375459289551,3.3625065940856933
1788861994727119400,11.913119384765626,-8.198793947601319,-4.463240807342529,3.3665468093872066
1788861994737125600,11.923125732421875,-9.083002548217772,-4.995501763916016,3.7050270690917966
1788861994747132400,11.93313232421875,-9.432855265808104,-5.628169552612304,4.275146339416503
1788861994757138400,11.943138427734375,-9.178172064208983,-6.303184783172607,4.759074349975585
1788861994767145700,11.953145751953125,-7.729979335021972,-6.477213316345215,5.153070160675049
1788861994777151500,11.9631513671875,-5.626972451782226,-5.800552072143554,5.297919361114501
1788861994787157500,11.973157470703125,-4.152443504333496,-4.633079487609863,5.034257903289794
1788861994797164500,11.98316455078125,-3.8796541526794432,-3.630806817626953,4.3825861389160155
1788861994807170600,11.993170654296875,-3.9439983222961423,-3.010259674835205,3.6834792541503902
1788861994817176600,12.003176513671875,-5.200954193878173,-2.533813544464111,2.8947394447326658
1788861994827183400,12.013183349609376,-7.039551431274414,-1.8538602729797362,1.8828899681091307
1788861994837189400,12.023189453125,-7.400926244354247,-1.2979565750122068,1.4200608596801756
1788861994847196700,12.03319677734375,-7.800009733581542,-0.9373299499511718,1.1902175003051758
1788861994857202400,12.043202392578126,-8.516474580383301,-0.9051578651428223,0.6967126831054687
1788861994867208400,12.05320849609375,-9.077615594482422,-1.4176666580200195,0.563086302947998
1788861994877215700,12.0632158203125,-9.336937561798095,-2.3110031524658203,1.0290578010559082
1788861994887221500,12.073221435546875,-9.437942944335937,-3.042731034851074,1.9179051673889158
1788861994897227500,12.0832275390625,-9.61406640396118,-3.506906881713867,2.7703905960083004
1788861994907234300,12.093234375,-9.465476263427734,-3.651157531738281,3.084928839111328
1788861994917240600,12.103240478515625,-8.45242968597412,-3.4784757369995116,2.984671644592285
1788861994927247600,12.11324755859375,-7.606229036712646,-2.736871772766113,1.9768623832702636
1788861994937253400,12.12325341796875,-7.043292371368408,-1.7874211769104003,0.9317933586120605
1788861994947259400,12.13325927734375,-8.093748349761963,-1.209820026397705,0.17612345962524412
1788861994957266700,12.1432666015625,-7.862258976745605,-0.596305850982666,-0.2962824554443359
1788861994967272400,12.1532724609375,-7.470807005310058,0.18345570220947263,-0.39115269622802734
1788861994977278500,12.163278564453124,-8.060379164123535,0.49739539489746093,-0.3634697395324707
1788861994987285500,12.173285400390625,-7.697507975006103,-0.5039794494628906,1.0579378585815429
1788861994997291500,12.18329150390625,-7.005434057617187,-1.5032593673706054,2.3077111251831055
1788861995007298600,12.193298583984374,-6.14172580871582,-2.1677999656677245,2.2279542823791503
1788861995017304300,12.20330419921875,-6.21789134902954,-2.6426000823974607,1.6207248863220214
1788861995027310600,12.213310546875,-6.970418858337402,-2.18321263885498,0.8940846824645996
1788861995037317600,12.223317626953126,-6.251260534667968,-1.2521674682617188,0.4745008415222168
1788861995047323400,12.233323486328125,-6.010643267822266,-0.4746504791259765,0.39758711318969725
1788861995057329400,12.243329345703126,-7.126640516662597,-0.32620997619628905,0.4970961196899414
1788861995067336400,12.25333642578125,-7.481580912780761,-0.2576759536743164,0.7721300354003906
1788861995077342500,12.263342529296875,-6.591386808013915,-0.24869769744873046,1.488894157409668
1788861995087349500,12.273349609375,-6.036530573272705,-0.5355529838562011,2.1670517776489255
1788861995097355500,12.28335546875,-6.0537388977050774,-1.100584575653076,2.5471312911987303
1788861995107361500,12.293361572265624,-5.877166525268555,-1.826626229095459,2.897881834411621
1788861995117368600,12.30336865234375,-5.848885018157959,-2.433107437133789,2.89219560546875
1788861995127374300,12.313374267578125,-6.060322952270507,-3.032106764984131,2.486677699279785
1788861995137380600,12.323380615234376,-6.680720457458496,-3.4790742874145506,2.3116017028808593
1788861995147387400,12.333387451171875,-6.931213806152344,-3.8839936431884765,2.5712229454040525
1788861995157393400,12.343393310546874,-7.1607578903198235,-4.335300656127929,3.019088293457031
1788861995167399700,12.353399658203125,-7.234828504180908,-4.600907402801513,3.4030583847045897
1788861995177406500,12.363406494140625,-6.851008050537109,-4.829703298950195,3.968987802124023
1788861995187412500,12.37341259765625,-6.975805812072753,-5.098751710510253,4.639813179779052
1788861995197419500,12.38341943359375,-6.86941347579956,-5.24779076385498,5.256020832061767
1788861995207425500,12.393425537109374,-7.156119124603271,-5.551255824279785,5.781398458862304
1788861995217431600,12.403431640625,-7.210736849975586,-6.068104107666016,6.176591370391845
1788861995227438300,12.413438232421875,-6.569838993072509,-6.644657794952392,6.322039121246338
1788861995237444600,12.423444580078124,-5.989843640899658,-7.229142275238036,6.200383749389648
1788861995247450600,12.43345068359375,-6.260538066101073,-8.036437147521973,5.689072057342529
1788861995257457400,12.44345751953125,-7.32281541519165,-8.940697187042236,4.614374787139893
1788861995267463400,12.45346337890625,-7.579144630432128,-8.88682764968872,3.6453216651916502
1788861995277470500,12.463470458984375,-7.297077747344971,-7.803750673675537,3.477428273773193
1788861995287476500,12.4734765625,-7.497292861175537,-6.854748990631103,4.530428091430664
1788861995297482500,12.483482421875,-8.407688042449951,-7.419331669616699,6.285377908325195
1788861995307489500,12.493489501953125,-8.769212493133544,-9.268852452087401,7.652467056274413
1788861995317495600,12.50349560546875,-8.036886060333252,-10.960206287384032,8.047211054992676
1788861995327502600,12.513502685546875,-6.99076957244873,-11.579855604553222,7.68703334274292
1788861995337508400,12.52350830078125,-6.350769541168212,-10.928483115386962,6.99705435180664
1788861995347514600,12.5335146484375,-6.07154577255249,-9.51291138381958,6.417507912445068
1788861995357521400,12.543521484375,-6.146813487243652,-8.311022150421142,6.067954470062255
1788861995367527400,12.55352734375,-7.293187169647217,-7.59755005569458,5.528211633300781
1788861995377533400,12.563533447265625,-8.083273717498779,-7.331494396209717,5.221604183197021
1788861995387540500,12.57354052734375,-7.461978386688232,-7.447762814331054,5.782745197296142
1788861995397546500,12.58354638671875,-6.112995388793945,-7.088333290100097,7.100603573608398
1788861995407553500,12.593553466796875,-6.2401873519897455,-6.948122855377197,8.219743212127685
1788861995417559600,12.6035595703125,-6.823025818634033,-7.555950801849365,7.810933278656005
1788861995427565600,12.613565673828125,-5.9246016456604,-7.473201206970215,6.715436381530761
1788861995437572400,12.623572265625,-5.459378335571289,-6.92043989868164,5.712714798736572
1788861995447578400,12.633578369140626,-5.304054502868652,-6.695983493041992,5.064185424041748
1788861995457584600,12.643584716796875,-5.226093311309814,-6.960243501281738,4.423586842346191
1788861995467591400,12.65359130859375,-4.776881224822998,-6.993612686920166,3.7945103561401363
1788861995477597400,12.663597412109375,-4.074033399963379,-6.768557730865478,4.320187258148193
1788861995487603500,12.673603515625,-5.114762934112549,-7.110330017852783,4.90931050415039
1788861995497610500,12.683610595703126,-6.074987437438964,-7.726088757324218,4.796483750915527
1788861995507616500,12.693616455078125,-6.067056644439697,-8.166921138000488,4.794089549255371
1788861995517623600,12.70362353515625,-6.181080498504638,-8.295908752441406,4.8515503890991205
1788861995527629600,12.713629638671875,-6.364236925506591,-8.617330325317383,4.772691371917724
1788861995537635600,12.723635498046875,-7.320870126342773,-9.484629876708984,4.20062681274414
1788861995547642400,12.733642333984376,-7.551312036132812,-9.913042336273193,3.3720834007263183
1788861995557648400,12.7436484375,-6.5309332160949705,-9.041104019165038,3.2817022880554196
1788861995567654700,12.753654541015624,-6.494571278381347,-7.460781285858154,3.913023338317871
1788861995577661400,12.763661376953126,-6.930615255737305,-6.121075819396972,5.224297660064697
1788861995587667500,12.77366748046875,-7.135918048095703,-5.650764830780029,6.865672535705566
1788861995597674500,12.783674560546874,-7.190236498260497,-5.922955632019042,8.339752570343016
1788861995607680500,12.793680419921875,-7.535600087738037,-6.310965938568115,8.996811288452149
1788861995617686500,12.8036865234375,-7.478737798309326,-6.259640240478515,8.08955849685669
