time,seconds_elapsed,z,y,x
1789634955449079000,0.0500791015625,-0.1845778375864029,0.7200921177864075,2.0197339057922363
1789634955459118000,0.0601181640625,-0.06459017843008041,0.662445604801178,2.47074031829834
1789634955469158100,0.070158203125,0.0019742012955248356,0.38087624311447144,2.792813301086426
1789634955479197000,0.080197021484375,0.01714383251965046,-0.14463548362255096,2.9231390953063965
1789634955489237000,0.090237060546875,-0.052377987653017044,-0.7249976396560669,2.877424478530884
1789634955499277000,0.100277099609375,-0.19753065705299377,-1.142284870147705,2.7549829483032227
1789634955509316000,0.110316162109375,-0.36920681595802307,-1.3936843872070312,2.631632089614868
1789634955519356200,0.120356201171875,-0.49302273988723755,-1.5573737621307373,2.55269718170166
1789634955529395200,0.130395263671875,-0.5114036202430725,-1.855812907218933,2.426769733428955
1789634955539435300,0.140435302734375,-0.47195929288864136,-2.168543815612793,2.2241530418395996
1789634955549475000,0.15047509765625,-0.4679597318172455,-2.3869504928588867,2.002462863922119
1789634955559514000,0.16051416015625,-0.5230607986450195,-2.4926538467407227,1.802340030670166
1789634955569554200,0.17055419921875,-0.6172727942466736,-2.5597567558288574,1.611565351486206
1789634955579594200,0.18059423828125,-0.694866418838501,-2.6595051288604736,1.377793550491333
1789634955589633300,0.19063330078125,-0.6653252840042114,-2.8465006351470947,1.0911144018173218
1789634955599673000,0.200673095703125,-0.5161659121513367,-3.23159122467041,0.6837732791900635
1789634955609712000,0.210712158203125,-0.30869260430336,-3.6021833419799805,0.20092910528182983
1789634955619752200,0.220752197265625,-0.03708212077617645,-3.786547899246216,-0.14873728156089783
1789634955629792300,0.230792236328125,0.2598204016685486,-3.7205893993377686,-0.31113284826278687
1789634955639831000,0.2408310546875,0.5208408236503601,-3.4313437938690186,-0.35105815529823303
1789634955649871000,0.25087109375,0.729087769985199,-3.139925479888916,-0.34403565526008606
1789634955659910100,0.26091015625,0.9288796782493591,-3.1465890407562256,-0.2877156734466553
1789634955669950200,0.2709501953125,1.5583417415618896,-3.3108572959899902,0.03537530079483986
1789634955679990000,0.280989990234375,2.250073194503784,-3.272085666656494,0.6465028524398804
1789634955690029000,0.291029052734375,2.5503740310668945,-3.386775493621826,1.1790958642959595
1789634955700069400,0.3010693359375,2.6670291423797607,-3.8344838619232178,1.698266863822937
1789634955710109400,0.311109375,2.752347707748413,-4.180804252624512,2.202554225921631
1789634955720148200,0.321148193359375,2.8240902423858643,-4.311684608459473,2.5974559783935547
1789634955730188300,0.331188232421875,2.8798584938049316,-4.371697902679443,2.7606356143951416
1789634955740227600,0.3412275390625,2.999293327331543,-4.526061058044434,2.6316890716552734
1789634955750267400,0.351267333984375,3.28255558013916,-4.793885231018066,2.4137823581695557
1789634955760307500,0.361307373046875,3.653594493865967,-4.954174041748047,2.274259090423584
1789634955770346500,0.371346435546875,3.973757028579712,-4.854830265045166,2.183799982070923
1789634955780386600,0.381386474609375,4.157717704772949,-4.5123820304870605,2.097663640975952
1789634955790425600,0.391425537109375,4.180558204650879,-4.039146423339844,1.985999584197998
1789634955800465400,0.40146533203125,4.075603008270264,-3.586756706237793,1.833939552307129
1789634955810505500,0.41150537109375,3.901878595352173,-3.359025716781616,1.6621747016906738
1789634955820544500,0.42154443359375,3.7438297271728516,-3.238837957382202,1.5181021690368652
1789634955830584600,0.43158447265625,3.664717674255371,-3.0619122982025146,1.4012073278427124
1789634955840623400,0.441623291015625,3.6247215270996094,-2.7099502086639404,1.270267367362976
1789634955850663400,0.451663330078125,3.5876262187957764,-2.248065948486328,1.08579683303833
1789634955860703500,0.461703369140625,3.526801347732544,-1.8674594163894653,0.8655390739440918
1789634955870742300,0.4717421875,3.461362361907959,-1.5840204954147339,0.6710699796676636
1789634955880782300,0.4817822265625,3.3985824584960938,-1.3648604154586792,0.5627315044403076
1789634955890822400,0.491822509765625,3.317755699157715,-1.2503447532653809,0.5483373999595642
1789634955900861400,0.501861328125,3.197845220565796,-1.2017146348953247,0.63016676902771
1789634955910901500,0.511901611328125,3.040386438369751,-1.2176777124404907,0.8085777759552002
1789634955920940300,0.521940185546875,2.842045307159424,-1.2464803457260132,1.0394378900527954
1789634955930980400,0.53198046875,2.6523959636688232,-1.2657301425933838,1.2878633737564087
1789634955941020400,0.5420205078125,2.484867572784424,-1.2058902978897095,1.5494132041931152
1789634955951059500,0.5520595703125,2.336646556854248,-1.0698202848434448,1.7816600799560547
1789634955961099300,0.562099365234375,2.1797115802764893,-0.9633945226669312,1.944886565208435
1789634955971138600,0.572138671875,2.019638776779175,-0.9871538877487183,2.077545642852783
1789634955981178600,0.5821787109375,1.7980246543884277,-1.1267285346984863,2.1931185722351074
1789634955991218400,0.592218505859375,1.538204550743103,-1.3055769205093384,2.297349691390991
1789634956001257500,0.602257568359375,1.2628380060195923,-1.4688332080841064,2.3785176277160645
1789634956011297500,0.612297607421875,0.998214840888977,-1.459238886833191,2.4029455184936523
1789634956021336300,0.62233642578125,0.7769772410392761,-1.223873496055603,2.3176984786987305
1789634956031376400,0.63237646484375,0.598327100276947,-0.8550204038619995,2.1068527698516846
1789634956041416400,0.64241650390625,0.4566378593444824,-0.5138769149780273,1.7775689363479614
1789634956051455500,0.65245556640625,0.34102335572242737,-0.21130505204200745,1.3502188920974731
1789634956061495600,0.66249560546875,0.23505592346191406,0.06458564847707748,0.9120429158210754
1789634956071535400,0.672535400390625,0.14359605312347412,0.38021203875541687,0.5313485860824585
1789634956081574400,0.682574462890625,0.057550910860300064,0.7562035322189331,0.22854715585708618
1789634956091614500,0.692614501953125,-0.013147493824362755,1.0267988443374634,-0.010959440842270851
1789634956101653200,0.7026533203125,-0.08144532144069672,1.1229252815246582,-0.19943347573280334
1789634956111693300,0.712693359375,-0.14911943674087524,1.0391457080841064,-0.35656771063804626
1789634956121733400,0.7227333984375,-0.21315035223960876,0.8533122539520264,-0.5094770789146423
1789634956131772400,0.7327724609375,-0.26207128167152405,0.6826475262641907,-0.6307215094566345
1789634956141812200,0.742812255859375,-0.2924824655056,0.5613802671432495,-0.7335956692695618
1789634956151851500,0.7528515625,-0.27151912450790405,0.49884602427482605,-0.8425671458244324
1789634956161891600,0.7628916015625,-0.18028055131435394,0.48930978775024414,-0.9578282237052917
1789634956171931400,0.772931396484375,-0.06581337004899979,0.5163315534591675,-1.0542477369308472
1789634956181970400,0.782970458984375,0.05133083090186119,0.5430870056152344,-1.130171775817871
1789634956192010500,0.793010498046875,0.1374710500240326,0.5603485107421875,-1.161546230316162
1789634956202050600,0.803050537109375,0.19233109056949615,0.5307403206825256,-1.1553280353546143
1789634956212089600,0.813089599609375,0.21788811683654785,0.4425339996814728,-1.1100404262542725
1789634956222129400,0.82312939453125,0.23664982616901398,0.3193516135215759,-1.058728814125061
1789634956232168400,0.83316845703125,0.24659407138824463,0.05018620565533638,-1.0008760690689087
1789634956242208500,0.84320849609375,0.18546387553215027,-0.026279807090759277,-0.9248710870742798
1789634956252248600,0.85324853515625,0.04488731175661087,-0.00872345082461834,-0.8704797625541687
1789634956262287400,0.863287353515625,-0.14087429642677307,-0.0611773356795311,-0.8859977126121521
1789634956272327400,0.873327392578125,-0.26315465569496155,-0.01330035924911499,-0.9286160469055176
1789634956282366500,0.883366455078125,-0.24373197555541992,0.1254892200231552,-0.955491840839386
1789634956292406300,0.89340625,-0.18208111822605133,0.2517062723636627,-0.9321372509002686
1789634956302446300,0.9034462890625,-0.1530097872018814,0.2408834546804428,-0.863589882850647
1789634956312485400,0.9134853515625,-0.14233024418354034,0.1536414921283722,-0.758601725101471
1789634956322525400,0.923525390625,-0.09461172670125961,0.12288837134838104,-0.6535261273384094
1789634956332564500,0.933564453125,-0.053044576197862625,0.16835838556289673,-0.5674437284469604
1789634956342604300,0.943604248046875,-0.04989432170987129,0.18041211366653442,-0.5112704634666443
1789634956352644400,0.953644287109375,-0.08391807228326797,0.1732330322265625,-0.49845001101493835
1789634956362683600,0.96368359375,-0.09911832958459854,0.2034282237291336,-0.5318657755851746
1789634956372723500,0.973723388671875,-0.07154981791973114,0.24343156814575195,-0.5815403461456299
1789634956382762500,0.983762451171875,-0.027947477996349335,0.36307087540626526,-0.5659291744232178
1789634956392802600,0.993802490234375,0.009061671793460846,0.4697054326534271,-0.48678749799728394
1789634956402842600,1.003842529296875,0.01889326423406601,0.4882194697856903,-0.34888261556625366
1789634956412881400,1.01388134765625,0.04457918554544449,0.4514457583427429,-0.19580012559890747
1789634956422921500,1.02392138671875,0.08231724053621292,0.3732156455516815,-0.038962580263614655
1789634956432961500,1.03396142578125,0.11880441755056381,0.3564952611923218,0.13635490834712982
1789634956443000300,1.044000244140625,0.16066105663776398,0.3501657247543335,0.26422977447509766
1789634956453040400,1.054040283203125,0.21982423961162567,0.33836472034454346,0.345791757106781
1789634956463079400,1.064079345703125,0.26038312911987305,0.37771719694137573,0.4150070548057556
1789634956473119500,1.074119384765625,0.26568201184272766,0.451215922832489,0.4852617681026459
1789634956483159600,1.08415966796875,0.25512710213661194,0.5183555483818054,0.5466662645339966
1789634956493198300,1.0941982421875,0.2728067636489868,0.45590415596961975,0.5848610401153564
1789634956503238400,1.10423828125,0.3528866767883301,0.3458407521247864,0.6234963536262512
1789634956513277400,1.11427734375,0.4294440448284149,0.19063518941402435,0.6234758496284485
1789634956523317200,1.124317138671875,0.4614347219467163,-0.04304280877113342,0.5755935311317444
1789634956533357300,1.134357421875,0.46178415417671204,-0.30241578817367554,0.5591943264007568
1789634956543396400,1.144396240234375,0.4695983827114105,-0.48835289478302,0.5912321209907532
1789634956553436400,1.1544365234375,0.484988272190094,-0.6213082671165466,0.6844497323036194
1789634956563476200,1.164476318359375,0.411802738904953,-0.7066322565078735,0.8455315232276917
1789634956573515500,1.174515625,0.3286372721195221,-0.7465298771858215,1.0358335971832275
1789634956583555600,1.1845556640625,0.2795325815677643,-0.7020840644836426,1.228663682937622
1789634956593594600,1.1945947265625,0.21124540269374847,-0.6193106770515442,1.3303344249725342
1789634956603634400,1.204634521484375,0.11906780302524567,-0.5906553268432617,1.2652465105056763
1789634956613674500,1.214674560546875,-0.018931878730654716,-0.7628062963485718,1.0610147714614868
1789634956623713500,1.224713623046875,-0.13835866749286652,-0.9717621803283691,0.8422316312789917
1789634956633753600,1.234753662109375,-0.08266957849264145,-1.2969567775726318,0.64444500207901
1789634956643792400,1.24479248046875,0.1173655092716217,-1.47819983959198,0.534980297088623
1789634956653832400,1.25483251953125,0.20567619800567627,-1.3776673078536987,0.6032741665840149
1789634956663872500,1.26487255859375,0.0800306499004364,-1.260864496231079,0.8360443115234375
1789634956673911300,1.274911376953125,-0.0844336599111557,-1.1177561283111572,1.1541935205459595
1789634956683951400,1.284951416015625,-0.2062748670578003,-1.1794005632400513,1.4263781309127808
1789634956693990400,1.294990478515625,-0.3342863619327545,-1.7158386707305908,1.4746959209442139
1789634956704030700,1.30503076171875,-0.5247170329093933,-2.1686336994171143,1.544783592224121
1789634956714070800,1.31507080078125,-0.6954419016838074,-2.0175509452819824,1.6683948040008545
1789634956724109800,1.32510986328125,-0.6895461678504944,-1.84112548828125,1.5217763185501099
1789634956734149600,1.335149658203125,-0.6002099514007568,-1.6762620210647583,1.2707371711730957
1789634956744188700,1.345188720703125,-0.4601372480392456,-1.4651551246643066,1.071373701095581
1789634956754228700,1.355228759765625,-0.27880072593688965,-1.3439501523971558,1.0292412042617798
1789634956764268800,1.365268798828125,0.12149021029472351,-1.60110604763031,0.8244078755378723
1789634956774307800,1.375307861328125,0.8920438885688782,-1.0202032327651978,0.5446891188621521
1789634956784347600,1.38534765625,0.767128050327301,-0.5874605774879456,1.0680769681930542
1789634956794387700,1.3953876953125,0.6824659109115601,-1.0387805700302124,1.1741174459457397
1789634956804427000,1.405427001953125,0.7699893712997437,-1.4984337091445923,1.2107079029083252
1789634956814466800,1.415466796875,0.8633670210838318,-1.3136910200119019,1.0393598079681396
1789634956824505900,1.425505859375,0.9736127853393555,-0.4210931658744812,0.5054437518119812
1789634956834546000,1.4355458984375,1.0964686870574951,0.36682912707328796,0.1821945756673813
1789634956844586000,1.4455859375,1.266825795173645,0.5101223587989807,0.21918374300003052
1789634956854624800,1.455624755859375,1.434791922569275,0.2907218337059021,0.4265177547931671
1789634956864664800,1.465664794921875,1.6606756448745728,0.08319022506475449,0.5325997471809387
1789634956874704000,1.475703857421875,1.988610863685608,0.27944228053092957,0.42101699113845825
1789634956884743700,1.48574365234375,2.63188099861145,0.48958808183670044,0.3684861361980438
1789634956894783700,1.49578369140625,3.408989429473877,0.6049676537513733,0.22919324040412903
1789634956904822800,1.50582275390625,4.25189733505249,1.00987708568573,-0.016396550461649895
1789634956914862800,1.51586279296875,4.961336135864258,1.1755118370056152,-0.20009207725524902
1789634956924901600,1.525901611328125,5.302530288696289,1.3248370885849,-0.44292497634887695
1789634956934941700,1.535941650390625,5.424631118774414,1.5946319103240967,-0.7646846175193787
1789634956944981800,1.545981689453125,5.208826541900635,2.4788098335266113,-1.3730297088623047
1789634956955020800,1.556020751953125,3.7070212364196777,1.6966016292572021,-0.6570644378662109
1789634956965060600,1.566060546875,1.8638659715652466,0.18726390600204468,-0.7182995676994324
1789634956975100700,1.5761005859375,1.2576490640640259,-0.510762095451355,-1.0876493453979492
1789634956985140000,1.586139892578125,1.3219479322433472,0.3878768980503082,-1.465286135673523
1789634956995179800,1.5961796875,1.3109405040740967,0.5751453042030334,-1.6343156099319458
1789634957005218800,1.60621875,1.7992500066757202,0.08941936492919922,-1.51302969455719
1789634957015259000,1.6162587890625,2.5877299308776855,-0.3244380056858063,-1.3783719539642334
1789634957025299000,1.626298828125,4.019411087036133,-0.2590304911136627,-1.154159426689148
1789634957035338000,1.636337890625,5.331750392913818,0.9207048416137695,-1.686833381652832
1789634957045377800,1.646377685546875,3.8924787044525146,1.07764732837677,-1.6155041456222534
1789634957055416800,1.656416748046875,1.442405104637146,0.3377189040184021,-0.27030524611473083
1789634957065457000,1.666456787109375,0.3065178692340851,-0.5300089716911316,0.7230895161628723
1789634957075497000,1.6764970703125,0.22462990880012512,-0.006137787364423275,0.6588231921195984
1789634957085535700,1.68653564453125,0.1386295109987259,0.8920345902442932,-0.22829841077327728
1789634957095575800,1.696575927734375,0.06175151467323303,1.2889633178710938,-0.9721994400024414
1789634957105616000,1.706615966796875,-0.09882032126188278,1.0135202407836914,-1.1124948263168335
1789634957115654700,1.716654541015625,-0.0963616892695427,0.2882254123687744,-0.8295464515686035
1789634957125694700,1.72669482421875,0.0833931639790535,-0.2568933069705963,-0.5089383125305176
1789634957135733800,1.736733642578125,0.24857573211193085,-0.32259508967399597,-0.43610113859176636
1789634957145773800,1.74677392578125,0.4136349856853485,-0.001529453438706696,-0.45829272270202637
1789634957155813600,1.756813720703125,0.7971850633621216,-0.0330817885696888,-0.3009483814239502
1789634957165852700,1.766852783203125,1.1329002380371094,-0.40183693170547485,0.03610420972108841
1789634957175892700,1.776892822265625,1.4401477575302124,-0.6353570222854614,0.36062848567962646
1789634957185932800,1.786932861328125,1.490328311920166,-0.8568688631057739,0.4309186339378357
1789634957195971800,1.796971923828125,1.5484545230865479,-0.7067099809646606,0.4516875743865967
1789634957206011600,1.80701171875,1.8796186447143555,-0.7125372886657715,0.3549274504184723
1789634957216051000,1.817051025390625,2.067573070526123,-0.425103098154068,0.33402004837989807
1789634957226091000,1.827091064453125,2.6941299438476562,-0.19935518503189087,0.3110438883304596
1789634957236130800,1.837130859375,3.73834490776062,-0.34246334433555603,0.2575817406177521
1789634957246169900,1.847169921875,4.719581604003906,-0.37977874279022217,0.16469627618789673
1789634957256210000,1.8572099609375,4.906779766082764,-0.2858565151691437,0.20025639235973358
1789634957266248700,1.867248779296875,3.433403730392456,-0.4938507378101349,0.56083083152771
1789634957276288800,1.877288818359375,2.690514087677002,-1.1938003301620483,0.6386406421661377
1789634957286328800,1.887328857421875,2.4064109325408936,-1.7229176759719849,0.42441120743751526
1789634957296367900,1.897367919921875,1.8256843090057373,-1.5641908645629883,-0.06021939963102341
1789634957306407700,1.90740771484375,1.056505799293518,-0.6647740006446838,-0.5786615014076233
1789634957316447700,1.91744775390625,0.38823190331459045,0.0835617408156395,-0.73162442445755
1789634957326486800,1.92748681640625,-0.06830235570669174,0.26728710532188416,-0.3774535357952118
1789634957336526800,1.93752685546875,-0.08024930208921432,0.20221169292926788,-0.2696644961833954
1789634957346565600,1.947565673828125,-0.11945289373397827,0.07153650373220444,-0.13443583250045776
1789634957356605700,1.957605712890625,-0.07597119361162186,-0.04947487637400627,-0.12783226370811462
1789634957366645800,1.967645751953125,-0.06480589509010315,-0.22253426909446716,-0.2658948004245758
1789634957376684800,1.977684814453125,0.05830778181552887,-0.3389301300048828,-0.25503015518188477
1789634957386724600,1.987724609375,0.06118718907237053,-0.18084248900413513,-0.09790978580713272
1789634957396764700,1.9977646484375,0.012441489845514297,-0.13130396604537964,-0.00609411159530282
1789634957406804000,2.007803955078125,0.033702302724123,-0.22384880483150482,0.04880455881357193
1789634957416843800,2.01784375,0.06857693195343018,-0.3150050938129425,0.059724848717451096
1789634957426882800,2.0278828125,0.13990676403045654,-0.25797030329704285,0.1809532791376114
1789634957436923000,2.0379228515625,0.17219014465808868,-0.20143431425094604,0.33211857080459595
1789634957446963000,2.047962890625,0.15047791600227356,-0.4598618745803833,0.2959352433681488
1789634957457002000,2.058001953125,0.16020698845386505,-0.8704153299331665,0.18163637816905975
1789634957467041800,2.068041748046875,0.29225954413414,-1.2337977886199951,0.11414361745119095
1789634957477080800,2.078080810546875,0.3393876552581787,-1.256909728050232,0.08154013007879257
1789634957487121000,2.088120849609375,0.27284032106399536,-0.6399048566818237,-0.30267438292503357
1789634957497161000,2.098160888671875,0.40880587697029114,0.3677588403224945,-0.5408536791801453
1789634957507199700,2.10819970703125,0.47391483187675476,0.47736576199531555,-0.31473052501678467
1789634957517239800,2.11823974609375,0.22450128197669983,0.5566728115081787,-0.4505498707294464
1789634957527279900,2.12827978515625,0.0064744106493890285,0.6402282118797302,-0.3217226266860962
1789634957537318700,2.138318603515625,-0.20521441102027893,0.10318844020366669,-0.5488998889923096
1789634957547358700,2.148358642578125,-1.095859408378601,-0.011689146980643272,-0.3956570625305176
1789634957557397800,2.158397705078125,-0.8083010911941528,0.37773397564888,-0.5342929363250732
1789634957567437800,2.168437744140625,-0.36995700001716614,0.5394994616508484,-0.4117169678211212
1789634957577477600,2.1784775390625,-0.2194356769323349,0.2537579834461212,-0.35875335335731506
1789634957587516700,2.1885166015625,-0.130906879901886,0.15433605015277863,-0.4791516661643982
1789634957597556700,2.198556640625,-0.15878592431545258,0.17962861061096191,-0.5187840461730957
1789634957607596800,2.2085966796875,-0.14584295451641083,0.35096707940101624,-0.4743313491344452
1789634957617635800,2.2186357421875,-0.11584777384996414,0.24214045703411102,-0.294833779335022
1789634957627675600,2.228675537109375,-0.021763885393738747,0.027994882315397263,-0.06422878801822662
1789634957637715000,2.23871484375,0.11145622283220291,-0.10714136809110641,-0.035229891538619995
1789634957647755000,2.248755126953125,0.19627736508846283,-0.23660029470920563,-0.10728225111961365
1789634957657794800,2.258794921875,0.273162305355072,-0.4410082995891571,-0.09723254293203354
1789634957667833900,2.268833740234375,0.30405309796333313,-0.8148503303527832,0.09917505085468292
1789634957677874000,2.2788740234375,0.21677571535110474,-1.1124029159545898,0.21151277422904968
1789634957687912700,2.28891259765625,0.19422779977321625,-1.2636404037475586,0.10756933689117432
1789634957697952500,2.298952392578125,0.2975778877735138,-1.1713703870773315,0.10916776955127716
1789634957707992300,2.308992431640625,0.5135099291801453,-0.3377769887447357,0.1472935825586319
1789634957718031400,2.31903125,0.520258903503418,0.5283418893814087,0.09185322374105453
1789634957728071400,2.329071533203125,0.35742712020874023,0.835412323474884,-0.02923564985394478
1789634957738111500,2.339111572265625,0.22395479679107666,0.6588335633277893,-0.06656064838171005
1789634957748150300,2.349150390625,0.208628311753273,0.6864483952522278,-0.04993214085698128
1789634957758190300,2.3591904296875,0.1630198061466217,0.7747601866722107,-0.05430158972740173
1789634957768229400,2.3692294921875,0.04586362838745117,0.7248061895370483,-0.07030212879180908
1789634957778269200,2.379269287109375,-0.024807877838611603,0.5652218461036682,-0.07940348237752914
1789634957788309200,2.389309326171875,-0.13315778970718384,0.48825809359550476,-0.05149035528302193
1789634957798348500,2.3993486328125,-0.26372218132019043,-0.7507562637329102,0.24466460943222046
1789634957808388400,2.409388427734375,-0.16975654661655426,-0.341754674911499,0.020918065682053566
1789634957818428200,2.41942822265625,0.07021557539701462,-0.23073707520961761,0.030173081904649734
1789634957828467500,2.429467529296875,-0.12060125172138214,-0.3335183262825012,0.05988996475934982
1789634957838507500,2.439507568359375,-0.08410848677158356,-0.012141085229814053,0.031674038618803024
1789634957848546600,2.449546630859375,-0.07634563744068146,0.2380559742450714,-0.003023486817255616
1789634957858586400,2.45958642578125,-0.11058057099580765,0.2974950671195984,0.0013350426452234387
1789634957868626400,2.46962646484375,-0.17631031572818756,0.1967325061559677,0.05656953528523445
1789634957878665500,2.47966552734375,-0.1896951049566269,-0.015303854830563068,0.038112230598926544
1789634957888705500,2.48970556640625,-0.20646075904369354,0.04109390825033188,-0.06137733906507492
1789634957898745300,2.499745361328125,-0.5421841740608215,-0.03418300300836563,-0.05965161323547363
1789634957908784400,2.509784423828125,-0.8692981004714966,-0.09409693628549576,-0.081758514046669
1789634957918824400,2.519824462890625,-1.048577070236206,-0.17937135696411133,-0.1664086878299713
1789634957928863200,2.52986328125,-1.1968262195587158,-0.021874405443668365,-0.44626855850219727
1789634957938903300,2.5399033203125,-1.0086160898208618,0.1310506910085678,-0.9493029117584229
1789634957948943400,2.549943359375,-0.6016086339950562,-0.606933057308197,-1.3161760568618774
1789634957958982400,2.559982421875,-0.3434963822364807,-2.361457347869873,-1.1169086694717407
1789634957969022200,2.570022216796875,-0.026487799361348152,-2.939382791519165,-0.5532405376434326
1789634957979061200,2.580061279296875,0.17049743235111237,-3.372417688369751,-1.03020179271698
1789634957989101300,2.590101318359375,0.31360799074172974,-3.8895151615142822,-0.3851924240589142
1789634957999141400,2.600141357421875,0.0059838565066456795,-1.8407020568847656,0.5069441795349121
1789634958009180400,2.610180419921875,0.23868288099765778,-0.8915179371833801,0.0010032127611339092
1789634958019220500,2.620220458984375,0.5774718523025513,-1.1179609298706055,-0.7627364993095398
1789634958029260300,2.63026025390625,0.9081680178642273,-1.4728388786315918,-0.7541624903678894
1789634958039299600,2.640299560546875,1.1183907985687256,-1.779685378074646,-0.560161292552948
1789634958049339400,2.65033935546875,1.208182692527771,-2.0034286975860596,-0.13935256004333496
1789634958059378400,2.66037841796875,0.6980206370353699,-1.9142566919326782,-0.44376546144485474
1789634958069418500,2.67041845703125,-0.5145629048347473,-0.9408652186393738,-0.9088771939277649
1789634958079458600,2.68045849609375,-1.1519426107406616,0.19500091671943665,-0.7711268067359924
1789634958089497300,2.690497314453125,-0.9940698742866516,0.11312362551689148,-0.4966371953487396
1789634958099537400,2.700537353515625,-0.6701357364654541,-0.5999143123626709,-0.41468319296836853
1789634958109577500,2.710577392578125,-0.2773687541484833,-1.3169575929641724,-0.20241861045360565
1789634958119616500,2.720616455078125,0.09073709696531296,-1.8848838806152344,0.11020426452159882
1789634958129656300,2.73065625,0.438181608915329,-2.2959771156311035,0.4534127712249756
1789634958139695400,2.7406953125,0.6271954774856567,-2.5055129528045654,0.664689302444458
1789634958149735400,2.7507353515625,0.651005208492279,-2.168698310852051,0.711459219455719
1789634958159775500,2.760775390625,0.6329329609870911,-2.0090861320495605,0.680383563041687
1789634958169814300,2.770814208984375,0.5602174997329712,-1.8459844589233398,0.6136170625686646
1789634958179854300,2.780854248046875,0.51981520652771,-1.6603432893753052,0.589438796043396
1789634958189893400,2.790893310546875,0.4887595772743225,-1.4087141752243042,0.5053563714027405
1789634958199933200,2.80093310546875,0.30533912777900696,-1.0862144231796265,0.5139371156692505
1789634958209973200,2.81097314453125,0.11207913607358932,-0.9952906966209412,0.5571500658988953
1789634958220012500,2.821012451171875,0.09995589405298233,-1.1078300476074219,0.5741114616394043
1789634958230052400,2.83105224609375,0.16399000585079193,-1.245903730392456,0.4962257444858551
1789634958240092200,2.841092041015625,0.26939284801483154,-1.246648907661438,0.3202107548713684
1789634958250131500,2.85113134765625,0.32859599590301514,-1.0987414121627808,0.1404670923948288
1789634958260171500,2.861171630859375,0.38103151321411133,-0.9264295697212219,-0.017185911536216736
1789634958270210600,2.87121044921875,0.4263979196548462,-0.8631749749183655,-0.17246152460575104
1789634958280250400,2.88125048828125,0.6330887675285339,-1.0926510095596313,-0.2439197152853012
1789634958290290400,2.89129052734375,0.7797189950942993,-1.3011555671691895,-0.20555289089679718
1789634958300329500,2.90132958984375,0.8601818680763245,-1.298734188079834,-0.1421360969543457
1789634958310369500,2.91136962890625,0.8710212111473083,-1.1177164316177368,-0.10744896531105042
1789634958320409300,2.921409423828125,0.7431426048278809,-0.8942439556121826,-0.08564912527799606
1789634958330448400,2.931448486328125,0.5175182223320007,-0.6458985805511475,-0.07727721333503723
1789634958340488400,2.941488525390625,0.3392435908317566,-0.29972413182258606,-0.07951027154922485
1789634958350527200,2.95152734375,0.25452709197998047,-0.16896691918373108,0.02720072865486145
1789634958360567300,2.9615673828125,0.1810896247625351,-0.23637790977954865,0.17403651773929596
1789634958370607400,2.971607421875,0.09078875929117203,-0.3319859206676483,0.24902819097042084
1789634958380646400,2.981646484375,0.2503323554992676,-0.5233470797538757,0.22365626692771912
1789634958390686200,2.991686279296875,0.33431726694107056,-0.9145933985710144,0.14997830986976624
1789634958400725200,3.001725341796875,0.34347081184387207,-1.0890706777572632,0.07883329689502716
1789634958410765300,3.011765380859375,0.13569924235343933,-0.9170693755149841,0.0667758360505104
1789634958420805400,3.021805419921875,-0.061896923929452896,-0.5315384268760681,0.1268913745880127
1789634958430844400,3.031844482421875,-0.12417707592248917,-0.13694266974925995,0.17166709899902344
1789634958440884200,3.04188427734375,-0.10973262041807175,0.1996273547410965,0.09635822474956512
1789634958450924300,3.05192431640625,-0.2873079478740692,0.45677605271339417,-0.17129185795783997
1789634958460963600,3.061963623046875,-0.5069777369499207,0.7227885723114014,-0.4319745898246765
1789634958471003400,3.07200341796875,-0.6132482290267944,1.1944363117218018,-0.6717610955238342
1789634958481042400,3.08204248046875,-0.5537116527557373,1.601889729499817,-0.7492233514785767
1789634958491082500,3.09208251953125,-0.4185093641281128,2.0820677280426025,-0.6818669438362122
1789634958501122600,3.10212255859375,-0.16234789788722992,2.449605703353882,-0.5152543187141418
1789634958511161300,3.112161376953125,0.2895148992538452,2.377444267272949,-0.13595357537269592
1789634958521201400,3.122201416015625,0.6617355942726135,1.7115817070007324,0.31019702553749084
1789634958531241500,3.132241455078125,0.8394579291343689,0.9704641699790955,0.4678686559200287
1789634958541280500,3.142280517578125,1.063226580619812,0.44607627391815186,0.5856274962425232
1789634958551320300,3.1523203125,1.235097885131836,0.17319469153881073,0.4893403947353363
1789634958561359400,3.162359375,1.135698914527893,0.2116432785987854,0.37354934215545654
1789634958571399400,3.1723994140625,0.9976704716682434,-0.0038802255876362324,0.4874676764011383
1789634958581439500,3.182439453125,0.984847366809845,-0.479121595621109,0.538342297077179
1789634958591478300,3.192478271484375,0.807178795337677,0.6075650453567505,0.191294863820076
1789634958601518300,3.202518310546875,0.32416343688964844,1.612615942955017,0.1054081842303276
1789634958611558400,3.212558349609375,0.04566469043493271,1.8282238245010376,0.19599853456020355
1789634958621597200,3.22259716796875,0.05751655623316765,1.081002950668335,0.17458006739616394
1789634958631637200,3.23263720703125,0.142785906791687,0.17389057576656342,0.03674896061420441
1789634958641676500,3.242676513671875,0.2002425491809845,-0.4826657176017761,0.018434135243296623
1789634958651716400,3.25271630859375,0.16948463022708893,-0.6581467390060425,0.0908271074295044
1789634958661756200,3.262756103515625,0.057012151926755905,-0.4957476854324341,0.16410717368125916
1789634958671795500,3.27279541015625,-0.04747963324189186,-0.1457500159740448,0.13386298716068268
1789634958681835500,3.28283544921875,-0.10573681443929672,0.03110305778682232,0.061461761593818665
1789634958691874600,3.29287451171875,-0.05886225029826164,0.14937670528888702,-0.01805303618311882
1789634958701913600,3.30291357421875,-0.006451241206377745,0.2464582473039627,-0.0618593730032444
1789634958711953700,3.31295361328125,0.03260881081223488,0.14024445414543152,-0.05252552404999733
1789634958721992700,3.32299267578125,0.11901640146970749,-0.16978690028190613,-0.05419612675905228
1789634958732032500,3.333032470703125,0.13213087618350983,-0.6135965585708618,-0.0998363122344017
1789634958742072600,3.343072509765625,0.06296005845069885,-1.029542088508606,-0.17556942999362946
1789634958752111600,3.353111572265625,-0.08628988265991211,-0.7108471989631653,-0.235696941614151
1789634958762151700,3.363151611328125,-0.2968095541000366,-0.3674483299255371,-0.24325020611286163
1789634958772190500,3.3731904296875,-0.48743703961372375,-0.4788331687450409,-0.19265227019786835
1789634958782230500,3.38323046875,-0.6972776055335999,-0.8048347234725952,-0.16582465171813965
1789634958792270600,3.3932705078125,-0.944801926612854,-1.0815714597702026,-0.18310271203517914
1789634958802309600,3.4033095703125,-1.1598758697509766,-1.3515350818634033,-0.22606615722179413
1789634958812349400,3.413349365234375,-1.230601191520691,-1.633471131324768,-0.3140133321285248
1789634958822389500,3.423389404296875,-1.0520753860473633,-1.7471460103988647,-0.350496768951416
1789634958832428800,3.4334287109375,-0.5652490258216858,-1.5589585304260254,-0.35844630002975464
1789634958842468900,3.44346875,-0.02202913537621498,-1.3147400617599487,-0.3588812053203583
1789634958852507600,3.453507568359375,0.2865694463253021,-1.3323800563812256,-0.28011927008628845
1789634958862547700,3.463547607421875,0.36005404591560364,-1.4429683685302734,-0.0879218652844429
1789634958872587800,3.473587890625,0.38258546590805054,-1.4548002481460571,0.09343354403972626
1789634958882626600,3.48362646484375,0.44032466411590576,-1.3566584587097168,0.19717325270175934
1789634958892666600,3.49366650390625,0.48994919657707214,-1.1815718412399292,0.19229061901569366
1789634958902705700,3.50370556640625,0.5894848704338074,-0.9888426065444946,0.1325921267271042
1789634958912745700,3.513745849609375,0.6818144917488098,-0.8934953212738037,0.04626443237066269
1789634958922785800,3.523785888671875,0.6617457270622253,-0.8209527134895325,-0.019573435187339783
1789634958932824600,3.533824462890625,0.5054405331611633,-0.6824776530265808,-0.049369148910045624
1789634958942864600,3.54386474609375,0.37028324604034424,-0.545293927192688,-0.028496090322732925
1789634958952904700,3.55390478515625,0.27342674136161804,-0.4013991057872772,-0.01858939602971077
1789634958962943500,3.563943603515625,0.2279290407896042,-0.27722227573394775,0.007299724500626326
1789634958972983600,3.573983642578125,0.19694368541240692,-0.14999854564666748,0.018726550042629242
1789634958983022600,3.584022705078125,0.18751797080039978,-0.009376191534101963,0.013995977118611336
1789634958993062700,3.594062744140625,0.20570442080497742,0.13124004006385803,0.030289728194475174
1789634959003102500,3.6041025390625,0.22771865129470825,0.30699509382247925,0.055650744587183
1789634959013141800,3.614141845703125,0.2209068089723587,0.5273370742797852,0.09441731870174408
1789634959023181600,3.624181640625,0.23960566520690918,0.6590926647186279,0.16882869601249695
1789634959033221600,3.6342216796875,0.14338752627372742,0.7792204022407532,0.28775402903556824
1789634959043260700,3.6442607421875,-0.006380933802574873,0.9847634434700012,0.41620519757270813
1789634959053300700,3.65430078125,-0.19257743656635284,1.29612398147583,0.5075359344482422
1789634959063339800,3.66433984375,-0.32092130184173584,1.6720107793807983,0.4769758880138397
1789634959073379800,3.6743798828125,-0.3647627830505371,2.2627058029174805,0.3262481391429901
1789634959083419600,3.684419677734375,-0.10984393954277039,2.626487970352173,0.11117445677518845
1789634959093458700,3.694458740234375,0.11777510493993759,2.1914148330688477,0.016057264059782028
1789634959103498800,3.704498779296875,0.09068170189857483,1.2484078407287598,-0.06096987798810005
1789634959113538800,3.714538818359375,0.0652913898229599,0.33874502778053284,-0.27821484208106995
1789634959123577600,3.72457763671875,0.15534645318984985,-0.3130625784397125,-0.3973606824874878
1789634959133617700,3.73461767578125,0.10166191309690475,-1.0233196020126343,-0.20066438615322113
1789634959143656700,3.74465673828125,-0.02130395732820034,-2.7877371311187744,0.4185256063938141
1789634959153696500,3.754696533203125,-0.11747203767299652,-3.932129383087158,0.9089190363883972
1789634959163736600,3.764736572265625,0.060858022421598434,-2.5899882316589355,0.6265512704849243
1789634959173775600,3.774775634765625,0.23693051934242249,-0.4655916690826416,0.04093704745173454
1789634959183815700,3.784815673828125,0.15442445874214172,0.6455851197242737,-0.37559571862220764
1789634959193854500,3.7948544921875,-0.010203901678323746,0.8160958886146545,-0.3754071593284607
1789634959203894500,3.80489453125,0.003156378399580717,0.5787344574928284,-0.20595955848693848
1789634959213934600,3.8149345703125,0.13460734486579895,0.0516488142311573,0.10721992701292038
1789634959223973600,3.8249736328125,0.013011406175792217,-0.2918475568294525,0.34853267669677734
1789634959234013400,3.835013427734375,0.0035121769178658724,-0.38995736837387085,0.3780040144920349
1789634959244053500,3.845053466796875,0.08279234915971756,-0.4095313251018524,0.30689308047294617
1789634959254092800,3.8550927734375,0.1332067847251892,-0.4305415451526642,0.13670405745506287
1789634959264132900,3.8651328125,0.08837459981441498,-0.28086549043655396,-0.10801435261964798
1789634959274171600,3.875171630859375,0.08227596431970596,-0.1709030419588089,-0.15684500336647034
1789634959284211700,3.885211669921875,0.04079803079366684,-0.06861661374568939,-0.10866229981184006
1789634959294251800,3.895251708984375,-0.028319256380200386,-0.0897384062409401,-0.0037942056078463793
1789634959304290600,3.90529052734375,-0.07685136795043945,-0.2618201673030853,0.1347399652004242
1789634959314330600,3.91533056640625,-0.09063322842121124,-0.42926669120788574,0.24078251421451569
1789634959324370700,3.92537060546875,-0.08865822851657867,-0.47533005475997925,0.3009297549724579
1789634959334409700,3.93540966796875,-0.09119542688131332,-0.42084574699401855,0.3270210027694702
1789634959344449800,3.94544970703125,-0.09931407123804092,-0.36343786120414734,0.33713728189468384
1789634959354488600,3.955488525390625,-0.09903470426797867,-0.33072465658187866,0.3523798882961273
1789634959364528600,3.965528564453125,-0.0803465023636818,-0.30446961522102356,0.36449459195137024
1789634959374568700,3.975568603515625,-0.06101275235414505,-0.2755471467971802,0.3487257659435272
1789634959384607500,3.985607421875,-0.04572780802845955,-0.2261979877948761,0.2751719057559967
1789634959394647600,3.9956474609375,-0.03729863464832306,-0.17685706913471222,0.17520403861999512
1789634959404687600,4.0056875,-0.020188093185424805,-0.12171497941017151,0.06929545104503632
1789634959414726700,4.0157265625,-0.006878678686916828,-0.0690419152379036,-0.026188993826508522
1789634959424766500,4.025766357421875,-0.014271880500018597,-0.0858568474650383,-0.07236208021640778
1789634959434805500,4.035805419921875,-0.040954090654850006,-0.19664515554904938,-0.047256726771593094
1789634959444845600,4.045845458984375,-0.05813654139637947,-0.2762901782989502,0.010579407215118408
1789634959454885600,4.0558857421875,-0.06264474242925644,-0.2488716095685959,0.03243836760520935
1789634959464924700,4.065924560546875,-0.06168892979621887,-0.22965076565742493,0.02598392963409424
1789634959474964700,4.07596484375,-0.05385683849453926,-0.2721708118915558,0.009245962835848331
1789634959485003800,4.086003662109375,-0.03955300152301788,-0.326965868473053,-0.01674063131213188
1789634959495043800,4.0960439453125,-0.03374198451638222,-0.32700449228286743,-0.04969431832432747
1789634959505083600,4.106083740234375,-0.033901773393154144,-0.2265300750732422,-0.08049031347036362
1789634959515122700,4.116122802734375,-0.027357321232557297,-0.06667330116033554,-0.12670175731182098
1789634959525162800,4.126162841796875,-0.022643260657787323,-0.03546132147312164,-0.17752738296985626
1789634959535202800,4.136202880859375,-0.04031200334429741,-0.06274513900279999,-0.2387039214372635
1789634959545241600,4.14624169921875,-0.0724174752831459,-0.06059597060084343,-0.33797991275787354
1789634959555281700,4.15628173828125,-0.11436572670936584,-0.14376169443130493,-0.4522324502468109
1789634959565320700,4.16632080078125,-0.19779084622859955,-0.3510245978832245,-0.5717183351516724
1789634959575360500,4.176360595703125,-0.30995625257492065,-0.5388826727867126,-0.6922394633293152
1789634959585400600,4.186400634765625,-0.4011780619621277,-0.5744550228118896,-0.824728786945343
1789634959595439600,4.196439697265625,-0.46896082162857056,-0.42140528559684753,-0.9839631915092468
1789634959605479700,4.206479736328125,-0.5005424618721008,-0.03598463162779808,-1.1871505975723267
1789634959615519500,4.21651953125,-0.5184969305992126,0.4323626160621643,-1.395200252532959
1789634959625558500,4.22655859375,-0.5509968400001526,0.6165937185287476,-1.508756160736084
1789634959635598600,4.2365986328125,-0.5832543969154358,0.4230705797672272,-1.5109615325927734
1789634959645637600,4.2466376953125,-0.6061123013496399,0.17084364593029022,-1.49441659450531
1789634959655677400,4.256677490234375,-0.6199833750724792,0.1271425038576126,-1.5327469110488892
1789634959665717500,4.266717529296875,-0.6278650164604187,0.32165980339050293,-1.6517380475997925
1789634959675756800,4.2767568359375,-0.6510850787162781,0.6258284449577332,-1.8460148572921753
1789634959685796900,4.286796875,-0.660356879234314,0.850732684135437,-2.014892339706421
1789634959695835600,4.296835693359375,-0.6308908462524414,0.8596231341362,-2.04917573928833
1789634959705876500,4.30687646484375,-0.5731527209281921,0.6738364696502686,-1.8965972661972046
1789634959715916500,4.31691650390625,-0.572340726852417,0.2999124228954315,-1.6338554620742798
1789634959725955600,4.32695556640625,-0.5986434817314148,0.023091204464435577,-1.5281723737716675
1789634959735995600,4.33699560546875,-0.5414576530456543,-0.10855843126773834,-1.6301499605178833
1789634959746035500,4.347035400390625,-0.38566914200782776,-0.2867260277271271,-1.8076887130737305
1789634959756074800,4.35707470703125,-0.18071597814559937,-0.5208397507667542,-1.987397313117981
1789634959766114600,4.367114501953125,0.014251107349991798,-0.6334235668182373,-2.1129164695739746
1789634959776153600,4.377153564453125,0.1435829997062683,-0.6505167484283447,-2.1120848655700684
1789634959786193700,4.387193603515625,0.17565996944904327,-0.5814517140388489,-1.9671037197113037
1789634959796233700,4.397233642578125,0.1570037305355072,-0.4220987856388092,-1.7713121175765991
1789634959806272500,4.4072724609375,0.12275388091802597,-0.19949153065681458,-1.6090196371078491
1789634959816312600,4.4173125,0.08246798068284988,-0.00609384523704648,-1.5272551774978638
1789634959826352600,4.4273525390625,0.033850640058517456,-0.0682605430483818,-1.5311402082443237
1789634959836391400,4.437391357421875,0.005415804218500853,-0.24896134436130524,-1.522587537765503
1789634959846431500,4.447431396484375,-0.007836617529392242,-0.44498199224472046,-1.4316225051879883
1789634959856470500,4.457470458984375,-0.018682608380913734,-0.5967193245887756,-1.3141696453094482
1789634959866510600,4.467510498046875,-0.028564799576997757,-0.6789382696151733,-1.1813547611236572
1789634959876550700,4.477550537109375,-0.007816378027200699,-0.7513624429702759,-1.05164635181427
1789634959886589400,4.48758935546875,0.03786882013082504,-0.7704783082008362,-0.9244551062583923
1789634959896629500,4.49762939453125,0.08469757437705994,-0.7025964856147766,-0.8219223618507385
1789634959906669600,4.507669677734375,0.09228918701410294,-0.5733889937400818,-0.7298715114593506
1789634959916708400,4.517708251953125,0.07604736089706421,-0.4682164788246155,-0.6248502731323242
1789634959926748400,4.52774853515625,0.07069840282201767,-0.3706662058830261,-0.49536260962486267
1789634959936787700,4.53778759765625,0.06051740422844887,-0.32983464002609253,-0.3497273623943329
1789634959946827800,4.547827880859375,0.05603503808379173,-0.2521728575229645,-0.25056377053260803
1789634959956867600,4.55786767578125,0.05602145567536354,-0.2068684995174408,-0.1791391223669052
1789634959966906600,4.56790673828125,0.0490461066365242,-0.2917916476726532,-0.15363749861717224
1789634959976946700,4.57794677734375,0.03136298432946205,-0.4007090628147125,-0.15896248817443848
1789634959986986800,4.58798681640625,-0.023635288700461388,-0.39973196387290955,-0.1892721951007843
1789634959997025500,4.598025634765625,-0.12300501763820648,-0.3551434576511383,-0.12644422054290771
1789634960007065600,4.608065673828125,-0.22777457535266876,-0.3110412359237671,0.014673218131065369
1789634960017104600,4.618104736328125,-0.3177894055843353,-0.310415655374527,0.1209152340888977
1789634960027144700,4.628144775390625,-0.3579197824001312,-0.3555618226528168,0.1455705165863037
1789634960037184500,4.6381845703125,-0.3622538149356842,-0.3676706850528717,0.12061456590890884
1789634960047223600,4.6482236328125,-0.3682408630847931,-0.27830779552459717,0.08310820162296295
1789634960057263600,4.658263671875,-0.3677383363246918,-0.04412831366062164,0.07422948628664017
1789634960067303700,4.6683037109375,-0.36821556091308594,0.14403121173381805,0.0841100811958313
1789634960077342500,4.678342529296875,-0.3538515567779541,0.20199809968471527,0.06060262769460678
1789634960087382500,4.688382568359375,-0.31156376004219055,0.06848691403865814,0.015748070552945137
1789634960097421600,4.698421630859375,-0.2663768231868744,0.18421484529972076,0.021032048389315605
1789634960107461400,4.70846142578125,-0.222209632396698,0.12801282107830048,-0.003486077766865492
1789634960117501400,4.71850146484375,-0.161556676030159,0.14195287227630615,-0.07936486601829529
1789634960127540500,4.72854052734375,-0.10391254723072052,0.24611549079418182,-0.13563372194766998
1789634960137580500,4.73858056640625,-0.07604390382766724,0.08312711119651794,-0.18150721490383148
1789634960147619600,4.74861962890625,-0.05402861535549164,-0.13366325199604034,-0.20471346378326416
1789634960157659600,4.75865966796875,-0.02389441430568695,-0.14279842376708984,-0.20266203582286835
1789634960167699500,4.768699462890625,0.01164706889539957,-0.03145219758152962,-0.22625550627708435
1789634960177738800,4.77873876953125,0.08085676282644272,-0.04180150851607323,-0.3162442445755005
1789634960187778600,4.788778564453125,0.16794106364250183,-0.25720009207725525,-0.4388950765132904
1789634960197818600,4.798818603515625,0.25057655572891235,-0.4561925530433655,-0.5943480134010315
1789634960207857700,4.808857666015625,0.35897892713546753,-0.3964381515979767,-0.6527588963508606
1789634960217897700,4.818897705078125,0.45873454213142395,-0.35072019696235657,-0.5980474352836609
1789634960227936500,4.8289365234375,0.5195619463920593,-0.4649064242839813,-0.5636401772499084
1789634960237976600,4.8389765625,0.514587938785553,-0.59617018699646,-0.5539969205856323
1789634960248016600,4.8490166015625,0.4557395577430725,-0.5560570955276489,-0.5163896083831787
1789634960258055400,4.859055419921875,0.3721567988395691,-0.4218713343143463,-0.44894397258758545
1789634960268095500,4.869095458984375,0.29284173250198364,-0.36899322271347046,-0.4037085771560669
1789634960278135600,4.879135498046875,0.23397308588027954,-0.4433515965938568,-0.40264493227005005
1789634960288174600,4.889174560546875,0.1981937736272812,-0.5371878147125244,-0.4236871004104614
1789634960298214700,4.899214599609375,0.20480960607528687,-0.5498735308647156,-0.43408700823783875
1789634960308253400,4.90925341796875,0.2377166897058487,-0.47617825865745544,-0.4058351218700409
1789634960318293500,4.91929345703125,0.23040764033794403,-0.4037488102912903,-0.3872118890285492
1789634960328333600,4.92933349609375,0.17216989398002625,-0.3711216151714325,-0.3597283363342285
1789634960338372400,4.939372314453125,0.10516263544559479,-0.3253307044506073,-0.30180832743644714
1789634960348412400,4.949412353515625,0.03448713570833206,-0.3362613618373871,-0.22692236304283142
1789634960358452500,4.959452392578125,-0.014566426165401936,-0.36301520466804504,-0.2279370278120041
1789634960368491800,4.96949169921875,-0.047992028295993805,-0.469149112701416,-0.2919628918170929
1789634960378531300,4.97953125,-0.07769026607275009,-0.5780388712882996,-0.38537004590034485
1789634960388570600,4.989570556640625,-0.10443506389856339,-0.6251706480979919,-0.46319907903671265
1789634960398610700,4.999610595703125,-0.134977787733078,-0.6229437589645386,-0.4556141197681427
1789634960408650800,5.009650634765625,-0.1730748414993286,-0.4905894100666046,-0.3848060071468353
1789634960418689500,5.019689453125,-0.22648081183433533,-0.3097567856311798,-0.3392225503921509
1789634960428729600,5.0297294921875,-0.2829936146736145,-0.3042179346084595,-0.3199596405029297
1789634960438769700,5.039769775390625,-0.3165995180606842,-0.3360232710838318,-0.3418249785900116
1789634960448808700,5.04980859375,-0.3100292384624481,-0.32737305760383606,-0.3876662254333496
1789634960458848500,5.0598486328125,-0.28591829538345337,-0.34790682792663574,-0.4257262647151947
1789634960468887600,5.069887451171875,-0.2502830922603607,-0.3276495039463043,-0.4138701558113098
1789634960478927600,5.079927734375,-0.24052844941616058,-0.3003193438053131,-0.4272932708263397
1789634960488967700,5.0899677734375,-0.239021897315979,-0.261476069688797,-0.4750043451786041
1789634960499006500,5.10000634765625,-0.21968814730644226,-0.12860643863677979,-0.5275506377220154
1789634960509046500,5.110046630859375,-0.17020581662654877,0.052494898438453674,-0.5502546429634094
1789634960519085600,5.12008544921875,-0.11362962424755096,0.10631152242422104,-0.5710027813911438
1789634960529125400,5.13012548828125,-0.06570763885974884,0.03804298862814903,-0.5890352725982666
1789634960539165400,5.14016552734375,-0.0030951257795095444,-0.08618255704641342,-0.5694464445114136
1789634960549204500,5.15020458984375,0.05222165957093239,-0.17576943337917328,-0.536917507648468
1789634960559244500,5.16024462890625,0.1096162423491478,-0.27599936723709106,-0.5181073546409607
1789634960569284600,5.17028466796875,0.1546819806098938,-0.3229556977748871,-0.5466505885124207
1789634960579323600,5.18032373046875,0.18828575313091278,-0.46147334575653076,-0.6102585792541504
1789634960589363500,5.190363525390625,0.18564336001873016,-0.6366478204727173,-0.6980879902839661
1789634960599402800,5.20040283203125,0.13254019618034363,-0.5928170084953308,-0.7236493229866028
1789634960609442600,5.210442626953125,0.07258738577365875,-0.4646795392036438,-0.7195571064949036
1789634960619482600,5.220482666015625,0.013629525899887085,-0.4553486108779907,-0.7271926403045654
1789634960629521700,5.230521728515625,-0.0267099067568779,-0.515541136264801,-0.7594472765922546
1789634960639561700,5.240561767578125,-0.03472895175218582,-0.5363239049911499,-0.7427330017089844
1789634960649601500,5.2506015625,-0.0029854036401957273,-0.5080845355987549,-0.6807276606559753
1789634960659640600,5.260640625,0.06720380485057831,-0.43867936730384827,-0.6140069365501404
1789634960669680600,5.2706806640625,0.15532700717449188,-0.31919610500335693,-0.5900195837020874
1789634960679719400,5.280719482421875,0.21739357709884644,-0.2730235457420349,-0.6222827434539795
1789634960689759500,5.290759521484375,0.22222134470939636,-0.26883864402770996,-0.660269021987915
1789634960699799600,5.300799560546875,0.1876380741596222,-0.303240567445755,-0.7223334312438965
1789634960709838000,5.310838134765625,0.15997235476970673,-0.3258841037750244,-0.7761487364768982
1789634960719878100,5.320878173828125,0.17485196888446808,-0.32033273577690125,-0.7340508103370667
1789634960729918200,5.330918212890625,0.22317422926425934,-0.2179376482963562,-0.6909249424934387
1789634960739957000,5.34095703125,0.2898339629173279,-0.16087676584720612,-0.654525876045227
1789634960749997000,5.3509970703125,0.3641158938407898,-0.13522173464298248,-0.6421768069267273
1789634960760036400,5.361036376953125,0.36361417174339294,-0.19947876036167145,-0.6539346575737
1789634960770076200,5.371076171875,0.3138849437236786,-0.25523310899734497,-0.6730282306671143
1789634960780116000,5.381115966796875,0.30535486340522766,-0.25017282366752625,-0.7916824221611023
1789634960790155300,5.3911552734375,0.2964625656604767,-0.47347700595855713,-0.9047117829322815
1789634960800195300,5.4011953125,0.27541986107826233,-0.674839973449707,-0.9794946908950806
1789634960810235100,5.411235107421875,0.19857993721961975,-0.7307817935943604,-0.9888610243797302
1789634960820274200,5.421274169921875,0.07551392912864685,-0.7281439304351807,-0.9707776308059692
1789634960830314200,5.431314208984375,-0.05319211632013321,-0.5996817946434021,-0.992989718914032
1789634960840353300,5.441353271484375,-0.1281377226114273,-0.2764638066291809,-1.0154105424880981
1789634960850393000,5.45139306640625,-0.13478204607963562,-0.03621739149093628,-1.0201257467269897
1789634960860433200,5.46143310546875,-0.17699554562568665,-0.12193629145622253,-1.0351227521896362
1789634960870472200,5.47147216796875,-0.21722818911075592,-0.16756077110767365,-0.9637079834938049
1789634960880512300,5.48151220703125,-0.2477187216281891,-0.14904913306236267,-0.8934388756752014
1789634960890552000,5.491552001953125,-0.27032148838043213,-0.034802988171577454,-0.8799659609794617
1789634960900591000,5.501591064453125,-0.310153603553772,0.10120730847120285,-0.8690562844276428
1789634960910631200,5.511631103515625,-0.3189273774623871,0.2576083838939667,-0.8658162951469421
1789634960920670000,5.521669921875,-0.2803967595100403,0.3701458275318146,-0.9252157211303711
1789634960930710000,5.5317099609375,-0.21029146015644073,0.45744770765304565,-1.0425268411636353
1789634960940750000,5.54175,-0.16745424270629883,0.5348016023635864,-1.1236324310302734
1789634960950789000,5.5517890625,-0.15979339182376862,0.5568888187408447,-1.112931489944458
1789634960960829200,5.5618291015625,-0.15395520627498627,0.44851094484329224,-1.0371513366699219
1789634960970869000,5.571868896484375,-0.12797634303569794,0.4175703525543213,-0.9719530940055847
1789634960980908000,5.581907958984375,-0.08972375839948654,0.43833500146865845,-0.9630445837974548
1789634960990948000,5.591947998046875,-0.06494757533073425,0.5737668871879578,-0.9996902346611023
1789634961000987100,5.601987060546875,0.030662838369607925,0.8638032078742981,-1.0831397771835327
1789634961011027200,5.612027099609375,0.1598820686340332,1.0537654161453247,-1.1964844465255737
1789634961021067300,5.6220673828125,0.28168708086013794,1.1715067625045776,-1.263548493385315
1789634961031106300,5.632106201171875,0.3366962671279907,1.1934309005737305,-1.2356334924697876
1789634961041146000,5.64214599609375,0.2967051863670349,1.1505252122879028,-1.1317241191864014
1789634961051186200,5.652186279296875,0.21325688064098358,1.0277931690216064,-1.0153656005859375
1789634961061225200,5.66222509765625,0.12799152731895447,0.8432838320732117,-0.9273076057434082
1789634961071265300,5.672265380859375,0.10787773132324219,0.7009596824645996,-0.7697890996932983
1789634961081304000,5.682303955078125,0.12470944225788116,0.7892400622367859,-0.6390132308006287
1789634961091344100,5.69234423828125,0.14642192423343658,0.7643219232559204,-0.5806980133056641
1789634961101384200,5.70238427734375,0.07321082800626755,0.4687056839466095,-0.40362921357154846
1789634961111423200,5.71242333984375,-0.10163021832704544,0.2082999348640442,-0.1218089908361435
1789634961121463000,5.722463134765625,-0.26118817925453186,0.20845893025398254,0.1516481190919876
1789634961131502000,5.732502197265625,-0.27974483370780945,0.3386289179325104,0.32117030024528503
1789634961141542100,5.742542236328125,-0.19869711995124817,0.3963601291179657,0.35456526279449463
1789634961151582200,5.752582275390625,-0.10344809293746948,0.40495574474334717,0.33855780959129333
1789634961161621000,5.76262109375,-0.07714352011680603,0.3470362424850464,0.3719154894351959
1789634961171661000,5.7726611328125,-0.12671878933906555,0.18068109452724457,0.47782889008522034
1789634961181701000,5.782701171875,-0.20919343829154968,-0.031795479357242584,0.5900710225105286
1789634961191740200,5.792740234375,-0.28943341970443726,-0.10784337669610977,0.7478281259536743
1789634961201780000,5.802780029296875,-0.35167255997657776,-0.12681759893894196,0.8868326544761658
1789634961211819300,5.8128193359375,-0.3956969976425171,-0.10984820127487183,0.9356345534324646
1789634961221859300,5.822859375,-0.42476141452789307,-0.16160008311271667,0.9966206550598145
1789634961231899100,5.832899169921875,-0.4104522466659546,-0.014164288528263569,1.0189176797866821
1789634961241938200,5.842938232421875,-0.39971837401390076,0.03886910155415535,0.999945342540741
1789634961251978200,5.852978271484375,-0.44332125782966614,-0.23628577589988708,0.9857176542282104
1789634961262018300,5.863018310546875,-0.564191997051239,-0.4096146821975708,1.0316076278686523
1789634961272057000,5.87305712890625,-0.7064242362976074,-0.38025999069213867,1.0608744621276855
1789634961282097200,5.88309716796875,-0.8198549151420593,-0.42519310116767883,1.0698364973068237
1789634961292136200,5.89313623046875,-0.8574188351631165,-0.4337913990020752,1.072795033454895
1789634961302176300,5.90317626953125,-0.7963021993637085,-0.28118613362312317,1.0543187856674194
1789634961312216000,5.913216064453125,-0.6740817427635193,-0.09106626361608505,0.9561123847961426
1789634961322255000,5.923255126953125,-0.5818053483963013,-0.1107102707028389,0.8536608219146729
1789634961332295200,5.933295166015625,-0.5864394903182983,-0.16708113253116608,0.8305834531784058
1789634961342335200,5.943335205078125,-0.6256446838378906,-0.16241633892059326,0.8519337773323059
1789634961352374000,5.9533740234375,-0.6516419649124146,-0.17468498647212982,0.9234932065010071
1789634961362414000,5.9634140625,-0.6413376331329346,-0.17858172953128815,1.0664676427841187
1789634961372453000,5.973453125,-0.563746988773346,-0.13496261835098267,1.1028765439987183
1789634961382493200,5.9834931640625,-0.4193514585494995,-0.07460100203752518,1.0390626192092896
1789634961392533000,5.993532958984375,-0.2804417908191681,0.020444821566343307,0.991423487663269
1789634961402572000,6.003572021484375,-0.17291425168514252,0.14511777460575104,0.9410817623138428
1789634961412612000,6.013612060546875,-0.09191474318504333,0.1924261748790741,0.9102585911750793
1789634961422652200,6.023652099609375,-0.028251877054572105,0.22929230332374573,0.962215006351471
1789634961432691200,6.033691162109375,0.019815782085061073,0.19850829243659973,1.0539121627807617
1789634961442731300,6.043731201171875,0.05272259935736656,0.19687311351299286,1.0802724361419678
1789634961452770300,6.053770263671875,0.07385185360908508,0.35661643743515015,1.0533462762832642
1789634961462810000,6.06381005859375,0.06503492593765259,0.6049580574035645,1.0084033012390137
1789634961472850200,6.07385009765625,0.04411393031477928,0.6798102259635925,0.9453824758529663
1789634961482889200,6.08388916015625,0.052568934857845306,0.5323701500892639,0.9039812684059143
1789634961492929300,6.09392919921875,0.054005179554224014,0.462056040763855,1.0142678022384644
1789634961502969000,6.103968994140625,0.020972659811377525,0.4414072334766388,1.1659526824951172
1789634961513008000,6.114008056640625,0.022280804812908173,0.353227823972702,1.2457489967346191
1789634961523048200,6.124048095703125,0.04502100497484207,0.3452647030353546,1.2484749555587769
1789634961533087200,6.134087158203125,0.06136402487754822,0.3291935920715332,1.1972893476486206
1789634961543127000,6.144126953125,0.0830826386809349,0.41992324590682983,1.1850364208221436
1789634961553167000,6.1541669921875,0.0741269588470459,0.5003594756126404,1.2909740209579468
1789634961563206100,6.1642060546875,0.08201897144317627,0.4673379063606262,1.4017921686172485
1789634961573246200,6.17424609375,0.1345394402742386,0.31852656602859497,1.437347173690796
1789634961583286000,6.1842861328125,0.15174877643585205,0.17883285880088806,1.4137388467788696
1789634961593325000,6.194324951171875,0.11451459676027298,0.32459378242492676,1.4493833780288696
1789634961603365000,6.204365234375,0.08097873628139496,0.5888645648956299,1.530342936515808
1789634961613404200,6.214404052734375,0.11414095014333725,0.6114436984062195,1.4910978078842163
1789634961623444000,6.22444384765625,0.13543052971363068,0.34119728207588196,1.300978183746338
1789634961633484000,6.234484130859375,0.0882430449128151,0.006672283634543419,1.1189391613006592
1789634961643523300,6.2445234375,-0.04006965458393097,-0.0057532270438969135,1.1177345514297485
1789634961653563100,6.254563232421875,-0.1944938451051712,0.3427847921848297,1.3035928010940552
1789634961663603000,6.26460302734375,-0.24792911112308502,0.5333051681518555,1.4853171110153198
1789634961673642200,6.274642333984375,-0.19531889259815216,0.3659614622592926,1.5251036882400513
1789634961683682300,6.284682373046875,-0.12021429091691971,0.1626158058643341,1.4416921138763428
1789634961693721000,6.29472119140625,-0.06541842222213745,0.08549279719591141,1.3005858659744263
1789634961703762000,6.304761962890625,-0.09662427753210068,-0.02532825991511345,1.1762897968292236
1789634961713802000,6.314802001953125,-0.22973865270614624,-0.09541253745555878,1.0998953580856323
1789634961723840800,6.3248408203125,-0.3754063844680786,-0.12022947520017624,1.1398569345474243
1789634961733880800,6.334880859375,-0.4590895473957062,-0.048278581351041794,1.2884615659713745
1789634961743921000,6.3449208984375,-0.4674375057220459,0.22105088829994202,1.4326118230819702
1789634961753959700,6.354959716796875,-0.4392663240432739,0.4609369933605194,1.474259614944458
1789634961763999700,6.364999755859375,-0.3827742636203766,0.397165983915329,1.383386492729187
1789634961774038800,6.375038818359375,-0.32716187834739685,0.08727765083312988,1.243390440940857
1789634961784078800,6.385078857421875,-0.2751937508583069,-0.273055762052536,1.1335572004318237
1789634961794119000,6.395118896484375,-0.22586482763290405,-0.48283669352531433,1.1162607669830322
1789634961804157700,6.40515771484375,-0.19874851405620575,-0.3798360228538513,1.1466330289840698
1789634961814197800,6.41519775390625,-0.20132459700107574,-0.016753412783145905,1.2126113176345825
1789634961824237800,6.42523779296875,-0.17114484310150146,0.3367284834384918,1.2426778078079224
1789634961834276600,6.435276611328125,-0.04939498007297516,0.4830758571624756,1.1856145858764648
1789634961844316700,6.445316650390625,0.14697666466236115,0.5348455905914307,1.0298467874526978
1789634961854355700,6.455355712890625,0.31213924288749695,0.49677273631095886,0.8417410850524902
1789634961864395800,6.465395751953125,0.3579150140285492,0.40683460235595703,0.6948416233062744
1789634961874435600,6.475435546875,0.3201758861541748,0.42109131813049316,0.623898983001709
1789634961884475000,6.485474853515625,0.2703550457954407,0.6262420415878296,0.5669499635696411
1789634961894514700,6.4955146484375,0.258079469203949,0.8358458876609802,0.513983964920044
1789634961904553700,6.5055537109375,0.2922414541244507,0.9052265286445618,0.451930433511734
1789634961914593800,6.51559375,0.313584566116333,0.9601231217384338,0.36823394894599915
1789634961924633900,6.5256337890625,0.30684036016464233,1.0175198316574097,0.2800348401069641
1789634961934673000,6.5356728515625,0.26481273770332336,0.868519127368927,0.18937258422374725
1789634961944713000,6.545712890625,0.3087109625339508,0.5429503917694092,0.08435296267271042
1789634961954752800,6.555752685546875,0.3659529387950897,0.4333309233188629,0.07139934599399567
1789634961964791800,6.565791748046875,0.2643648087978363,0.6765789985656738,0.18042916059494019
1789634961974831900,6.575831787109375,0.1154504269361496,0.9666020274162292,0.2944902181625366
1789634961984870700,6.58587060546875,0.066134013235569,1.0255159139633179,0.28055310249328613
1789634961994910700,6.59591064453125,0.09762243181467056,0.7859742045402527,0.18901599943637848
1789634962004950800,6.60595068359375,0.06882167607545853,0.4381136894226074,0.029227660968899727
1789634962014989800,6.61598974609375,0.05073028802871704,0.17059890925884247,-0.16787075996398926
1789634962025029600,6.626029541015625,0.14673085510730743,0.053151633590459824,-0.3609728515148163
1789634962035069700,6.636069580078125,0.3001798093318939,0.1663128137588501,-0.4886578321456909
1789634962045108700,6.646108642578125,0.3702276051044464,0.3202033042907715,-0.5146827697753906
1789634962055148800,6.656148681640625,0.30330953001976013,0.43889719247817993,-0.42745813727378845
1789634962065187600,6.6661875,0.23505592346191406,0.5388983488082886,-0.31684744358062744
1789634962075227600,6.6762275390625,0.2686045467853546,0.4339623749256134,-0.24995310604572296
1789634962085267700,6.686267822265625,0.32955554127693176,0.21557436883449554,-0.21170638501644135
1789634962095306800,6.696306640625,0.31553158164024353,0.2870815694332123,-0.3139483332633972
1789634962105346600,6.7063466796875,0.2667621970176697,0.5821685791015625,-0.4712713956832886
1789634962115386600,6.71638671875,0.24214792251586914,0.6201609969139099,-0.5327030420303345
1789634962125426000,6.726426025390625,0.21174341440200806,0.331932932138443,-0.4957663416862488
1789634962135466000,6.736466064453125,0.19588401913642883,0.07091731578111649,-0.43951958417892456
1789634962145504800,6.7465048828125,0.21425610780715942,0.1359596997499466,-0.4257957935333252
1789634962155544800,6.756544921875,0.26131629943847656,0.37573447823524475,-0.4484028220176697
1789634962165585000,6.7665849609375,0.3097922205924988,0.4714692533016205,-0.4639490246772766
1789634962175623700,6.776623779296875,0.34114640951156616,0.40290138125419617,-0.472808301448822
1789634962185663700,6.786663818359375,0.3553732931613922,0.374374121427536,-0.5000556111335754
1789634962195703800,6.796703857421875,0.3822490870952606,0.40150561928749084,-0.5461863875389099
1789634962205742800,6.806742919921875,0.4311157166957855,0.18446998298168182,-0.5361089706420898
1789634962215783000,6.816782958984375,0.44557347893714905,0.03467888385057449,-0.45718857645988464
1789634962225821700,6.82682177734375,0.45214030146598816,0.16918157041072845,-0.3708781898021698
1789634962235861800,6.83686181640625,0.47208496928215027,0.14186419546604156,-0.3096388280391693
1789634962245901800,6.84690185546875,0.45005157589912415,0.03834019973874092,-0.26805514097213745
1789634962255940600,6.856940673828125,0.37594354152679443,0.06673348695039749,-0.29106274247169495
1789634962265980700,6.866980712890625,0.31548604369163513,0.16597725450992584,-0.4466360807418823
1789634962276020700,6.877020751953125,0.35117241740226746,0.23307771980762482,-0.7280837297439575
1789634962286059800,6.887059814453125,0.4065118432044983,0.3954956531524658,-1.0188173055648804
1789634962296099600,6.897099609375,0.4552498161792755,0.7264237999916077,-1.2119550704956055
1789634962306139000,6.907138916015625,0.4973703622817993,0.9999533295631409,-1.2290877103805542
1789634962316178700,6.9171787109375,0.5428664684295654,1.0247124433517456,-1.1172724962234497
1789634962326218800,6.92721875,0.4738594591617584,0.8064895868301392,-0.9934759736061096
1789634962336257800,6.9372578125,0.3503790497779846,0.4744384288787842,-0.8915901184082031
1789634962346297900,6.9472978515625,0.28503653407096863,0.1412961483001709,-0.7966497540473938
1789634962356337700,6.957337646484375,0.28114619851112366,-0.2807919979095459,-0.6743760108947754
1789634962366377000,6.967376953125,0.2974971830844879,-0.5776785016059875,-0.5417519211769104
1789634962376416800,6.977416748046875,0.32225286960601807,-0.7080450654029846,-0.443747878074646
1789634962386455800,6.987455810546875,0.3255288302898407,-0.6076667904853821,-0.456526517868042
1789634962396496000,6.997495849609375,0.2079468071460724,-0.22227062284946442,-0.5700778365135193
1789634962406536000,7.007535888671875,0.13561002910137177,0.12206492573022842,-0.7373896241188049
1789634962416574700,7.01757470703125,0.24476315081119537,-0.08163334429264069,-0.7673054337501526
1789634962426614800,7.02761474609375,0.3309915065765381,-0.4444136619567871,-0.7203717827796936
1789634962436654800,7.03765478515625,0.26920777559280396,-0.5209702253341675,-0.7230055928230286
1789634962446693600,7.047693603515625,0.23598137497901917,-0.49931421875953674,-0.8283067345619202
1789634962456733700,7.057733642578125,0.2186034470796585,-0.4865177273750305,-0.9022414088249207
1789634962466772700,7.067772705078125,0.18694458901882172,-0.37907513976097107,-0.9448935389518738
1789634962476812800,7.077812744140625,0.16078248620033264,-0.25359711050987244,-0.9804328680038452
1789634962486852900,7.087852783203125,0.10949905961751938,-0.18114741146564484,-1.0323200225830078
1789634962496891600,7.0978916015625,0.0007688545738346875,-0.0707404837012291,-1.0712286233901978
1789634962506931700,7.107931640625,-0.0965326651930809,-0.10441642254590988,-1.0779956579208374
1789634962516970800,7.117970703125,-0.16764625906944275,-0.2554594576358795,-1.012958288192749
1789634962527010600,7.128010498046875,-0.20303301513195038,-0.5137059092521667,-0.9470903873443604
1789634962537050600,7.138050537109375,-0.1635042428970337,-0.8823167085647583,-0.9345628619194031
1789634962547090000,7.14808984375,-0.09595608711242676,-1.0299592018127441,-0.9187735319137573
1789634962557130000,7.1581298828125,-0.0341971181333065,-0.846846878528595,-0.9657093286514282
1789634962567169800,7.168169677734375,0.02171754650771618,-0.6478291153907776,-1.0873305797576904
1789634962577208800,7.178208740234375,0.039577238261699677,-0.6625076532363892,-1.1788625717163086
1789634962587249000,7.188248779296875,0.1145007461309433,-0.8198690414428711,-1.1902865171432495
1789634962597287700,7.19828759765625,0.1846207082271576,-0.8710235953330994,-1.149361252784729
1789634962607327700,7.20832763671875,0.21078947186470032,-0.8343539834022522,-1.1131502389907837
1789634962617367800,7.218367919921875,0.22470474243164062,-0.6229053735733032,-1.0490026473999023
1789634962627406800,7.22840673828125,0.23693984746932983,-0.5008463263511658,-0.9758591651916504
1789634962637447000,7.238447021484375,0.26478320360183716,-0.5566086769104004,-0.956908643245697
1789634962647486700,7.24848681640625,0.2535853981971741,-0.6944426894187927,-1.0511702299118042
1789634962657525800,7.25852587890625,0.25182265043258667,-0.8631528615951538,-1.2034116983413696
1789634962667565800,7.26856591796875,0.30952003598213196,-1.046946406364441,-1.3480663299560547
1789634962677604600,7.2786044921875,0.41191431879997253,-1.0910941362380981,-1.4783124923706055
1789634962687644700,7.288644775390625,0.49761325120925903,-1.0819491147994995,-1.52273690700531
1789634962697684700,7.298684814453125,0.4831823706626892,-1.0598998069763184,-1.4681743383407593
1789634962707723300,7.30872314453125,0.37004488706588745,-0.8726057410240173,-1.416321039199829
1789634962717763000,7.31876318359375,0.26388996839523315,-0.7390186786651611,-1.393322229385376
1789634962727803100,7.32880322265625,0.20175762474536896,-0.687847375869751,-1.3971766233444214
1789634962737842200,7.33884228515625,0.21839624643325806,-0.6872223019599915,-1.4716523885726929
1789634962747882200,7.34888232421875,0.2918584942817688,-0.8379117250442505,-1.5687811374664307
1789634962757921300,7.35892138671875,0.35125523805618286,-0.9947100877761841,-1.663368582725525
1789634962767961000,7.368961181640625,0.370709627866745,-0.9816214442253113,-1.7409038543701172
1789634962778001200,7.379001220703125,0.41084665060043335,-0.9636991620063782,-1.7322416305541992
1789634962788040200,7.389040283203125,0.43863487243652344,-0.8415546417236328,-1.6052459478378296
1789634962798080300,7.399080322265625,0.40535256266593933,-0.42291104793548584,-1.4781875610351562
1789634962808120300,7.409120361328125,0.3261307179927826,-0.20736384391784668,-1.4362118244171143
1789634962818159000,7.4191591796875,0.2393699735403061,-0.21808838844299316,-1.4139883518218994
1789634962828199200,7.42919921875,0.18407848477363586,-0.2646505534648895,-1.4652615785598755
1789634962838238200,7.43923828125,0.18065206706523895,-0.29176366329193115,-1.4672869443893433
1789634962848278000,7.449278076171875,0.16021950542926788,-0.2516727149486542,-1.4073299169540405
1789634962858318000,7.459318115234375,0.10623056441545486,-0.055574044585227966,-1.3571133613586426
1789634962868357000,7.469357177734375,0.06652416288852692,-0.02496154233813286,-1.3500831127166748
1789634962878397200,7.479397216796875,0.008822520263493061,0.012395949102938175,-1.3139961957931519
1789634962888437000,7.48943701171875,-0.06043378263711929,0.046368032693862915,-1.2552604675292969
1789634962898476000,7.49947607421875,-0.1062401533126831,0.2151152342557907,-1.193457007408142
1789634962908516000,7.50951611328125,-0.13307230174541473,0.3064081370830536,-1.1423161029815674
1789634962918555100,7.51955517578125,-0.1497306376695633,0.2888815999031067,-1.1106013059616089
1789634962928595000,7.529594970703125,-0.21063366532325745,0.25481659173965454,-1.0496231317520142
1789634962938635000,7.539635009765625,-0.2880440354347229,0.2845686078071594,-0.9304885268211365
1789634962948674300,7.54967431640625,-0.3261887729167938,0.3777659237384796,-0.8447735905647278
1789634962958714400,7.55971435546875,-0.32896456122398376,0.5234999656677246,-0.8473366498947144
1789634962968754200,7.569754150390625,-0.31049981713294983,0.6015055775642395,-0.8293064832687378
1789634962978793200,7.579793212890625,-0.30189248919487,0.5822762250900269,-0.6857101917266846
1789634962988833300,7.589833251953125,-0.30552956461906433,0.5585764646530151,-0.5349931120872498
1789634962998872000,7.5998720703125,-0.3047782778739929,0.6225336194038391,-0.42575371265411377
1789634963008912100,7.609912109375,-0.3101828992366791,0.6851538419723511,-0.28703737258911133
1789634963018952200,7.6199521484375,-0.3438396751880646,0.6936591863632202,-0.09088010340929031
1789634963028991200,7.6299912109375,-0.4579896628856659,0.6639601588249207,0.10903993248939514
1789634963039031000,7.640031005859375,-0.5967597961425781,0.6697269678115845,0.27762389183044434
1789634963049071000,7.650071044921875,-0.7320513129234314,0.6409805417060852,0.4324856400489807
1789634963059110100,7.660110107421875,-0.7953258752822876,0.7112246155738831,0.623141884803772
1789634963069150200,7.670150146484375,-0.7544865608215332,0.6984291672706604,0.7390703558921814
1789634963079189000,7.68018896484375,-0.69024258852005,0.6807220578193665,0.867095410823822
1789634963089229000,7.69022900390625,-0.6650456190109253,0.6471023559570312,1.0586755275726318
1789634963099269000,7.70026904296875,-0.6707541346549988,0.6447930932044983,1.2168304920196533
1789634963109308200,7.71030810546875,-0.6646616458892822,0.5915341377258301,1.3499584197998047
1789634963119348000,7.720347900390625,-0.6299712657928467,0.6769813895225525,1.519981861114502
1789634963129388000,7.730387939453125,-0.5313283205032349,0.8512488007545471,1.627366065979004
1789634963139427000,7.740427001953125,-0.4374670684337616,0.8285528421401978,1.5471943616867065
1789634963149467100,7.750467041015625,-0.41819244623184204,0.6382595896720886,1.4745118618011475
1789634963159506200,7.760506103515625,-0.4381278157234192,0.5514088273048401,1.5449926853179932
1789634963169546200,7.770546142578125,-0.44603633880615234,0.6252647042274475,1.6182363033294678
1789634963179586000,7.7805859375,-0.4389749765396118,0.6709285974502563,1.5448206663131714
1789634963189625000,7.790625,-0.44131162762641907,0.5447035431861877,1.4878761768341064
1789634963199665200,7.8006650390625,-0.4137026369571686,0.39327380061149597,1.5478886365890503
1789634963209705200,7.810705322265625,-0.3513529598712921,0.3573429584503174,1.6552197933197021
1789634963219744300,7.820744140625,-0.2880842387676239,0.5603314638137817,1.7425416707992554
1789634963229784300,7.830784423828125,-0.2295924425125122,0.7698884606361389,1.8025379180908203
1789634963239823000,7.840822998046875,-0.16938263177871704,0.8005115985870361,1.8637131452560425
1789634963249863200,7.85086328125,-0.10097641497850418,0.7312228083610535,1.8968937397003174
1789634963259903200,7.8609033203125,-0.046728357672691345,0.6952165961265564,1.916344404220581
1789634963269942000,7.87094189453125,-0.023962324485182762,0.6985769867897034,1.9390536546707153
1789634963279982000,7.880982177734375,-0.06614413112401962,0.7178001999855042,1.9734539985656738
1789634963290022100,7.891022216796875,-0.12947703897953033,0.625981330871582,2.029177665710449
1789634963300061200,7.901061279296875,-0.17062367498874664,0.4539310038089752,2.0925793647766113
1789634963310101000,7.91110107421875,-0.13538818061351776,0.3696960210800171,2.083233594894409
1789634963320140000,7.92114013671875,-0.09281409531831741,0.414269357919693,2.0196316242218018
1789634963330180000,7.93118017578125,-0.06903553009033203,0.4457726776599884,1.9289467334747314
1789634963340220200,7.94122021484375,-0.047208525240421295,0.29652461409568787,1.8630242347717285
1789634963350259000,7.951259033203125,-0.03229189291596413,0.011968245729804039,1.8486775159835815
1789634963360299000,7.961299072265625,0.035718318074941635,-0.019183281809091568,1.8727599382400513
1789634963370338300,7.97133837890625,0.13233166933059692,0.24912114441394806,1.933013916015625
1789634963380378400,7.98137841796875,0.2221209555864334,0.5524623990058899,1.9486291408538818
1789634963390418200,7.991418212890625,0.2893841564655304,0.5991422533988953,1.8665629625320435
1789634963400457200,8.001457275390624,0.30431222915649414,0.2993004322052002,1.7011058330535889
1789634963410497300,8.011497314453125,0.26295360922813416,-0.08755355328321457,1.5481135845184326
1789634963420537300,8.021537353515624,0.1834779530763626,-0.3259493410587311,1.492849588394165
1789634963430576000,8.031576171875,0.10095031559467316,-0.2297290712594986,1.5568392276763916
1789634963440616200,8.0416162109375,0.03176991268992424,0.04982907697558403,1.6802424192428589
1789634963450655200,8.0516552734375,0.043962396681308746,0.3909299373626709,1.7291330099105835
1789634963460695000,8.061695068359375,0.12407960742712021,0.536770224571228,1.683835506439209
1789634963470735000,8.071735107421874,0.2357075959444046,0.511509895324707,1.6268635988235474
1789634963480774100,8.081774169921875,0.2998538315296173,0.46792271733283997,1.6202932596206665
1789634963490814200,8.091814208984376,0.2694791555404663,0.5954346060752869,1.6141268014907837
1789634963500854300,8.101854248046875,0.15941283106803894,0.3905144929885864,1.5461586713790894
1789634963510893000,8.11189306640625,0.024092020466923714,-0.34823599457740784,1.3972558975219727
1789634963520933000,8.12193310546875,-0.04852119833230972,-0.697783887386322,1.2944302558898926
1789634963530972200,8.13197216796875,-0.09488523006439209,-0.1105390265583992,1.3833848237991333
1789634963541012000,8.142011962890624,-0.17763417959213257,0.7088266611099243,1.5211714506149292
1789634963551052000,8.152052001953125,-0.18235595524311066,1.0643181800842285,1.454373836517334
1789634963561091000,8.162091064453126,-0.0607680082321167,0.9221629500389099,1.2529491186141968
1789634963571131100,8.172131103515625,0.006779609248042107,0.528624951839447,1.1247162818908691
1789634963581171000,8.1821708984375,-0.0738888680934906,0.28467220067977905,1.0738917589187622
1789634963591210200,8.192210205078124,-0.10956777632236481,0.0470479354262352,0.9487026333808899
1789634963601250000,8.20225,-0.06714761257171631,-0.23564288020133972,0.7377965450286865
1789634963611289000,8.2122890625,-0.007926632650196552,-0.3262481391429901,0.5803856253623962
1789634963621329200,8.2223291015625,0.03437794744968414,-0.038892004638910294,0.5375739932060242
1789634963631369200,8.232369140625,0.05008020997047424,0.48915183544158936,0.5150886178016663
1789634963641408300,8.242408203125,0.09187106788158417,0.8459064960479736,0.4053850471973419
1789634963651448300,8.2524482421875,0.1996966004371643,0.800229012966156,0.2829661965370178
1789634963661488000,8.262488037109375,0.2104368656873703,0.620905339717865,0.19673703610897064
1789634963671527200,8.272527099609375,0.04271763563156128,0.3728923499584198,0.06266338378190994
1789634963681567200,8.282567138671874,-0.08323337137699127,-0.059491824358701706,-0.14127163589000702
1789634963691606000,8.29260595703125,-0.07919042557477951,-0.22952373325824738,-0.40416744351387024
1789634963701646000,8.30264599609375,0.009468336589634418,-0.19699083268642426,-0.6309904456138611
1789634963711687000,8.31268701171875,0.11172120273113251,-0.1610834300518036,-0.7506561279296875
1789634963721725700,8.3227255859375,0.14553669095039368,0.023301061242818832,-0.8244922757148743
1789634963731765800,8.332765869140625,0.17341892421245575,0.2504676282405853,-0.851248562335968
1789634963741805800,8.342805908203125,0.22416892647743225,0.28148919343948364,-0.816743016242981
1789634963751844900,8.352844970703124,0.1747473031282425,0.39567649364471436,-0.8206552267074585
1789634963761884700,8.362884765625,0.07019000500440598,0.675071120262146,-0.9000757336616516
1789634963771923700,8.372923828125,0.05688059329986572,0.7929671406745911,-0.9745236039161682
1789634963781963800,8.3829638671875,0.11366265267133713,0.7818998098373413,-1.0202090740203857
1789634963792003800,8.39300390625,0.14676733314990997,0.8285006284713745,-1.0172444581985474
1789634963802042600,8.403042724609374,0.15243054926395416,0.9487394094467163,-0.9410215616226196
1789634963812082700,8.413082763671875,0.2515091896057129,0.9328911900520325,-0.7958329319953918
1789634963822122800,8.423122802734374,0.4038526713848114,0.47882625460624695,-0.560375452041626
1789634963832161800,8.433161865234375,0.5139016509056091,-0.32866203784942627,-0.2965072989463806
1789634963842201600,8.44320166015625,0.43134447932243347,-0.7314627766609192,-0.10759064555168152
1789634963852241000,8.453240966796875,0.3320178985595703,-0.5939784049987793,-0.03556172177195549
1789634963862281000,8.463281005859375,0.24762524664402008,-0.22547467052936554,-0.11418143659830093
1789634963872320800,8.47332080078125,0.19717352092266083,0.15885835886001587,-0.31905707716941833
1789634963882359800,8.48335986328125,0.13826705515384674,0.28600218892097473,-0.5729045271873474
1789634963892399900,8.49339990234375,0.10180731862783432,0.3600258231163025,-0.7802106142044067
1789634963902440000,8.50343994140625,0.11899589747190475,0.47406771779060364,-0.9206300377845764
1789634963912478700,8.513478759765626,0.19774051010608673,0.4266274869441986,-1.0351717472076416
1789634963922518800,8.523518798828125,0.2290949672460556,0.24626517295837402,-1.1124916076660156
1789634963932557800,8.533557861328125,0.16803774237632751,0.057378869503736496,-1.0963640213012695
1789634963942598000,8.543597900390624,0.09668286889791489,0.06370467692613602,-1.0014649629592896
1789634963952637700,8.5536376953125,0.025242771953344345,0.2793075442314148,-0.8367132544517517
1789634963962676700,8.5636767578125,0.04560556635260582,0.41020190715789795,-0.6588175892829895
1789634963972716800,8.573716796875,0.1106487512588501,0.1790672242641449,-0.5928636193275452
1789634963982756900,8.5837568359375,0.09959156811237335,-0.16004106402397156,-0.6750649809837341
1789634963992795600,8.593795654296875,0.09659391641616821,-0.34773027896881104,-0.8234368562698364
1789634964002835700,8.603835693359375,0.17134112119674683,-0.5187805891036987,-0.8695303201675415
1789634964012874800,8.613874755859374,0.2431364804506302,-0.7191627025604248,-0.8526808023452759
1789634964022914600,8.62391455078125,0.24118492007255554,-0.6874234080314636,-0.9243152737617493
1789634964032954600,8.63395458984375,0.19440676271915436,-0.49052417278289795,-1.122459053993225
1789634964042993700,8.64399365234375,0.17287829518318176,-0.2835630178451538,-1.3391308784484863
1789634964053033700,8.65403369140625,0.19303496181964874,-0.4457077085971832,-1.476773977279663
1789634964063073800,8.66407373046875,0.22323574125766754,-0.561948299407959,-1.4679235219955444
1789634964073112800,8.67411279296875,0.2438073307275772,-0.6142972707748413,-1.3825076818466187
1789634964083153000,8.68415283203125,0.22705020010471344,-0.7962497472763062,-1.306141972541809
1789634964093192000,8.69419189453125,0.19563475251197815,-0.6980257034301758,-1.320471167564392
1789634964103231700,8.704231689453126,0.1162073016166687,-0.7330606579780579,-1.3905088901519775
1789634964113271800,8.714271728515625,0.07014180719852448,-0.8722180128097534,-1.4726303815841675
1789634964123310800,8.724310791015625,0.11060027778148651,-1.1355892419815063,-1.5607407093048096
1789634964133351000,8.734350830078125,0.17809170484542847,-1.260184407234192,-1.5918710231781006
1789634964143390700,8.744390625,0.23663730919361115,-0.8748961091041565,-1.5634164810180664
1789634964153429800,8.7544296875,0.3265538811683655,-0.6306596994400024,-1.504371166229248
1789634964163469800,8.7644697265625,0.40138018131256104,-0.8132851719856262,-1.4753683805465698
1789634964173508900,8.7745087890625,0.376575767993927,-0.9115193486213684,-1.532301664352417
1789634964183548700,8.784548583984375,0.3603499233722687,-0.8067178130149841,-1.5699739456176758
1789634964193588700,8.794588623046875,0.4063864052295685,-0.6977812051773071,-1.5693238973617554
1789634964203627800,8.804627685546874,0.49380946159362793,-0.89638352394104,-1.6025725603103638
1789634964213667800,8.814667724609375,0.5788937211036682,-1.2371448278427124,-1.655300498008728
1789634964223706600,8.82470654296875,0.5908374786376953,-1.2009402513504028,-1.5805895328521729
1789634964233746700,8.83474658203125,0.5532610416412354,-0.9618682861328125,-1.4812512397766113
1789634964243786800,8.844786865234376,0.5141568183898926,-0.8402478098869324,-1.492628574371338
1789634964253825800,8.85482568359375,0.5182833671569824,-0.9661202430725098,-1.6049963235855103
1789634964263865600,8.864865478515625,0.4613606929779053,-1.1490134000778198,-1.7251778841018677
1789634964273905700,8.87490576171875,0.4016377031803131,-1.168575644493103,-1.8685460090637207
1789634964283945000,8.884945068359375,0.4248644709587097,-1.1707786321640015,-1.936971664428711
1789634964293984800,8.89498486328125,0.521303117275238,-1.1466597318649292,-1.9002375602722168
1789634964304023800,8.90502392578125,0.5730835199356079,-0.8820083141326904,-1.7562018632888794
1789634964314064000,8.91506396484375,0.5529955625534058,-0.589138388633728,-1.579765796661377
1789634964324104000,8.92510400390625,0.5135935544967651,-0.3805667757987976,-1.5474989414215088
1789634964334142700,8.935142822265625,0.4939149022102356,-0.3207639157772064,-1.6685888767242432
1789634964344182800,8.945182861328124,0.4189392030239105,-0.4346204400062561,-1.7367637157440186
1789634964354222800,8.955222900390625,0.32278284430503845,-0.3998456597328186,-1.7564258575439453
1789634964364262000,8.965261962890626,0.3119267225265503,-0.047630369663238525,-1.669041395187378
1789634964374301700,8.9753017578125,0.28553932905197144,0.14732128381729126,-1.5909676551818848
1789634964384340700,8.9853408203125,0.20762057602405548,0.30929872393608093,-1.5046836137771606
1789634964394380800,8.995380859375,0.0862525999546051,0.39960917830467224,-1.4411193132400513
1789634964404420900,9.0054208984375,-0.015294800512492657,0.42005693912506104,-1.403700590133667
1789634964414459600,9.015459716796874,-0.057685401290655136,0.2729830741882324,-1.378170132637024
1789634964424499700,9.025499755859375,-0.13527074456214905,0.15401460230350494,-1.2714327573776245
1789634964434539800,9.035539794921876,-0.254529744386673,0.17839264869689941,-1.0342687368392944
1789634964444578800,9.045578857421875,-0.2978660464286804,0.2774888575077057,-0.8744622468948364
1789634964454618600,9.05561865234375,-0.2608933746814728,0.5416232943534851,-0.7843560576438904
1789634964464657700,9.06565771484375,-0.197851300239563,0.6645670533180237,-0.6336213946342468
1789634964474697700,9.07569775390625,-0.16594742238521576,0.6203998923301697,-0.43441909551620483
1789634964484737800,9.08573779296875,-0.1578037440776825,0.6583856344223022,-0.27541160583496094
1789634964494776800,9.09577685546875,-0.19352419674396515,0.5342391729354858,-0.1673423945903778
1789634964504817000,9.10581689453125,-0.28607648611068726,0.21756267547607422,-0.052813414484262466
1789634964514856700,9.115856689453125,-0.40142759680747986,0.11335185915231705,0.08244587481021881
1789634964524895700,9.125895751953125,-0.3967718482017517,0.18458901345729828,0.2142302691936493
1789634964534935800,9.135935791015624,-0.35359081625938416,0.16030818223953247,0.20504742860794067
1789634964544974800,9.145974853515625,-0.395479679107666,0.08430715650320053,0.22037072479724884
1789634964555015000,9.156014892578124,-0.42439550161361694,0.1129760891199112,0.41132602095603943
1789634964565054700,9.1660546875,-0.3996584415435791,0.2829078733921051,0.6041684746742249
1789634964575093800,9.17609375,-0.3144788444042206,0.4889678359031677,0.5974814891815186
1789634964585133800,9.1861337890625,-0.2563880980014801,0.3378691077232361,0.5837981700897217
1789634964595174000,9.196173828125,-0.282322496175766,0.12250594049692154,0.7641639709472656
1789634964605212700,9.206212646484374,-0.34411051869392395,0.18768681585788727,1.0110480785369873
1789634964615252700,9.216252685546875,-0.4059978425502777,0.4629567265510559,1.0989004373550415
1789634964625292800,9.226292724609374,-0.3921792209148407,0.6292679309844971,1.0003753900527954
1789634964635331800,9.236331787109375,-0.2857246994972229,0.5464510917663574,0.9144831895828247
1789634964645371600,9.24637158203125,-0.19744622707366943,0.4642036259174347,1.0333895683288574
1789634964655410700,9.25641064453125,-0.19516336917877197,0.5138822197914124,1.26451575756073
1789634964665450800,9.26645068359375,-0.27594131231307983,0.7034593224525452,1.4401211738586426
1789634964675490800,9.27649072265625,-0.33373376727104187,0.7281689643859863,1.4902620315551758
1789634964685529600,9.286529541015625,-0.33693167567253113,0.5955744385719299,1.523023247718811
1789634964695569700,9.296569580078126,-0.33843663334846497,0.5809041261672974,1.6126545667648315
1789634964705609700,9.306609619140625,-0.3662025034427643,0.726853609085083,1.6810181140899658
1789634964715648800,9.316648681640626,-0.3616998791694641,0.6929033994674683,1.6685090065002441
1789634964725688600,9.3266884765625,-0.35306885838508606,0.5099111795425415,1.6955989599227905
1789634964735727900,9.336727783203125,-0.38219717144966125,0.5469855666160583,1.8359811305999756
1789634964745768000,9.346767822265624,-0.383750855922699,0.7426544427871704,1.943402886390686
1789634964755808000,9.35680810546875,-0.31110647320747375,0.8255610466003418,1.904481053352356
1789634964765846800,9.3668466796875,-0.2271474003791809,0.7879191040992737,1.8339389562606812
1789634964775886800,9.376886962890625,-0.19382326304912567,0.7930917739868164,1.8815221786499023
1789634964785926000,9.38692578125,-0.19956716895103455,0.8575072288513184,2.053929567337036
1789634964795966000,9.396966064453125,-0.24416287243366241,0.8370437622070312,2.2584598064422607
1789634964806005800,9.407005859375,-0.2782483994960785,0.6042805910110474,2.364454507827759
1789634964816044800,9.417044921875,-0.31547459959983826,0.3809286952018738,2.371675491333008
1789634964826084900,9.4270849609375,-0.38813281059265137,0.44485893845558167,2.3552260398864746
1789634964836125000,9.437125,-0.4168078899383545,0.5865811705589294,2.3430111408233643
1789634964846163700,9.447163818359375,-0.37388119101524353,0.5725370049476624,2.2716097831726074
1789634964856203800,9.457203857421876,-0.30952349305152893,0.40643832087516785,2.1278719902038574
1789634964866242800,9.467242919921874,-0.2682269215583801,0.15161429345607758,1.9729105234146118
1789634964876282600,9.47728271484375,-0.29136791825294495,-0.006977215874940157,1.9251192808151245
1789634964886322700,9.48732275390625,-0.39200133085250854,0.13469229638576508,2.0562334060668945
1789634964896361700,9.49736181640625,-0.4594610631465912,0.3391450345516205,2.186948776245117
1789634964906401800,9.50740185546875,-0.4712836444377899,0.3320003151893616,2.1477503776550293
1789634964916441900,9.51744189453125,-0.5106449127197266,0.27095505595207214,1.9701905250549316
1789634964926481000,9.52748095703125,-0.5208029747009277,0.2891165018081665,1.8396048545837402
1789634964936520700,9.537520751953124,-0.39104339480400085,0.3317851424217224,1.8145219087600708
1789634964946560000,9.54756005859375,-0.1717320829629898,0.261922150850296,1.8050119876861572
1789634964956599800,9.557599853515624,-0.003621100215241313,0.12362100929021835,1.708720326423645
1789634964966639900,9.567639892578125,0.03334251046180725,0.20274938642978668,1.6097074747085571
1789634964976679000,9.577678955078126,0.03328871354460716,0.5393468141555786,1.6011265516281128
1789634964986719000,9.587718994140625,0.07657546550035477,0.6700268387794495,1.603507399559021
1789634964996758800,9.5977587890625,0.16351009905338287,0.3753179609775543,1.4948656558990479
1789634965006797800,9.6077978515625,0.1750253438949585,0.012914999388158321,1.3736950159072876
1789634965016838000,9.617837890625,0.156907856464386,0.053030725568532944,1.3460087776184082
1789634965026877000,9.627876953125,0.16527870297431946,0.4363570809364319,1.3570570945739746
1789634965036916700,9.637916748046875,0.20167666673660278,0.6697554588317871,1.2787636518478394
1789634965046956800,9.647956787109376,0.24514131247997284,0.569349467754364,1.0996432304382324
1789634965056995800,9.657995849609375,0.2374596893787384,0.23128195106983185,0.9065035581588745
1789634965067036000,9.668035888671875,0.21383851766586304,-0.13077186048030853,0.7592539191246033
1789634965077075700,9.67807568359375,0.19221551716327667,-0.258370578289032,0.6305164098739624
1789634965087114800,9.68811474609375,0.17299868166446686,-0.21149148046970367,0.5306937098503113
1789634965097154800,9.69815478515625,0.2045869678258896,-0.15462233126163483,0.5018913745880127
1789634965107193600,9.708193603515625,0.24435913562774658,-0.0828980803489685,0.510091245174408
1789634965117233700,9.718233642578125,0.2549252212047577,0.14670582115650177,0.449648916721344
1789634965127273700,9.728273681640625,0.25960680842399597,0.31606554985046387,0.3041026294231415
1789634965137312800,9.738312744140625,0.24376019835472107,0.17613375186920166,0.14220374822616577
1789634965147352600,9.7483525390625,0.18001823127269745,-0.07744312286376953,0.015624766238033772
1789634965157392600,9.758392578125,0.07317141443490982,-0.23953215777873993,-0.07868576049804688
1789634965167432000,9.768431884765626,0.035782765597105026,-0.15417225658893585,-0.16029833257198334
1789634965177472000,9.778471923828125,0.005891711451113224,0.04566016420722008,-0.22212068736553192
1789634965187510800,9.7885107421875,0.0028754149097949266,0.2621413469314575,-0.28182077407836914
1789634965197550800,9.79855078125,-0.026876088231801987,0.40755951404571533,-0.3719799518585205
1789634965207591000,9.8085908203125,-0.06101994588971138,0.45385509729385376,-0.5327605605125427
1789634965217630000,9.8186298828125,-0.07513443380594254,0.27546167373657227,-0.7605982422828674
1789634965227669800,9.828669677734375,-0.07129468768835068,-0.01858540251851082,-1.0058082342147827
1789634965237709800,9.838709716796876,-0.09232193976640701,-0.04538106173276901,-1.1688957214355469
1789634965247748900,9.848748779296875,-0.08658948540687561,0.26738351583480835,-1.1966335773468018
1789634965257789000,9.858788818359375,-0.05434180051088333,0.5959100127220154,-1.0916403532028198
1789634965267827700,9.86882763671875,0.05813281238079071,0.8011342287063599,-0.9212995171546936
1789634965277867800,9.87886767578125,0.1674148291349411,0.7581683993339539,-0.7405518293380737
1789634965287907800,9.888907958984374,0.21036095917224884,0.531768262386322,-0.6187849640846252
1789634965297946600,9.898946533203125,0.19383658468723297,0.16857916116714478,-0.5367393493652344
1789634965307986700,9.908986572265626,0.17320320010185242,-0.25113874673843384,-0.49928465485572815
1789634965318026800,9.91902685546875,0.14000238478183746,-0.5296305418014526,-0.5425618290901184
1789634965328065800,9.929065673828125,0.11825820058584213,-0.6218124032020569,-0.648476779460907
1789634965338105900,9.93910595703125,0.14823846518993378,-0.5166825652122498,-0.7746435403823853
1789634965348145000,9.949144775390625,0.17514385282993317,-0.23525778949260712,-0.9310445785522461
1789634965358184700,9.959184814453126,0.2327088713645935,-0.06701232492923737,-1.0858863592147827
1789634965368224800,9.969224853515625,0.3447113037109375,-0.07306728512048721,-1.1527860164642334
1789634965378263800,9.979263916015626,0.406575471162796,0.0028730181511491537,-1.10805082321167
1789634965388304000,9.989303955078125,0.38068529963493347,0.20933032035827637,-1.0422520637512207
1789634965398343700,9.99934375,0.2689230740070343,0.36545413732528687,-1.0290497541427612
1789634965408383000,10.009383056640624,0.10765668749809265,0.3651047348976135,-1.0596129894256592
1789634965418422800,10.0194228515625,-0.029219670221209526,0.20825625956058502,-1.2084977626800537
1789634965428461800,10.0294619140625,-0.05576712638139725,0.012121111154556274,-1.3674319982528687
1789634965438502000,10.039501953125,0.020955082029104233,-0.2914566099643707,-1.4440314769744873
1789634965448542000,10.0495419921875,0.09162472188472748,-0.7736762762069702,-1.4011833667755127
1789634965458580700,10.059580810546874,0.09603571891784668,-1.0587178468704224,-1.2818009853363037
1789634965468620800,10.069620849609375,0.06712470948696136,-0.9109752774238586,-1.1331441402435303
1789634965478660900,10.079660888671874,0.004896221682429314,-0.533846378326416,-1.063222885131836
1789634965488700000,10.089699951171875,-0.015195731073617935,-0.4462997317314148,-1.1024770736694336
1789634965498739700,10.09973974609375,0.03351641446352005,-0.5364607572555542,-1.1604716777801514
1789634965508778800,10.10977880859375,0.09335311502218246,-0.5778870582580566,-1.2560807466506958
1789634965518818800,10.11981884765625,0.14247165620326996,-0.7663261890411377,-1.396478533744812
1789634965528859000,10.12985888671875,0.2068900614976883,-1.1440093517303467,-1.5860748291015625
1789634965538897700,10.139897705078125,0.24764761328697205,-1.2754250764846802,-1.7115222215652466
1789634965548937700,10.149937744140624,0.2435775101184845,-1.1519441604614258,-1.672495722770691
1789634965558977800,10.159977783203125,0.17910343408584595,-0.9828007221221924,-1.5796340703964233
1789634965569016600,10.1700166015625,0.08872880041599274,-0.7460675239562988,-1.6036871671676636
1789634965579056600,10.180056640625,0.04700985178351402,-0.6879640221595764,-1.6864826679229736
1789634965589096000,10.190095947265625,0.06820142269134521,-0.8190810084342957,-1.7806270122528076
1789634965599136000,10.200135986328124,0.12474299967288971,-0.9769694805145264,-1.8025126457214355
1789634965609175800,10.21017578125,0.2054722011089325,-1.0071430206298828,-1.7316088676452637
1789634965619214800,10.22021484375,0.3272641599178314,-0.5530226826667786,-1.6038652658462524
1789634965629255000,10.2302548828125,0.41010791063308716,-0.2101372629404068,-1.5369648933410645
1789634965639295000,10.240294921875,0.40035247802734375,-0.6902852058410645,-1.6479475498199463
1789634965649333800,10.250333740234375,0.40558159351348877,-0.938898503780365,-1.8773565292358398
1789634965659373800,10.260373779296875,0.4314403533935547,-1.071075439453125,-2.072805166244507
1789634965669412900,10.270412841796874,0.47202637791633606,-1.201676368713379,-2.1719095706939697
1789634965679453000,10.280452880859375,0.48066940903663635,-1.0945746898651123,-2.1415650844573975
1789634965689492700,10.29049267578125,0.44597721099853516,-0.8464365005493164,-1.972084879875183
1789634965699531800,10.30053173828125,0.3978120684623718,-0.4367096722126007,-1.7943748235702515
1789634965709570800,10.31057080078125,0.36206474900245667,-0.21145951747894287,-1.7344774007797241
1789634965719611000,10.32061083984375,0.40437623858451843,-0.2887766659259796,-1.828996181488037
1789634965729649700,10.330649658203125,0.45083028078079224,-0.35538819432258606,-1.9165912866592407
1789634965739689700,10.340689697265624,0.42615264654159546,-0.28517580032348633,-1.8632404804229736
1789634965749729000,10.35072900390625,0.3928506076335907,-0.0854824110865593,-1.7464301586151123
1789634965759769000,10.36076904296875,0.3319571614265442,0.004487160127609968,-1.6871247291564941
1789634965769809000,10.370808837890625,0.24242143332958221,-0.03508155420422554,-1.5929063558578491
1789634965779848000,10.380847900390625,0.209658682346344,-0.16174842417240143,-1.453116774559021
1789634965789888000,10.390887939453124,0.19022640585899353,-0.25178271532058716,-1.2574671506881714
1789634965799928000,10.400927978515625,0.11237847059965134,-0.19381074607372284,-1.046941876411438
1789634965809966800,10.410966796875,0.018146513029932976,-0.0234102513641119,-0.895559549331665
1789634965820007000,10.4210068359375,0.004476241301745176,0.35213354229927063,-0.7907314300537109
1789634965830046000,10.4310458984375,0.10088133811950684,0.5250624418258667,-0.7680508494377136
1789634965840086000,10.4410859375,0.18021264672279358,0.33825793862342834,-0.7434054613113403
1789634965850125800,10.451125732421875,0.13489390909671783,0.12269449234008789,-0.5932662487030029
1789634965860164900,10.461164794921874,0.027459587901830673,0.058149322867393494,-0.372648686170578
1789634965870205000,10.471204833984375,-0.05655568838119507,0.15929298102855682,-0.25202906131744385
1789634965880245000,10.481244873046874,-0.11551141738891602,0.22170975804328918,-0.22998712956905365
1789634965890283800,10.49128369140625,-0.12866343557834625,0.3576233685016632,-0.19772160053253174
1789634965900323800,10.50132373046875,-0.10912542045116425,0.45909222960472107,-0.08512208610773087
1789634965910363000,10.51136279296875,-0.05495832487940788,0.5568496584892273,0.043426305055618286
1789634965920403000,10.52140283203125,-0.03524240851402283,0.530339777469635,0.09856172651052475
1789634965930442800,10.53144287109375,-0.09156746417284012,0.2766273319721222,0.18333280086517334
1789634965940481800,10.541481689453125,-0.19954825937747955,0.23433154821395874,0.4413595497608185
1789634965950521900,10.55152197265625,-0.3116433620452881,0.4566114842891693,0.8033747673034668
1789634965960562000,10.56156201171875,-0.36710265278816223,0.8432769179344177,1.107086181640625
1789634965970601000,10.57160107421875,-0.29594990611076355,1.0285605192184448,1.245923638343811
1789634965980640800,10.581640869140625,-0.19626325368881226,0.9501149654388428,1.259567379951477
1789634965990680000,10.59168017578125,-0.1796475201845169,0.8058597445487976,1.3388749361038208
1789634966000720000,10.601719970703124,-0.28293371200561523,0.6539285182952881,1.5106863975524902
1789634966010760000,10.611760009765625,-0.4104138910770416,0.6202523708343506,1.7203007936477661
1789634966020799000,10.621799072265626,-0.5332396626472473,0.9317942261695862,2.015897035598755
1789634966030839000,10.631839111328125,-0.507399320602417,1.0244437456130981,2.1171140670776367
1789634966040878800,10.64187890625,-0.3764362335205078,0.8058581352233887,2.02846622467041
1789634966050918000,10.65191796875,-0.30675992369651794,0.67649245262146,2.0872087478637695
1789634966060958000,10.6619580078125,-0.31362423300743103,0.7049504518508911,2.3000452518463135
1789634966070997000,10.6719970703125,-0.2633855640888214,0.7734999656677246,2.4234089851379395
1789634966081036800,10.682036865234375,-0.19291912019252777,0.851104199886322,2.331794500350952
1789634966091076900,10.692076904296876,-0.16143204271793365,0.7594387531280518,2.1720263957977295
1789634966101116000,10.702115966796875,-0.19645047187805176,0.5783016681671143,2.153485059738159
1789634966111156000,10.712156005859375,-0.2899681627750397,0.4596240520477295,2.2978405952453613
1789634966121195800,10.72219580078125,-0.4003024101257324,0.4411531686782837,2.4539875984191895
1789634966131234800,10.73223486328125,-0.45145320892333984,0.4627801477909088,2.5260255336761475
1789634966141275000,10.74227490234375,-0.4080790877342224,0.4553169310092926,2.4726076126098633
1789634966151313700,10.752313720703125,-0.31598910689353943,0.3381546139717102,2.403496026992798
1789634966161353700,10.762353759765626,-0.22632475197315216,0.16935840249061584,2.396671772003174
1789634966171393800,10.772393798828125,-0.18977153301239014,0.1092468649148941,2.4504144191741943
1789634966181433000,10.78243310546875,-0.2379550337791443,0.229680597782135,2.509568929672241
1789634966191473000,10.792472900390624,-0.30796343088150024,0.3748423159122467,2.510887861251831
1789634966201512700,10.8025126953125,-0.31321224570274353,0.2862176299095154,2.395097017288208
1789634966211552000,10.812552001953126,-0.27093374729156494,0.005898635368794203,2.222062826156616
1789634966221592000,10.822592041015625,-0.25456756353378296,-0.19691546261310577,2.096590757369995
1789634966231630800,10.832630859375,-0.2645493745803833,-0.15042945742607117,2.081660747528076
1789634966241671000,10.8426708984375,-0.21421189606189728,-0.09993618726730347,2.110748052597046
1789634966251711000,10.8527109375,-0.1304171234369278,-0.11443976312875748,2.089418888092041
1789634966261750000,10.86275,-0.10925405472517014,-0.0016735304379835725,2.0391781330108643
1789634966271789800,10.872789794921875,-0.12355682253837585,0.221631720662117,1.9724785089492798
1789634966281830000,10.882829833984376,-0.12532728910446167,0.30261632800102234,1.8459482192993164
1789634966291869000,10.892868896484375,-0.11465360969305038,0.11842145025730133,1.6919221878051758
1789634966301909000,10.902908935546876,-0.07291442155838013,-0.10116363316774368,1.5392184257507324
1789634966311947800,10.91294775390625,0.04014049470424652,-0.13460388779640198,1.4301068782806396
1789634966321987800,10.92298779296875,0.17425009608268738,0.011681423522531986,1.380264163017273
1789634966332028000,10.93302783203125,0.23176105320453644,0.20978039503097534,1.3379534482955933
1789634966342067000,10.94306689453125,0.13465234637260437,0.4013596773147583,1.3005030155181885
1789634966352106800,10.953106689453126,0.03728984668850899,0.3418731689453125,1.308614730834961
1789634966362146800,10.963146728515625,0.010869958437979221,0.2105335295200348,1.3054852485656738
1789634966372185900,10.973185791015625,-0.04108964651823044,0.3197769224643707,1.2195155620574951
1789634966382226000,10.983225830078124,-0.06797665357589722,0.5365462899208069,1.0723901987075806
1789634966392265000,10.993264892578125,-0.01900564879179001,0.6611156463623047,0.9353349208831787
1789634966402304800,11.0033046875,0.03881663829088211,0.651905357837677,0.8516645431518555
1789634966412344800,11.0133447265625,0.15493471920490265,0.3447757661342621,0.786401093006134
1789634966422383900,11.0233837890625,0.28158000111579895,0.058524563908576965,0.666556715965271
1789634966432424000,11.033423828125,0.23028700053691864,-0.029018068686127663,0.4580570459365845
1789634966442464000,11.043464111328126,0.07535015046596527,0.019356386736035347,0.19201630353927612
1789634966452503000,11.0535029296875,-0.06348469853401184,0.11162187159061432,-0.05576259642839432
1789634966462543000,11.063543212890625,-0.11882385611534119,0.23303112387657166,-0.20378482341766357
1789634966472582000,11.073581787109376,-0.08859697729349136,0.3868909776210785,-0.27552852034568787
1789634966482622000,11.0836220703125,0.007417169865220785,0.49191194772720337,-0.3543703258037567
1789634966492662000,11.093662109375,0.061046842485666275,0.5126422643661499,-0.5007616281509399
1789634966502700800,11.10370068359375,0.06808477640151978,0.5111271739006042,-0.6904308795928955
1789634966512740900,11.113740966796875,0.014698784798383713,0.5045813918113708,-0.8469560742378235
1789634966522781000,11.123781005859374,0.006810501683503389,0.3171286880970001,-0.91805499792099
1789634966532820000,11.133820068359375,0.02208000235259533,0.03291693702340126,-0.9125078916549683
1789634966542859800,11.14385986328125,0.009849701076745987,-0.0037169738207012415,-0.8728630542755127
1789634966552899800,11.15389990234375,0.031140875071287155,0.16500653326511383,-0.7946009635925293
1789634966562939000,11.16393896484375,0.12044785171747208,0.27977731823921204,-0.6807639002799988
1789634966572979000,11.17397900390625,0.21704496443271637,0.42634066939353943,-0.6100577712059021
1789634966583017700,11.184017822265625,0.1991192251443863,0.719598650932312,-0.5904345512390137
1789634966593057800,11.194057861328124,0.10213915258646011,1.0520412921905518,-0.6201702952384949
1789634966603097900,11.204097900390625,0.09773028641939163,0.8755730390548706,-0.7038694620132446
1789634966613137000,11.214136962890626,0.13796718418598175,0.25509700179100037,-0.8204174041748047
1789634966623176700,11.2241767578125,0.20102472603321075,-0.27589151263237,-0.9341434240341187
1789634966633216000,11.234216064453125,0.2557673156261444,-0.649519145488739,-0.9879046678543091
1789634966643256000,11.244256103515625,0.26376667618751526,-0.7431737184524536,-1.045685887336731
1789634966653295900,11.2542958984375,0.14833247661590576,-0.562325656414032,-1.0871998071670532
1789634966663335000,11.2643349609375,-0.046428482979536057,-0.01925225742161274,-1.085654377937317
1789634966673375000,11.274375,-0.15460342168807983,0.43212398886680603,-1.0006662607192993
1789634966683415000,11.2844150390625,-0.15502020716667175,0.695837140083313,-0.8504921793937683
1789634966693453800,11.294453857421875,-0.1328134387731552,0.8531205058097839,-0.7835446000099182
1789634966703494000,11.304493896484376,-0.08502594381570816,0.6759536862373352,-0.9368787407875061
1789634966713533400,11.314533447265624,0.027636954560875893,0.2624550461769104,-1.1217626333236694
1789634966723573500,11.324573486328125,0.15413683652877808,-0.15221643447875977,-1.2492398023605347
1789634966733613600,11.334613525390624,0.26246970891952515,-0.6629297733306885,-1.238513469696045
1789634966743652600,11.344652587890625,0.32901543378829956,-1.102017879486084,-1.1467177867889404
1789634966753692700,11.354692626953126,0.3457675278186798,-1.185845136642456,-1.0937498807907104
1789634966763732500,11.364732421875,0.3483462631702423,-1.032278299331665,-1.168052077293396
1789634966773771500,11.374771484375,0.37785568833351135,-1.0443447828292847,-1.3955256938934326
1789634966783811600,11.3848115234375,0.42519763112068176,-1.171715497970581,-1.6307765245437622
1789634966793851600,11.3948515625,0.4682324528694153,-1.104028582572937,-1.7138493061065674
1789634966803890400,11.404890380859374,0.4399917721748352,-0.7135873436927795,-1.689813256263733
1789634966813930500,11.414930419921875,0.3644978106021881,-0.15398770570755005,-1.6414930820465088
1789634966823969500,11.424969482421876,0.2835307717323303,-0.2750696539878845,-1.6493563652038574
1789634966834009300,11.43500927734375,0.2974761426448822,-0.6666076183319092,-1.756134271621704
1789634966844049400,11.44504931640625,0.31141459941864014,-0.9195570349693298,-1.862319827079773
1789634966854088400,11.45508837890625,0.31980621814727783,-1.1779850721359253,-1.9147549867630005
1789634966864128500,11.46512841796875,0.3098992705345154,-1.0386594533920288,-1.9010906219482422
1789634966874167600,11.47516748046875,0.3165377378463745,-0.5424076318740845,-1.7890812158584595
1789634966884207400,11.485207275390625,0.3636415898799896,-0.28337526321411133,-1.6455134153366089
1789634966894247400,11.495247314453126,0.4370865225791931,-0.3466847240924835,-1.57011079788208
1789634966904286700,11.50528662109375,0.4351791739463806,-0.44109058380126953,-1.6187012195587158
1789634966914326500,11.515326416015625,0.42398563027381897,-0.5722405910491943,-1.8423271179199219
1789634966924366600,11.52536669921875,0.45666155219078064,-0.7762033343315125,-2.143386125564575
1789634966934405600,11.535405517578125,0.5664125680923462,-1.2437247037887573,-2.317253828048706
1789634966944445700,11.54544580078125,0.5757375955581665,-1.8331719636917114,-2.289994239807129
1789634966954484500,11.555484375,0.39787226915359497,-1.9065817594528198,-2.1591384410858154
1789634966964524500,11.565524658203126,0.22452312707901,-1.40541672706604,-2.0832834243774414
1789634966974564600,11.575564697265625,0.11999192088842392,-1.0241223573684692,-2.0614068508148193
1789634966984603400,11.585603271484375,0.10878666490316391,-0.68979811668396,-1.9936397075653076
1789634966994643500,11.5956435546875,0.15852013230323792,-0.3409927487373352,-1.9139773845672607
1789634967004683500,11.60568359375,0.2589538097381592,-0.2732728123664856,-1.9213322401046753
1789634967014722600,11.61572265625,0.3636767566204071,-0.2758241295814514,-1.9955683946609497
1789634967024762600,11.6257626953125,0.47753167152404785,-0.11320192366838455,-2.0604491233825684
1789634967034802400,11.635802490234376,0.5383076667785645,0.04728762060403824,-2.0082767009735107
1789634967044841500,11.645841552734375,0.49457457661628723,0.3818080723285675,-1.8219119310379028
1789634967054881500,11.655881591796875,0.3953867554664612,0.7392234802246094,-1.6195297241210938
1789634967064920300,11.66592041015625,0.30731838941574097,0.8369079828262329,-1.4497681856155396
1789634967074960400,11.67596044921875,0.16994856297969818,0.6003321409225464,-1.2590701580047607
1789634967085000400,11.68600048828125,-0.028127241879701614,0.24773789942264557,-1.0051454305648804
1789634967095039500,11.69603955078125,-0.2089867740869522,-0.03796495869755745,-0.7742243409156799
1789634967105079300,11.706079345703126,-0.3395597040653229,0.03467675298452377,-0.5883876085281372
1789634967115119400,11.716119384765625,-0.3913576304912567,0.007817177101969719,-0.534148633480072
1789634967125158700,11.72615869140625,-0.38148558139801025,-0.08881029486656189,-0.5176413059234619
1789634967135198700,11.73619873046875,-0.3346128761768341,-0.00663340138271451,-0.41510477662086487
1789634967145237500,11.746237548828125,-0.2448992282152176,0.2111830860376358,-0.23803120851516724
1789634967155277600,11.756277587890626,-0.17677824199199677,0.22651277482509613,-0.12345722317695618
1789634967165317600,11.766317626953125,-0.13508564233779907,0.3850797712802887,-0.01601571775972843
1789634967175356700,11.776356689453126,-0.08079498261213303,0.5595154762268066,0.13839516043663025
1789634967185396500,11.786396484375,-0.036132704466581345,0.6542515754699707,0.25307488441467285
1789634967195436500,11.7964365234375,-0.014196246862411499,0.6571201086044312,0.27590855956077576
1789634967205475600,11.8064755859375,0.013112606480717659,0.6049559712409973,0.32238897681236267
1789634967215515600,11.816515625,0.0037675739731639624,0.4660097658634186,0.5266481041908264
1789634967225554400,11.826554443359376,-0.08564459532499313,0.4143790602684021,0.7626070976257324
1789634967235594500,11.836594482421875,-0.27406322956085205,0.5336785912513733,0.9340017437934875
1789634967245634600,11.846634521484376,-0.4396812319755554,0.6427997350692749,1.0825393199920654
1789634967255673300,11.85667333984375,-0.49101951718330383,0.7659767866134644,1.2716155052185059
1789634967265713400,11.86671337890625,-0.4019373059272766,0.8284897208213806,1.4474490880966187
1789634967275753500,11.87675341796875,-0.2755570113658905,0.9293888807296753,1.5545334815979004
1789634967285792500,11.88679248046875,-0.21024644374847412,1.0771064758300781,1.604180097579956
1789634967295832600,11.89683251953125,-0.2245526760816574,1.1026885509490967,1.6448787450790405
1789634967305871400,11.906871337890625,-0.26880377531051636,0.9340624809265137,1.7073270082473755
1789634967315911400,11.916911376953125,-0.329985111951828,0.9230638742446899,1.9219679832458496
1789634967325951500,11.926951416015624,-0.39491376280784607,0.9561401009559631,2.2445647716522217
1789634967335990500,11.936990478515625,-0.44570183753967285,0.9541056752204895,2.4296953678131104
1789634967346030600,11.947030517578124,-0.4049546718597412,0.9801687002182007,2.389666795730591
1789634967356070400,11.9570703125,-0.2779304087162018,0.8325467705726624,2.25898814201355
1789634967366109700,11.967109619140626,-0.18198764324188232,0.5678961873054504,2.3569092750549316
1789634967376149500,11.9771494140625,-0.1806454062461853,0.4276224374771118,2.6150572299957275
1789634967386188500,11.9871884765625,-0.21486836671829224,0.47464561462402344,2.753450393676758
1789634967396228600,11.997228515625,-0.23074106872081757,0.5572283864021301,2.706117868423462
1789634967406268700,12.0072685546875,-0.22369328141212463,0.5894984006881714,2.5429282188415527
1789634967416307500,12.017307373046876,-0.1570439487695694,0.5582963228225708,2.353104591369629
1789634967426347500,12.027347412109375,-0.06963740289211273,0.3980829119682312,2.206413507461548
1789634967436387600,12.0373876953125,-0.011315238662064075,0.08273163437843323,2.1567564010620117
1789634967446426600,12.047426513671875,-0.010580472648143768,-0.17386579513549805,2.246351957321167
1789634967456466400,12.057466552734375,-0.06058185547590256,-0.13346005976200104,2.4695186614990234
1789634967466505500,12.06750537109375,-0.12874306738376617,0.230071023106575,2.7205400466918945
1789634967476545500,12.077545654296875,-0.15335813164710999,0.5489131808280945,2.779059648513794
1789634967486585600,12.087585693359374,-0.10712166130542755,0.37090376019477844,2.5375478267669678
1789634967496624400,12.097624267578125,-0.044309407472610474,-0.20050060749053955,2.177747964859009
1789634967506664400,12.10766455078125,-0.01865437813103199,-0.6117568612098694,1.9966431856155396
1789634967516704500,12.11770458984375,0.002770486520603299,-0.5379329919815063,2.0710856914520264
1789634967526743300,12.127743408203125,-0.0470665767788887,-0.28494277596473694,2.2200162410736084
1789634967536783400,12.137783447265624,-0.15304547548294067,0.028711538761854172,2.2591447830200195
1789634967546822700,12.14782275390625,-0.20756171643733978,0.23413527011871338,2.152879238128662
1789634967556862700,12.15786279296875,-0.1611979454755783,0.1345367729663849,1.9718399047851562
1789634967566902300,12.16790234375,-0.08189965784549713,-0.1089794784784317,1.799948811531067
1789634967576941600,12.177941650390625,-0.024460336193442345,-0.341311514377594,1.648555874824524
1789634967586981600,12.187981689453125,0.03570207208395004,-0.5033928155899048,1.5206739902496338
1789634967597021700,12.198021728515625,0.038898397237062454,-0.2491845190525055,1.4555860757827759
1789634967607060500,12.208060546875,-0.03329084441065788,0.29571235179901123,1.429964303970337
1789634967617100500,12.2181005859375,-0.0429818220436573,0.5393574833869934,1.380621075630188
1789634967627139600,12.2281396484375,0.01563568413257599,0.3712012469768524,1.306427240371704
1789634967637179600,12.2381796875,-0.013025786727666855,0.22284986078739166,1.211678147315979
1789634967647219500,12.248219482421876,-0.0509774312376976,0.10350801795721054,1.039175271987915
1789634967657258500,12.258258544921874,-0.023566046729683876,-0.04595950245857239,0.7928126454353333
1789634967667298600,12.268298583984375,-0.014679077081382275,-0.03630287945270538,0.4939005374908447
1789634967677338600,12.278338623046874,-0.028019117191433907,0.20552146434783936,0.18699970841407776
1789634967687377400,12.28837744140625,-0.0393705740571022,0.3884734511375427,-0.05885932222008705
1789634967697417500,12.29841748046875,-0.0037294907961040735,0.41740015149116516,-0.2474750429391861
1789634967707456500,12.30845654296875,0.039868585765361786,0.1833629012107849,-0.3955657184123993
1789634967717496300,12.318496337890625,0.048337437212467194,-0.15901361405849457,-0.5368831753730774
1789634967727536400,12.328536376953124,-0.017375262454152107,-0.10101929306983948,-0.6752812266349792
1789634967737575400,12.338575439453125,-0.04535869136452675,0.24965643882751465,-0.7256128787994385
1789634967747615200,12.348615234375,0.02004188485443592,0.40470007061958313,-0.6561957001686096
1789634967757655300,12.3586552734375,0.10604999959468842,0.3811236619949341,-0.512264609336853
1789634967767694600,12.368694580078126,0.10054071992635727,0.31250810623168945,-0.4472922682762146
1789634967777734400,12.378734375,0.0838291198015213,0.17827919125556946,-0.49992406368255615
1789634967787773400,12.3887734375,0.10600952059030533,-0.08640120178461075,-0.5743061304092407
1789634967797813500,12.3988134765625,0.12874120473861694,-0.2504383325576782,-0.6047218441963196
1789634967807853600,12.408853515625,0.14919215440750122,-0.1509285271167755,-0.6340293884277344
1789634967817892600,12.418892578125,0.17559126019477844,0.17531828582286835,-0.7069361209869385
1789634967827932400,12.428932373046875,0.1888948231935501,0.55791175365448,-0.8110771775245667
1789634967837972500,12.438972412109376,0.1995581090450287,0.8071132898330688,-0.8879756927490234
1789634967848011500,12.449011474609375,0.24490348994731903,0.7794103026390076,-0.9066111445426941
1789634967858051600,12.459051513671875,0.3303680717945099,0.4920208752155304,-0.9266796708106995
1789634967868090400,12.46909033203125,0.41377854347229004,0.02196761593222618,-0.9341663122177124
1789634967878130400,12.47913037109375,0.3961811661720276,-0.36254623532295227,-0.8871732354164124
1789634967888170500,12.48917041015625,0.255687952041626,-0.3697255849838257,-0.8385180830955505
1789634967898209300,12.499209228515625,0.14557157456874847,-0.17396220564842224,-0.8476255536079407
1789634967908249300,12.509249267578125,0.13551095128059387,-0.003615241264924407,-0.9650816321372986
