time,seconds_elapsed,z,y,x
1789634955461628200,0.062628173828125,-0.039297450333833694,0.6030369997024536,2.5665464401245117
1789634955471668200,0.072668212890625,0.013268555514514446,0.2592966556549072,2.844050168991089
1789634955481707000,0.08270703125,0.007850350812077522,-0.30786454677581787,2.924267530441284
1789634955491747000,0.0927470703125,-0.07723870873451233,-0.8533734083175659,2.8509583473205566
1789634955501787100,0.102787109375,-0.24038448929786682,-1.2324126958847046,2.719472885131836
1789634955511826000,0.112825927734375,-0.4039560556411743,-1.4471189975738525,2.6071321964263916
1789634955521866000,0.122865966796875,-0.5050792694091797,-1.6269007921218872,2.52459716796875
1789634955531905300,0.1329052734375,-0.4984498620033264,-1.954402208328247,2.3832647800445557
1789634955541945300,0.1429453125,-0.46210309863090515,-2.2420296669006348,2.1672275066375732
1789634955551985200,0.152985107421875,-0.47274908423423767,-2.43330717086792,1.9472509622573853
1789634955562024200,0.163024169921875,-0.5425649285316467,-2.520003318786621,1.7547932863235474
1789634955572064300,0.173064208984375,-0.6392403244972229,-2.5865442752838135,1.5550469160079956
1789634955582104300,0.183104248046875,-0.6950940489768982,-2.7055609226226807,1.311173439025879
1789634955592143000,0.19314306640625,-0.6324357390403748,-2.932460308074951,1.0014574527740479
1789634955602183200,0.20318310546875,-0.46569138765335083,-3.3483686447143555,0.5676083564758301
1789634955612222200,0.21322216796875,-0.2465078979730606,-3.6796822547912598,0.08916536718606949
1789634955622262300,0.22326220703125,0.04177556186914444,-3.8084795475006104,-0.2046915590763092
1789634955632302000,0.233302001953125,0.3318382799625397,-3.6714868545532227,-0.3313214182853699
1789634955642341000,0.243341064453125,0.5791035294532776,-3.3553385734558105,-0.3502826392650604
1789634955652381200,0.253381103515625,0.780358612537384,-3.1139872074127197,-0.33784249424934387
1789634955662420000,0.263419921875,1.016322374343872,-3.2507376670837402,-0.24190643429756165
1789634955672460000,0.2734599609375,1.7672035694122314,-3.3146986961364746,0.17302924394607544
1789634955682500000,0.2835,2.3608388900756836,-3.276148557662964,0.7899697422981262
1789634955692539100,0.2935390625,2.591383934020996,-3.4957141876220703,1.3079798221588135
1789634955702579500,0.303579345703125,2.692124366760254,-3.9534692764282227,1.828590989112854
1789634955712619500,0.31361962890625,2.7761363983154297,-4.241424083709717,2.316312551498413
1789634955722658300,0.323658203125,2.839923143386841,-4.3355817794799805,2.6659133434295654
1789634955732698400,0.333698486328125,2.901885986328125,-4.40509557723999,2.748946189880371
1789634955742737400,0.3437373046875,3.0567405223846436,-4.59771728515625,2.5720572471618652
1789634955752777200,0.353777099609375,3.377850294113159,-4.86041784286499,2.3711979389190674
1789634955762817300,0.3638173828125,3.7435643672943115,-4.967951774597168,2.247535467147827
1789634955772856600,0.373856689453125,4.036334037780762,-4.7974443435668945,2.1644558906555176
1789634955782896600,0.383896728515625,4.180141448974609,-4.409383773803711,2.07373046875
1789634955792935400,0.393935302734375,4.165891647338867,-3.926004648208618,1.9523816108703613
1789634955802975500,0.4039755859375,4.0388593673706055,-3.5178239345550537,1.7892770767211914
1789634955813015600,0.414015625,3.860182762145996,-3.337080955505371,1.6226025819778442
1789634955823054600,0.4240546875,3.719017744064331,-3.2151968479156494,1.4863801002502441
1789634955833094400,0.434094482421875,3.6564016342163086,-3.0011932849884033,1.3700580596923828
1789634955843133400,0.444133544921875,3.619253396987915,-2.608797788619995,1.2285914421081543
1789634955853173500,0.454173583984375,3.576263904571533,-2.148045063018799,1.0344797372817993
1789634955863213600,0.464213623046875,3.5104124546051025,-1.7996177673339844,0.8094004392623901
1789634955873252400,0.47425244140625,3.448051929473877,-1.5351709127426147,0.6307656764984131
1789634955883292400,0.48429248046875,3.386016845703125,-1.3318244218826294,0.5513188242912292
1789634955893332500,0.49433251953125,3.2957658767700195,-1.2452219724655151,0.5607836842536926
1789634955903371300,0.504371337890625,3.1686835289001465,-1.2094831466674805,0.6679551005363464
1789634955913411300,0.514411376953125,2.998141050338745,-1.2377091646194458,0.8606619238853455
1789634955923450400,0.524450439453125,2.7972054481506348,-1.265330195426941,1.0974401235580444
1789634955933490400,0.534490478515625,2.613651752471924,-1.2695698738098145,1.3540396690368652
1789634955943530200,0.5445302734375,2.4533193111419678,-1.1844446659088135,1.6112867593765259
1789634955953569500,0.554569580078125,2.3004980087280273,-1.0440057516098022,1.8256880044937134
1789634955963609300,0.564609375,2.1456892490386963,-0.9626504182815552,1.9814648628234863
1789634955973648600,0.574648681640625,1.975156307220459,-1.0207366943359375,2.1064701080322266
1789634955983688400,0.5846884765625,1.7352732419967651,-1.1782019138336182,2.217851400375366
1789634955993728500,0.594728515625,1.4744576215744019,-1.3632525205612183,2.3214683532714844
1789634956003767600,0.604767578125,1.1979588270187378,-1.494538426399231,2.3945438861846924
1789634956013807600,0.6148076171875,0.9421408772468567,-1.4286987781524658,2.3923144340515137
1789634956023846400,0.624846435546875,0.731322705745697,-1.145107388496399,2.27779483795166
1789634956033886500,0.634886474609375,0.5613081455230713,-0.7748131155967712,2.036722183227539
1789634956043926500,0.644926513671875,0.42924875020980835,-0.44274213910102844,1.6742115020751953
1789634956053965300,0.65496533203125,0.314365029335022,-0.14655840396881104,1.2369598150253296
1789634956064005400,0.66500537109375,0.21219824254512787,0.12490042299032211,0.8057664036750793
1789634956074045400,0.67504541015625,0.12574617564678192,0.4625314474105835,0.44833582639694214
1789634956084084500,0.68508447265625,0.041670698672533035,0.8270848393440247,0.16091084480285645
1789634956094124300,0.695124267578125,-0.024220699444413185,1.0583994388580322,-0.06392919272184372
1789634956104163300,0.705163330078125,-0.094439297914505,1.112362265586853,-0.23750430345535278
1789634956114203400,0.715203369140625,-0.1648719161748886,0.9887553453445435,-0.3971498906612396
1789634956124243500,0.725243408203125,-0.22329425811767578,0.7994377017021179,-0.5436235070228577
1789634956134282200,0.7352822265625,-0.26766437292099,0.63721764087677,-0.6577117443084717
1789634956144322300,0.745322265625,-0.2927764654159546,0.5308766961097717,-0.759423553943634
1789634956154361600,0.755361572265625,-0.24835096299648285,0.48310139775276184,-0.8737911581993103
1789634956164401400,0.7654013671875,-0.1478455364704132,0.48453494906425476,-0.9869911074638367
1789634956174441200,0.775441162109375,-0.03611341118812561,0.5187715291976929,-1.077502965927124
1789634956184480500,0.78548046875,0.08062481135129929,0.5408139824867249,-1.1454230546951294
1789634956194520600,0.7955205078125,0.15531477332115173,0.5484181046485901,-1.166826605796814
1789634956204560600,0.805560546875,0.20914238691329956,0.5046099424362183,-1.1472232341766357
1789634956214599400,0.815599365234375,0.2243727445602417,0.4046414792537689,-1.10050368309021
1789634956224639500,0.825639404296875,0.2455430030822754,0.24663448333740234,-1.0440047979354858
1789634956234678500,0.835678466796875,0.2385609894990921,-0.019066166132688522,-0.9847976565361023
1789634956244718600,0.845718505859375,0.1628611981868744,-0.013814907521009445,-0.9083929657936096
1789634956254758400,0.85575830078125,0.002701893448829651,-0.030253536999225616,-0.8728153109550476
1789634956264797400,0.86579736328125,-0.18305519223213196,-0.06714891642332077,-0.8962334394454956
1789634956274837500,0.87583740234375,-0.2657628357410431,0.0035353712737560272,-0.9433335661888123
1789634956284876300,0.885876220703125,-0.2257886677980423,0.15693368017673492,-0.9551195502281189
1789634956294916400,0.895916259765625,-0.16735652089118958,0.25709250569343567,-0.9208646416664124
1789634956304956400,0.905956298828125,-0.15050150454044342,0.2090321183204651,-0.8409882187843323
1789634956314995500,0.915995361328125,-0.12942737340927124,0.1298675239086151,-0.7351065278053284
1789634956325035300,0.92603515625,-0.07673776149749756,0.11716508865356445,-0.6319555044174194
1789634956335074300,0.93607421875,-0.046940188854932785,0.17218492925167084,-0.5506324172019958
1789634956345114400,0.9461142578125,-0.05453699454665184,0.16648274660110474,-0.5034850835800171
1789634956355154400,0.956154541015625,-0.09088967740535736,0.1685083508491516,-0.5054409503936768
1789634956365193500,0.966193359375,-0.09165452420711517,0.20320181548595428,-0.5468973517417908
1789634956375233500,0.976233642578125,-0.057672854512929916,0.2653767764568329,-0.5860506296157837
1789634956385272600,0.9862724609375,-0.013594784773886204,0.3927973806858063,-0.5562697649002075
1789634956395312600,0.996312744140625,0.01161017082631588,0.4712844491004944,-0.45590054988861084
1789634956405352400,1.0063525390625,0.026986028999090195,0.47824931144714355,-0.31187427043914795
1789634956415391500,1.0163916015625,0.058091748505830765,0.4193638861179352,-0.1606871634721756
1789634956425431600,1.026431640625,0.09549028426408768,0.35634613037109375,0.00409911572933197
1789634956435471600,1.0364716796875,0.13141712546348572,0.3440399169921875,0.171184241771698
1789634956445510400,1.046510498046875,0.17747041583061218,0.33713704347610474,0.28801119327545166
1789634956455550500,1.056550537109375,0.238154798746109,0.33242830634117126,0.3618473410606384
1789634956465589500,1.066589599609375,0.26674023270606995,0.38646814227104187,0.43298158049583435
1789634956475629300,1.07662939453125,0.26684248447418213,0.46098071336746216,0.49978429079055786
1789634956485669400,1.08666943359375,0.26010945439338684,0.5036805272102356,0.5605558753013611
1789634956495708400,1.09670849609375,0.2905123829841614,0.42533746361732483,0.590970516204834
1789634956505748500,1.10674853515625,0.37357908487319946,0.30205753445625305,0.6278688311576843
1789634956515787300,1.116787353515625,0.4448032081127167,0.1285744160413742,0.6111031770706177
1789634956525827300,1.126827392578125,0.4682500660419464,-0.11568470299243927,0.5691372156143188
1789634956535867400,1.136867431640625,0.4638665020465851,-0.36516058444976807,0.5635371208190918
1789634956545906400,1.146906494140625,0.4824545681476593,-0.528721809387207,0.612124502658844
1789634956555946200,1.1569462890625,0.47737669944763184,-0.6598430871963501,0.7168280482292175
1789634956565986300,1.166986328125,0.39276161789894104,-0.7318606376647949,0.8910918831825256
1789634956576025600,1.177025634765625,0.31605643033981323,-0.7559012770652771,1.0809358358383179
1789634956586065400,1.1870654296875,0.2724740505218506,-0.7025014758110046,1.266818642616272
1789634956596104400,1.1971044921875,0.19138000905513763,-0.6029245853424072,1.33098304271698
1789634956606144500,1.20714453125,0.09190140664577484,-0.6252776980400085,1.2237863540649414
1789634956616184600,1.2171845703125,-0.05462171509861946,-0.822954535484314,1.0011475086212158
1789634956626223400,1.227223388671875,-0.13918033242225647,-1.0580358505249023,0.788321852684021
1789634956636263400,1.237263427734375,-0.03726649284362793,-1.3702383041381836,0.6047224402427673
1789634956646302500,1.247302490234375,0.16490480303764343,-1.4945106506347656,0.534481406211853
1789634956656342500,1.257342529296875,0.19688057899475098,-1.348583459854126,0.6513550281524658
1789634956666382600,1.267382568359375,0.02658536098897457,-1.2324668169021606,0.9112598896026611
1789634956676421400,1.27742138671875,-0.10710106790065765,-1.1168195009231567,1.2301907539367676
1789634956686461400,1.28746142578125,-0.22682467103004456,-1.3008378744125366,1.4535181522369385
1789634956696500500,1.29750048828125,-0.37601950764656067,-1.866119146347046,1.4736090898513794
1789634956706540800,1.307540771484375,-0.5717220902442932,-2.253692865371704,1.5810413360595703
1789634956716580900,1.317580810546875,-0.7019765377044678,-1.9953346252441406,1.655272364616394
1789634956726619600,1.32761962890625,-0.6671342849731445,-1.8114044666290283,1.4658721685409546
1789634956736659700,1.33765966796875,-0.5657421946525574,-1.6366082429885864,1.2106220722198486
1789634956746698800,1.34769873046875,-0.41524845361709595,-1.4444351196289062,1.043548583984375
1789634956756738800,1.35773876953125,-0.2332938313484192,-1.3406387567520142,1.0392454862594604
1789634956766778600,1.367778564453125,0.4478870928287506,-1.7569963932037354,0.605830729007721
1789634956776818000,1.37781787109375,0.9034452438354492,-0.7547661066055298,0.6705918908119202
1789634956786857700,1.387857666015625,0.7297618389129639,-0.6813969016075134,1.1379244327545166
1789634956796897800,1.397897705078125,0.6994646787643433,-1.1903475522994995,1.1707351207733154
1789634956806936800,1.407936767578125,0.7961552143096924,-1.550773024559021,1.2108807563781738
1789634956816977000,1.417976806640625,0.8918681740760803,-1.135070562362671,0.9161256551742554
1789634956827016000,1.428015869140625,1.0023627281188965,-0.18580102920532227,0.3866800367832184
1789634956837056000,1.438055908203125,1.143538236618042,0.4634632468223572,0.16604088246822357
1789634956847095800,1.448095703125,1.3083620071411133,0.4559611678123474,0.26083123683929443
1789634956857134800,1.458134765625,1.4840134382247925,0.21781784296035767,0.4754772186279297
1789634956867175000,1.4681748046875,1.7311420440673828,0.07718982547521591,0.5108337998390198
1789634956877213700,1.478213623046875,2.1170268058776855,0.35510027408599854,0.4057701826095581
1789634956887253800,1.488253662109375,2.81826114654541,0.46995678544044495,0.33463260531425476
1789634956897293800,1.4982939453125,3.600647211074829,0.7032899260520935,0.18546895682811737
1789634956907332900,1.508332763671875,4.42769718170166,1.0625296831130981,-0.07404454052448273
1789634956917372700,1.51837255859375,5.102398872375488,1.2247345447540283,-0.26765313744544983
1789634956927411700,1.52841162109375,5.301367282867432,1.3304609060287476,-0.4842475354671478
1789634956937451800,1.53845166015625,5.4146504402160645,1.8050352334976196,-0.898795485496521
1789634956947491800,1.548491943359375,4.975449085235596,2.525869369506836,-1.3543424606323242
1789634956957530600,1.558530517578125,3.1704723834991455,1.3254203796386719,-0.6127191185951233
1789634956967570700,1.56857080078125,1.6293925046920776,-0.1370721459388733,-0.7941935658454895
1789634956977610800,1.57861083984375,1.2621146440505981,-0.35174718499183655,-1.2031720876693726
1789634956987649800,1.58864990234375,1.256156325340271,0.4493787884712219,-1.552711009979248
1789634956997689600,1.598689697265625,1.4131791591644287,0.5028060674667358,-1.6003496646881104
1789634957007729000,1.60872900390625,1.959753155708313,-0.08875375241041183,-1.488850712776184
1789634957017769000,1.61876904296875,2.894116163253784,-0.3432198464870453,-1.3364135026931763
1789634957027809000,1.62880908203125,4.378300189971924,-0.146937757730484,-1.0988658666610718
1789634957037847800,1.638847900390625,5.291747570037842,1.08431875705719,-1.8640165328979492
1789634957047888000,1.648887939453125,3.246866226196289,0.9822456240653992,-1.338556170463562
1789634957057927000,1.658927001953125,0.9930031895637512,0.06468729674816132,0.06299946457147598
1789634957067966700,1.668966796875,0.25682976841926575,-0.5419823527336121,0.8094044327735901
1789634957078006800,1.6790068359375,0.2061639279127121,0.22863924503326416,0.473296195268631
1789634957088045800,1.6890458984375,0.12734152376651764,1.0459436178207397,-0.4584854543209076
1789634957098086000,1.6990859375,0.028205621987581253,1.2659968137741089,-1.06356942653656
1789634957108126000,1.7091259765625,-0.12301351875066757,0.8540558218955994,-1.070604920387268
1789634957118164700,1.719164794921875,-0.05140511691570282,0.10370486229658127,-0.7365774512290955
1789634957128204800,1.729204833984375,0.1260610818862915,-0.3348398804664612,-0.46749255061149597
1789634957138243800,1.739243896484375,0.2948186695575714,-0.26583871245384216,-0.4409557282924652
1789634957148283600,1.74928369140625,0.4883953332901001,0.040300410240888596,-0.44834551215171814
1789634957158323700,1.75932373046875,0.8964837193489075,-0.1259511560201645,-0.23061932623386383
1789634957168362800,1.76936279296875,1.210962176322937,-0.4817696809768677,0.12577955424785614
1789634957178402800,1.77940283203125,1.5003372430801392,-0.7037611603736877,0.402070015668869
1789634957188442600,1.789442626953125,1.4386274814605713,-0.8815513849258423,0.416379451751709
1789634957198482000,1.79948193359375,1.6834092140197754,-0.6923961639404297,0.44992250204086304
1789634957208521700,1.809521728515625,1.9147474765777588,-0.6763540506362915,0.33954158425331116
1789634957218560800,1.819560791015625,2.166663408279419,-0.33895444869995117,0.33029428124427795
1789634957228600800,1.829600830078125,2.94449520111084,-0.23533020913600922,0.3008280396461487
1789634957238641000,1.839640869140625,4.002586364746094,-0.400227814912796,0.2507734000682831
1789634957248680000,1.849679931640625,4.960231304168701,-0.3752225637435913,0.14636151492595673
1789634957258720000,1.859719970703125,4.574355125427246,-0.29479268193244934,0.27946072816848755
1789634957268758800,1.8697587890625,3.173825979232788,-0.6563519835472107,0.603681743144989
1789634957278798800,1.879798828125,2.6094610691070557,-1.393873691558838,0.6186473965644836
1789634957288839000,1.8898388671875,2.3182260990142822,-1.782011866569519,0.3189709782600403
1789634957298877700,1.899877685546875,1.6269285678863525,-1.3997771739959717,-0.2003536820411682
1789634957308917800,1.909917724609375,0.8987786769866943,-0.4080100655555725,-0.6723580956459045
1789634957318957800,1.919957763671875,0.2315063327550888,0.13419035077095032,-0.662755012512207
1789634957328996900,1.929996826171875,-0.09657628834247589,0.29812952876091003,-0.3273705542087555
1789634957339036700,1.94003662109375,-0.07590696215629578,0.13084916770458221,-0.23517458140850067
1789634957349075700,1.95007568359375,-0.11702148616313934,-0.01986784115433693,-0.11892538517713547
1789634957359115800,1.96011572265625,-0.06990829855203629,-0.05862881615757942,-0.15394888818264008
1789634957369155800,1.97015576171875,-0.039509378373622894,-0.2950890064239502,-0.2808900475502014
1789634957379194600,1.980194580078125,0.08150465786457062,-0.3362028896808624,-0.21887755393981934
1789634957389234700,1.990234619140625,0.04721060395240784,-0.15410557389259338,-0.06895442306995392
1789634957399274800,2.000274658203125,0.016972804442048073,-0.15323126316070557,0.015287485904991627
1789634957409313800,2.010313720703125,0.04234800487756729,-0.2614225149154663,0.050225794315338135
1789634957419353600,2.020353515625,0.08714690059423447,-0.329139769077301,0.07324562966823578
1789634957429393000,2.030392822265625,0.16051414608955383,-0.23910744488239288,0.22601531445980072
1789634957439433000,2.040432861328125,0.1695004552602768,-0.24366438388824463,0.3406745195388794
1789634957449473000,2.05047314453125,0.15451957285404205,-0.566512942314148,0.26922139525413513
1789634957459511800,2.06051171875,0.18168728053569794,-0.9741347432136536,0.16067761182785034
1789634957469551900,2.0705517578125,0.33619487285614014,-1.3048745393753052,0.10319972038269043
1789634957479591000,2.0805908203125,0.32141247391700745,-1.1631866693496704,0.05181802064180374
1789634957489630700,2.090630615234375,0.2789933979511261,-0.3498219847679138,-0.4702412486076355
1789634957499670800,2.1006708984375,0.48009082674980164,0.46331167221069336,-0.45276159048080444
1789634957509709800,2.110709716796875,0.42492276430130005,0.4562781751155853,-0.3235803246498108
1789634957519750000,2.12075,0.16769732534885406,0.571937084197998,-0.4340250790119171
1789634957529790000,2.1307900390625,-0.029858283698558807,0.6006655693054199,-0.33947786688804626
1789634957539828700,2.140828857421875,-0.3550366461277008,-0.047571271657943726,-0.5638486742973328
1789634957549868800,2.150868896484375,-1.217952847480774,0.12221825867891312,-0.37255144119262695
1789634957559907800,2.160907958984375,-0.6699358820915222,0.47293606400489807,-0.5076754689216614
1789634957569947600,2.17094775390625,-0.3160216808319092,0.4636686444282532,-0.4027254283428192
1789634957579987700,2.18098779296875,-0.1769394427537918,0.19245180487632751,-0.37047505378723145
1789634957590026800,2.19102685546875,-0.1403140276670456,0.1355646252632141,-0.4990503489971161
1789634957600066800,2.20106689453125,-0.15498217940330505,0.2171500325202942,-0.5193769335746765
1789634957610106600,2.211106689453125,-0.14563661813735962,0.34804680943489075,-0.44149652123451233
1789634957620146000,2.22114599609375,-0.09227272868156433,0.17063099145889282,-0.23839053511619568
1789634957630185700,2.231185791015625,0.011075770482420921,-0.025712907314300537,-0.03307540714740753
1789634957640224800,2.241224853515625,0.15042567253112793,-0.13995133340358734,-0.052528731524944305
1789634957650264800,2.251264892578125,0.2076350301504135,-0.2900471091270447,-0.12295059114694595
1789634957660305000,2.261304931640625,0.3008696436882019,-0.5226590037345886,-0.06666947901248932
1789634957670344000,2.271343994140625,0.28251245617866516,-0.9223313927650452,0.15244071185588837
1789634957680384000,2.281384033203125,0.21439838409423828,-1.1790467500686646,0.17631195485591888
1789634957690422800,2.2914228515625,0.19750362634658813,-1.2727854251861572,0.10476643592119217
1789634957700462300,2.30146240234375,0.3673219680786133,-1.0853222608566284,0.0982464849948883
1789634957710502400,2.31150244140625,0.550126850605011,-0.054239943623542786,0.1520063430070877
1789634957720541400,2.32154150390625,0.4746773838996887,0.6303884387016296,0.06056005507707596
1789634957730581200,2.331581298828125,0.3184875547885895,0.7923503518104553,-0.038582995533943176
1789634957740621300,2.341621337890625,0.21738676726818085,0.6496056914329529,-0.06978112459182739
1789634957750660400,2.351660400390625,0.2072896510362625,0.6979238390922546,-0.047045305371284485
1789634957760700400,2.361700439453125,0.1408805400133133,0.7765217423439026,-0.05674613267183304
1789634957770739200,2.3717392578125,0.028663452714681625,0.6666795015335083,-0.07902202755212784
1789634957780779300,2.381779296875,-0.042051464319229126,0.5271708965301514,-0.07958316057920456
1789634957790819300,2.3918193359375,-0.14007386565208435,0.4501512348651886,-0.03947782889008522
1789634957800858600,2.401858642578125,-0.3836119472980499,-1.1263657808303833,0.27324172854423523
1789634957810898200,2.411898193359375,-0.03076695278286934,-0.05327250808477402,-0.019617468118667603
1789634957820938200,2.421938232421875,0.031416259706020355,-0.3649028539657593,0.04388800635933876
1789634957830977500,2.4319775390625,-0.1282794326543808,-0.2512759864330292,0.052500296384096146
1789634957841017600,2.442017578125,-0.07308195531368256,0.0493573322892189,0.019151663407683372
1789634957851056400,2.452056396484375,-0.07679473608732224,0.25860846042633057,-0.006818545516580343
1789634957861096400,2.462096435546875,-0.12133823335170746,0.27807536721229553,0.014560245908796787
1789634957871136500,2.472136474609375,-0.18116368353366852,0.11270200461149216,0.06226276233792305
1789634957881175300,2.48217529296875,-0.17388153076171875,-0.029881779104471207,0.007299114018678665
1789634957891215400,2.49221533203125,-0.2700408399105072,0.028950564563274384,-0.05859280377626419
1789634957901255400,2.50225537109375,-0.6294440031051636,-0.042520154267549515,-0.06957514584064484
1789634957911294500,2.51229443359375,-0.9268801212310791,-0.16654172539710999,-0.08593084663152695
1789634957921334500,2.52233447265625,-1.0870405435562134,-0.17414185404777527,-0.20801548659801483
1789634957931373300,2.532373291015625,-1.1772992610931396,0.03481592983007431,-0.5539299249649048
1789634957941413400,2.542413330078125,-0.9020810127258301,0.017885416746139526,-1.1080349683761597
1789634957951453400,2.552453369140625,-0.5017608404159546,-1.0829968452453613,-1.3620991706848145
1789634957961492200,2.5624921875,-0.2686202824115753,-2.5991780757904053,-0.9202002286911011
1789634957971532300,2.5725322265625,0.021710172295570374,-2.9762961864471436,-0.5034267902374268
1789634957981571300,2.5825712890625,0.2536446154117584,-3.9629786014556885,-1.2644267082214355
1789634957991611400,2.592611328125,0.2394251525402069,-3.4297523498535156,-0.07658202201128006
1789634958001651200,2.602651123046875,0.02014845982193947,-1.4863985776901245,0.4914044737815857
1789634958011690500,2.6126904296875,0.34060531854629517,-0.8919503092765808,-0.20994681119918823
1789634958021730300,2.622730224609375,0.6634342670440674,-1.2098078727722168,-0.8577700853347778
1789634958031770400,2.632770263671875,0.9812119603157043,-1.5199997425079346,-0.6925143599510193
1789634958041809400,2.642809326171875,1.161231279373169,-1.8890931606292725,-0.43298158049583435
1789634958051849500,2.652849365234375,1.1681742668151855,-2.0363874435424805,-0.17646417021751404
1789634958061888500,2.662888427734375,0.4245786666870117,-1.7555937767028809,-0.6143467426300049
1789634958071928600,2.672928466796875,-0.7654972076416016,-0.6109521985054016,-0.920685887336731
1789634958081968400,2.682968505859375,-1.1650395393371582,0.3210565149784088,-0.706614077091217
1789634958092007400,2.69300732421875,-0.9208362102508545,-0.013342056423425674,-0.4787813723087311
1789634958102047500,2.703047607421875,-0.569921612739563,-0.8263772130012512,-0.3712935149669647
1789634958112087600,2.713087646484375,-0.18292710185050964,-1.4649474620819092,-0.13999277353286743
1789634958122126300,2.723126220703125,0.18033473193645477,-2.0010061264038086,0.1945977360010147
1789634958132166400,2.73316650390625,0.5135912299156189,-2.392735004425049,0.521957516670227
1789634958142205400,2.743205322265625,0.6274752020835876,-2.4363858699798584,0.6923018097877502
1789634958152245200,2.753245361328125,0.6653116345405579,-2.12388277053833,0.7035818099975586
1789634958162285300,2.763285400390625,0.6152108907699585,-1.998507022857666,0.6659204959869385
1789634958172324400,2.773324462890625,0.5389180183410645,-1.7667428255081177,0.6207417845726013
1789634958182364400,2.783364501953125,0.5208620429039001,-1.6102157831192017,0.5561385154724121
1789634958192403200,2.7934033203125,0.4569966197013855,-1.334609031677246,0.4998091459274292
1789634958202443300,2.803443359375,0.25800734758377075,-1.061089277267456,0.5256641507148743
1789634958212483300,2.8134833984375,0.09233953058719635,-1.0045150518417358,0.5619356036186218
1789634958222522600,2.823522705078125,0.12398827075958252,-1.168410062789917,0.5660131573677063
1789634958232562200,2.833562255859375,0.1889926791191101,-1.2773842811584473,0.4543922543525696
1789634958242602200,2.843602294921875,0.2918790876865387,-1.2300207614898682,0.274700790643692
1789634958252641500,2.8536416015625,0.3487962782382965,-1.0482515096664429,0.10369598120450974
1789634958262681600,2.863681640625,0.3855907618999481,-0.9139752388000488,-0.062198445200920105
1789634958272720400,2.873720458984375,0.4748849868774414,-0.890973687171936,-0.20175635814666748
1789634958282760400,2.883760498046875,0.6831010580062866,-1.1799557209014893,-0.241596981883049
1789634958292800500,2.893800537109375,0.809155285358429,-1.329598307609558,-0.18967366218566895
1789634958302839300,2.90383935546875,0.8734719157218933,-1.2748106718063354,-0.12918847799301147
1789634958312879400,2.91387939453125,0.8522962331771851,-1.0629502534866333,-0.10522883385419846
1789634958322919400,2.92391943359375,0.6963574886322021,-0.8637211918830872,-0.08031682670116425
1789634958332958500,2.93395849609375,0.46474331617355347,-0.5608713626861572,-0.08404567837715149
1789634958342998500,2.94399853515625,0.3132592439651489,-0.246562659740448,-0.06486612558364868
1789634958353037300,2.954037353515625,0.2369116246700287,-0.18683356046676636,0.06393963098526001
1789634958363077400,2.964077392578125,0.15252536535263062,-0.253622442483902,0.20249803364276886
1789634958373117400,2.974117431640625,0.09511826932430267,-0.3727344572544098,0.2528424561023712
1789634958383156200,2.98415625,0.3120923936367035,-0.6191460490226746,0.21354562044143677
1789634958393196300,2.9941962890625,0.33364903926849365,-0.9740433096885681,0.12597250938415527
1789634958403235300,3.0042353515625,0.3097357153892517,-1.093725323677063,0.060410015285015106
1789634958413275400,3.014275390625,0.08856087177991867,-0.8401340842247009,0.07842804491519928
1789634958423315200,3.024315185546875,-0.09323209524154663,-0.43903863430023193,0.1423734724521637
1789634958433354500,3.0343544921875,-0.11016081273555756,-0.059839311987161636,0.16861648857593536
1789634958443394300,3.044394287109375,-0.12280364334583282,0.2662687599658966,0.04111739248037338
1789634958453434400,3.054434326171875,-0.3460463881492615,0.4995047152042389,-0.23852427303791046
1789634958463473400,3.064473388671875,-0.5442261099815369,0.8128013610839844,-0.5025591254234314
1789634958473513500,3.074513427734375,-0.6092290878295898,1.304218053817749,-0.7101912498474121
1789634958483552500,3.084552490234375,-0.5178169012069702,1.7058613300323486,-0.7405797839164734
1789634958493592600,3.094592529296875,-0.3768262267112732,2.191666603088379,-0.6551306247711182
1789634958503632400,3.10463232421875,-0.031120484694838524,2.4405696392059326,-0.4474717080593109
1789634958513671400,3.11467138671875,0.39613229036331177,2.257113218307495,-0.00950847938656807
1789634958523711500,3.12471142578125,0.7116157412528992,1.4942294359207153,0.36457163095474243
1789634958533751600,3.13475146484375,0.8939645290374756,0.8219717144966125,0.5035791397094727
1789634958543790300,3.144790283203125,1.1177175045013428,0.31007301807403564,0.5834915637969971
1789634958553830400,3.154830322265625,1.2456847429275513,0.19655321538448334,0.44660308957099915
1789634958563869400,3.164869384765625,1.0942853689193726,0.15763723850250244,0.3854462504386902
1789634958573909200,3.1749091796875,1.0051088333129883,-0.08806788921356201,0.5288699269294739
1789634958583949300,3.18494921875,0.9557714462280273,-0.42523208260536194,0.4526156783103943
1789634958593988400,3.19498828125,0.7106024622917175,0.9181928634643555,0.15298934280872345
1789634958604028400,3.2050283203125,0.21810194849967957,1.7504993677139282,0.1254810243844986
1789634958614068500,3.215068359375,0.038239315152168274,1.7008960247039795,0.20102164149284363
1789634958624107300,3.225107177734375,0.07998303323984146,0.8329694867134094,0.14428165555000305
1789634958634147300,3.235147216796875,0.16390472650527954,-0.037585850805044174,0.012306135147809982
1789634958644186600,3.2451865234375,0.20415467023849487,-0.5877935886383057,0.03299357369542122
1789634958654226200,3.25522607421875,0.15210063755512238,-0.6513587236404419,0.11301539838314056
1789634958664266200,3.265266357421875,0.03038112446665764,-0.4164213240146637,0.16174885630607605
1789634958674305500,3.275305419921875,-0.06703484803438187,-0.0941377505660057,0.11790987849235535
1789634958684345600,3.285345703125,-0.09718236327171326,0.04708942025899887,0.03971175476908684
1789634958694384400,3.29538427734375,-0.038190048187971115,0.17182914912700653,-0.037265412509441376
1789634958704423700,3.305423583984375,0.004455949179828167,0.23300036787986755,-0.06439050287008286
1789634958714463700,3.315463623046875,0.0493265837430954,0.0714031234383583,-0.04952089861035347
1789634958724502500,3.32550244140625,0.13569529354572296,-0.26830384135246277,-0.06083933264017105
1789634958734542600,3.33554248046875,0.1248215064406395,-0.7621978521347046,-0.1196654811501503
1789634958744582700,3.345582763671875,0.039787840098142624,-1.0279427766799927,-0.19770941138267517
1789634958754621700,3.35562158203125,-0.1350436955690384,-0.5972974896430969,-0.24440978467464447
1789634958764661500,3.36566162109375,-0.3437575101852417,-0.3614210784435272,-0.23709914088249207
1789634958774700500,3.375700439453125,-0.5334460735321045,-0.5658507943153381,-0.17737945914268494
1789634958784740600,3.38574072265625,-0.7556900382041931,-0.888423502445221,-0.1700586974620819
1789634958794780700,3.39578076171875,-0.9995281100273132,-1.1582835912704468,-0.19208121299743652
1789634958804819500,3.4058193359375,-1.1883362531661987,-1.4239001274108887,-0.24040214717388153
1789634958814859500,3.415859619140625,-1.2175229787826538,-1.7087656259536743,-0.3379378616809845
1789634958824899600,3.425899658203125,-0.9493458271026611,-1.7388265132904053,-0.3578527271747589
1789634958834938600,3.435938720703125,-0.4160536825656891,-1.4909698963165283,-0.3593390882015228
1789634958844978700,3.445978759765625,0.0831390768289566,-1.303146243095398,-0.3584762215614319
1789634958855017700,3.456017822265625,0.32120952010154724,-1.3693010807037354,-0.23466520011425018
1789634958865057800,3.466057861328125,0.3658401072025299,-1.4685962200164795,-0.03930741921067238
1789634958875097900,3.476097900390625,0.3997693359851837,-1.4563592672348022,0.12896226346492767
1789634958885136600,3.48613671875,0.4440329372882843,-1.3235721588134766,0.20532521605491638
1789634958895176700,3.4961767578125,0.5083129405975342,-1.143391728401184,0.18025095760822296
1789634958905215700,3.5062158203125,0.6125317215919495,-0.9595915675163269,0.10998717695474625
1789634958915255600,3.516255615234375,0.6899739503860474,-0.8869771361351013,0.026669465005397797
1789634958925295600,3.526295654296875,0.6378173232078552,-0.7966248393058777,-0.031711552292108536
1789634958935334700,3.536334716796875,0.47245779633522034,-0.6653192639350891,-0.04809842258691788
1789634958945374700,3.546374755859375,0.34674808382987976,-0.5096042156219482,-0.02868477627635002
1789634958955414500,3.55641455078125,0.26547300815582275,-0.38656842708587646,-0.013097641989588737
1789634958965453600,3.56645361328125,0.22010444104671478,-0.25034400820732117,0.011559234000742435
1789634958975493600,3.57649365234375,0.19711969792842865,-0.12663015723228455,0.017052942886948586
1789634958985532700,3.58653271484375,0.1932663768529892,0.0139940669760108,0.01823006011545658
1789634958995572500,3.596572509765625,0.213838130235672,0.16135646402835846,0.033190514892339706
1789634959005612500,3.606612548828125,0.23786677420139313,0.3503466248512268,0.06755860894918442
1789634959015651600,3.616651611328125,0.22667883336544037,0.5654122829437256,0.10301241278648376
1789634959025691600,3.626691650390625,0.23257002234458923,0.6671306490898132,0.19630587100982666
1789634959035731500,3.6367314453125,0.11055491864681244,0.8167468309402466,0.31827694177627563
1789634959045770800,3.646770751953125,-0.0490131713449955,1.030785322189331,0.4432963728904724
1789634959055810800,3.656810791015625,-0.22539877891540527,1.375933051109314,0.5126346349716187
1789634959065849600,3.666849609375,-0.33920204639434814,1.792136311531067,0.4413360059261322
1789634959075889700,3.6768896484375,-0.3304412066936493,2.4154887199401855,0.28492897748947144
1789634959085929700,3.6869296875,-0.02597452700138092,2.5699281692504883,0.07391660660505295
1789634959095968800,3.69696875,0.13447383046150208,1.9925143718719482,-0.0019524754025042057
1789634959106008600,3.707008544921875,0.06954143941402435,0.9783170819282532,-0.10186363011598587
1789634959116048600,3.717048583984375,0.09244782477617264,0.15290069580078125,-0.3296319544315338
1789634959126087700,3.727087646484375,0.15833017230033875,-0.4545607566833496,-0.3883650600910187
1789634959136127700,3.737127685546875,0.0848749577999115,-1.3421032428741455,-0.08620448410511017
1789634959146166500,3.74716650390625,-0.05930112302303314,-3.256587505340576,0.5935236811637878
1789634959156206600,3.75720654296875,-0.07909390330314636,-3.8216824531555176,0.9057424068450928
1789634959166246700,3.76724658203125,0.12127514183521271,-2.044646978378296,0.48603010177612305
1789634959176285700,3.77728564453125,0.24013930559158325,-0.07342244684696198,-0.1020040437579155
1789634959186325500,3.787325439453125,0.11240292340517044,0.7378965020179749,-0.40588057041168213
1789634959196364500,3.797364501953125,-0.024966655299067497,0.7898151874542236,-0.3609342873096466
1789634959206404600,3.807404541015625,0.045994605869054794,0.4414862096309662,-0.1299269050359726
1789634959216444700,3.817444580078125,0.1193813681602478,-0.06359874457120895,0.1846548169851303
1789634959226483500,3.8274833984375,-0.00492327194660902,-0.350818008184433,0.3709666430950165
1789634959236523500,3.8375234375,0.021738899871706963,-0.39688920974731445,0.3669147193431854
1789634959246563600,3.8475634765625,0.11133988946676254,-0.4397921860218048,0.2738284766674042
1789634959256602600,3.8576025390625,0.12641294300556183,-0.4101041257381439,0.07139728963375092
1789634959266642700,3.867642578125,0.09254473447799683,-0.25420239567756653,-0.1415778398513794
1789634959276681700,3.877681640625,0.07825639843940735,-0.15543580055236816,-0.1519664227962494
1789634959286721800,3.8877216796875,0.027800951153039932,-0.06563399732112885,-0.08693336695432663
1789634959296761900,3.897761962890625,-0.044008590281009674,-0.13410109281539917,0.029229748994112015
1789634959306800600,3.907800537109375,-0.08261962980031967,-0.3172818422317505,0.162466898560524
1789634959316840700,3.9178408203125,-0.08511766791343689,-0.4666701853275299,0.2591666579246521
1789634959326880800,3.927880859375,-0.08372829854488373,-0.4769420027732849,0.31248900294303894
1789634959336919600,3.93791943359375,-0.09003756940364838,-0.4114687144756317,0.32980260252952576
1789634959346959600,3.947959716796875,-0.09913332760334015,-0.3673313558101654,0.3395843803882599
1789634959356998700,3.95799853515625,-0.09090898931026459,-0.33242079615592957,0.35446810722351074
1789634959367038700,3.968038818359375,-0.06999225169420242,-0.30631035566329956,0.36628562211990356
1789634959377078500,3.97807861328125,-0.052462827414274216,-0.2740318775177002,0.3340669572353363
1789634959387117600,3.98811767578125,-0.041687145829200745,-0.22150447964668274,0.24722765386104584
1789634959397157600,3.99815771484375,-0.03183777630329132,-0.17149128019809723,0.14756660163402557
1789634959407197700,4.00819775390625,-0.013838006183505058,-0.11806453764438629,0.04195655509829521
1789634959417236500,4.018236572265625,-0.002389175584539771,-0.0704900324344635,-0.044147077947854996
1789634959427276500,4.028276611328125,-0.01980331912636757,-0.11703462898731232,-0.07447435706853867
1789634959437315600,4.038315673828125,-0.04290397837758064,-0.23601746559143066,-0.030444687232375145
1789634959447355600,4.048355712890625,-0.05852022022008896,-0.287026047706604,0.02031436376273632
1789634959457395500,4.0583955078125,-0.05885148420929909,-0.24770572781562805,0.03141866996884346
1789634959467434800,4.068434814453125,-0.06090158224105835,-0.2453104853630066,0.02214794047176838
1789634959477474800,4.078474853515625,-0.04773591831326485,-0.29780447483062744,0.002909125294536352
1789634959487513600,4.088513671875,-0.03276016563177109,-0.34667590260505676,-0.02566605992615223
1789634959497553700,4.0985537109375,-0.03165052831172943,-0.3130742013454437,-0.05901087448000908
1789634959507593700,4.10859375,-0.03260660171508789,-0.19979023933410645,-0.09311504662036896
1789634959517632800,4.1186328125,-0.021350782364606857,-0.053335875272750854,-0.13618336617946625
1789634959527672600,4.128672607421875,-0.021285802125930786,-0.05318886786699295,-0.19259098172187805
1789634959537712600,4.138712646484375,-0.04744420200586319,-0.07280605286359787,-0.26074016094207764
1789634959547751700,4.148751708984375,-0.0789688378572464,-0.07600877434015274,-0.3664189279079437
1789634959557791700,4.158791748046875,-0.12871985137462616,-0.19702617824077606,-0.4842890799045563
1789634959567830500,4.16883056640625,-0.21980634331703186,-0.41362929344177246,-0.6038519740104675
1789634959577870600,4.17887060546875,-0.3310930132865906,-0.5703341960906982,-0.7254766225814819
1789634959587910700,4.18891064453125,-0.4167482554912567,-0.5660215020179749,-0.8632168769836426
1789634959597949700,4.19894970703125,-0.47865116596221924,-0.35319486260414124,-1.0307092666625977
1789634959607989500,4.208989501953125,-0.4988086223602295,0.0793304443359375,-1.2444239854812622
1789634959618029600,4.219029541015625,-0.5220510959625244,0.5087875723838806,-1.437587022781372
1789634959628068600,4.229068603515625,-0.5547187924385071,0.5905676484107971,-1.5183402299880981
1789634959638108700,4.239108642578125,-0.5838310718536377,0.33839452266693115,-1.5064575672149658
1789634959648147500,4.2491474609375,-0.6036260724067688,0.12706126272678375,-1.4969098567962646
1789634959658187500,4.2591875,-0.6165840029716492,0.14522846043109894,-1.5517634153366089
1789634959668227600,4.2692275390625,-0.6258283853530884,0.38502398133277893,-1.6896584033966064
1789634959678266600,4.2792666015625,-0.6540893912315369,0.6887979507446289,-1.8967469930648804
1789634959688306700,4.289306640625,-0.6553466320037842,0.8657228946685791,-2.0389010906219482
1789634959698345700,4.299345703125,-0.6125068664550781,0.8280946612358093,-2.029855251312256
1789634959708386600,4.309386474609375,-0.5621896386146545,0.5817722678184509,-1.8298932313919067
1789634959718426400,4.31942626953125,-0.5796816349029541,0.20013649761676788,-1.587837815284729
1789634959728465700,4.329465576171875,-0.5877281427383423,-0.021747170016169548,-1.53532075881958
1789634959738505700,4.339505615234375,-0.5081347227096558,-0.15463800728321075,-1.676100492477417
1789634959748545500,4.349545654296875,-0.33304542303085327,-0.3546198308467865,-1.8556270599365234
1789634959758584600,4.35958447265625,-0.12729081511497498,-0.5713337659835815,-2.0310285091400146
1789634959768624600,4.369624755859375,0.06050277501344681,-0.6508411169052124,-2.125805377960205
1789634959778663700,4.37966357421875,0.16521340608596802,-0.6461998820304871,-2.085275650024414
1789634959788703500,4.389703369140625,0.17616991698741913,-0.5606173872947693,-1.917373538017273
1789634959798743600,4.39974365234375,0.15401187539100647,-0.38023507595062256,-1.721108078956604
1789634959808782600,4.409782470703125,0.11431027203798294,-0.14777494966983795,-1.5798205137252808
1789634959818822700,4.41982275390625,0.0733625739812851,-0.003993802238255739,-1.522133231163025
1789634959828862700,4.42986279296875,0.02332950383424759,-0.12109246104955673,-1.5363163948059082
1789634959838901500,4.439901611328125,0.007047969847917557,-0.3021363615989685,-1.5057549476623535
1789634959848941600,4.449941650390625,-0.00582388648763299,-0.5016782283782959,-1.4074093103408813
1789634959858980600,4.459980712890625,-0.023462101817131042,-0.6265420317649841,-1.2832612991333008
1789634959869020400,4.4700205078125,-0.02405225858092308,-0.7087796330451965,-1.1481914520263672
1789634959879060500,4.480060546875,0.007945522665977478,-0.7735934853553772,-1.0204648971557617
1789634959889099500,4.490099609375,0.05396920442581177,-0.7689214944839478,-0.894568920135498
1789634959899139600,4.5001396484375,0.09227091819047928,-0.6812965273857117,-0.7973127961158752
1789634959909179400,4.510179443359375,0.08965303003787994,-0.5527926087379456,-0.708631157875061
1789634959919218400,4.520218505859375,0.0754716694355011,-0.4529971480369568,-0.596129834651947
1789634959929258500,4.530258544921875,0.07314060628414154,-0.35838544368743896,-0.46240749955177307
1789634959939297800,4.5402978515625,0.05991831049323082,-0.3251650929450989,-0.32180652022361755
1789634959949337600,4.550337646484375,0.05647271126508713,-0.23953302204608917,-0.23013171553611755
1789634959959377400,4.56037744140625,0.059248290956020355,-0.22516173124313354,-0.16878847777843475
1789634959969416700,4.570416748046875,0.04988089203834534,-0.332347571849823,-0.15365345776081085
1789634959979456800,4.580456787109375,0.028078420087695122,-0.41872555017471313,-0.16866843402385712
1789634959989496600,4.59049658203125,-0.04472574591636658,-0.39862027764320374,-0.18492943048477173
1789634959999535600,4.60053564453125,-0.1471884697675705,-0.3514639735221863,-0.0937153622508049
1789634960009575700,4.61057568359375,-0.25113457441329956,-0.31503617763519287,0.047442030161619186
1789634960019614500,4.620614501953125,-0.33105379343032837,-0.3281429708003998,0.13433988392353058
1789634960029654500,4.630654541015625,-0.361186683177948,-0.3746502697467804,0.13915753364562988
1789634960039694600,4.640694580078125,-0.360053688287735,-0.3683911859989166,0.107930026948452
1789634960049733600,4.650733642578125,-0.3661893606185913,-0.2380659282207489,0.07802778482437134
1789634960059773400,4.6607734375,-0.36126378178596497,0.00978660024702549,0.07811664789915085
1789634960069813500,4.6708134765625,-0.36257246136665344,0.15703943371772766,0.08076170086860657
1789634960079852500,4.6808525390625,-0.34021323919296265,0.15976029634475708,0.05030670762062073
1789634960089892600,4.690892578125,-0.2983052134513855,0.07159927487373352,0.005630852654576302
1789634960099931400,4.700931396484375,-0.2544042468070984,0.17539431154727936,0.022203344851732254
1789634960109971500,4.710971435546875,-0.2030278742313385,0.10710927098989487,-0.0224663894623518
1789634960120011500,4.721011474609375,-0.14311400055885315,0.16269251704216003,-0.10075605660676956
1789634960130050600,4.731050537109375,-0.09035864472389221,0.22527439892292023,-0.1481826901435852
1789634960140090400,4.74109033203125,-0.06636908650398254,0.0060239629819989204,-0.19159305095672607
1789634960150129700,4.751129638671875,-0.04737808555364609,-0.16405801475048065,-0.20605534315109253
1789634960160169700,4.761169677734375,-0.013492126949131489,-0.12529675662517548,-0.20317807793617249
1789634960170209500,4.77120947265625,0.028185544535517693,-0.0249714907258749,-0.24354760348796844
1789634960180248600,4.78124853515625,0.10295446217060089,-0.08279987424612045,-0.34753262996673584
1789634960190288600,4.79128857421875,0.1902342289686203,-0.3362198770046234,-0.48158472776412964
1789634960200328700,4.80132861328125,0.2765404284000397,-0.46857917308807373,-0.6267428398132324
1789634960210367500,4.811367431640625,0.39101481437683105,-0.3834666609764099,-0.6445037126541138
1789634960220407600,4.821407470703125,0.4814172387123108,-0.37206172943115234,-0.5841717720031738
1789634960230446600,4.831446533203125,0.5297054052352905,-0.5159757137298584,-0.5599899888038635
1789634960240486700,4.841486572265625,0.5107422471046448,-0.6102657914161682,-0.5506666898727417
1789634960250526700,4.851526611328125,0.4392302334308624,-0.5402169227600098,-0.5034597516059875
1789634960260565500,4.8615654296875,0.35533949732780457,-0.4013492166996002,-0.4364597499370575
1789634960270605600,4.87160546875,0.2834879457950592,-0.3953309953212738,-0.3953101933002472
1789634960280645600,4.881645751953125,0.2221897691488266,-0.47687363624572754,-0.4117293953895569
1789634960290684400,4.891684326171875,0.19912093877792358,-0.5661494135856628,-0.4270987808704376
1789634960300724500,4.901724365234375,0.2179652601480484,-0.544400155544281,-0.4305621087551117
1789634960310763500,4.911763427734375,0.24142451584339142,-0.46206024289131165,-0.3993479907512665
1789634960320803600,4.921803466796875,0.2209411859512329,-0.4030313491821289,-0.38254833221435547
1789634960330843400,4.931843505859375,0.15922535955905914,-0.3675457835197449,-0.3494015634059906
1789634960340882400,4.94188232421875,0.0896001011133194,-0.334562212228775,-0.2793070673942566
1789634960350922500,4.951922607421875,0.022368336096405983,-0.34971028566360474,-0.21922481060028076
1789634960360962600,4.961962646484375,-0.019101673737168312,-0.3909236192703247,-0.23988980054855347
1789634960371001600,4.972001708984375,-0.05224630981683731,-0.5136697888374329,-0.3168141543865204
1789634960381041400,4.98204150390625,-0.08114001154899597,-0.6027929782867432,-0.40976086258888245
1789634960391080700,4.992080810546875,-0.10911811888217926,-0.6386548280715942,-0.4740501046180725
1789634960401120800,5.002120849609375,-0.13944090902805328,-0.6169635057449341,-0.44035497307777405
1789634960411160600,5.01216064453125,-0.17937687039375305,-0.45124509930610657,-0.36933112144470215
1789634960421199600,5.02219970703125,-0.23741373419761658,-0.302990198135376,-0.3312777578830719
1789634960431239700,5.03223974609375,-0.2943529188632965,-0.3255719542503357,-0.3208685517311096
1789634960441279700,5.04227978515625,-0.3153700828552246,-0.34484103322029114,-0.35393959283828735
1789634960451318500,5.052318603515625,-0.3038567006587982,-0.3402915596961975,-0.4010844826698303
1789634960461358600,5.062358642578125,-0.2737627327442169,-0.35477331280708313,-0.4309355914592743
1789634960471397600,5.072397705078125,-0.23947745561599731,-0.3298999071121216,-0.4120332598686218
1789634960481437400,5.0824375,-0.23814044892787933,-0.3044034242630005,-0.4373989701271057
1789634960491477500,5.0924775390625,-0.23548315465450287,-0.25780370831489563,-0.48880571126937866
1789634960501516500,5.1025166015625,-0.2069050371646881,-0.08181989192962646,-0.5400033593177795
1789634960511556600,5.112556640625,-0.15209424495697021,0.071193628013134,-0.5544829964637756
1789634960521595400,5.122595458984375,-0.09952780604362488,0.09224916994571686,-0.5821440815925598
1789634960531635500,5.132635498046875,-0.049688611179590225,-0.001732182689011097,-0.5880573391914368
1789634960541675500,5.142675537109375,0.01264150720089674,-0.12124013900756836,-0.5615183711051941
1789634960551714600,5.152714599609375,0.06997217237949371,-0.21172502636909485,-0.5313969254493713
1789634960561754400,5.16275439453125,0.1278904676437378,-0.2974785268306732,-0.522200345993042
1789634960571794400,5.17279443359375,0.1661989837884903,-0.35025277733802795,-0.5604031085968018
1789634960581833700,5.182833740234375,0.19746309518814087,-0.5273240804672241,-0.6341786980628967
1789634960591873500,5.19287353515625,0.18066945672035217,-0.6550319790840149,-0.7128655314445496
1789634960601912600,5.20291259765625,0.11939365416765213,-0.5712605714797974,-0.7220413684844971
1789634960611952600,5.21295263671875,0.06348511576652527,-0.4576682448387146,-0.7195438742637634
1789634960621992700,5.22299267578125,0.0065846797078847885,-0.4769551157951355,-0.7372470498085022
1789634960632031500,5.233031494140625,-0.028399668633937836,-0.5380741357803345,-0.763340175151825
1789634960642071600,5.243071533203125,-0.030184254050254822,-0.5439082980155945,-0.7307345271110535
1789634960652111600,5.253111572265625,0.015892963856458664,-0.5026236772537231,-0.6662260890007019
1789634960662150700,5.263150634765625,0.09271766245365143,-0.42468345165252686,-0.6045449376106262
1789634960672190700,5.273190673828125,0.17620964348316193,-0.3053421676158905,-0.5969703793525696
1789634960682229500,5.2832294921875,0.2262500822544098,-0.276691734790802,-0.6359866857528687
1789634960692269600,5.29326953125,0.2206345498561859,-0.2860463559627533,-0.6732349991798401
1789634960702309600,5.3033095703125,0.1831878125667572,-0.3164283037185669,-0.743053674697876
1789634960712348200,5.31334814453125,0.15989473462104797,-0.34315311908721924,-0.7727956175804138
1789634960722388000,5.323387939453125,0.18613623082637787,-0.3052418828010559,-0.7244871854782104
1789634960732428000,5.333427978515625,0.24196220934391022,-0.21157529950141907,-0.6790041327476501
1789634960742467000,5.343467041015625,0.3132425546646118,-0.15974348783493042,-0.6477439999580383
1789634960752507100,5.353507080078125,0.3756798505783081,-0.14726071059703827,-0.646876871585846
1789634960762546200,5.363546142578125,0.3562820553779602,-0.22968332469463348,-0.6555349230766296
1789634960772586000,5.3735859375,0.3104170858860016,-0.2642793655395508,-0.6932061314582825
1789634960782626000,5.3836259765625,0.3090435266494751,-0.28856757283210754,-0.8257408738136292
1789634960792665300,5.393665283203125,0.29471516609191895,-0.5537134408950806,-0.925941526889801
1789634960802705200,5.403705078125,0.268282026052475,-0.7020120024681091,-0.996157705783844
1789634960812745200,5.4137451171875,0.17336112260818481,-0.7485787272453308,-0.9832559823989868
1789634960822784300,5.4237841796875,0.04613172262907028,-0.7282634377479553,-0.9730517268180847
1789634960832824300,5.43382421875,-0.07429801672697067,-0.5475863218307495,-0.9971418976783752
1789634960842863000,5.443863037109375,-0.12815725803375244,-0.1871487945318222,-1.0241446495056152
1789634960852903200,5.453903076171875,-0.1376277208328247,-0.05405119061470032,-1.0223969221115112
1789634960862943200,5.463943115234375,-0.1865035891532898,-0.15619759261608124,-1.02629816532135
1789634960872982000,5.47398193359375,-0.22240325808525085,-0.17780701816082,-0.9430565237998962
1789634960883022000,5.48402197265625,-0.24946288764476776,-0.1379910558462143,-0.8898024559020996
1789634960893062100,5.494062255859375,-0.275696337223053,-0.016488049179315567,-0.8781329989433289
1789634960903101200,5.50410107421875,-0.3155997395515442,0.1351839154958725,-0.8671315312385559
1789634960913141200,5.514141357421875,-0.3109581172466278,0.2784971296787262,-0.8751135468482971
1789634960923180000,5.524179931640625,-0.2623194456100464,0.38734570145606995,-0.9552181363105774
1789634960933220000,5.53422021484375,-0.19244126975536346,0.46042123436927795,-1.0692567825317383
1789634960943260200,5.54426025390625,-0.1613834798336029,0.5473804473876953,-1.1317155361175537
1789634960953299000,5.554298828125,-0.15563558042049408,0.5238823294639587,-1.0981191396713257
1789634960963339000,5.564339111328125,-0.14983178675174713,0.4228956997394562,-1.0170749425888062
1789634960973379000,5.574379150390625,-0.11277496814727783,0.4116997718811035,-0.9680951237678528
1789634960983418000,5.584418212890625,-0.08248333632946014,0.4441342353820801,-0.9633035659790039
1789634960993458000,5.5944580078125,-0.0418967679142952,0.6363077163696289,-1.0178449153900146
1789634961003497200,5.604497314453125,0.06189560890197754,0.9153341054916382,-1.1121296882629395
1789634961013537300,5.614537353515625,0.19762280583381653,1.078621745109558,-1.2189278602600098
1789634961023577000,5.6245771484375,0.3089389204978943,1.1757984161376953,-1.2626383304595947
1789634961033616100,5.6346162109375,0.34078288078308105,1.1802195310592651,-1.217353105545044
1789634961043656200,5.64465625,0.27884232997894287,1.1102657318115234,-1.0972754955291748
1789634961053696300,5.6546962890625,0.19193406403064728,0.9866055846214294,-0.9993838667869568
1789634961063735300,5.6647353515625,0.12075988948345184,0.7804011106491089,-0.8904377222061157
1789634961073775000,5.674775146484375,0.11513076722621918,0.6967592239379883,-0.7324840426445007
1789634961083814100,5.684814208984375,0.1383909434080124,0.8042312860488892,-0.6253340840339661
1789634961093854200,5.694854248046875,0.14034463465213776,0.7038045525550842,-0.5559041500091553
1789634961103894300,5.704894287109375,0.03575015068054199,0.36756226420402527,-0.34124526381492615
1789634961113933000,5.71493310546875,-0.1470060795545578,0.1798246204853058,-0.04889381676912308
1789634961123973000,5.72497314453125,-0.2761191725730896,0.22237905859947205,0.20841796696186066
1789634961134012200,5.73501220703125,-0.26154714822769165,0.35922959446907043,0.3367826044559479
1789634961144052000,5.745052001953125,-0.17178715765476227,0.3894383907318115,0.35150089859962463
1789634961154092000,5.755092041015625,-0.08419791609048843,0.3925793170928955,0.33750492334365845
1789634961164131000,5.765131103515625,-0.08014509081840515,0.3037477433681488,0.3952274024486542
1789634961174171100,5.775171142578125,-0.1424982100725174,0.11435836553573608,0.502943217754364
1789634961184211200,5.785211181640625,-0.22736594080924988,-0.07479894161224365,0.6263453960418701
1789634961194250000,5.79525,-0.30300796031951904,-0.12065617740154266,0.7811722755432129
1789634961204290000,5.8052900390625,-0.36178383231163025,-0.1371265947818756,0.9101735353469849
1789634961214329300,5.815329345703125,-0.4015251100063324,-0.12685823440551758,0.944617509841919
1789634961224369200,5.825369140625,-0.42250972986221313,-0.15619373321533203,1.004526138305664
1789634961234409200,5.8354091796875,-0.4019264280796051,0.024672463536262512,1.018107295036316
1789634961244448300,5.8454482421875,-0.3997492492198944,-0.0215388722717762,0.9925391674041748
1789634961254488300,5.85548828125,-0.4657445251941681,-0.3147289454936981,0.9894773364067078
1789634961264528100,5.865528076171875,-0.5964339375495911,-0.41842731833457947,1.042417287826538
1789634961274567200,5.875567138671875,-0.7358922362327576,-0.3920705318450928,1.0601329803466797
1789634961284607200,5.885607177734375,-0.8347854018211365,-0.4477402865886688,1.0699472427368164
1789634961294646000,5.89564599609375,-0.8462034463882446,-0.4202929437160492,1.0710300207138062
1789634961304686000,5.90568603515625,-0.7620871663093567,-0.233408585190773,1.0361138582229614
1789634961314726100,5.91572607421875,-0.6395793557167053,-0.08647346496582031,0.9254195690155029
1789634961324765200,5.92576513671875,-0.5701353549957275,-0.14152148365974426,0.8390384912490845
1789634961334805200,5.93580517578125,-0.5922832489013672,-0.17259524762630463,0.8353796005249023
1789634961344845000,5.945844970703125,-0.6309840679168701,-0.17734868824481964,0.8615766763687134
1789634961354884000,5.955884033203125,-0.6523911356925964,-0.18683086335659027,0.9588406085968018
1789634961364924200,5.965924072265625,-0.6298746466636658,-0.1781335175037384,1.0914334058761597
1789634961374963000,5.975962890625,-0.5283229947090149,-0.1351138800382614,1.0887361764907837
1789634961385003000,5.9860029296875,-0.3764082193374634,-0.06014612317085266,1.0264235734939575
1789634961395043000,5.99604296875,-0.24648988246917725,0.03931281715631485,0.9798296689987183
1789634961405082000,6.00608203125,-0.1475306898355484,0.15992872416973114,0.9284731149673462
1789634961415122000,6.016121826171875,-0.07019196450710297,0.1888519823551178,0.9146335124969482
1789634961425162000,6.026161865234375,-0.01138363592326641,0.2236110419034958,0.9825446009635925
1789634961435201300,6.036201171875,0.034747108817100525,0.17127299308776855,1.0690640211105347
1789634961445241000,6.046240966796875,0.06452035158872604,0.21391135454177856,1.0774352550506592
1789634961455280000,6.056280029296875,0.07597406953573227,0.4078664481639862,1.0385373830795288
1789634961465320200,6.0663203125,0.060924284160137177,0.6430150270462036,0.9952234625816345
1789634961475360300,6.0763603515625,0.04891662299633026,0.6437673568725586,0.9262891411781311
1789634961485399300,6.0863994140625,0.058038853108882904,0.4865838587284088,0.9208088517189026
1789634961495439000,6.096439208984375,0.05109306052327156,0.4538775682449341,1.0562347173690796
1789634961505479200,6.106479248046875,0.02242702804505825,0.4141724407672882,1.1931501626968384
1789634961515518200,6.116518310546875,0.02892061322927475,0.33180591464042664,1.2535157203674316
1789634961525558300,6.126558349609375,0.04871615394949913,0.3319856524467468,1.239685297012329
1789634961535597000,6.13659716796875,0.07218286395072937,0.3335031270980835,1.1844596862792969
1789634961545637000,6.14663720703125,0.08655168116092682,0.4367344081401825,1.2020694017410278
1789634961555677200,6.15667724609375,0.07402630150318146,0.49414339661598206,1.3218965530395508
1789634961565716000,6.166716064453125,0.09718935191631317,0.42906445264816284,1.4163599014282227
1789634961575756000,6.176756103515625,0.14810553193092346,0.2690050005912781,1.432188630104065
1789634961585796000,6.186796142578125,0.14679661393165588,0.1689586192369461,1.4106779098510742
1789634961595835100,6.196835205078125,0.10449576377868652,0.3889000117778778,1.47353994846344
1789634961605875200,6.206875244140625,0.09154504537582397,0.613918662071228,1.535266399383545
1789634961615914000,6.2169140625,0.12617120146751404,0.556916356086731,1.453156590461731
1789634961625954000,6.2269541015625,0.13647939264774323,0.24306827783584595,1.244869351387024
1789634961635994000,6.236994140625,0.06839781254529953,-0.04430597275495529,1.0982863903045654
1789634961646033200,6.247033203125,-0.08120992034673691,0.05284847319126129,1.1523901224136353
1789634961656073200,6.2570732421875,-0.2147035300731659,0.41809675097465515,1.3578252792358398
1789634961666113000,6.267113037109375,-0.23963715136051178,0.5067533254623413,1.5049002170562744
1789634961676152300,6.27715234375,-0.1722184270620346,0.2934620976448059,1.5121749639511108
1789634961686192000,6.287192138671875,-0.10002532601356506,0.12397292256355286,1.4048657417297363
1789634961696231200,6.297231201171875,-0.05980066955089569,0.05327664688229561,1.267852783203125
1789634961706271700,6.307271728515625,-0.12330950796604156,-0.05875352770090103,1.1523196697235107
1789634961716311800,6.317311767578125,-0.26388630270957947,-0.11196615546941757,1.0930653810501099
1789634961726350800,6.327350830078125,-0.39997291564941406,-0.1252172291278839,1.1726045608520508
1789634961736391000,6.337390869140625,-0.4620591998100281,-0.006402693688869476,1.3300458192825317
1789634961746431000,6.347430908203125,-0.461536169052124,0.2850499153137207,1.456382155418396
1789634961756469800,6.3574697265625,-0.42109552025794983,0.4686224162578583,1.4605108499526978
1789634961766509800,6.367509765625,-0.366547554731369,0.3268203139305115,1.3521339893341064
1789634961776548900,6.377548828125,-0.3076525628566742,-0.012243757024407387,1.2088559865951538
1789634961786588700,6.387588623046875,-0.26336759328842163,-0.3618687689304352,1.121895670890808
1789634961796628700,6.397628662109375,-0.21157628297805786,-0.4978084862232208,1.121686577796936
1789634961806667800,6.407667724609375,-0.1965436339378357,-0.31802263855934143,1.1634656190872192
1789634961816707800,6.417707763671875,-0.1945611834526062,0.07907862216234207,1.225732684135437
1789634961826747600,6.42774755859375,-0.15136630833148956,0.38459327816963196,1.2350831031799316
1789634961836786700,6.43778662109375,0.0029558888636529446,0.49181535840034485,1.1542044878005981
1789634961846826800,6.44782666015625,0.20057208836078644,0.5244448184967041,0.9796896576881409
1789634961856865800,6.45786572265625,0.33705297112464905,0.46438199281692505,0.797303318977356
1789634961866905600,6.467905517578125,0.35566166043281555,0.38687995076179504,0.6697037220001221
1789634961876945700,6.477945556640625,0.31040629744529724,0.44734248518943787,0.607688307762146
1789634961886984700,6.487984619140625,0.2669004797935486,0.6831827163696289,0.5540645718574524
1789634961897024800,6.498024658203125,0.2636394500732422,0.8533403277397156,0.4980013072490692
1789634961907063800,6.508063720703125,0.29922664165496826,0.9039063453674316,0.43275654315948486
1789634961917103900,6.518103759765625,0.32323023676872253,0.9729021787643433,0.34411296248435974
1789634961927144000,6.52814404296875,0.29589003324508667,0.9836193919181824,0.25880682468414307
1789634961937182700,6.5381826171875,0.26914894580841064,0.795366108417511,0.15779952704906464
1789634961947222800,6.548222900390625,0.334365576505661,0.4643414616584778,0.07244934141635895
1789634961957262800,6.558262939453125,0.3588283360004425,0.4635222852230072,0.08861685544252396
1789634961967302000,6.568302001953125,0.2304423749446869,0.7489562630653381,0.21323858201503754
1789634961977341700,6.578341796875,0.08949431031942368,0.9975417852401733,0.30365318059921265
1789634961987380700,6.588380615234375,0.08166378736495972,0.9843710660934448,0.2592124938964844
1789634961997420800,6.5984208984375,0.09846007823944092,0.6875620484352112,0.15639501810073853
1789634962007460900,6.6084609375,0.06298011541366577,0.3482222855091095,-0.017635680735111237
1789634962017499600,6.618499755859375,0.06420649588108063,0.11234797537326813,-0.22176511585712433
1789634962027539700,6.628539794921875,0.18782533705234528,0.049920499324798584,-0.4004144072532654
1789634962037579800,6.638579833984375,0.3351689875125885,0.2013462334871292,-0.5067960023880005
1789634962047618800,6.648618896484375,0.362343430519104,0.3407421112060547,-0.5013419985771179
1789634962057658600,6.65865869140625,0.28564971685409546,0.4603835642337799,-0.3960488438606262
1789634962067697700,6.66869775390625,0.2347654551267624,0.5313290357589722,-0.29990407824516296
1789634962077737700,6.67873779296875,0.29462453722953796,0.3665509819984436,-0.23556342720985413
1789634962087777800,6.68877783203125,0.332221657037735,0.19041235744953156,-0.2226657122373581
1789634962097816800,6.69881689453125,0.3085421621799469,0.3535517752170563,-0.35674044489860535
1789634962107856600,6.708856689453125,0.2608621418476105,0.6155964136123657,-0.4941823482513428
1789634962117896700,6.718896728515625,0.23653708398342133,0.5601783990859985,-0.5300519466400146
1789634962127935700,6.728935791015625,0.20857907831668854,0.2372373640537262,-0.47865283489227295
1789634962137975800,6.738975830078125,0.1993379145860672,0.0420532301068306,-0.4284679591655731
1789634962148014800,6.749014892578125,0.2281515896320343,0.18307644128799438,-0.4275428056716919
1789634962158055000,6.759054931640625,0.2794773578643799,0.41101160645484924,-0.4538460671901703
1789634962168095000,6.769094970703125,0.3190630078315735,0.45211005210876465,-0.4682025611400604
1789634962178133800,6.7791337890625,0.3531211316585541,0.3710751235485077,-0.47704294323921204
1789634962188173800,6.789173828125,0.3599131405353546,0.38127267360687256,-0.5126904249191284
1789634962198214000,6.7992138671875,0.3999021053314209,0.3612835109233856,-0.551418662071228
1789634962208252700,6.809252685546875,0.4430341124534607,0.10657399147748947,-0.520308256149292
1789634962218292700,6.819292724609375,0.44717666506767273,0.04935251176357269,-0.4360561966896057
1789634962228331800,6.829331787109375,0.4642683267593384,0.1745900809764862,-0.3557111620903015
1789634962238371800,6.839371826171875,0.4762650728225708,0.10271403193473816,-0.29756930470466614
1789634962248411600,6.84941162109375,0.44030237197875977,0.023996591567993164,-0.26372674107551575
1789634962258450700,6.85945068359375,0.3566010892391205,0.08202420175075531,-0.31687596440315247
1789634962268490800,6.86949072265625,0.3209485113620758,0.17141953110694885,-0.5062419772148132
1789634962278530800,6.87953076171875,0.36850404739379883,0.2511095702648163,-0.8057200312614441
1789634962288569600,6.889569580078125,0.4260707497596741,0.4595034420490265,-1.0811976194381714
1789634962298609700,6.899609619140625,0.4687950611114502,0.7976908087730408,-1.2324163913726807
1789634962308648700,6.909648681640625,0.5166957378387451,1.0197532176971436,-1.2106765508651733
1789634962318688800,6.919688720703125,0.5394971966743469,0.9818723201751709,-1.0838086605072021
1789634962328728600,6.929728515625,0.44411221146583557,0.7106477618217468,-0.967986524105072
1789634962338768000,6.939767822265625,0.3324269652366638,0.3914758861064911,-0.8694612383842468
1789634962348808000,6.949807861328125,0.2803650498390198,0.02587917260825634,-0.7714207768440247
1789634962358847700,6.95984765625,0.2882799804210663,-0.3789266347885132,-0.6430593132972717
1789634962368886800,6.96988671875,0.3081371784210205,-0.633445143699646,-0.510588526725769
1789634962378926800,6.9799267578125,0.32779452204704285,-0.721011221408844,-0.43964773416519165
1789634962388966000,6.9899658203125,0.3142000734806061,-0.5446357727050781,-0.47643786668777466
1789634962399005700,7.000005615234375,0.1766563355922699,-0.11594697833061218,-0.6167449355125427
1789634962409045800,7.010045654296875,0.1524418145418167,0.11956699937582016,-0.7570192217826843
1789634962419084800,7.020084716796875,0.2852613925933838,-0.19538429379463196,-0.7608786821365356
1789634962429124900,7.030124755859375,0.3201180696487427,-0.5017713308334351,-0.7129550576210022
1789634962439165000,7.0401650390625,0.260511189699173,-0.5235093832015991,-0.7419244050979614
1789634962449203700,7.05020361328125,0.23698166012763977,-0.5106821656227112,-0.8518247604370117
1789634962459243800,7.060243896484375,0.2127130776643753,-0.48002147674560547,-0.9133960008621216
1789634962469282800,7.07028271484375,0.18126560747623444,-0.3512530028820038,-0.9567427039146423
1789634962479322600,7.080322509765625,0.16012383997440338,-0.2440309375524521,-0.9914079904556274
1789634962489362700,7.09036279296875,0.09072203189134598,-0.16395384073257446,-1.0431939363479614
1789634962499401700,7.100401611328125,-0.025728683918714523,-0.07278558611869812,-1.0758674144744873
1789634962509441800,7.11044189453125,-0.11331821978092194,-0.1448233723640442,-1.0703582763671875
1789634962519480800,7.120480712890625,-0.17887060344219208,-0.31280413269996643,-0.9874151349067688
1789634962529520600,7.130520751953125,-0.19712594151496887,-0.6234832406044006,-0.9467511773109436
1789634962539560700,7.140560791015625,-0.14415167272090912,-0.9538086652755737,-0.9291503429412842
1789634962549600000,7.15060009765625,-0.07862093299627304,-1.0112457275390625,-0.9245720505714417
1789634962559639800,7.160639892578125,-0.017747458070516586,-0.8039661049842834,-0.990896463394165
1789634962569679600,7.1706796875,0.034519340842962265,-0.6220385432243347,-1.1186127662658691
1789634962579719000,7.180718994140625,0.05639534443616867,-0.7201909422874451,-1.1898536682128906
1789634962589759000,7.190759033203125,0.14127717912197113,-0.844869077205658,-1.1857104301452637
1789634962599797800,7.2007978515625,0.19432096183300018,-0.8899561166763306,-1.1376838684082031
1789634962609837800,7.210837890625,0.22309628129005432,-0.8016526103019714,-1.0988284349441528
1789634962619878000,7.2208779296875,0.2292710840702057,-0.5904234647750854,-1.0303221940994263
1789634962629916700,7.230916748046875,0.25041425228118896,-0.5027933716773987,-0.9632388353347778
1789634962639956700,7.240956787109375,0.26649683713912964,-0.6011162400245667,-0.971594512462616
1789634962649996800,7.250996826171875,0.25276392698287964,-0.7382262349128723,-1.0875481367111206
1789634962660035800,7.261035888671875,0.2614399492740631,-0.9240421652793884,-1.2400354146957397
1789634962670075600,7.27107568359375,0.33710038661956787,-1.0840461254119873,-1.3844153881072998
1789634962680114700,7.28111474609375,0.44308486580848694,-1.0988357067108154,-1.5006669759750366
1789634962690154800,7.29115478515625,0.5081434845924377,-1.0926705598831177,-1.5158376693725586
1789634962700194800,7.30119482421875,0.4617663621902466,-1.0320780277252197,-1.4522353410720825
1789634962710233000,7.311233154296875,0.3447098135948181,-0.8350539207458496,-1.407990574836731
1789634962720273200,7.321273193359375,0.2460242658853531,-0.7324079871177673,-1.391330599784851
1789634962730313000,7.33131298828125,0.19822867214679718,-0.6858183145523071,-1.4090476036071777
1789634962740352300,7.341352294921875,0.24152208864688873,-0.7101273536682129,-1.4996345043182373
1789634962750392300,7.351392333984375,0.31326544284820557,-0.9046264886856079,-1.5918806791305542
1789634962760431000,7.36143115234375,0.3576134443283081,-1.0165152549743652,-1.6867363452911377
1789634962770471200,7.37147119140625,0.38061919808387756,-0.9791635274887085,-1.755825161933899
1789634962780511200,7.38151123046875,0.4266945421695709,-0.9689434170722961,-1.7058171033859253
1789634962790550300,7.39155029296875,0.4408828914165497,-0.7585539817810059,-1.5692321062088013
1789634962800590000,7.401590087890625,0.3878159523010254,-0.3471408486366272,-1.4617033004760742
1789634962810630100,7.411630126953125,0.3131612241268158,-0.2025209367275238,-1.4256983995437622
1789634962820669200,7.421669189453125,0.21667808294296265,-0.24138924479484558,-1.4266656637191772
1789634962830709200,7.431709228515625,0.18301701545715332,-0.27943986654281616,-1.4748687744140625
1789634962840748000,7.441748046875,0.18381595611572266,-0.30224743485450745,-1.456311821937561
1789634962850788000,7.4517880859375,0.15569527447223663,-0.20491762459278107,-1.393123984336853
1789634962860828200,7.461828125,0.10098835080862045,-0.05294300988316536,-1.349418044090271
1789634962870867200,7.4718671875,0.05789194256067276,-0.02403823658823967,-1.3474208116531372
1789634962880907000,7.481906982421875,-0.005157331004738808,0.004638414829969406,-1.2980375289916992
1789634962890947000,7.491947021484375,-0.07052619010210037,0.08206959813833237,-1.2388761043548584
1789634962900986000,7.501986083984375,-0.1163749024271965,0.22533808648586273,-1.1780593395233154
1789634962911026200,7.512026123046875,-0.1304507702589035,0.3129481077194214,-1.1361846923828125
1789634962921065200,7.522065185546875,-0.16070561110973358,0.254546582698822,-1.1015836000442505
1789634962931105000,7.53210498046875,-0.22368711233139038,0.2614569664001465,-1.0215011835098267
1789634962941145000,7.54214501953125,-0.30065804719924927,0.2810141444206238,-0.9057590961456299
1789634962951184100,7.55218408203125,-0.3258902430534363,0.40579721331596375,-0.8434094190597534
1789634962961224200,7.56222412109375,-0.3220102787017822,0.5452693700790405,-0.8516455292701721
1789634962971264000,7.572263916015625,-0.30462387204170227,0.598252534866333,-0.8026946783065796
1789634962981303300,7.58230322265625,-0.3011031746864319,0.5501691699028015,-0.6458986401557922
1789634962991343400,7.59234326171875,-0.30045637488365173,0.5609719753265381,-0.5072550177574158
1789634963001382100,7.602382080078125,-0.3000526428222656,0.6437874436378479,-0.39759960770606995
1789634963011422200,7.612422119140625,-0.31130465865135193,0.6726409196853638,-0.24364034831523895
1789634963021462300,7.622462158203125,-0.36682942509651184,0.6833851337432861,-0.03805309534072876
1789634963031501000,7.6325009765625,-0.4862692356109619,0.6522361040115356,0.15301817655563354
1789634963041541000,7.642541015625,-0.628970742225647,0.664833128452301,0.3145151734352112
1789634963051581200,7.652581298828125,-0.7550302147865295,0.6302787065505981,0.47984981536865234
1789634963061620200,7.6626201171875,-0.7919964790344238,0.7128742337226868,0.6600992679595947
1789634963071660000,7.672659912109375,-0.7316168546676636,0.680169939994812,0.7634349465370178
1789634963081699000,7.682698974609375,-0.6762188076972961,0.6676471829414368,0.9099265933036804
1789634963091739100,7.6927392578125,-0.6620565056800842,0.6345362067222595,1.1029338836669922
1789634963101779200,7.702779296875,-0.6681783199310303,0.6250753402709961,1.2493313550949097
1789634963111818000,7.71281787109375,-0.658484935760498,0.5841915607452393,1.3831309080123901
1789634963121858000,7.722858154296875,-0.6075586080551147,0.7141810059547424,1.5633575916290283
1789634963131898000,7.732898193359375,-0.4989956021308899,0.8592992424964905,1.6215360164642334
1789634963141937200,7.742937255859375,-0.4223617911338806,0.7798342108726501,1.5189992189407349
1789634963151977000,7.75297705078125,-0.42084798216819763,0.5915853381156921,1.477263331413269
1789634963162016300,7.763016357421875,-0.4399862289428711,0.551319420337677,1.5716105699539185
1789634963172056300,7.773056396484375,-0.44038525223731995,0.633700966835022,1.6080482006072998
1789634963182096100,7.78309619140625,-0.4377165138721466,0.6486610174179077,1.5248461961746216
1789634963192135200,7.79313525390625,-0.4364023506641388,0.490021288394928,1.4898936748504639
1789634963202175200,7.80317529296875,-0.40021905303001404,0.3609844744205475,1.5744678974151611
1789634963212215300,7.81321533203125,-0.331624299287796,0.3723633587360382,1.6799384355545044
1789634963222254000,7.823254150390625,-0.2705954611301422,0.6167461276054382,1.7591372728347778
1789634963232294100,7.833294189453125,-0.21512311697006226,0.7904067039489746,1.8172954320907593
1789634963242333200,7.843333251953125,-0.14866553246974945,0.7740272283554077,1.874622106552124
1789634963252373200,7.853373291015625,-0.08027318120002747,0.7105882167816162,1.9028587341308594
1789634963262413000,7.8634130859375,-0.03235999122262001,0.6746547222137451,1.9215998649597168
1789634963272452000,7.8734521484375,-0.02973894216120243,0.7012271285057068,1.9456884860992432
1789634963282492200,7.8834921875,-0.07810860872268677,0.6965348720550537,1.983949065208435
1789634963292532200,7.8935322265625,-0.14051882922649384,0.5768796801567078,2.0495638847351074
1789634963302571000,7.903571044921875,-0.1629602164030075,0.4066387116909027,2.0948173999786377
1789634963312611000,7.913611083984375,-0.12183348089456558,0.36566799879074097,2.0724987983703613
1789634963322650000,7.923650146484375,-0.08371113240718842,0.41607898473739624,1.9967546463012695
1789634963332690200,7.933690185546875,-0.05894090235233307,0.42237553000450134,1.9046870470046997
1789634963342730000,7.94372998046875,-0.03819088265299797,0.21589957177639008,1.8569411039352417
1789634963352769000,7.95376904296875,-0.016239678487181664,-0.04011788219213486,1.8497719764709473
1789634963362809000,7.96380908203125,0.0603720098733902,0.01508012693375349,1.8829989433288574
1789634963372848000,7.97384814453125,0.1581973135471344,0.3274163007736206,1.9448370933532715
1789634963382888200,7.98388818359375,0.2479357123374939,0.5885805487632751,1.9379832744598389
1789634963392928000,7.993927978515625,0.30008453130722046,0.5426954030990601,1.8278117179870605
1789634963402967300,8.00396728515625,0.3030867278575897,0.1910010129213333,1.6587992906570435
1789634963413007400,8.01400732421875,0.24577400088310242,-0.17792733013629913,1.5200449228286743
1789634963423047200,8.024047119140626,0.16610446572303772,-0.33747172355651855,1.4964771270751953
1789634963433086200,8.034086181640625,0.08402863144874573,-0.17703518271446228,1.5899903774261475
1789634963443126300,8.044126220703125,0.02737760730087757,0.1319676637649536,1.7018697261810303
1789634963453165000,8.0541650390625,0.06082255020737648,0.43148040771484375,1.7228504419326782
1789634963463205000,8.064205078125,0.15599513053894043,0.5391615629196167,1.6662483215332031
1789634963473245200,8.0742451171875,0.26296404004096985,0.46946635842323303,1.6247456073760986
1789634963483284200,8.0842841796875,0.30706676840782166,0.48663681745529175,1.6186912059783936
1789634963493324000,8.094323974609376,0.2533847987651825,0.5894523859024048,1.6082686185836792
1789634963503364000,8.104364013671875,0.12798744440078735,0.22912459075450897,1.5113351345062256
1789634963513403100,8.114403076171875,0.0030187410302460194,-0.5254892706871033,1.3598532676696777
1789634963523443200,8.124443115234374,-0.056711431592702866,-0.631977915763855,1.29564368724823
1789634963533482000,8.13448193359375,-0.11226208508014679,0.09584131091833115,1.4220706224441528
1789634963543522000,8.14452197265625,-0.18679676949977875,0.8419237732887268,1.5270441770553589
1789634963553562000,8.15456201171875,-0.15446922183036804,1.0614259243011475,1.4079211950302124
1789634963563601200,8.16460107421875,-0.02430988848209381,0.8189853429794312,1.208983063697815
1789634963573641000,8.174640869140624,-0.0016199545934796333,0.4412887692451477,1.1083128452301025
1789634963583681000,8.184680908203125,-0.08936232328414917,0.2270345240831375,1.0509830713272095
1789634963593720300,8.19472021484375,-0.10192661732435226,-0.03294971585273743,0.9019237756729126
1789634963603760000,8.204760009765625,-0.04606015607714653,-0.30777275562286377,0.6893507838249207
1789634963613799200,8.214799072265626,0.011426438577473164,-0.29610198736190796,0.5604906678199768
1789634963623839200,8.224839111328125,0.04096782207489014,0.07322733104228973,0.5380255579948425
1789634963633879300,8.23487939453125,0.05968781188130379,0.6042799949645996,0.4927014708518982
1789634963643918000,8.24491796875,0.11542271822690964,0.8586771488189697,0.37127652764320374
1789634963653958100,8.254958251953125,0.22501029074192047,0.7446362376213074,0.26254329085350037
1789634963663998200,8.264998291015624,0.18224844336509705,0.5683472156524658,0.16948606073856354
1789634963674037200,8.275037353515625,-0.00022339285351336002,0.2601461708545685,0.01655292883515358
1789634963684077000,8.2850771484375,-0.08913782238960266,-0.14771591126918793,-0.20457467436790466
1789634963694116000,8.2951162109375,-0.06037204712629318,-0.23395219445228577,-0.4720640778541565
1789634963704156200,8.30515625,0.04305180907249451,-0.20084378123283386,-0.6702807545661926
1789634963714196700,8.31519677734375,0.13141143321990967,-0.1429782211780548,-0.7704033851623535
1789634963724235800,8.32523583984375,0.15188582241535187,0.08398061990737915,-0.8384612798690796
1789634963734275800,8.33527587890625,0.19136758148670197,0.26608091592788696,-0.8448001742362976
1789634963744316000,8.34531591796875,0.22151508927345276,0.2790108323097229,-0.8100818395614624
1789634963754354700,8.355354736328126,0.14778365194797516,0.4532466530799866,-0.8390248417854309
1789634963764394800,8.365394775390625,0.05926257371902466,0.7188265919685364,-0.923450767993927
1789634963774433800,8.375433837890625,0.06875550746917725,0.7802854776382446,-0.9889935851097107
1789634963784473600,8.3854736328125,0.13330574333667755,0.7756110429763794,-1.0258592367172241
1789634963794513700,8.395513671875,0.15108893811702728,0.8482244610786438,-1.0050265789031982
1789634963804552700,8.405552734375,0.16799068450927734,0.9625203609466553,-0.9108195900917053
1789634963814592800,8.4155927734375,0.2894178330898285,0.8602930903434753,-0.7460697889328003
1789634963824632800,8.4256328125,0.4442098140716553,0.2799181044101715,-0.49288487434387207
1789634963834671600,8.435671630859375,0.5131931900978088,-0.5047459006309509,-0.23753836750984192
1789634963844711700,8.445711669921875,0.4052017629146576,-0.7456740736961365,-0.075252003967762
1789634963854751000,8.4557509765625,0.3101051449775696,-0.5269735455513,-0.04412452504038811
1789634963864790800,8.465790771484375,0.23572039604187012,-0.12568311393260956,-0.1523122489452362
1789634963874830800,8.475830810546874,0.18781794607639313,0.2071659117937088,-0.3844131529331207
1789634963884870000,8.485869873046875,0.12921108305454254,0.28230220079421997,-0.6334038376808167
1789634963894910000,8.495909912109376,0.10188549757003784,0.38667792081832886,-0.8253509998321533
1789634963904949800,8.50594970703125,0.1394568383693695,0.47038930654525757,-0.9450318217277527
1789634963914988800,8.51598876953125,0.2153414785861969,0.38204988837242126,-1.0614066123962402
1789634963925028900,8.52602880859375,0.22216689586639404,0.17868849635124207,-1.1150938272476196
1789634963935067600,8.536067626953125,0.15538537502288818,0.025032993406057358,-1.077967882156372
1789634963945107700,8.546107666015626,0.07952523231506348,0.10090644657611847,-0.9669159054756165
1789634963955147800,8.556147705078125,0.02472100593149662,0.32443735003471375,-0.7859814763069153
1789634963965186800,8.566186767578126,0.06689109653234482,0.3797703683376312,-0.631935715675354
1789634963975227000,8.576226806640625,0.11875200271606445,0.0727352648973465,-0.6012172698974609
1789634963985266700,8.5862666015625,0.09315529465675354,-0.23175059258937836,-0.7152141332626343
1789634963995305700,8.5963056640625,0.11622805893421173,-0.3959212899208069,-0.8462647795677185
1789634964005345800,8.606345703125,0.19725312292575836,-0.5861173272132874,-0.8650661706924438
1789634964015384600,8.616384521484376,0.2563088834285736,-0.7416456341743469,-0.8586386442184448
1789634964025424600,8.626424560546875,0.23147039115428925,-0.659074604511261,-0.9681318402290344
1789634964035464700,8.636464599609376,0.18787656724452972,-0.43936967849731445,-1.1842076778411865
1789634964045503700,8.646503662109374,0.17558102309703827,-0.2910100221633911,-1.3825106620788574
1789634964055543600,8.65654345703125,0.20334607362747192,-0.5019792318344116,-1.487896203994751
1789634964065583600,8.66658349609375,0.23324725031852722,-0.5762268304824829,-1.4470840692520142
1789634964075623000,8.676622802734375,0.24883516132831573,-0.6711030006408691,-1.3615703582763672
1789634964085662700,8.686662841796876,0.21393869817256927,-0.8194730281829834,-1.2993417978286743
1789634964095701800,8.69670166015625,0.19166149199008942,-0.6978200078010559,-1.3365620374679565
1789634964105741800,8.706741943359376,0.09426916390657425,-0.7683042883872986,-1.4119728803634644
1789634964115782000,8.716781982421875,0.08049282431602478,-0.9360109567642212,-1.5014777183532715
1789634964125821000,8.726821044921875,0.12739507853984833,-1.2108135223388672,-1.5752997398376465
1789634964135860700,8.73686083984375,0.19605840742588043,-1.2098244428634644,-1.5893088579177856
1789634964145900800,8.74690087890625,0.2549728751182556,-0.7805036306381226,-1.5536048412322998
1789634964155939800,8.75693994140625,0.3574230670928955,-0.6707079410552979,-1.4891140460968018
1789634964165980000,8.76697998046875,0.4025636613368988,-0.8583917617797852,-1.4871315956115723
1789634964176018700,8.777018798828125,0.3701624870300293,-0.918494701385498,-1.5491437911987305
1789634964186058800,8.787058837890624,0.3653797209262848,-0.7698679566383362,-1.5705257654190063
1789634964196098800,8.797098876953125,0.4312376379966736,-0.7164909243583679,-1.5740889310836792
1789634964206137600,8.8071376953125,0.5165719389915466,-1.0018397569656372,-1.6202247142791748
1789634964216177700,8.817177734375,0.5942565202713013,-1.2740336656570435,-1.6514718532562256
1789634964226216700,8.827216796875,0.5937057733535767,-1.1627668142318726,-1.551064372062683
1789634964236256800,8.8372568359375,0.5413548946380615,-0.9115709662437439,-1.4687931537628174
1789634964246296800,8.847296875,0.5190900564193726,-0.8646532893180847,-1.5162101984024048
1789634964256335600,8.857335693359374,0.5146888494491577,-1.0207773447036743,-1.6383838653564453
1789634964266375700,8.867375732421875,0.44474703073501587,-1.181901216506958,-1.7610834836959839
1789634964276415700,8.877415771484374,0.4032529890537262,-1.1586506366729736,-1.8970530033111572
1789634964286454800,8.887454833984375,0.4465719759464264,-1.1935423612594604,-1.9412097930908203
1789634964296494800,8.897494873046876,0.5424656271934509,-1.1115479469299316,-1.8760896921157837
1789634964306534000,8.907533935546875,0.574958860874176,-0.8089256882667542,-1.7118059396743774
1789634964316574000,8.917573974609375,0.5485182404518127,-0.5334527492523193,-1.553225040435791
1789634964326613800,8.92761376953125,0.510096549987793,-0.35753577947616577,-1.576012134552002
1789634964336652800,8.93765283203125,0.48599401116371155,-0.3433869481086731,-1.6926511526107788
1789634964346692900,8.94769287109375,0.39581298828125,-0.47287943959236145,-1.7491360902786255
1789634964356733000,8.95773291015625,0.3143353760242462,-0.3307386636734009,-1.7435792684555054
1789634964366771700,8.967771728515626,0.312674880027771,0.006629533134400845,-1.6449346542358398
1789634964376811800,8.977811767578125,0.2742250859737396,0.18337838351726532,-1.5675345659255981
1789634964386850800,8.987850830078125,0.18304643034934998,0.32767030596733093,-1.4833736419677734
1789634964396891000,8.997890869140624,0.058245740830898285,0.407964825630188,-1.4326612949371338
1789634964406930700,9.0079306640625,-0.024544212967157364,0.3879964351654053,-1.3970180749893188
1789634964416969700,9.0179697265625,-0.06571771949529648,0.22658711671829224,-1.3647099733352661
1789634964427009800,9.028009765625,-0.15745589137077332,0.13647426664829254,-1.218583345413208
1789634964437049900,9.0380498046875,-0.274209588766098,0.1864050179719925,-0.984533965587616
1789634964447088600,9.048088623046874,-0.2901294231414795,0.32436472177505493,-0.8537083268165588
1789634964457128700,9.058128662109375,-0.2408962845802307,0.5914692878723145,-0.756081223487854
1789634964467167700,9.068167724609374,-0.1813935488462448,0.6487794518470764,-0.5850690007209778
1789634964477207600,9.07820751953125,-0.159849151968956,0.6095489263534546,-0.38914307951927185
1789634964487247600,9.08824755859375,-0.1582334041595459,0.6458477973937988,-0.24547378718852997
1789634964497287000,9.098286865234375,-0.20855742692947388,0.44535648822784424,-0.13742119073867798
1789634964507326700,9.10832666015625,-0.3152247369289398,0.14598068594932556,-0.02406533807516098
1789634964517366500,9.118366455078124,-0.41124728322029114,0.12147433310747147,0.12140872329473495
1789634964527405800,9.12840576171875,-0.37573936581611633,0.1780252307653427,0.223517507314682
1789634964537446000,9.13844580078125,-0.3546830415725708,0.13000740110874176,0.19375555217266083
1789634964547485000,9.14848486328125,-0.40296268463134766,0.06785029172897339,0.2510603964328766
1789634964557524700,9.158524658203126,-0.41886964440345764,0.13206033408641815,0.4721478521823883
1789634964567564800,9.168564697265625,-0.37802210450172424,0.3380712866783142,0.6170370578765869
1789634964577603800,9.178603759765625,-0.29330894351005554,0.48331695795059204,0.5801438093185425
1789634964587644000,9.188643798828124,-0.24938566982746124,0.2669138014316559,0.6092021465301514
1789634964597683700,9.19868359375,-0.296907514333725,0.09003835916519165,0.8310651183128357
1789634964607722800,9.20872265625,-0.3565239906311035,0.24200792610645294,1.0510519742965698
1789634964617762800,9.2187626953125,-0.4115142226219177,0.5135372281074524,1.0853031873703003
1789634964627803000,9.228802978515626,-0.36863893270492554,0.6123780012130737,0.9653221368789673
1789634964637841700,9.238841552734375,-0.2513919770717621,0.5159810781478882,0.9236655831336975
1789634964647881700,9.2488818359375,-0.18364062905311584,0.44452744722366333,1.0835468769073486
1789634964657920800,9.258920654296874,-0.20971040427684784,0.552062451839447,1.319492220878601
1789634964667960800,9.2689609375,-0.2921086251735687,0.7184597253799438,1.4626027345657349
1789634964678000600,9.279000732421874,-0.33487337827682495,0.691540539264679,1.4957494735717773
1789634964688039700,9.289039794921875,-0.3337306082248688,0.5574972033500671,1.5393424034118652
1789634964698079700,9.299079833984376,-0.34303906559944153,0.6073544025421143,1.6356488466262817
1789634964708119800,9.309119873046875,-0.36738649010658264,0.738116979598999,1.6805380582809448
1789634964718158800,9.319158935546875,-0.3550277352333069,0.638008177280426,1.6659071445465088
1789634964728198700,9.32919873046875,-0.3573891520500183,0.481733113527298,1.7206774950027466
1789634964738238000,9.339238037109375,-0.38671058416366577,0.5838378071784973,1.8760247230529785
1789634964748278000,9.349278076171874,-0.3704141676425934,0.7753539681434631,1.9451756477355957
1789634964758317800,9.35931787109375,-0.28535404801368713,0.809023380279541,1.8818906545639038
1789634964768356900,9.36935693359375,-0.21336722373962402,0.7743122577667236,1.8293542861938477
1789634964778397000,9.37939697265625,-0.18521921336650848,0.796235978603363,1.9138596057891846
1789634964788435700,9.389435791015625,-0.20576097071170807,0.8620085716247559,2.1052327156066895
1789634964798475800,9.399475830078124,-0.25308772921562195,0.78435879945755,2.2989954948425293
1789634964808515800,9.409515869140625,-0.28433433175086975,0.5281456708908081,2.3677313327789307
1789634964818555000,9.419554931640626,-0.32684069871902466,0.3592076897621155,2.3662636280059814
1789634964828595000,9.429594970703125,-0.3984954357147217,0.47744032740592957,2.354583978652954
1789634964838634800,9.439634765625,-0.4061461389064789,0.5873669385910034,2.329843759536743
1789634964848673800,9.449673828125,-0.352571040391922,0.5350712537765503,2.242584228515625
1789634964858713900,9.4597138671875,-0.2916683256626129,0.3405972719192505,2.0880801677703857
1789634964868752600,9.469752685546876,-0.26452139019966125,0.08139871805906296,1.9424277544021606
1789634964878792700,9.479792724609375,-0.30878186225891113,-0.007036502473056316,1.9438629150390625
1789634964888832800,9.489832763671876,-0.41637304425239563,0.18680059909820557,2.0997958183288574
1789634964898871800,9.499871826171875,-0.46227461099624634,0.34720760583877563,2.197789430618286
1789634964908911600,9.50991162109375,-0.4713818430900574,0.30103984475135803,2.106731414794922
1789634964918951700,9.51995166015625,-0.5202293992042542,0.25844502449035645,1.9274507761001587
1789634964928990700,9.52999072265625,-0.4975584149360657,0.2965617775917053,1.8237755298614502
1789634964939030800,9.54003076171875,-0.3351024389266968,0.31678810715675354,1.8187615871429443
1789634964949069800,9.55006982421875,-0.1147860586643219,0.21584470570087433,1.7846053838729858
1789634964959110000,9.56010986328125,0.02090349793434143,0.10273955762386322,1.6778935194015503
1789634964969150000,9.57014990234375,0.03331302851438522,0.26568904519081116,1.5970202684402466
1789634964979189000,9.58018896484375,0.03970618173480034,0.6042065620422363,1.6062771081924438
1789634964989228800,9.590228759765624,0.10514936596155167,0.6190316081047058,1.5850528478622437
1789634964999268900,9.600268798828125,0.17650318145751953,0.264361172914505,1.4602442979812622
1789634965009308000,9.610307861328126,0.17371031641960144,-0.038887135684490204,1.357670783996582
1789634965019348000,9.620347900390625,0.1616050750017166,0.12584032118320465,1.349199891090393
1789634965029386800,9.63038671875,0.17383724451065063,0.513884961605072,1.3480693101882935
1789634965039426800,9.6404267578125,0.2140863686800003,0.6694705486297607,1.237852931022644
1789634965049467000,9.650466796875,0.2532002329826355,0.4901529848575592,1.0479460954666138
1789634965059505700,9.660505615234374,0.23075918853282928,0.12381379306316376,0.8659519553184509
1789634965069545700,9.670545654296875,0.21353892982006073,-0.20184606313705444,0.7254475355148315
1789634965079585800,9.680585693359374,0.18770968914031982,-0.26280903816223145,0.6018788814544678
1789634965089624800,9.690624755859375,0.17896227538585663,-0.20201599597930908,0.5152486562728882
1789634965099665000,9.700664794921876,0.22079870104789734,-0.15739044547080994,0.5030919909477234
1789634965109703700,9.71070361328125,0.25328341126441956,-0.0492357462644577,0.5037998557090759
1789634965119743700,9.72074365234375,0.2601688504219055,0.20447905361652374,0.41918396949768066
1789634965129783800,9.73078369140625,0.26126793026924133,0.2981695830821991,0.2621384263038635
1789634965139822800,9.74082275390625,0.2378874123096466,0.10617142170667648,0.10424923896789551
1789634965149862700,9.750862548828126,0.15215173363685608,-0.14259499311447144,-0.012020648457109928
1789634965159902700,9.76090283203125,0.06077887862920761,-0.24802933633327484,-0.09964031726121902
1789634965169942000,9.77094189453125,0.027710141614079475,-0.11840075999498367,-0.17527835071086884
1789634965179981800,9.78098193359375,0.007057289592921734,0.0949699655175209,-0.2356397956609726
1789634965190020900,9.791020751953125,0.004591468721628189,0.2978104054927826,-0.2999356985092163
1789634965200061000,9.80106103515625,-0.036027561873197556,0.42486751079559326,-0.4059383273124695
1789634965210101000,9.81110107421875,-0.06092039495706558,0.4282984733581543,-0.5853815674781799
1789634965220139800,9.821139892578126,-0.07482385635375977,0.18976068496704102,-0.8217586874961853
1789634965230179800,9.831179931640625,-0.06850417703390121,-0.07316042482852936,-1.0601577758789062
1789634965240220000,9.841219970703126,-0.08939924091100693,0.0034394394606351852,-1.1872378587722778
1789634965250259000,9.851259033203124,-0.08100895583629608,0.3425748944282532,-1.18034827709198
1789634965260298800,9.861298828125,-0.02574925869703293,0.6571574211120605,-1.05210542678833
1789634965270337800,9.871337890625,0.09339337795972824,0.8044408559799194,-0.8734850883483887
1789634965280377900,9.8813779296875,0.18590766191482544,0.7054031491279602,-0.7070234417915344
1789634965290418000,9.89141796875,0.21267561614513397,0.445029616355896,-0.5944066047668457
1789634965300456700,9.901456787109375,0.19401098787784576,0.055046163499355316,-0.5227215886116028
1789634965310496800,9.911496826171875,0.16680839657783508,-0.3490983843803406,-0.5049958825111389
1789634965320536800,9.921536865234375,0.13256826996803284,-0.5761022567749023,-0.5673944354057312
1789634965330575600,9.93157568359375,0.12541981041431427,-0.6234119534492493,-0.680764377117157
1789634965340615700,9.94161572265625,0.15698376297950745,-0.4685581922531128,-0.8112107515335083
1789634965350654700,9.95165478515625,0.1848958283662796,-0.1793908178806305,-0.9731778502464294
1789634965360694800,9.96169482421875,0.26362481713294983,-0.06776928156614304,-1.116260290145874
1789634965370734600,9.971734619140625,0.3710218369960785,-0.08075112104415894,-1.1536227464675903
1789634965380774000,9.98177392578125,0.40761899948120117,0.03590600565075874,-1.0883784294128418
1789634965390814000,9.99181396484375,0.36355382204055786,0.254879355430603,-1.0354654788970947
1789634965400853800,10.001853759765625,0.2349882572889328,0.3728829622268677,-1.0292376279830933
1789634965410892800,10.011892822265626,0.06572413444519043,0.32555726170539856,-1.087464451789856
1789634965420932900,10.021932861328125,-0.04270041361451149,0.15046893060207367,-1.2484747171401978
1789634965430972000,10.031971923828126,-0.04245273768901825,-0.05587118864059448,-1.4013599157333374
1789634965441012000,10.042011962890625,0.04996144771575928,-0.42047426104545593,-1.443532109260559
1789634965451051800,10.0520517578125,0.0997292697429657,-0.8828903436660767,-1.3768073320388794
1789634965461090800,10.0620908203125,0.09643963724374771,-1.079945683479309,-1.2424840927124023
1789634965471131000,10.072130859375,0.05490843579173088,-0.8087489604949951,-1.1054582595825195
1789634965481171000,10.0821708984375,0.0014024998527020216,-0.5041988492012024,-1.0699987411499023
1789634965491209700,10.092209716796875,-0.006492973305284977,-0.4713762104511261,-1.1145520210266113
1789634965501249800,10.102249755859376,0.05586674064397812,-0.5648205280303955,-1.1812125444412231
1789634965511288800,10.112288818359374,0.10758931934833527,-0.5978977680206299,-1.2869142293930054
1789634965521329000,10.122328857421875,0.15927638113498688,-0.8693143129348755,-1.441387414932251
1789634965531368700,10.13236865234375,0.22376856207847595,-1.2120109796524048,-1.6313022375106812
1789634965541407700,10.14240771484375,0.2536201477050781,-1.2725707292556763,-1.717206597328186
1789634965551447800,10.15244775390625,0.2349013388156891,-1.1153355836868286,-1.647339105606079
1789634965561488000,10.16248779296875,0.15853682160377502,-0.9523628354072571,-1.5733448266983032
1789634965571526700,10.172526611328125,0.07394257932901382,-0.7082788348197937,-1.6208041906356812
1789634965581566700,10.182566650390624,0.04855872690677643,-0.7213196754455566,-1.7106006145477295
1789634965591606000,10.19260595703125,0.08432764559984207,-0.8653503060340881,-1.7966891527175903
1789634965601645800,10.202645751953124,0.1457250565290451,-1.0212671756744385,-1.7897249460220337
1789634965611685600,10.212685546875,0.2351641207933426,-0.9419061541557312,-1.704390048980713
1789634965621725000,10.222724853515626,0.3590630292892456,-0.41505542397499084,-1.5752618312835693
1789634965631765000,10.232764892578125,0.4166080951690674,-0.29382485151290894,-1.5471811294555664
1789634965641804800,10.2428046875,0.4041794538497925,-0.8087964057922363,-1.7018295526504517
1789634965651843800,10.25284375,0.4091856777667999,-0.9651787877082825,-1.9342329502105713
1789634965661884000,10.2628837890625,0.44446173310279846,-1.1350003480911255,-2.104602098464966
1789634965671923000,10.2729228515625,0.48264989256858826,-1.2026516199111938,-2.179150342941284
1789634965681962800,10.282962646484375,0.4794701635837555,-1.0620429515838623,-2.1087732315063477
1789634965692002800,10.2930029296875,0.4346765875816345,-0.7619744539260864,-1.9256519079208374
1789634965702041900,10.303041748046875,0.394661009311676,-0.3499026894569397,-1.7583750486373901
1789634965712081000,10.313080810546875,0.36678704619407654,-0.22542041540145874,-1.7479032278060913
1789634965722121000,10.323120849609374,0.427152156829834,-0.3238677680492401,-1.8620907068252563
1789634965732159700,10.33315966796875,0.45106175541877747,-0.36538830399513245,-1.9197771549224854
1789634965742199800,10.34319970703125,0.419910192489624,-0.2531750798225403,-1.831825613975525
1789634965752239000,10.353239013671875,0.38809287548065186,-0.05615655705332756,-1.7230693101882935
1789634965762279000,10.36327880859375,0.3087995648384094,-0.00856521725654602,-1.667677402496338
1789634965772318700,10.373318603515624,0.23030874133110046,-0.06547830253839493,-1.5628337860107422
1789634965782358000,10.38335791015625,0.21244771778583527,-0.20809750258922577,-1.4092570543289185
1789634965792398000,10.393398193359374,0.18166130781173706,-0.2519315183162689,-1.2055004835128784
1789634965802438000,10.40343798828125,0.09009658545255661,-0.1834532469511032,-1.0022530555725098
1789634965812477000,10.413476806640626,0.0013275659875944257,0.04636076092720032,-0.864800214767456
1789634965822517000,10.42351708984375,0.02798580937087536,0.435848593711853,-0.7776972651481628
1789634965832556000,10.43355615234375,0.12843279540538788,0.4903773367404938,-0.7709668874740601
1789634965842595800,10.443595947265624,0.1794779896736145,0.24969738721847534,-0.7204564213752747
1789634965852636000,10.453635986328125,0.11663911491632462,0.09752649068832397,-0.5402328372001648
1789634965862675000,10.463675048828126,0.0055918521247804165,0.05621424317359924,-0.33029767870903015
1789634965872715000,10.473715087890625,-0.07155220210552216,0.17955295741558075,-0.24095316231250763
1789634965882754800,10.4837548828125,-0.12190348654985428,0.22136597335338593,-0.22634552419185638
1789634965892793900,10.4937939453125,-0.12335411459207535,0.39013636112213135,-0.1771412342786789
1789634965902834000,10.503833984375,-0.08909673988819122,0.47454726696014404,-0.04922717437148094
1789634965912872700,10.513872802734374,-0.04073692858219147,0.5596097111701965,0.06198882684111595
1789634965922912800,10.523912841796875,-0.040505703538656235,0.4588986337184906,0.10580700635910034
1789634965932952800,10.533952880859376,-0.11103366315364838,0.240038201212883,0.22997796535491943
1789634965942992000,10.543991943359375,-0.22658595442771912,0.2524235248565674,0.5245692729949951
1789634965953031700,10.55403173828125,-0.3319310247898102,0.5306417942047119,0.8899957537651062
1789634965963071700,10.56407177734375,-0.3609791398048401,0.9179571270942688,1.1583168506622314
1789634965973111000,10.574111083984375,-0.2638411223888397,1.015910029411316,1.250982403755188
1789634965983150800,10.58415087890625,-0.1798565685749054,0.8925211429595947,1.2689999341964722
1789634965993190000,10.59418994140625,-0.19207701086997986,0.7813395261764526,1.3780990839004517
1789634966003230000,10.60422998046875,-0.31077373027801514,0.5797522664070129,1.5562751293182373
1789634966013270000,10.61427001953125,-0.4443615972995758,0.6831340789794922,1.78786039352417
1789634966023309000,10.62430908203125,-0.5402554869651794,0.9764615893363953,2.06961989402771
1789634966033348900,10.634348876953124,-0.47719183564186096,0.9777960777282715,2.100189208984375
1789634966043389000,10.644388916015625,-0.3464110195636749,0.7476814389228821,2.018188714981079
1789634966053428000,10.654427978515624,-0.30390456318855286,0.664834201335907,2.1325881481170654
1789634966063468000,10.664468017578125,-0.30326300859451294,0.7079306244850159,2.3479132652282715
1789634966073506800,10.6745068359375,-0.24716727435588837,0.7922675609588623,2.417407274246216
1789634966083547000,10.684546875,-0.17217887938022614,0.8367149829864502,2.289267063140869
1789634966093587000,10.6945869140625,-0.16421443223953247,0.7055660486221313,2.1487255096435547
1789634966103625700,10.704625732421874,-0.20994722843170166,0.5281996130943298,2.182976245880127
1789634966113665800,10.714665771484375,-0.314346045255661,0.43566757440567017,2.335108518600464
1789634966123705900,10.724705810546874,-0.4188278317451477,0.43514326214790344,2.4835758209228516
1789634966133745000,10.734744873046875,-0.4434112012386322,0.45694735646247864,2.520728349685669
1789634966143785000,10.744784912109376,-0.3845924437046051,0.42881545424461365,2.4481375217437744
1789634966153823700,10.75482373046875,-0.28611671924591064,0.285741925239563,2.394097089767456
1789634966163863800,10.76486376953125,-0.20617422461509705,0.12723377346992493,2.404297113418579
1789634966173904000,10.77490380859375,-0.19342327117919922,0.1159805878996849,2.4681763648986816
1789634966183943000,10.78494287109375,-0.25301581621170044,0.2627376616001129,2.5226728916168213
1789634966193982700,10.794982666015626,-0.3155553638935089,0.3721728026866913,2.4923908710479736
1789634966204022800,10.805022705078125,-0.30215734243392944,0.2186611443758011,2.352078914642334
1789634966214062000,10.81506201171875,-0.2575280964374542,-0.0739869773387909,2.1809656620025635
1789634966224102000,10.825101806640625,-0.25603020191192627,-0.21249078214168549,2.084637403488159
1789634966234141000,10.835140869140625,-0.2546229958534241,-0.1361805647611618,2.0873334407806396
1789634966244181000,10.845180908203124,-0.18520057201385498,-0.11422930657863617,2.108977794647217
1789634966254221000,10.855220947265625,-0.11460895836353302,-0.11461253464221954,2.077132225036621
1789634966264259800,10.865259765625,-0.10991250723600388,0.04181239753961563,2.0278069972991943
1789634966274300000,10.8752998046875,-0.12263815104961395,0.2548389136791229,1.9481542110443115
1789634966284340000,10.885340087890626,-0.12009420245885849,0.2688223123550415,1.8063651323318481
1789634966294379000,10.89537890625,-0.10825085639953613,0.04709071293473244,1.6510282754898071
1789634966304418800,10.905418701171875,-0.048285458236932755,-0.1360350251197815,1.5023326873779297
1789634966314457900,10.915457763671874,0.07549986243247986,-0.11780168861150742,1.411914587020874
1789634966324498000,10.925497802734375,0.20432113111019135,0.04359688609838486,1.3725310564041138
1789634966334538000,10.9355380859375,0.22234486043453217,0.25743967294692993,1.3250887393951416
1789634966344576800,10.94557666015625,0.10421986132860184,0.40518948435783386,1.2971662282943726
1789634966354616800,10.955616943359376,0.02974402718245983,0.2878436744213104,1.3102344274520874
1789634966364657000,10.965656982421875,0.0015131544787436724,0.20372021198272705,1.2931429147720337
1789634966374695700,10.97569580078125,-0.051068831235170364,0.3630118668079376,1.1867449283599854
1789634966384735700,10.98573583984375,-0.05496054142713547,0.5723453164100647,1.0320910215377808
1789634966394775000,10.995775146484375,-0.004647834692150354,0.669599175453186,0.9093626737594604
1789634966404814800,11.00581494140625,0.06256592273712158,0.5929991602897644,0.8334901332855225
1789634966414855000,11.01585498046875,0.1980755478143692,0.24636074900627136,0.76060950756073
1789634966424894000,11.02589404296875,0.29428043961524963,0.011526002548635006,0.6248137950897217
1789634966434934000,11.03593408203125,0.19683271646499634,-0.03204650804400444,0.39299094676971436
1789634966444973800,11.045973876953125,0.038042038679122925,0.029675781726837158,0.12200950086116791
1789634966455012900,11.056012939453124,-0.08312992751598358,0.1312364935874939,-0.10262653976678848
1789634966465053000,11.066052978515625,-0.1179717630147934,0.2601000666618347,-0.22661209106445312
1789634966475092000,11.076092041015626,-0.061824873089790344,0.41231274604797363,-0.29053807258605957
1789634966485132000,11.086132080078125,0.028835354372859,0.4952983260154724,-0.38427701592445374
1789634966495171800,11.096171875,0.07517888396978378,0.5045973062515259,-0.5482489466667175
1789634966505211000,11.1062109375,0.0618518628180027,0.5093674659729004,-0.7377995848655701
1789634966515251000,11.1162509765625,0.00819822121411562,0.47126272320747375,-0.874156653881073
1789634966525291000,11.126291015625,0.015057392418384552,0.2302664816379547,-0.9233036041259766
1789634966535329800,11.136329833984375,0.02382185496389866,-0.014036470092833042,-0.9012095332145691
1789634966545369900,11.146369873046876,0.009146673604846,0.022497106343507767,-0.8566938042640686
1789634966555410000,11.156409912109375,0.05155858024954796,0.19058118760585785,-0.7651905417442322
1789634966565449000,11.166448974609375,0.14887329936027527,0.30413818359375,-0.6610140204429626
1789634966575488800,11.17648876953125,0.22759795188903809,0.4700813293457031,-0.6050476431846619
1789634966585527800,11.18652783203125,0.18051835894584656,0.8083419799804688,-0.5927714109420776
1789634966595567900,11.19656787109375,0.09140046685934067,1.061326026916504,-0.634297251701355
1789634966605608000,11.20660791015625,0.11000051349401474,0.7314184308052063,-0.7329375147819519
1789634966615646700,11.216646728515625,0.1542297750711441,0.09456530958414078,-0.8583492040634155
1789634966625686800,11.226686767578125,0.21706324815750122,-0.39396804571151733,-0.9487863779067993
1789634966635726000,11.23672607421875,0.2701405882835388,-0.7100746035575867,-1.0046498775482178
1789634966645766000,11.246765869140624,0.25017789006233215,-0.7328758239746094,-1.060127854347229
1789634966655806000,11.256805908203125,0.10638610273599625,-0.46561723947525024,-1.0942480564117432
1789634966665845000,11.266844970703126,-0.08433940261602402,0.11852071434259415,-1.0736202001571655
1789634966675885000,11.276885009765625,-0.15568600594997406,0.48909690976142883,-0.9657198786735535
1789634966685925000,11.286925048828126,-0.1481475532054901,0.7474024891853333,-0.8190532922744751
1789634966695964000,11.2969638671875,-0.12326749414205551,0.8373132348060608,-0.7993083596229553
1789634966706004000,11.30700390625,-0.05935089662671089,0.5712470412254333,-0.9884310960769653
1789634966716043500,11.31704345703125,0.06324373185634613,0.15330864489078522,-1.1649227142333984
1789634966726083600,11.32708349609375,0.18540409207344055,-0.2805398106575012,-1.2591007947921753
1789634966736123600,11.33712353515625,0.2862795889377594,-0.8079040050506592,-1.2221310138702393
1789634966746162400,11.347162353515625,0.3384643495082855,-1.168403148651123,-1.1252707242965698
1789634966756202500,11.357202392578126,0.35064536333084106,-1.1684744358062744,-1.0966545343399048
1789634966766242600,11.36724267578125,0.35278236865997314,-1.0166524648666382,-1.2123303413391113
1789634966776281600,11.377281494140625,0.39439693093299866,-1.0850560665130615,-1.4683716297149658
1789634966786321400,11.3873212890625,0.43955540657043457,-1.171132206916809,-1.664698600769043
1789634966796361500,11.397361572265625,0.47500792145729065,-1.0582349300384521,-1.7163783311843872
1789634966806400500,11.407400390625,0.4286402761936188,-0.5785292387008667,-1.6750975847244263
1789634966816440600,11.417440673828125,0.34061455726623535,-0.11197403818368912,-1.637446641921997
1789634966826479400,11.427479248046875,0.28265145421028137,-0.398822158575058,-1.6679563522338867
1789634966836519400,11.43751953125,0.3039141297340393,-0.7401300072669983,-1.7846426963806152
1789634966846559500,11.4475595703125,0.3210427165031433,-1.0007963180541992,-1.8799303770065308
1789634966856598500,11.4575986328125,0.32222461700439453,-1.207855224609375,-1.9178918600082397
1789634966866638300,11.467638427734375,0.31191104650497437,-0.922616183757782,-1.884214162826538
1789634966876677600,11.477677734375,0.32476428151130676,-0.4601244330406189,-1.7552015781402588
1789634966886717400,11.487717529296875,0.3865838050842285,-0.2896057367324829,-1.6160557270050049
1789634966896757500,11.497757568359376,0.4500615894794464,-0.3820640444755554,-1.5683728456497192
1789634966906796500,11.507796630859374,0.4352717697620392,-0.4818454384803772,-1.660649061203003
1789634966916836600,11.517836669921875,0.43086662888526917,-0.6181800961494446,-1.9206335544586182
1789634966926876700,11.527876708984374,0.4821477234363556,-0.877899706363678,-2.2070908546447754
1789634966936915700,11.537915771484375,0.5898848176002502,-1.4067531824111938,-2.3300445079803467
1789634966946955500,11.54795556640625,0.5463182330131531,-1.9395253658294678,-2.260369300842285
1789634966956994600,11.55799462890625,0.353035032749176,-1.8029483556747437,-2.133007049560547
1789634966967034600,11.56803466796875,0.19318798184394836,-1.300907015800476,-2.081160545349121
1789634966977074700,11.57807470703125,0.11356079578399658,-0.956674337387085,-2.0542657375335693
1789634966987113500,11.588113525390625,0.11384718865156174,-0.5927867293357849,-1.9663987159729004
1789634966997153500,11.598153564453124,0.18595413863658905,-0.3210199177265167,-1.9117181301116943
1789634967007193600,11.608193603515625,0.28067687153816223,-0.29267418384552,-1.929625391960144
1789634967017232400,11.618232421875,0.3981395661830902,-0.25017037987709045,-2.0257375240325928
1789634967027272400,11.6282724609375,0.5055676102638245,-0.08498089015483856,-2.0587069988250732
1789634967037312500,11.6383125,0.539145827293396,0.09422454982995987,-1.9799959659576416
1789634967047351600,11.6483515625,0.47296541929244995,0.4688638746738434,-1.7627977132797241
1789634967057391400,11.658391357421875,0.37878939509391785,0.7948300242424011,-1.5790294408798218
1789634967067430400,11.668430419921876,0.2832743227481842,0.7883766293525696,-1.4039280414581299
1789634967077470500,11.678470458984375,0.12168806791305542,0.5145426392555237,-1.1983312368392944
1789634967087510500,11.688510498046876,-0.07248004525899887,0.14841793477535248,-0.9450833797454834
1789634967097549300,11.69854931640625,-0.2505009174346924,-0.06114620342850685,-0.7229453325271606
1789634967107589400,11.70858935546875,-0.3575943112373352,0.04404846951365471,-0.5665065050125122
1789634967117629400,11.71862939453125,-0.38975250720977783,-0.029644925147294998,-0.5307309031486511
1789634967127668700,11.728668701171875,-0.368125319480896,-0.09285040944814682,-0.5053307414054871
1789634967137708500,11.73870849609375,-0.31760701537132263,0.030126383528113365,-0.37376126646995544
1789634967147747600,11.74874755859375,-0.2153865396976471,0.22750118374824524,-0.20492328703403473
1789634967157787600,11.75878759765625,-0.1578529328107834,0.24555927515029907,-0.10147438198328018
1789634967167827700,11.76882763671875,-0.12461715936660767,0.4153721332550049,0.02020237408578396
1789634967177866500,11.778866455078125,-0.06330373138189316,0.5864096879959106,0.17367582023143768
1789634967187906600,11.788906494140624,-0.027227146551012993,0.6437263488769531,0.26454415917396545
1789634967197946600,11.798946533203125,-0.005753280594944954,0.6460509896278381,0.2760929763317108
1789634967207985400,11.8089853515625,0.01666281372308731,0.5698544979095459,0.3593370020389557
1789634967218025500,11.819025390625,-0.004668574780225754,0.4233947992324829,0.5870221257209778
1789634967228064500,11.829064453125,-0.12373527884483337,0.4239450693130493,0.8095144629478455
1789634967238104600,11.8391044921875,-0.3203577995300293,0.5574967265129089,0.9714761972427368
1789634967248144600,11.84914453125,-0.46232691407203674,0.6630740165710449,1.127548336982727
1789634967258183400,11.859183349609374,-0.47557827830314636,0.777005672454834,1.317766547203064
1789634967268223500,11.869223388671875,-0.3651407063007355,0.8394951224327087,1.4798762798309326
1789634967278263600,11.879263671875,-0.24663376808166504,0.9503891468048096,1.570006012916565
1789634967288302300,11.88930224609375,-0.20559188723564148,1.1015009880065918,1.6121373176574707
1789634967298342400,11.89934228515625,-0.2284141182899475,1.0542429685592651,1.6503355503082275
1789634967308381400,11.90938134765625,-0.2814098596572876,0.9037812352180481,1.7429362535476685
1789634967318421500,11.91942138671875,-0.3413488268852234,0.9209551811218262,2.0039031505584717
1789634967328461300,11.92946142578125,-0.41086891293525696,0.947517454624176,2.311551809310913
1789634967338500600,11.93950048828125,-0.43918153643608093,0.9540568590164185,2.4406704902648926
1789634967348540700,11.949540771484376,-0.37829774618148804,0.9580881595611572,2.3490798473358154
1789634967358580500,11.95958056640625,-0.24302753806114197,0.7610265016555786,2.2551863193511963
1789634967368619500,11.96961962890625,-0.17067545652389526,0.5019230246543884,2.4176015853881836
1789634967378659600,11.97965966796875,-0.18756762146949768,0.41367411613464355,2.6634132862091064
1789634967388698600,11.98969873046875,-0.21627956628799438,0.4914482533931732,2.7541093826293945
1789634967398738700,11.99973876953125,-0.2278965413570404,0.56144118309021,2.670808792114258
1789634967408778500,12.009778564453125,-0.21042074263095856,0.5802287459373474,2.494144916534424
1789634967418817500,12.019817626953126,-0.1311432272195816,0.5238514542579651,2.3086493015289307
1789634967428857600,12.029857666015625,-0.047870803624391556,0.3174903988838196,2.1795711517333984
1789634967438897700,12.039897705078126,-0.0031526037491858006,-0.006291134282946587,2.165283679962158
1789634967448936400,12.0499365234375,-0.01783124916255474,-0.20819225907325745,2.290349245071411
1789634967458976500,12.0599765625,-0.07484979182481766,-0.07695060223340988,2.5355913639068604
1789634967469015600,12.070015625,-0.1405983865261078,0.3302292823791504,2.762789011001587
1789634967479055400,12.080055419921875,-0.1440913826227188,0.5473203659057617,2.7442190647125244
1789634967489095400,12.090095458984376,-0.085453100502491,0.24036896228790283,2.4453341960906982
1789634967499134500,12.100134521484375,-0.03481229394674301,-0.35495778918266296,2.107038736343384
1789634967509174500,12.110174560546875,-0.006607388611882925,-0.6343209743499756,1.9951616525650024
1789634967519214600,12.120214599609374,0.0017930205212906003,-0.4923792779445648,2.108954429626465
1789634967529253400,12.13025341796875,-0.0715012401342392,-0.22336898744106293,2.242356777191162
1789634967539293400,12.14029345703125,-0.17031888663768768,0.09123288094997406,2.2424323558807373
1789634967549332700,12.150332763671875,-0.20004118978977203,0.22802677750587463,2.109072208404541
1789634967559372500,12.16037255859375,-0.1359863132238388,0.06711618602275848,1.927607536315918
1789634967569412400,12.170412353515625,-0.06351914256811142,-0.17408278584480286,1.7574723958969116
1789634967579451600,12.18045166015625,-0.003081895876675844,-0.41034698486328125,1.6139613389968872
1789634967589491700,12.19049169921875,0.047120753675699234,-0.49492406845092773,1.495776653289795
1789634967599531500,12.200531494140625,0.02837689220905304,-0.13039670884609222,1.4482730627059937
1789634967609570600,12.210570556640626,-0.046935804188251495,0.3923068046569824,1.4204415082931519
1789634967619610600,12.220610595703125,-0.02564835734665394,0.510619044303894,1.3629825115203857
1789634967629649400,12.2306494140625,0.018116800114512444,0.3160495162010193,1.2853378057479858
1789634967639689500,12.240689453125,-0.025567563250660896,0.18868756294250488,1.1727252006530762
1789634967649729500,12.2507294921875,-0.04561068117618561,0.056580573320388794,0.9832354784011841
1789634967659768600,12.2607685546875,-0.015321220271289349,-0.07940895855426788,0.7173135280609131
1789634967669808600,12.27080859375,-0.012405557557940483,0.004715830087661743,0.414701908826828
1789634967679848400,12.280848388671876,-0.02912195213139057,0.2526731789112091,0.11818183958530426
1789634967689887500,12.290887451171875,-0.03150811046361923,0.4080812335014343,-0.11217222362756729
1789634967699927600,12.300927490234375,0.009982873685657978,0.3718433380126953,-0.289450079202652
1789634967709966300,12.31096630859375,0.057453785091638565,0.08876568078994751,-0.43390265107154846
1789634967720006400,12.32100634765625,0.03359958529472351,-0.20512640476226807,-0.5753207802772522
1789634967730046500,12.33104638671875,-0.029362503439188004,-0.020894832909107208,-0.7018023729324341
1789634967740085200,12.341085205078125,-0.03211834281682968,0.3054502606391907,-0.7226951718330383
1789634967750125300,12.351125244140626,0.049630649387836456,0.40355563163757324,-0.6245101094245911
1789634967760165400,12.361165283203125,0.11542484164237976,0.3488215506076813,-0.48321986198425293
1789634967770204700,12.37120458984375,0.09780124574899673,0.28531184792518616,-0.453912615776062
1789634967780244200,12.381244140625,0.08793369680643082,0.10775303095579147,-0.5247156620025635
1789634967790283500,12.391283447265625,0.11697440594434738,-0.14643476903438568,-0.5879596471786499
1789634967800323600,12.401323486328126,0.13701441884040833,-0.2670120596885681,-0.6091650724411011
1789634967810363600,12.41136376953125,0.16016164422035217,-0.0918792113661766,-0.648889422416687
1789634967820402400,12.42140234375,0.18737836182117462,0.2629140317440033,-0.7301011681556702
1789634967830442500,12.4314423828125,0.19037091732025146,0.6324933767318726,-0.8394768834114075
1789634967840482600,12.441482666015625,0.20883356034755707,0.8158679604530334,-0.8944048881530762
1789634967850521300,12.451521240234374,0.26684069633483887,0.7222022414207458,-0.9110392928123474
1789634967860561400,12.4615615234375,0.3542211353778839,0.3781207799911499,-0.9364162683486938
1789634967870600400,12.471600341796876,0.4286639094352722,-0.10779853910207748,-0.923588752746582
1789634967880640500,12.481640625,0.37087464332580566,-0.4044528603553772,-0.8743245601654053
1789634967890680600,12.4916806640625,0.2238391935825348,-0.3358561098575592,-0.8325401544570923
1789634967900719400,12.50171923828125,0.13792242109775543,-0.13534827530384064,-0.8640456199645996
1789634967910759400,12.511759521484375,0.1433069109916687,0.018616721034049988,-1.0097209215164185
