time,seconds_elapsed,z,y,x
1788860594901412600,0.04841259765625,-0.39453667402267456,1.0404301881790161,-0.9115502238273621
1788860594911453700,0.05845361328125,-0.4195394814014435,1.2774089574813843,-0.9214545488357544
1788860594921495800,0.068495849609375,-0.45395711064338684,1.4122812747955322,-0.8710387349128723
1788860594931537000,0.078536865234375,-0.475836843252182,1.3551514148712158,-0.7620118856430054
1788860594941578800,0.088578857421875,-0.5016838908195496,1.1707061529159546,-0.647204577922821
1788860594951619800,0.098619873046875,-0.48962002992630005,0.963180661201477,-0.5755759477615356
1788860594961661700,0.10866162109375,-0.4234420657157898,0.8252846002578735,-0.662140965461731
1788860594971702800,0.118702880859375,-0.25216352939605713,0.8958005905151367,-1.1714662313461304
1788860594981744600,0.12874462890625,0.0923863872885704,1.3292204141616821,-1.8378077745437622
1788860594991785700,0.13878564453125,0.44973811507225037,2.076291561126709,-2.1973111629486084
1788860595001826800,0.148826904296875,0.7080325484275818,2.803332567214966,-2.3206186294555664
1788860595011868700,0.15886865234375,0.682623028755188,3.5958471298217773,-2.351461410522461
1788860595021909800,0.16890966796875,0.44446295499801636,4.104623794555664,-2.300323009490967
1788860595031952000,0.178951904296875,0.3239237368106842,3.9927401542663574,-2.1320159435272217
1788860595041993000,0.188992919921875,0.37387293577194214,3.423943281173706,-1.805837631225586
1788860595052034800,0.199034912109375,0.5131434798240662,2.6704049110412598,-1.3050123453140259
1788860595062076000,0.209075927734375,0.632338285446167,2.0750434398651123,-0.6889616250991821
1788860595072117800,0.21911767578125,0.7193259596824646,1.7290802001953125,0.010965831577777863
1788860595082158800,0.229158935546875,0.7181528210639954,1.22007155418396,0.7155895233154297
1788860595092200700,0.23920068359375,0.5867292881011963,0.858270525932312,1.372704267501831
1788860595102241800,0.24924169921875,0.24616903066635132,0.555442214012146,1.8752936124801636
1788860595112283600,0.25928369140625,-0.25495079159736633,-0.0156567245721817,2.1020350456237793
1788860595122324700,0.26932470703125,-0.7940310835838318,-0.780796468257904,2.1776247024536133
1788860595132366800,0.279366943359375,-1.2983498573303223,-1.391473650932312,2.2321860790252686
1788860595142408000,0.289407958984375,-1.7452716827392578,-1.9863890409469604,2.1979613304138184
1788860595152448800,0.29944873046875,-2.102992534637451,-2.511592388153076,1.9840672016143799
1788860595162491000,0.309490966796875,-2.3039767742156982,-2.83708119392395,1.576231598854065
1788860595172532000,0.319531982421875,-2.3502471446990967,-2.784562110900879,1.0197079181671143
1788860595182573800,0.32957373046875,-2.259094715118408,-2.2012908458709717,0.31904298067092896
1788860595192615000,0.339614990234375,-2.172084093093872,-1.657519817352295,-0.2710844874382019
1788860595202656800,0.34965673828125,-2.058983564376831,-1.6596566438674927,-0.8895626664161682
1788860595212697900,0.35969775390625,-1.8229914903640747,-1.944230318069458,-1.2838457822799683
1788860595222739700,0.36973974609375,-1.4611947536468506,-2.18373703956604,-1.3296977281570435
1788860595232780800,0.37978076171875,-1.0828324556350708,-2.3698527812957764,-1.0658687353134155
1788860595242823000,0.389822998046875,-0.6725038290023804,-2.6006922721862793,-0.6290522217750549
1788860595252864000,0.399864013671875,-0.19205306470394135,-2.7702560424804688,-0.12333844602108002
1788860595262905900,0.40990576171875,0.48604846000671387,-2.769345283508301,0.4460267424583435
1788860595272947000,0.419947021484375,1.196821689605713,-2.7225253582000732,0.9895973801612854
1788860595282988800,0.42998876953125,1.8062242269515991,-2.8714230060577393,1.4152981042861938
1788860595293030000,0.44002978515625,2.261474609375,-3.173964738845825,1.7214252948760986
1788860595303070700,0.45007080078125,2.4971086978912354,-3.4589383602142334,1.904449701309204
1788860595313112800,0.46011279296875,2.520677089691162,-3.6685409545898438,1.952962875366211
1788860595323153700,0.470153564453125,2.338758945465088,-3.7511954307556152,1.8614712953567505
1788860595333196000,0.480196044921875,2.0812559127807617,-3.731611490249634,1.671425223350525
1788860595343236900,0.49023681640625,1.6959888935089111,-3.5238375663757324,1.4589624404907227
1788860595353279000,0.500279052734375,1.2486143112182617,-3.3350207805633545,1.3039957284927368
1788860595363319800,0.51031982421875,1.0468111038208008,-3.3772456645965576,1.2861653566360474
1788860595373362000,0.52036181640625,1.2419792413711548,-3.681114673614502,1.4663242101669312
1788860595383402800,0.53040283203125,1.6994667053222656,-4.126526355743408,1.8222898244857788
1788860595393445000,0.540445068359375,2.167414426803589,-4.619668483734131,2.251861333847046
1788860595403486000,0.55048583984375,2.4449567794799805,-5.102259159088135,2.607004165649414
1788860595413528000,0.560528076171875,2.575599431991577,-5.17803955078125,2.6250007152557373
1788860595423569000,0.57056884765625,2.6851978302001953,-4.9585981369018555,2.378133535385132
1788860595433610000,0.58060986328125,2.780775547027588,-4.6768717765808105,2.083685874938965
1788860595443651800,0.59065185546875,2.9646687507629395,-4.515537738800049,1.8995866775512695
1788860595453693000,0.60069287109375,3.172006845474243,-4.566516399383545,1.7872620820999146
1788860595463734800,0.61073486328125,3.2853200435638428,-4.786069869995117,1.775598406791687
1788860595473775900,0.62077587890625,3.331477403640747,-4.89141321182251,1.7328646183013916
1788860595483818000,0.63081787109375,3.4221737384796143,-4.554249286651611,1.6411807537078857
1788860595493859000,0.640859130859375,3.5376555919647217,-3.801496744155884,1.3933783769607544
1788860595503901000,0.65090087890625,3.588992118835449,-2.8362972736358643,1.0108214616775513
1788860595513942000,0.66094189453125,3.513803482055664,-1.8587546348571777,0.5666354298591614
1788860595523984000,0.67098388671875,3.295644760131836,-1.0149072408676147,0.010104565881192684
1788860595534025000,0.68102490234375,2.996717691421509,-0.4293087422847748,-0.5814162492752075
1788860595544066800,0.69106689453125,2.6882567405700684,-0.2003200501203537,-1.1888399124145508
1788860595554108000,0.70110791015625,2.4033446311950684,-0.05714238062500954,-1.5371017456054688
1788860595564149000,0.71114892578125,2.1580164432525635,0.20586447417736053,-1.5920478105545044
1788860595574190800,0.72119091796875,1.8403931856155396,0.5256219506263733,-1.6218304634094238
1788860595584232000,0.73123193359375,1.5492007732391357,0.8688738942146301,-1.6898438930511475
1788860595594274000,0.741274169921875,1.407314658164978,1.4406119585037231,-1.9479622840881348
1788860595604315100,0.751315185546875,1.252339243888855,2.388409376144409,-2.5735836029052734
1788860595614357000,0.76135693359375,0.9984041452407837,3.4488565921783447,-3.376596689224243
1788860595624398000,0.771398193359375,0.6659386157989502,4.538755416870117,-4.036634922027588
1788860595634440000,0.78143994140625,0.3059500753879547,5.467896938323975,-4.33213472366333
1788860595644481000,0.79148095703125,-0.021268537268042564,5.968396186828613,-4.240505218505859
1788860595654521900,0.80152197265625,-0.23483887314796448,5.972687244415283,-3.823967933654785
1788860595664564000,0.81156396484375,-0.3431277871131897,5.525754451751709,-3.175593137741089
1788860595674604800,0.821604736328125,-0.3571820855140686,4.774715423583984,-2.5322394371032715
1788860595684647000,0.83164697265625,-0.3066962957382202,3.843005418777466,-2.043955087661743
1788860595694687700,0.841687744140625,-0.2879401743412018,2.700921058654785,-1.6873480081558228
1788860595704730000,0.851730224609375,-0.23684130609035492,1.6169408559799194,-1.4113675355911255
1788860595714771000,0.86177099609375,-0.12357759475708008,0.869478702545166,-1.1883625984191895
1788860595724813000,0.87181298828125,0.026699254289269447,0.4682452380657196,-0.9816105365753174
1788860595734854000,0.88185400390625,0.17920170724391937,0.3159462511539459,-0.7534905672073364
1788860595744896000,0.89189599609375,0.30870670080184937,0.18238312005996704,-0.4966007173061371
1788860595754936800,0.901936767578125,0.42458510398864746,-0.06312171369791031,-0.1893736571073532
1788860595764978000,0.91197802734375,0.5387598872184753,-0.4241081476211548,0.1369679719209671
1788860595775019800,0.922019775390625,0.6756476759910583,-1.0291807651519775,0.46851661801338196
1788860595785060900,0.932060791015625,0.8868733644485474,-1.8128621578216553,0.7636798024177551
1788860595795102700,0.942102783203125,1.1590697765350342,-2.692124843597412,1.0304816961288452
1788860595805143800,0.952143798828125,1.4781904220581055,-3.6238691806793213,1.2870844602584839
1788860595815186000,0.96218603515625,1.822579264640808,-4.398605823516846,1.534558653831482
1788860595825227000,0.97222705078125,2.1185500621795654,-4.841692924499512,1.7594985961914062
1788860595835268900,0.982268798828125,2.624859571456909,-5.150154113769531,1.971482515335083
1788860595845310000,0.99231005859375,3.024693012237549,-5.187740325927734,2.1769938468933105
1788860595855351800,1.002351806640625,3.148650884628296,-4.989818572998047,2.390477180480957
1788860595865393000,1.012392822265625,3.1951231956481934,-4.955959320068359,2.5927634239196777
1788860595875434000,1.02243408203125,3.1675665378570557,-4.9403276443481445,2.7990524768829346
1788860595885475800,1.032475830078125,3.0496928691864014,-4.56552791595459,3.022749900817871
1788860595895517000,1.042516845703125,2.872213363647461,-3.857548952102661,3.2207705974578857
1788860595905558800,1.052558837890625,2.661931276321411,-3.2152605056762695,3.2692878246307373
1788860595915600000,1.062599853515625,2.4855575561523438,-2.8153648376464844,3.2000977993011475
1788860595925642000,1.07264208984375,2.303570032119751,-2.496659994125366,3.0497965812683105
1788860595935683000,1.08268310546875,2.1256940364837646,-2.135521650314331,2.8458807468414307
1788860595945725000,1.092724853515625,1.9246728420257568,-1.7641178369522095,2.606475353240967
1788860595955766000,1.10276611328125,1.7504429817199707,-1.5535286664962769,2.2963037490844727
1788860595965806800,1.112806884765625,1.6679474115371704,-1.4971606731414795,1.986289381980896
1788860595975849000,1.122848876953125,1.6694062948226929,-1.7274447679519653,1.7707027196884155
1788860595985889800,1.132889892578125,1.7258961200714111,-2.148472547531128,1.6685411930084229
1788860595995932000,1.142931884765625,1.823543906211853,-2.841106653213501,1.6856666803359985
1788860596005972700,1.15297265625,1.8506042957305908,-3.503736972808838,1.8328635692596436
1788860596016015000,1.16301513671875,1.6418979167938232,-3.7073543071746826,1.9959713220596313
1788860596026056000,1.173055908203125,1.266823649406433,-3.4786217212677,1.9730111360549927
1788860596036098000,1.18309814453125,1.0830767154693604,-2.7991979122161865,1.5590413808822632
1788860596046139000,1.193138916015625,1.2075999975204468,-2.1324503421783447,0.9463348388671875
1788860596056180000,1.203179931640625,1.4774165153503418,-1.36044442653656,0.3893320560455322
1788860596066222000,1.21322216796875,1.6097791194915771,-0.697411298751831,-0.18493230640888214
1788860596076263000,1.223262939453125,1.7951018810272217,-0.2729649543762207,-0.635770320892334
1788860596086305000,1.233304931640625,2.0415945053100586,-0.035299401730298996,-0.9366294741630554
1788860596096345900,1.243345947265625,2.5562963485717773,0.20683839917182922,-1.163709282875061
1788860596106388000,1.253387939453125,3.343852996826172,-0.042627621442079544,-1.3447884321212769
1788860596116428800,1.2634287109375,4.175257205963135,-0.4778965413570404,-1.347661018371582
1788860596126471200,1.27347119140625,5.036778450012207,-1.0169637203216553,-1.1315350532531738
1788860596136512000,1.283511962890625,5.405617713928223,-2.2710976600646973,-0.0308734942227602
1788860596146553000,1.293552978515625,6.1434760093688965,-3.2998862266540527,0.3225221335887909
1788860596156595000,1.303594970703125,6.394896030426025,-3.834273099899292,0.814195454120636
1788860596166636000,1.313635986328125,6.187358379364014,-3.874190330505371,1.3815670013427734
1788860596176678000,1.323677978515625,5.084248065948486,-3.8166146278381348,1.4422985315322876
1788860596186719000,1.333718994140625,3.2921626567840576,-3.4600942134857178,0.5163286328315735
1788860596196760800,1.3437607421875,2.4474289417266846,-2.391359806060791,-0.7314459681510925
1788860596206802000,1.353802001953125,2.6614370346069336,-1.2373161315917969,-1.8748499155044556
1788860596216843800,1.36384375,2.6012747287750244,-0.4092378318309784,-2.335902214050293
1788860596226884900,1.373884765625,2.207505226135254,0.26703277230262756,-2.213998556137085
1788860596236927000,1.383927001953125,2.087822914123535,0.058885954320430756,-1.9502274990081787
1788860596246968000,1.393968017578125,1.9421485662460327,-0.42834627628326416,-1.3874459266662598
1788860596257009200,1.404009033203125,1.6521811485290527,-0.9490547180175781,-0.6172791719436646
1788860596267051000,1.414051025390625,1.383020043373108,-1.6281996965408325,0.13489043712615967
1788860596277092000,1.424092041015625,1.1076714992523193,-2.225027561187744,0.9120762348175049
1788860596287134000,1.434134033203125,0.8839060664176941,-2.5179622173309326,1.4458352327346802
1788860596297175000,1.444175048828125,0.8004969358444214,-2.420778751373291,1.515177845954895
1788860596307217000,1.454216796875,0.8536043763160706,-1.9336512088775635,1.2577643394470215
1788860596317258000,1.464258056640625,1.1561006307601929,-1.4355988502502441,0.9279686212539673
1788860596327298800,1.474298828125,1.7630631923675537,-1.0654969215393066,0.8050501346588135
1788860596337341000,1.4843408203125,2.609348773956299,-1.1597474813461304,1.0418435335159302
1788860596347381800,1.4943818359375,2.689856767654419,-1.1476969718933105,1.5870027542114258
1788860596357424000,1.504424072265625,1.996297836303711,-1.7326445579528809,2.2056641578674316
1788860596367464200,1.514464111328125,1.038419246673584,-2.7989466190338135,2.749474287033081
1788860596377506300,1.52450634765625,0.5357419848442078,-3.1664235591888428,3.0133280754089355
1788860596387547100,1.534547119140625,0.448153555393219,-2.7311055660247803,2.519050121307373
1788860596397589200,1.54458935546875,0.5508085489273071,-1.6799739599227905,1.3404086828231812
1788860596407630000,1.554630126953125,0.5493576526641846,-0.07608118653297424,-0.29053595662117004
1788860596417671200,1.564671142578125,0.18137139081954956,1.0641824007034302,-1.7835829257965088
1788860596427713300,1.57471337890625,-0.19103068113327026,1.6858091354370117,-2.519381284713745
1788860596437754000,1.584754150390625,-0.46503719687461853,1.9255802631378174,-2.6812543869018555
1788860596447796200,1.594796142578125,-0.7613663077354431,1.6737474203109741,-2.580190896987915
1788860596457837300,1.60483740234375,-0.8499689102172852,1.0198495388031006,-2.212855100631714
1788860596467879200,1.614879150390625,-0.8021848797798157,0.3052733540534973,-1.7894327640533447
1788860596477920300,1.624920166015625,-0.6699469089508057,0.09471186250448227,-1.4770910739898682
1788860596487962400,1.63496240234375,-0.2772827446460724,0.09632600098848343,-1.199730634689331
1788860596498003200,1.645003173828125,0.3051689565181732,0.44754713773727417,-0.8212608098983765
1788860596508044300,1.655044189453125,0.902515172958374,0.7512367367744446,-0.3910527229309082
1788860596518086100,1.665086181640625,1.33102285861969,0.48815181851387024,-0.15315254032611847
1788860596528127200,1.675127197265625,1.3023099899291992,0.23737767338752747,-0.12985919415950775
1788860596538169000,1.685169189453125,1.087152123451233,0.3118492364883423,-0.2010774463415146
1788860596548210200,1.695210205078125,0.7382735013961792,0.9462437629699707,-0.12396455556154251
1788860596558252300,1.705252197265625,0.4944446086883545,0.9808946847915649,0.26327797770500183
1788860596568293400,1.71529345703125,0.4668593406677246,-0.8781792521476746,-0.6765768527984619
1788860596578334200,1.725334228515625,1.0115004777908325,-1.6782218217849731,-1.2721853256225586
1788860596588376300,1.735376220703125,2.2828705310821533,-1.599473237991333,-0.8065418004989624
1788860596598417400,1.74541748046875,3.325269937515259,-1.6585168838500977,-0.26847538352012634
1788860596608459300,1.755459228515625,3.522557497024536,-1.5377075672149658,0.4371277987957001
1788860596618500400,1.765500244140625,3.2367093563079834,-1.2634522914886475,0.6505923867225647
1788860596628542200,1.775542236328125,2.7236459255218506,-1.8458819389343262,1.0440946817398071
1788860596638583300,1.785583251953125,2.771709442138672,-2.794802665710449,0.28493374586105347
1788860596648625200,1.795625244140625,2.3888001441955566,-3.0633513927459717,0.012135226279497147
1788860596658666200,1.805666259765625,1.6494733095169067,-2.758434295654297,0.45840325951576233
1788860596668707000,1.81570703125,1.1890851259231567,-1.9452378749847412,0.9156203269958496
1788860596678749400,1.82574951171875,1.0375771522521973,-1.8410102128982544,0.7935104370117188
1788860596688790300,1.835790283203125,2.1327805519104004,-2.4685311317443848,0.4886098802089691
1788860596698832400,1.845832275390625,3.5309104919433594,-2.4631550312042236,0.07860932499170303
1788860596708873200,1.855873291015625,2.712301254272461,-1.7249374389648438,0.05600893869996071
1788860596718915300,1.865915283203125,1.3113418817520142,-0.8773861527442932,0.19421128928661346
1788860596728956200,1.8759560546875,0.3382909595966339,-0.48297491669654846,0.22830533981323242
1788860596738998300,1.885998291015625,-0.12121963500976562,-0.5214560031890869,0.22622540593147278
1788860596749039000,1.8960390625,-0.33752238750457764,-0.43183982372283936,0.20193499326705933
1788860596759080200,1.906080078125,-0.43658292293548584,0.0007145261042751372,0.16112203896045685
1788860596769122000,1.9161220703125,-0.6315537095069885,0.10757652670145035,0.21536557376384735
1788860596779163100,1.9261630859375,-0.8818469047546387,0.0848163515329361,0.17418883740901947
1788860596789205200,1.936205322265625,-0.9588705897331238,0.2766624987125397,0.041915759444236755
1788860596799246300,1.946246337890625,-1.0153474807739258,0.44458359479904175,-0.1522904634475708
1788860596809288200,1.9562880859375,-1.070911169052124,0.5196729898452759,-0.2461400032043457
1788860596819329300,1.966329345703125,-1.1353548765182495,0.5993641018867493,-0.19147782027721405
1788860596829370400,1.976370361328125,-1.1914985179901123,0.6793785095214844,-0.042402319610118866
1788860596839412200,1.986412109375,-1.2138104438781738,0.7703712582588196,0.10335195809602737
1788860596849453300,1.996453369140625,-1.1560968160629272,0.8870696425437927,0.13953526318073273
1788860596859495200,2.0064951171875,-1.019364833831787,0.9642219543457031,0.05559801310300827
1788860596869536300,2.016536376953125,-0.9503397345542908,0.9781844019889832,-0.10972356796264648
1788860596879578000,2.026578125,-0.8824011087417603,0.9487700462341309,-0.2259199470281601
1788860596889619200,2.036619140625,-0.697550356388092,0.7720514535903931,-0.21421615779399872
1788860596899661300,2.046661376953125,-0.3212573826313019,0.6352299451828003,-0.07134608179330826
1788860596909702400,2.056702392578125,-0.11612873524427414,0.5070179104804993,0.09418641775846481
1788860596919743200,2.0667431640625,-0.1798350065946579,0.42982807755470276,0.14529594779014587
1788860596929785300,2.076785400390625,-0.2612028419971466,0.5357425212860107,0.056654758751392365
1788860596939826200,2.086826171875,-0.2687174677848816,0.649885356426239,-0.07004806399345398
1788860596949868300,2.096868408203125,-0.025049161165952682,0.5485174655914307,-0.11493483930826187
1788860596959909000,2.1069091796875,0.18749693036079407,0.3052195608615875,-0.11035872995853424
1788860596969951200,2.116951171875,0.3637681007385254,0.17189054191112518,-0.08510370552539825
1788860596979992000,2.126991943359375,0.5781991481781006,0.14516597986221313,0.006220345385372639
1788860596990033200,2.137033203125,0.9663586020469666,0.1256524622440338,0.14633138477802277
1788860597000075300,2.1470751953125,1.6730999946594238,0.0213572196662426,0.21549127995967865
1788860597010116400,2.157116455078125,2.470014810562134,-0.26450249552726746,0.17687571048736572
1788860597020158200,2.167158203125,3.126532554626465,-0.7600387334823608,0.08434604108333588
1788860597030199300,2.17719921875,3.545269250869751,-1.1525713205337524,-0.07619010657072067
1788860597040241200,2.1872412109375,3.7708404064178467,-1.3220059871673584,-0.301967054605484
1788860597050282200,2.1972822265625,3.839827537536621,-1.4964301586151123,-0.5281985998153687
1788860597060323300,2.2073232421875,3.347341537475586,-2.0037572383880615,-0.5605908632278442
1788860597070365200,2.217365234375,2.738090753555298,-2.290708303451538,-0.41031402349472046
1788860597080406300,2.22740625,1.558012843132019,-1.7932398319244385,-0.2520444989204407
1788860597090448100,2.2374482421875,0.9192613959312439,-0.6961598992347717,-0.21819518506526947
1788860597100489200,2.2474892578125,0.9241043925285339,-0.0211806520819664,-0.2132619470357895
1788860597110531300,2.25753125,1.0304718017578125,-0.35164856910705566,-0.2037198394536972
1788860597120572400,2.267572509765625,1.0274778604507446,-0.728786289691925,-0.20770232379436493
1788860597130614300,2.2776142578125,0.7816489338874817,-0.7068354487419128,-0.25479286909103394
1788860597140655400,2.2876552734375,0.46932274103164673,-0.4164981544017792,-0.36872929334640503
1788860597150696200,2.2976962890625,0.2335088849067688,0.0031252196058630943,-0.4868474006652832
1788860597160738300,2.30773828125,0.05620388314127922,0.29095593094825745,-0.504557728767395
1788860597170779100,2.317779052734375,-0.07974009960889816,0.41569334268569946,-0.42082497477531433
1788860597180821200,2.3278212890625,-0.1687575876712799,0.5065732002258301,-0.28066787123680115
1788860597190862000,2.337862060546875,-0.20347721874713898,0.5408272743225098,-0.16340303421020508
1788860597200904200,2.347904296875,-0.20006118714809418,0.5286547541618347,-0.11224158853292465
1788860597210945000,2.357945068359375,-0.20240743458271027,0.5430020093917847,-0.10511843115091324
1788860597220986000,2.367986083984375,-0.22950643301010132,0.40750786662101746,-0.1071309819817543
1788860597231028200,2.3780283203125,-0.27658551931381226,0.367310106754303,-0.023689882829785347
1788860597241069300,2.3880693359375,-0.31336456537246704,0.3404798209667206,0.10199987143278122
1788860597251111200,2.398111083984375,-0.23018500208854675,0.23742693662643433,0.23735582828521729
1788860597261152300,2.40815234375,0.03743286058306694,0.1991565078496933,0.31738436222076416
1788860597271194000,2.418194091796875,0.20400799810886383,0.2224692851305008,0.257289320230484
1788860597281235200,2.428235107421875,0.08520916849374771,0.19699135422706604,0.18135274946689606
1788860597291276300,2.4382763671875,-0.006056294776499271,0.31644079089164734,0.23836836218833923
1788860597301318100,2.448318115234375,-0.055754873901605606,0.3735077977180481,0.2928827404975891
1788860597311359200,2.458359130859375,-0.16592292487621307,0.10090743750333786,0.26428571343421936
1788860597321401000,2.468401123046875,-0.31059008836746216,-0.1577712595462799,0.1825042963027954
1788860597331442200,2.478442138671875,-0.5787789225578308,-0.5368205904960632,0.12902402877807617
1788860597341484300,2.488484375,-0.9236289858818054,-0.5533079504966736,0.16054867208003998
1788860597351525400,2.498525390625,-1.2388290166854858,-0.5029142498970032,0.20450013875961304
1788860597361567200,2.508567138671875,-1.6783702373504639,-0.3326179087162018,0.24799862504005432
1788860597371609300,2.518609375,-1.9569530487060547,0.057746388018131256,0.3323736786842346
1788860597381650400,2.528650390625,-1.9570987224578857,0.08724942058324814,0.23946025967597961
1788860597391692300,2.5386923828125,-1.8638819456100464,-0.10509952157735825,0.06998254358768463
1788860597401733400,2.5487333984375,-1.7584564685821533,-0.49082937836647034,0.06939239054918289
1788860597411775200,2.558775146484375,-1.5820140838623047,-0.6337862610816956,0.3083333373069763
1788860597421816300,2.56881640625,-1.3395508527755737,-0.29836273193359375,0.5797685384750366
1788860597431857400,2.578857421875,-1.7603031396865845,-0.786167562007904,0.4445106089115143
1788860597441899500,2.5888994140625,-1.7431608438491821,-0.8334956169128418,0.42144736647605896
1788860597451940600,2.598940673828125,-1.222735047340393,-0.4771644175052643,0.43418392539024353
1788860597461982500,2.608982421875,-0.5276819467544556,-0.5978692770004272,0.2832045555114746
1788860597472023600,2.6190234375,0.007158843334764242,-0.8075894713401794,0.10778505355119705
1788860597482065400,2.6290654296875,0.3900090157985687,-0.7749699950218201,-0.17321732640266418
1788860597492106500,2.6391064453125,0.29133516550064087,-0.6956738829612732,-0.20430387556552887
1788860597502147300,2.649147216796875,0.08132921159267426,-0.4318978786468506,-0.0966210812330246
1788860597512189400,2.659189453125,-0.0726236030459404,0.10557196289300919,-0.0037119139451533556
1788860597522230300,2.669230224609375,-0.07213171571493149,0.3443768322467804,0.003481017891317606
1788860597532272400,2.6792724609375,-0.024867532774806023,0.3066065311431885,-0.03881583735346794
1788860597542313200,2.689313232421875,0.024710139259696007,0.276040643453598,-0.05877409875392914
1788860597552355600,2.69935546875,0.05168609693646431,0.2923240065574646,-0.06566103547811508
1788860597562396400,2.709396484375,0.06497420370578766,0.2699020504951477,-0.08576416969299316
1788860597572437500,2.7194375,0.11686909198760986,0.24701404571533203,-0.13408616185188293
1788860597582479400,2.729479248046875,0.18765245378017426,0.2534583508968353,-0.2142622321844101
1788860597592520400,2.7395205078125,0.27430427074432373,0.188737154006958,-0.2872283160686493
1788860597602562300,2.749562255859375,0.3775179982185364,-0.011663047596812248,-0.358908087015152
1788860597612603400,2.759603271484375,0.4930776059627533,-0.17098186910152435,-0.43998536467552185
1788860597622645500,2.7696455078125,0.618435263633728,-0.29247793555259705,-0.5244568586349487
1788860597632686300,2.779686279296875,0.7125293016433716,-0.43467050790786743,-0.6038334369659424
1788860597642727400,2.7897275390625,0.7087576985359192,-0.5679640769958496,-0.657361626625061
1788860597652769300,2.799769287109375,0.5752127170562744,-0.6201229095458984,-0.6275653839111328
1788860597662810400,2.809810302734375,0.3721378743648529,-0.5721697807312012,-0.5832011103630066
1788860597672852500,2.8198525390625,0.1688350886106491,-0.3640322685241699,-0.5962106585502625
1788860597682893600,2.8298935546875,0.08859618008136749,-0.18666201829910278,-0.5361457467079163
1788860597692935400,2.839935302734375,0.48796674609184265,-0.07341589033603668,-0.13699114322662354
1788860597702976500,2.8499765625,0.5899655222892761,-0.0702962651848793,-0.2005477398633957
1788860597713017300,2.860017333984375,0.5973097681999207,-0.4201858341693878,-0.34337708353996277
1788860597723059500,2.8700595703125,0.6440077424049377,-0.8335318565368652,-0.34501543641090393
1788860597733100300,2.880100341796875,0.718108057975769,-1.0225344896316528,-0.22244133055210114
1788860597743142400,2.890142333984375,0.6796706914901733,-0.6149837970733643,-0.03728611767292023
1788860597753183500,2.90018359375,0.3537040054798126,0.08339928835630417,0.0728134885430336
1788860597763225300,2.910225341796875,-0.026086727157235146,0.4970302879810333,0.15270832180976868
1788860597773266400,2.920266357421875,-0.07852969318628311,0.650341272354126,0.20931300520896912
1788860597783307500,2.9303076171875,-0.05392208695411682,0.4659075140953064,0.24062299728393555
1788860597793349600,2.940349609375,-0.06054963171482086,0.08296279609203339,0.1878359466791153
1788860597803390500,2.950390380859375,-0.09133683890104294,-0.2337310016155243,0.11759613454341888
1788860597813432600,2.9604326171875,-0.10406728088855743,-0.3232094943523407,0.07474933564662933
1788860597823473400,2.970473388671875,-0.15130430459976196,-0.28519392013549805,0.07220175862312317
1788860597833515500,2.980515625,-0.2016495019197464,-0.19655033946037292,0.09684398770332336
1788860597843556400,2.990556396484375,-0.2569290101528168,-0.13090448081493378,0.13629817962646484
1788860597853597400,3.000597412109375,-0.301704466342926,-0.04935156926512718,0.16353194415569305
1788860597863639300,3.010639404296875,-0.3177260458469391,0.028114458546042442,0.185577854514122
1788860597873680400,3.020680419921875,-0.32681646943092346,0.07371176779270172,0.21525532007217407
1788860597883722500,3.030722412109375,-0.3136410117149353,0.10526996105909348,0.27056145668029785
1788860597893763600,3.040763671875,-0.28616198897361755,0.11763741821050644,0.34649401903152466
1788860597903805400,3.050805419921875,-0.24847932159900665,0.07347341626882553,0.41008898615837097
1788860597913846500,3.060846435546875,-0.2166185975074768,-0.007762049324810505,0.45015543699264526
1788860597923887600,3.0708876953125,-0.1881328821182251,-0.0679556131362915,0.46009624004364014
1788860597933929500,3.080929443359375,-0.16717460751533508,-0.1044667512178421,0.46730566024780273
1788860597943970600,3.090970458984375,-0.12808765470981598,-0.15006352961063385,0.4657599627971649
1788860597954012400,3.101012451171875,-0.08807579427957535,-0.21188215911388397,0.4138680100440979
1788860597964053500,3.111053466796875,-0.05596952512860298,-0.2442760467529297,0.3310980200767517
1788860597974095400,3.121095458984375,-0.04147127643227577,-0.2597934901714325,0.24794429540634155
1788860597984136400,3.131136474609375,-0.01822667382657528,-0.25837403535842896,0.19979806244373322
1788860597994177300,3.14117724609375,-0.010974620468914509,-0.2529262602329254,0.2041880190372467
1788860598004219600,3.1512197265625,-0.030856981873512268,-0.16782362759113312,0.2292262613773346
1788860598014260500,3.161260498046875,-0.09172512590885162,-0.10983329266309738,0.2591937482357025
1788860598024302600,3.171302490234375,-0.1771441549062729,-0.023253656923770905,0.26937606930732727
1788860598034343400,3.181343505859375,-0.2548013925552368,0.054715707898139954,0.2695177495479584
1788860598044385500,3.191385498046875,-0.32442042231559753,0.004352936986833811,0.278735488653183
1788860598054426400,3.20142626953125,-0.37074077129364014,-0.13842898607254028,0.28458380699157715
1788860598064467500,3.211467529296875,-0.39190253615379333,-0.3303254544734955,0.29739120602607727
1788860598074509300,3.22150927734375,-0.3833780288696289,-0.5254432559013367,0.3265421688556671
1788860598084550400,3.23155029296875,-0.34668898582458496,-0.6301771402359009,0.3473092317581177
1788860598094592300,3.24159228515625,-0.29529741406440735,-0.6622447967529297,0.3290492594242096
1788860598104633300,3.25163330078125,-0.2596909701824188,-0.6008120775222778,0.2485560178756714
1788860598114675500,3.261675537109375,-0.24703001976013184,-0.40711236000061035,0.12652304768562317
1788860598124716500,3.271716552734375,-0.25484880805015564,-0.14847096800804138,0.003753991797566414
1788860598134757600,3.281757568359375,-0.26990869641304016,0.051290616393089294,-0.07828335464000702
1788860598144799500,3.291799560546875,-0.29104942083358765,0.19855064153671265,-0.10135698318481445
1788860598154840600,3.301840576171875,-0.3162229359149933,0.1560729593038559,-0.09274671226739883
1788860598164882400,3.31188232421875,-0.25204741954803467,-0.04614192992448807,-0.09236215800046921
1788860598174923500,3.321923583984375,-0.13397110998630524,-0.11539743095636368,-0.10095510631799698
1788860598184965400,3.33196533203125,-0.0015225291717797518,-0.028502481058239937,-0.0774705559015274
1788860598195006500,3.34200634765625,0.07499967515468597,0.07527212053537369,-0.0694565698504448
1788860598205047300,3.35204736328125,0.08083625882863998,0.15215198695659637,-0.0692906603217125
1788860598215089400,3.36208935546875,0.06325273960828781,0.19617430865764618,-0.058932825922966
1788860598225130200,3.372130126953125,0.005920207127928734,0.20235683023929596,-0.015351259149610996
1788860598235172600,3.382172607421875,-0.033062078058719635,0.2046828418970108,0.0015395734226331115
1788860598245213400,3.39221337890625,-0.02099263295531273,0.2435159832239151,-0.03425357863306999
1788860598255255600,3.402255615234375,0.03961025923490524,0.2730672061443329,-0.05663371831178665
1788860598265296400,3.41229638671875,0.10450590401887894,0.22921214997768402,-0.024084297940135002
1788860598275338500,3.42233837890625,0.1210542544722557,0.13836826384067535,0.03314943239092827
1788860598285379300,3.43237939453125,0.1232825219631195,0.05826863273978233,0.07559755444526672
1788860598295420400,3.44242041015625,0.11161042004823685,-0.0033515882678329945,0.09994657337665558
1788860598305462300,3.452462158203125,0.07962585240602493,0.04983333498239517,0.09670709818601608
1788860598315503400,3.46250341796875,0.04013117402791977,0.1189679354429245,0.06424956023693085
1788860598325545500,3.47254541015625,-0.021151890978217125,0.17573906481266022,0.00875034835189581
1788860598335586600,3.482586669921875,-0.06746052950620651,0.20875774323940277,-0.0012934972764924169
1788860598345628400,3.49262841796875,-0.09527085721492767,0.13071273267269135,0.06655905395746231
1788860598355669500,3.50266943359375,-0.11236275732517242,0.04649586230516434,0.13453491032123566
1788860598365709800,3.512709716796875,-0.09996228665113449,0.005589708685874939,0.14654682576656342
1788860598375751700,3.522751708984375,-0.06348656117916107,-0.0912817120552063,0.13337589800357819
1788860598385792800,3.532792724609375,-0.09370012581348419,-0.22256436944007874,0.12832307815551758
1788860598395835000,3.5428349609375,-0.15039882063865662,-0.15535683929920197,0.12227531522512436
1788860598405876000,3.5528759765625,-0.12837953865528107,-0.13720712065696716,0.14358831942081451
1788860598415917800,3.562917724609375,-0.09548763930797577,-0.20270463824272156,0.164862722158432
1788860598425959000,3.572958984375,-0.07386703044176102,-0.09031444787979126,0.09882697463035583
1788860598435999700,3.582999755859375,-0.04777790978550911,0.07046191394329071,-0.01200020406395197
1788860598446041900,3.593041748046875,-0.010482202284038067,0.12854652106761932,-0.0558219850063324
1788860598456083000,3.6030830078125,0.03857269138097763,-0.04532913118600845,0.06000368297100067
1788860598466124800,3.613124755859375,0.033897511661052704,-0.28747066855430603,0.265363484621048
1788860598476166000,3.623165771484375,0.02984524704515934,-0.4040880799293518,0.4822169840335846
1788860598486207700,3.633207763671875,0.0013899037148803473,-0.47010013461112976,0.686124861240387
1788860598496248800,3.643248779296875,-0.02834588661789894,-0.3424995541572571,0.7813459038734436
1788860598506289700,3.65328955078125,-0.04607588052749634,-0.12419172376394272,0.7569721341133118
1788860598516332000,3.66333203125,-0.040891773998737335,-0.045225001871585846,0.6620903611183167
1788860598526372900,3.673372802734375,-0.0012695288751274347,-0.10129279643297195,0.5458308458328247
1788860598536415000,3.6834150390625,0.05585474520921707,-0.17527994513511658,0.45700615644454956
1788860598546455800,3.693455810546875,0.11693248152732849,-0.18182705342769623,0.3809710443019867
1788860598556498000,3.703497802734375,0.1387794464826584,-0.1883600503206253,0.32586172223091125
1788860598566538800,3.713538818359375,0.10768704861402512,-0.25554123520851135,0.257433146238327
1788860598576579800,3.723579833984375,0.04643860459327698,-0.37252935767173767,0.1556612253189087
1788860598586621700,3.73362158203125,-0.003727360162883997,-0.45966586470603943,0.025285648182034492
1788860598596662800,3.743662841796875,-0.008393751457333565,-0.4829099178314209,-0.09219011664390564
1788860598606704600,3.75370458984375,0.010486729443073273,-0.38563263416290283,-0.18035326898097992
1788860598616745700,3.763745849609375,0.030855383723974228,-0.14360909163951874,-0.2691577076911926
1788860598626787800,3.773787841796875,0.04002358391880989,0.08077873289585114,-0.3605693578720093
1788860598636829000,3.783828857421875,0.044059868901968,0.1873595118522644,-0.4497503936290741
1788860598646870000,3.7938701171875,0.03182930126786232,0.11462804675102234,-0.49587711691856384
1788860598656912000,3.803911865234375,-0.02816931903362274,-0.08241471648216248,-0.4816470742225647
1788860598666953000,3.813952880859375,-0.10121583193540573,-0.20779740810394287,-0.44274386763572693
1788860598676994800,3.823994873046875,-0.1659061461687088,-0.16534662246704102,-0.4703510105609894
1788860598687036000,3.834035888671875,-0.21413971483707428,-0.022893065586686134,-0.6053327918052673
1788860598697077800,3.844077880859375,-0.2542994022369385,0.19492767751216888,-0.8184783458709717
1788860598707118800,3.854118896484375,-0.31144896149635315,0.39229774475097656,-1.0137245655059814
1788860598717159700,3.86415966796875,-0.3902550935745239,0.50209641456604,-1.1352949142456055
1788860598727201800,3.874201904296875,-0.4935969412326813,0.6136714220046997,-1.1908103227615356
1788860598737242600,3.88424267578125,-0.6300485134124756,0.753754198551178,-1.1774247884750366
1788860598747285000,3.894284912109375,-0.7556295990943909,0.9952011704444885,-1.1485990285873413
1788860598757325800,3.904325927734375,-0.8320002555847168,1.2958379983901978,-1.1328333616256714
1788860598767368000,3.914367919921875,-0.8721231818199158,1.4935894012451172,-1.1690396070480347
1788860598777408800,3.92440869140625,-0.8714158535003662,1.4629135131835938,-1.2895430326461792
1788860598787451000,3.934450927734375,-0.8427719473838806,1.1725780963897705,-1.4722050428390503
1788860598797491700,3.94449169921875,-0.8057255148887634,0.7369549870491028,-1.6441829204559326
1788860598807532800,3.95453271484375,-0.763910710811615,0.3127605617046356,-1.7403004169464111
1788860598817574700,3.96457470703125,-0.7202450037002563,-0.06047612801194191,-1.7226535081863403
1788860598827615700,3.97461572265625,-0.7103625535964966,-0.342619389295578,-1.6134263277053833
1788860598837657900,3.984657958984375,-0.726249098777771,-0.49142059683799744,-1.558008074760437
1788860598847699000,3.994698974609375,-0.7271543145179749,-0.5880421996116638,-1.6333057880401611
1788860598857740800,4.00474072265625,-0.7360484600067139,-0.8246989846229553,-1.815250277519226
1788860598867782000,4.014781982421875,-0.7395142912864685,-1.010094404220581,-1.9729323387145996
1788860598877823000,4.024822998046875,-0.7234466671943665,-1.0632356405258179,-2.054615020751953
1788860598887864800,4.03486474609375,-0.7080567479133606,-1.00032377243042,-2.08929705619812
1788860598897906000,4.044906005859375,-0.6900687217712402,-0.8370205760002136,-2.1626508235931396
1788860598907947800,4.05494775390625,-0.6233898401260376,-0.7379070520401001,-2.2875921726226807
1788860598917988900,4.06498876953125,-0.5026604533195496,-0.8156777620315552,-2.4081153869628906
1788860598928030700,4.07503076171875,-0.36224690079689026,-0.8528102040290833,-2.4854393005371094
1788860598938071800,4.08507177734375,-0.26671212911605835,-0.6832020282745361,-2.549339532852173
1788860598948112600,4.095112548828125,-0.24476207792758942,-0.4669051468372345,-2.624326705932617
1788860598958155000,4.105155029296875,-0.1448535919189453,-0.17139679193496704,-2.666494131088257
1788860598968195800,4.11519580078125,0.002936934120953083,0.09884694963693619,-2.662849187850952
1788860598978238000,4.125238037109375,0.07353440672159195,0.027630295604467392,-2.6327435970306396
1788860598988278800,4.13527880859375,0.048761945217847824,-0.5285972356796265,-2.6204283237457275
1788860598998321000,4.14532080078125,-0.0033430662006139755,-1.203043818473816,-2.607658863067627
1788860599008361700,4.15536181640625,-0.033492181450128555,-1.4445281028747559,-2.57112979888916
1788860599018402800,4.16540283203125,-0.09269185364246368,-1.2528181076049805,-2.5506248474121094
1788860599028444700,4.175444580078125,-0.08790642023086548,-1.0147600173950195,-2.548966646194458
1788860599038485800,4.18548583984375,-0.019040802493691444,-0.8911232352256775,-2.4849979877471924
1788860599048527600,4.195527587890625,0.04615657776594162,-0.8096196055412292,-2.3365488052368164
1788860599058568700,4.205568603515625,0.10022220760583878,-0.7110797166824341,-2.1518239974975586
1788860599068610800,4.21561083984375,0.15353496372699738,-0.6274468898773193,-1.9751845598220825
1788860599078652000,4.22565185546875,0.2106800079345703,-0.5595333576202393,-1.8561007976531982
1788860599088693000,4.23569287109375,0.24845987558364868,-0.5616084933280945,-1.7239632606506348
1788860599098734800,4.24573486328125,0.2930249571800232,-0.5463342070579529,-1.583559274673462
1788860599108776000,4.25577587890625,0.3429400324821472,-0.4923657476902008,-1.4446567296981812
1788860599118817800,4.26581787109375,0.42700591683387756,-0.40198391675949097,-1.2589210271835327
1788860599128859000,4.27585888671875,0.4879654049873352,-0.3231905698776245,-1.0836753845214844
1788860599138900700,4.285900634765625,0.5194770097732544,-0.27438387274742126,-0.9120311737060547
1788860599148941800,4.29594189453125,0.5138974189758301,-0.23820377886295319,-0.7456624507904053
1788860599158983700,4.305983642578125,0.44744062423706055,-0.25593671202659607,-0.5880009531974792
1788860599169024800,4.316024658203125,0.3582201898097992,-0.3173787593841553,-0.4398282468318939
1788860599179065600,4.326065673828125,0.2838660776615143,-0.4141694903373718,-0.2953943610191345
1788860599189108000,4.33610791015625,0.25170066952705383,-0.4894232153892517,-0.13080035150051117
1788860599199148800,4.346148681640625,0.20914922654628754,-0.5044456124305725,-0.0559128001332283
1788860599209191000,4.35619091796875,0.17781341075897217,-0.5723031759262085,-0.05918928608298302
1788860599219231700,4.366231689453125,0.1688140481710434,-0.4999488294124603,-0.15656323730945587
1788860599229273900,4.37627392578125,0.18849481642246246,-0.3368144929409027,-0.21562230587005615
1788860599239314700,4.386314697265625,0.2201576679944992,-0.16905640065670013,-0.2110176980495453
1788860599249355800,4.396355712890625,0.25346609950065613,-0.10634694248437881,-0.18866205215454102
1788860599259397600,4.406397705078125,0.32558849453926086,-0.07275143265724182,-0.17078664898872375
1788860599269438700,4.416438720703125,0.3520869314670563,-0.18808068335056305,-0.19522835314273834
1788860599279480600,4.42648046875,0.341645747423172,0.11047884076833725,-0.15745699405670166
1788860599289521700,4.436521728515625,0.353940486907959,0.07699811458587646,-0.19916076958179474
1788860599299563800,4.446563720703125,0.41846197843551636,-0.14388073980808258,-0.34187743067741394
1788860599309604900,4.45660498046875,0.4628337025642395,-0.2272331565618515,-0.5394983887672424
1788860599319646000,4.46664599609375,0.4415627717971802,-0.29103875160217285,-0.6901273131370544
1788860599329687800,4.476687744140625,0.35391145944595337,-0.4172672629356384,-0.6847559809684753
1788860599339729000,4.48672900390625,0.23154960572719574,-0.5762816667556763,-0.6190595030784607
1788860599349770800,4.496770751953125,0.11541368067264557,-0.7520945072174072,-0.6522933840751648
1788860599359811800,4.506811767578125,0.057497113943099976,-0.8591210842132568,-0.719302773475647
1788860599369854500,4.5168544921875,0.061832476407289505,-0.835044264793396,-0.7275859713554382
1788860599379895600,4.5268955078125,0.0919666737318039,-0.7462747097015381,-0.6103006601333618
1788860599389937400,4.5369375,0.10640154033899307,-0.5371947288513184,-0.43783167004585266
1788860599399978500,4.546978515625,0.11403815448284149,-0.30672958493232727,-0.35480523109436035
1788860599410019300,4.557019287109375,0.18376822769641876,-0.17743763327598572,-0.3830680251121521
1788860599420061400,4.5670615234375,0.26394909620285034,-0.11935248970985413,-0.42700430750846863
1788860599430102300,4.577102294921875,0.3062856197357178,-0.10415755957365036,-0.37620025873184204
1788860599440144400,4.587144287109375,0.2746371626853943,-0.05992165580391884,-0.299843430519104
1788860599450185200,4.597185302734375,0.2244323045015335,-0.04993586614727974,-0.2737303376197815
1788860599460227300,4.607227294921875,0.20956654846668243,-0.1024978756904602,-0.29347503185272217
1788860599470268200,4.61726806640625,0.25383734703063965,-0.13077132403850555,-0.3251599967479706
1788860599480309200,4.627309326171875,0.3201870620250702,0.002794188680127263,-0.3540385067462921
1788860599490351400,4.637351318359375,0.39529913663864136,0.11600703001022339,-0.36176565289497375
1788860599500392400,4.647392333984375,0.4719313085079193,0.16876664757728577,-0.3992624282836914
1788860599510434300,4.657434326171875,0.5638556480407715,0.13400547206401825,-0.4793761968612671
1788860599520475400,4.667475341796875,0.6585387587547302,0.058575160801410675,-0.6010288596153259
1788860599530517200,4.677517333984375,0.7470936179161072,-0.03425570949912071,-0.707495391368866
1788860599540558300,4.687558349609375,0.7996878623962402,-0.15799255669116974,-0.7641493082046509
1788860599550599400,4.697599365234375,0.7869441509246826,-0.2284185290336609,-0.816962718963623
1788860599560641300,4.707641357421875,0.74956876039505,-0.19178488850593567,-0.8523468375205994
1788860599570682400,4.717682373046875,0.727738618850708,-0.08958607167005539,-0.8167108297348022
1788860599580724200,4.72772412109375,0.6875658631324768,-0.03978389874100685,-0.7642960548400879
1788860599590765300,4.737765380859375,0.6587680578231812,-0.07320071011781693,-0.7759734988212585
1788860599600807400,4.747807373046875,0.6751565933227539,-0.04854223504662514,-0.8525007367134094
1788860599610848500,4.7578486328125,0.7124230265617371,-0.07909668236970901,-0.8638423681259155
1788860599620889300,4.767889404296875,0.7107481360435486,-0.14720863103866577,-0.8423091173171997
1788860599630931500,4.777931396484375,0.6412470936775208,-0.16978290677070618,-0.8185697197914124
1788860599640972300,4.78797216796875,0.5536442995071411,-0.17960678040981293,-0.7907940149307251
1788860599651014400,4.798014404296875,0.47900068759918213,-0.24686118960380554,-0.7511605620384216
1788860599661055200,4.80805517578125,0.4320768415927887,-0.21064992249011993,-0.6450319886207581
1788860599671097300,4.818097412109375,0.36644431948661804,-0.0592673197388649,-0.5452675819396973
1788860599681138200,4.82813818359375,0.26986315846443176,0.058757323771715164,-0.46509283781051636
1788860599691179300,4.83817919921875,0.185933917760849,0.13822604715824127,-0.37249499559402466
1788860599701221400,4.848221435546875,0.09687408059835434,0.12912602722644806,-0.36659449338912964
1788860599711262500,4.858262451171875,0.043358393013477325,0.15401646494865417,-0.4878237247467041
1788860599721304300,4.86830419921875,0.08200538903474808,0.25799185037612915,-0.7342662811279297
1788860599731345400,4.878345458984375,0.21625933051109314,0.3896186053752899,-1.0130853652954102
1788860599741387300,4.88838720703125,0.3612476885318756,0.2702069878578186,-1.235913872718811
1788860599751428400,4.898428466796875,0.4210497736930847,0.1464000940322876,-1.289323329925537
1788860599761469400,4.908469482421875,0.4014321267604828,0.12878035008907318,-1.156552791595459
1788860599771511300,4.91851123046875,0.303946316242218,0.3752255439758301,-0.8924955725669861
1788860599781552400,4.928552490234375,0.2067161649465561,0.6527402400970459,-0.6909792423248291
1788860599791594200,4.93859423828125,0.15545058250427246,0.553653359413147,-0.681717574596405
1788860599801635300,4.94863525390625,0.19659455120563507,0.32207390666007996,-0.6852356195449829
1788860599811677400,4.958677490234375,0.20622827112674713,0.25944754481315613,-0.6140967011451721
1788860599821718500,4.968718505859375,0.0843481719493866,0.3214491307735443,-0.5223638415336609
1788860599831760400,4.978760498046875,-0.10146377235651016,0.3396795392036438,-0.45911404490470886
1788860599841801500,4.988801513671875,-0.32894566655158997,0.27217158675193787,-0.43297645449638367
1788860599851842300,4.99884228515625,-0.5616782307624817,0.13115322589874268,-0.3573397696018219
1788860599861884400,5.008884521484375,-0.7470850944519043,0.07541752606630325,-0.24499350786209106
1788860599871925200,5.01892529296875,-0.8517151474952698,0.0686778649687767,-0.18399913609027863
1788860599881967400,5.02896728515625,-0.8820706605911255,0.11705045402050018,-0.1512606292963028
1788860599892008200,5.03900830078125,-0.8927595019340515,0.19024130702018738,-0.16882283985614777
1788860599902050300,5.04905029296875,-0.9066766500473022,0.2877281904220581,-0.1795969307422638
1788860599912091100,5.059091064453125,-0.9489993453025818,0.3840741515159607,-0.1791204810142517
1788860599922132200,5.06913232421875,-0.9939913153648376,0.413073867559433,-0.08622702956199646
1788860599932174300,5.07917431640625,-1.032375693321228,0.47508156299591064,0.0274507999420166
1788860599942215400,5.08921533203125,-1.066138505935669,0.47539690136909485,0.13550563156604767
1788860599952257300,5.09925732421875,-1.061734676361084,0.40588200092315674,0.23018766939640045
1788860599962298400,5.10929833984375,-1.0022958517074585,0.3958764970302582,0.2935810089111328
1788860599972340200,5.11934033203125,-0.95025235414505,0.4378977119922638,0.37762293219566345
1788860599982381300,5.12938134765625,-0.9171399474143982,0.4349519908428192,0.4423079192638397
1788860599992422400,5.13942236328125,-0.8891647458076477,0.35509365797042847,0.4749244451522827
1788860600002464300,5.14946435546875,-0.8324871063232422,0.278398334980011,0.504345178604126
1788860600012505300,5.15950537109375,-0.7273974418640137,0.21702472865581512,0.5124241709709167
1788860600022547200,5.169547119140625,-0.587211012840271,0.17879584431648254,0.5496828556060791
1788860600032588300,5.17958837890625,-0.45491212606430054,0.24525156617164612,0.5896710157394409
1788860600042630400,5.18963037109375,-0.35264700651168823,0.35877254605293274,0.6197711229324341
1788860600052671500,5.19967138671875,-0.2651429772377014,0.4035639762878418,0.6134389042854309
1788860600062712300,5.20971240234375,-0.21252478659152985,0.42349907755851746,0.6323678493499756
1788860600072754400,5.21975439453125,-0.1817551553249359,0.48433977365493774,0.6510195732116699
1788860600082795300,5.229795166015625,-0.1717856079339981,0.5753219127655029,0.6716537475585938
1788860600092837400,5.23983740234375,-0.1586809903383255,0.6642317771911621,0.7443782687187195
1788860600102878200,5.249878173828125,-0.1353418529033661,0.7145423889160156,0.8841409683227539
1788860600112920300,5.25992041015625,-0.08126982301473618,0.7127149105072021,1.0283123254776
1788860600122961400,5.26996142578125,-0.025248099118471146,0.7178723812103271,1.1207969188690186
1788860600133002200,5.280002197265625,0.003899400355294347,0.7472963333129883,1.1532890796661377
1788860600143044400,5.29004443359375,0.00980549305677414,0.7591233849525452,1.1409248113632202
1788860600153085400,5.30008544921875,-0.017131581902503967,0.7022175192832947,1.1004074811935425
1788860600163127300,5.310127197265625,-0.045033786445856094,0.6301372051239014,1.0877606868743896
1788860600173168400,5.32016845703125,-0.08919645845890045,0.5914470553398132,1.1666339635849
1788860600183210500,5.33021044921875,-0.15383750200271606,0.5760265588760376,1.2877075672149658
1788860600193251300,5.340251220703125,-0.23058660328388214,0.5917200446128845,1.3328365087509155
1788860600203292400,5.35029248046875,-0.2940950095653534,0.5955855846405029,1.3101521730422974
1788860600213334300,5.360334228515625,-0.2972458004951477,0.5302702784538269,1.2518130540847778
1788860600223375400,5.370375244140625,-0.2116541862487793,0.42353954911231995,1.2073336839675903
1788860600233417200,5.380417236328125,-0.08857513964176178,0.40264013409614563,1.203157901763916
1788860600243458300,5.390458251953125,0.03129267692565918,0.48289209604263306,1.2401998043060303
1788860600253500400,5.40050048828125,0.13058890402317047,0.5728477835655212,1.3335131406784058
1788860600263541500,5.41054150390625,0.17169027030467987,0.6337729692459106,1.4402567148208618
1788860600273582300,5.420582275390625,0.14002953469753265,0.5998983383178711,1.490601658821106
1788860600283624400,5.43062451171875,0.04871826991438866,0.426679402589798,1.460204839706421
1788860600293665500,5.44066552734375,-0.026698721572756767,0.2462257593870163,1.389514684677124
1788860600303707400,5.450707275390625,-0.03514307364821434,0.11184584349393845,1.2705192565917969
1788860600313748500,5.46074853515625,0.047811731696128845,0.0479467511177063,1.1403895616531372
1788860600323790300,5.470790283203125,0.1570945382118225,0.05705130100250244,1.08773934841156
1788860600333831400,5.48083154296875,0.24465368688106537,0.08634074777364731,1.1172122955322266
1788860600343872300,5.490872314453125,0.2964673638343811,0.030129939317703247,1.1580764055252075
1788860600353914400,5.500914306640625,0.3259269595146179,-0.13441559672355652,1.1617637872695923
1788860600363955200,5.510955078125,0.3263126015663147,-0.2552511990070343,1.181191325187683
1788860600373997000,5.5209970703125,0.29607000946998596,-0.26635685563087463,1.251438856124878
1788860600384038000,5.531037841796875,0.22156274318695068,-0.22459609806537628,1.3438347578048706
1788860600394080000,5.541080078125,0.13263075053691864,-0.16167864203453064,1.4051101207733154
1788860600404120800,5.551120849609375,0.07534828037023544,-0.08854744583368301,1.435691475868225
1788860600414162000,5.561161865234375,0.07725750654935837,0.021106084808707237,1.446826457977295
1788860600424203800,5.571203857421875,0.12635686993598938,0.11821319162845612,1.4308698177337646
1788860600434244900,5.581244873046875,0.17572708427906036,0.14120346307754517,1.3632100820541382
1788860600444287000,5.591286865234375,0.1770874261856079,0.04904157668352127,1.2523717880249023
1788860600454328000,5.601328125,0.1405688375234604,-0.15793104469776154,1.1583163738250732
1788860600464370000,5.611369873046875,0.0903882160782814,-0.3337004780769348,1.1474658250808716
1788860600474411000,5.621410888671875,0.026972228661179543,-0.38114628195762634,1.2262229919433594
1788860600484452000,5.6314521484375,-0.01943441852927208,-0.31339359283447266,1.3412024974822998
1788860600494494000,5.641493896484375,-0.02352956123650074,-0.1828947216272354,1.4227391481399536
1788860600504535000,5.65153515625,0.001118527608923614,-0.05650322139263153,1.441366195678711
1788860600514577000,5.661576904296875,0.03501124680042267,0.005256813485175371,1.420217752456665
1788860600524618000,5.671617919921875,0.03163702040910721,-0.026163693517446518,1.4010964632034302
1788860600534659800,5.681659912109375,-0.02532746084034443,-0.05938902497291565,1.389747142791748
1788860600544701000,5.691700927734375,-0.10905271768569946,-0.023783359676599503,1.368917465209961
1788860600554741800,5.70174169921875,-0.1766301691532135,0.005613677203655243,1.342246174812317
1788860600564784000,5.7117841796875,-0.2063150852918625,0.013095828704535961,1.3011530637741089
1788860600574825000,5.721824951171875,-0.19096356630325317,0.03669702634215355,1.2376441955566406
1788860600584867000,5.7318671875,-0.16749711334705353,0.04625724256038666,1.1824965476989746
1788860600594908000,5.741907958984375,-0.14017921686172485,0.033373404294252396,1.1540566682815552
1788860600604949000,5.751948974609375,-0.11777430027723312,0.023303192108869553,1.1578713655471802
1788860600614990800,5.761990966796875,-0.1229482963681221,0.009464608505368233,1.1888837814331055
1788860600625032000,5.772031982421875,-0.11627121269702911,-0.043106723576784134,1.210938572883606
1788860600635073800,5.78207373046875,-0.10906816273927689,-0.1719464659690857,1.186510443687439
1788860600645115000,5.792114990234375,-0.09485487639904022,-0.27289465069770813,1.1369109153747559
1788860600655157000,5.802156982421875,-0.07052982598543167,-0.2463168352842331,1.0923032760620117
1788860600665198000,5.812197998046875,-0.06799796223640442,-0.0788804367184639,1.0741205215454102
1788860600675239200,5.8222392578125,-0.07583777606487274,0.07651181519031525,1.0438275337219238
1788860600685281000,5.832281005859375,-0.06469510495662689,0.1516110897064209,0.9828539490699768
1788860600695322000,5.842322021484375,-0.012012987397611141,0.17343969643115997,0.8778181076049805
1788860600705364000,5.852364013671875,0.04356532171368599,0.17460615932941437,0.7420032620429993
1788860600715405000,5.862405029296875,0.08499079197645187,0.15888366103172302,0.6137286424636841
1788860600725447000,5.872447021484375,0.10393678396940231,0.16823561489582062,0.5147418975830078
1788860600735488000,5.882488037109375,0.09593211859464645,0.19013266265392303,0.44926196336746216
1788860600745528800,5.89252880859375,0.08878499269485474,0.18930548429489136,0.41158542037010193
1788860600755571000,5.902571044921875,0.1046702191233635,0.1466008871793747,0.38069647550582886
1788860600765611800,5.91261181640625,0.13370400667190552,0.054307445883750916,0.3118974268436432
1788860600775654100,5.922654052734375,0.16656394302845,-0.025836657732725143,0.2223837971687317
1788860600785695000,5.932695068359375,0.21665054559707642,-0.026668628677725792,0.16900579631328583
1788860600795737000,5.942737060546875,0.23473581671714783,0.04930496588349342,0.174822136759758
1788860600805778000,5.95277783203125,0.20561787486076355,0.19439265131950378,0.22731411457061768
1788860600815819000,5.962819091796875,0.13070234656333923,0.3321390748023987,0.3156879246234894
1788860600825860900,5.97286083984375,0.05234416574239731,0.39276859164237976,0.3993822932243347
1788860600835902000,5.98290185546875,0.0016391756944358349,0.27947506308555603,0.4316467344760895
1788860600845943800,5.99294384765625,-0.05120699480175972,-0.005233377683907747,0.3578803837299347
1788860600855985000,6.00298486328125,-0.09205988794565201,-0.2839880585670471,0.21229122579097748
1788860600866026000,6.01302587890625,-0.09495341032743454,-0.30076223611831665,0.06029689684510231
1788860600876067800,6.02306787109375,-0.08631837368011475,-0.1182643249630928,-0.08786993473768234
1788860600886109000,6.03310888671875,-0.09312861412763596,0.12966904044151306,-0.21114233136177063
1788860600896151000,6.043151123046875,-0.119575135409832,0.38489946722984314,-0.30559560656547546
1788860600906192100,6.053192138671875,-0.1404881328344345,0.6337910294532776,-0.36901983618736267
1788860600916234000,6.06323388671875,-0.1520044505596161,0.7281580567359924,-0.4196009933948517
1788860600926275000,6.073275146484375,-0.16986067593097687,0.6132919192314148,-0.46076229214668274
1788860600936316000,6.08331591796875,-0.1605643779039383,0.39476490020751953,-0.4730759561061859
1788860600946358000,6.09335791015625,-0.10670594125986099,0.18465372920036316,-0.4550769627094269
1788860600956398800,6.10339892578125,0.005131645128130913,-0.0008820389630272985,-0.4541749656200409
1788860600966441000,6.11344091796875,0.09532332420349121,-0.09906026721000671,-0.5073873400688171
1788860600976481800,6.123481689453125,0.1164693534374237,-0.022214224562048912,-0.547817051410675
1788860600986524000,6.13352392578125,0.09794041514396667,0.24927960336208344,-0.487831711769104
1788860600996565000,6.14356494140625,0.06517340987920761,0.5451070070266724,-0.36993172764778137
1788860601006605800,6.153605712890625,0.0575740784406662,0.673566460609436,-0.2488822489976883
1788860601016648000,6.16364794921875,0.057364221662282944,0.6234902143478394,-0.15957315266132355
1788860601026689000,6.17368896484375,0.05644996091723442,0.5293461680412292,-0.08986890316009521
1788860601036731000,6.18373095703125,0.04909377545118332,0.44118884205818176,-0.08628428727388382
1788860601046772000,6.19377197265625,0.059907808899879456,0.24270851910114288,-0.17009609937667847
1788860601056814000,6.20381396484375,0.10152502357959747,0.000021305288100847974,-0.33661025762557983
1788860601066855000,6.21385498046875,0.12939101457595825,-0.22846806049346924,-0.5136124491691589
1788860601076896000,6.22389599609375,0.14187563955783844,-0.33292096853256226,-0.6940682530403137
1788860601086937900,6.233937744140625,0.14132064580917358,-0.26394909620285034,-0.8702195882797241
1788860601096979000,6.24397900390625,0.12192297726869583,-0.07783141732215881,-0.9991551637649536
1788860601107021000,6.25402099609375,0.06613827496767044,0.1803029328584671,-1.0497124195098877
1788860601117062100,6.264062255859375,-0.01426548883318901,0.45530226826667786,-1.0097492933273315
1788860601127103000,6.27410302734375,-0.09614118188619614,0.6758064031600952,-0.8964018821716309
1788860601137145000,6.28414501953125,-0.1695365607738495,0.8033734560012817,-0.7480593323707581
1788860601147186000,6.29418603515625,-0.2244940847158432,0.8345089554786682,-0.6095349788665771
1788860601157228000,6.30422802734375,-0.2612006962299347,0.7342931628227234,-0.5229657292366028
1788860601167268900,6.314268798828125,-0.2657270133495331,0.5272547602653503,-0.5164297819137573
1788860601177311000,6.32431103515625,-0.22837857902050018,0.24535676836967468,-0.5838599801063538
1788860601187352000,6.33435205078125,-0.15712223947048187,-0.07967805117368698,-0.6691067218780518
1788860601197393000,6.344392822265625,-0.07510886341333389,-0.3404712975025177,-0.6963157057762146
1788860601207435000,6.35443505859375,-0.030224481597542763,-0.42954176664352417,-0.6781630516052246
1788860601217475800,6.364475830078125,-0.030616233125329018,-0.28803232312202454,-0.6602120399475098
1788860601227518200,6.374518310546875,-0.05079473555088043,-0.026197249069809914,-0.6505370140075684
1788860601237559000,6.38455908203125,-0.07203345000743866,0.2022862583398819,-0.6724047660827637
1788860601247600000,6.39460009765625,-0.10668117552995682,0.3447131812572479,-0.7194428443908691
1788860601257642000,6.40464208984375,-0.13228027522563934,0.4367016851902008,-0.7919008135795593
1788860601267683000,6.41468310546875,-0.1530100554227829,0.5011893510818481,-0.8995476365089417
1788860601277725000,6.424724853515625,-0.15785513818264008,0.5199646353721619,-1.0036673545837402
1788860601287766000,6.43476611328125,-0.13218839466571808,0.486445814371109,-1.0725252628326416
1788860601297808000,6.444807861328125,-0.09574117511510849,0.39756548404693604,-1.0624076128005981
1788860601307849000,6.454848876953125,-0.07413068413734436,0.28749969601631165,-0.9926924705505371
1788860601317890000,6.46489013671875,-0.06519658118486404,0.2004835605621338,-0.8974485397338867
1788860601327932000,6.474931884765625,-0.0665699690580368,0.1396162211894989,-0.8133879899978638
1788860601337973000,6.484972900390625,-0.06935057789087296,0.0860440731048584,-0.7751727104187012
1788860601348015000,6.49501513671875,-0.06921768933534622,0.019271697849035263,-0.7671419382095337
1788860601358056200,6.50505615234375,-0.07029306888580322,-0.04716112092137337,-0.7754070162773132
1788860601368098000,6.51509814453125,-0.059000469744205475,-0.12852069735527039,-0.8127541542053223
1788860601378139100,6.52513916015625,-0.03406502678990364,-0.2011544108390808,-0.8902787566184998
1788860601388180000,6.535179931640625,-0.007779359817504883,-0.23664742708206177,-1.0144697427749634
1788860601398222000,6.54522216796875,-0.008129299618303776,-0.25545546412467957,-1.1639331579208374
1788860601408263000,6.555262939453125,-0.004781173076480627,-0.2726312577724457,-1.264886498451233
1788860601418305300,6.56530517578125,0.014096910133957863,-0.28468871116638184,-1.2558919191360474
1788860601428346000,6.57534619140625,0.025420671328902245,-0.2698591649532318,-1.1525391340255737
1788860601438387200,6.58538720703125,0.03050278127193451,-0.27923378348350525,-1.0357755422592163
1788860601448429000,6.595428955078125,0.028292890638113022,-0.3220731019973755,-0.9784491062164307
1788860601458470100,6.60547021484375,0.03467622026801109,-0.4119718372821808,-0.9933745265007019
1788860601468512000,6.615511962890625,0.060132045298814774,-0.5412595272064209,-1.0582901239395142
1788860601478553000,6.625552978515625,0.10976298153400421,-0.6328352689743042,-1.1066358089447021
1788860601488595000,6.635594970703125,0.15207555890083313,-0.6228592991828918,-1.0976591110229492
1788860601498636000,6.645635986328125,0.15958832204341888,-0.5426489114761353,-1.0799877643585205
1788860601508677000,6.655677001953125,0.14484240114688873,-0.5073638558387756,-1.1124948263168335
1788860601518719000,6.665718994140625,0.15573899447917938,-0.5413660407066345,-1.1778546571731567
1788860601528760000,6.675760009765625,0.16579429805278778,-0.6094740033149719,-1.2448312044143677
1788860601538802200,6.68580224609375,0.1596229523420334,-0.6262425780296326,-1.248468041419983
1788860601548843300,6.69584326171875,0.1413792371749878,-0.5843572020530701,-1.1904444694519043
1788860601558884000,6.705884033203125,0.10344702750444412,-0.5591399669647217,-1.159749150276184
1788860601568926200,6.71592626953125,0.06302051246166229,-0.6082603931427002,-1.1798362731933594
1788860601578967000,6.725967041015625,0.049380332231521606,-0.728874683380127,-1.2195311784744263
1788860601589009200,6.736009033203125,0.04493844509124756,-0.8015286326408386,-1.2571715116500854
1788860601599050000,6.746050048828125,0.06662856042385101,-0.7922003865242004,-1.3327736854553223
1788860601609092000,6.756092041015625,0.11184371262788773,-0.7735036611557007,-1.4128221273422241
1788860601619133000,6.7661328125,0.15530090034008026,-0.751960039138794,-1.4362462759017944
1788860601629174000,6.776174072265625,0.17044444382190704,-0.7717984318733215,-1.3558456897735596
1788860601639215900,6.7862158203125,0.16310156881809235,-0.7805938124656677,-1.2188715934753418
1788860601649257000,6.796257080078125,0.12285428494215012,-0.7076636552810669,-1.1487926244735718
1788860601659299000,6.806299072265625,0.07197672128677368,-0.603796660900116,-1.1686522960662842
1788860601669340200,6.816340087890625,0.03692792356014252,-0.5569740533828735,-1.222019910812378
1788860601679381200,6.82638134765625,0.033428795635700226,-0.6183713674545288,-1.2825483083724976
1788860601689423000,6.836423095703125,0.02672002837061882,-0.6735253930091858,-1.3148274421691895
1788860601699464200,6.846464111328125,0.023551665246486664,-0.6132141351699829,-1.3223398923873901
1788860601709506000,6.856506103515625,0.011457185260951519,-0.4534364640712738,-1.314866304397583
1788860601719547100,6.866547119140625,0.012918462045490742,-0.39467859268188477,-1.2569224834442139
1788860601729589000,6.876589111328125,0.020680245012044907,-0.4369671940803528,-1.220346212387085
1788860601739630000,6.886630126953125,0.020488763228058815,-0.4749862253665924,-1.2325059175491333
1788860601749671000,6.8966708984375,0.004689293913543224,-0.40697309374809265,-1.229188084602356
1788860601759713300,6.90671337890625,-0.0116188395768404,-0.34235280752182007,-1.1989620923995972
1788860601769754000,6.916754150390625,-0.021160146221518517,-0.29910653829574585,-1.19937264919281
1788860601779796200,6.926796142578125,-0.015896940603852272,-0.320646733045578,-1.1502658128738403
1788860601789837000,6.936837158203125,0.007495466619729996,-0.2562118172645569,-1.035068154335022
1788860601799878100,6.946878173828125,0.027174362912774086,-0.03092196397483349,-0.9761430621147156
1788860601809920000,6.956919921875,0.04651850089430809,0.09849594533443451,-0.9637617468833923
1788860601819961000,6.966961181640625,0.05703132972121239,0.12012294679880142,-0.9810811281204224
1788860601830003000,6.9770029296875,0.05350024253129959,0.04086114838719368,-0.9919385313987732
1788860601840044000,6.9870439453125,0.07083262503147125,0.012141351588070393,-0.9798094630241394
1788860601850085000,6.997085205078125,0.09574276953935623,0.04050162062048912,-0.9301196336746216
1788860601860127000,7.007126953125,0.12391688674688339,0.25222453474998474,-0.9156237840652466
1788860601870168000,7.01716796875,0.1686643809080124,0.3663870394229889,-0.8949427604675293
1788860601880210200,7.027210205078125,0.19709469377994537,0.304998517036438,-0.7785170674324036
1788860601890251300,7.037251220703125,0.19987370073795319,0.1909281462430954,-0.6182253956794739
1788860601900293000,7.047293212890625,0.20670470595359802,0.15308435261249542,-0.46208640933036804
1788860601910334200,7.057334228515625,0.21969613432884216,0.20328813791275024,-0.33720359206199646
1788860601920375000,7.067375,0.20440560579299927,0.2300449162721634,-0.2782670557498932
1788860601930417200,7.077417236328125,0.1679261475801468,0.1257733702659607,-0.18005099892616272
1788860601940458000,7.0874580078125,0.13210824131965637,0.07358980178833008,-0.044124849140644073
1788860601950500000,7.0975,0.12179061770439148,0.24331891536712646,0.09337468445301056
1788860601960541000,7.107541015625,0.123601034283638,0.3251644968986511,0.17206044495105743
1788860601970582000,7.11758203125,0.09960488975048065,0.24980716407299042,0.2601924240589142
1788860601980624000,7.127623779296875,0.06819450110197067,0.252284973859787,0.36738520860671997
1788860601990665000,7.1376650390625,0.07312694191932678,0.3259908854961395,0.5091151595115662
1788860602000707000,7.14770703125,0.08911816030740738,0.35019955039024353,0.6333414912223816
1788860602010748200,7.157748046875,0.10501562803983688,0.3360288739204407,0.7375224828720093
1788860602020789200,7.167789306640625,0.12216638773679733,0.32534322142601013,0.8427543640136719
1788860602030831000,7.1778310546875,0.12228463590145111,0.3323467969894409,0.9173433780670166
1788860602040872200,7.1878720703125,0.12375682592391968,0.3455158472061157,0.9776189923286438
1788860602050914000,7.1979140625,0.11894290149211884,0.38432398438453674,1.0483349561691284
1788860602060955100,7.207955078125,0.10116656124591827,0.4188915193080902,1.1324501037597656
1788860602070997000,7.2179970703125,0.06781340390443802,0.3961457312107086,1.1984879970550537
1788860602081038000,7.2280380859375,0.02792777121067047,0.3488461375236511,1.2507469654083252
1788860602091079000,7.238078857421875,-0.010902182199060917,0.3048027753829956,1.309935450553894
1788860602101121000,7.24812109375,-0.051602207124233246,0.30768460035324097,1.3853193521499634
1788860602111161900,7.258161865234375,-0.09160448610782623,0.34374698996543884,1.4530571699142456
1788860602121204200,7.268204345703125,-0.10008372366428375,0.3150508999824524,1.512718677520752
1788860602131245000,7.2782451171875,-0.09894229471683502,0.26477015018463135,1.5640867948532104
1788860602141286100,7.2882861328125,-0.10598049312829971,0.27900898456573486,1.6141924858093262
1788860602151328000,7.298327880859375,-0.1277100294828415,0.3645433485507965,1.6722326278686523
1788860602161369000,7.308369140625,-0.14690423011779785,0.4609479010105133,1.7490925788879395
1788860602171411000,7.318410888671875,-0.16653332114219666,0.470716655254364,1.788733959197998
1788860602181452000,7.3284521484375,-0.19694103300571442,0.4314214289188385,1.7956470251083374
1788860602191493000,7.3384931640625,-0.24175776541233063,0.4162885546684265,1.816613793373108
1788860602201535000,7.348534912109375,-0.3195574879646301,0.40661171078681946,1.8522192239761353
1788860602211576000,7.358576171875,-0.38295164704322815,0.3912271559238434,1.8488819599151611
1788860602221618200,7.3686181640625,-0.4118970036506653,0.36781877279281616,1.820474624633789
1788860602231659300,7.3786591796875,-0.43277034163475037,0.3390614092350006,1.81460440158844
1788860602241700000,7.3887001953125,-0.46686679124832153,0.3311803340911865,1.8248794078826904
1788860602251742200,7.3987421875,-0.4915761351585388,0.34226173162460327,1.8472460508346558
1788860602261783000,7.408782958984375,-0.4890061616897583,0.3438684344291687,1.870118260383606
1788860602271825200,7.4188251953125,-0.47027722001075745,0.3436031639575958,1.8743354082107544
1788860602281866000,7.428865966796875,-0.42701178789138794,0.3417533338069916,1.878847360610962
1788860602291908000,7.438908203125,-0.36183276772499084,0.32864314317703247,1.8797054290771484
1788860602301949000,7.448948974609375,-0.2744605839252472,0.27924227714538574,1.8804532289505005
1788860602311990000,7.458989990234375,-0.1673557013273239,0.20685437321662903,1.8650455474853516
1788860602322031900,7.469031982421875,-0.06579845398664474,0.15285612642765045,1.8389697074890137
1788860602332073000,7.479072998046875,0.013292635791003704,0.15931002795696259,1.8135852813720703
1788860602342115000,7.489114990234375,0.06406527012586594,0.16315004229545593,1.7884646654129028
1788860602352156200,7.49915625,0.11033689230680466,0.14316195249557495,1.756894826889038
1788860602362197200,7.509197265625,0.15780720114707947,0.0982072576880455,1.7147796154022217
1788860602372238600,7.519238525390625,0.2314492017030716,0.061762433499097824,1.6605626344680786
1788860602382279700,7.52927978515625,0.318030446767807,0.0451914481818676,1.588107705116272
1788860602392321500,7.539321533203125,0.3904697597026825,0.003710582386702299,1.4988012313842773
1788860602402362600,7.549362548828125,0.4503900706768036,-0.04307663068175316,1.4213359355926514
1788860602412403500,7.559403564453125,0.49625131487846375,-0.03279922530055046,1.4159822463989258
1788860602422445600,7.569445556640625,0.5147043466567993,0.0582454614341259,1.4770498275756836
1788860602432486700,7.579486572265625,0.5128026008605957,0.14014406502246857,1.570264458656311
1788860602442528500,7.589528564453125,0.5049284100532532,0.09041831642389297,1.630715012550354
1788860602452569600,7.599569580078125,0.5021384954452515,-0.03320296108722687,1.6136292219161987
1788860602462610400,7.6096103515625,0.4513935446739197,-0.10608275979757309,1.539772868156433
1788860602472652800,7.61965283203125,0.3683876097202301,-0.07297834008932114,1.466940999031067
1788860602482693600,7.629693603515625,0.28783178329467773,-0.004278368316590786,1.4324954748153687
1788860602492735700,7.63973583984375,0.2233225703239441,0.04673741012811661,1.4453734159469604
1788860602502776600,7.649776611328125,0.16355857253074646,0.06984060257673264,1.4830273389816284
1788860602512817700,7.659817626953125,0.09888982772827148,0.04126488044857979,1.5130128860473633
1788860602522859500,7.669859619140625,0.04514537379145622,-0.024596422910690308,1.4705325365066528
1788860602532900600,7.679900634765625,0.018061824142932892,-0.12502582371234894,1.3429615497589111
1788860602542942500,7.6899423828125,0.022475481033325195,-0.20643439888954163,1.1713911294937134
1788860602552983600,7.699983642578125,0.015097726136446,-0.2224929928779602,1.0094672441482544
1788860602563024600,7.710024658203125,-0.021881863474845886,-0.18451552093029022,0.8974011540412903
1788860602573066800,7.720066650390625,-0.06808584183454514,-0.1120477095246315,0.8223966360092163
1788860602583107600,7.730107666015625,-0.10233303159475327,-0.052385441958904266,0.7396525144577026
1788860602593149700,7.740149658203125,-0.10159213840961456,-0.0659278854727745,0.6199231743812561
1788860602603190800,7.750190673828125,-0.09702721238136292,-0.10116523504257202,0.4787639081478119
1788860602613232600,7.760232666015625,-0.10837893933057785,0.010061955079436302,0.3703831136226654
1788860602623273700,7.770273681640625,-0.13350746035575867,0.24472053349018097,0.22942733764648438
1788860602633314600,7.780314453125,-0.13486486673355103,0.40932944416999817,0.006351905409246683
1788860602643356700,7.790356689453125,-0.08412420004606247,0.43994301557540894,-0.2297503799200058
1788860602653397500,7.8003974609375,-0.05191326513886452,0.4344151020050049,-0.38542360067367554
1788860602663439600,7.810439697265625,-0.07675443589687347,0.41603848338127136,-0.427678644657135
1788860602673480400,7.82048046875,-0.10647610574960709,0.36951279640197754,-0.37658002972602844
1788860602683521500,7.830521484375,-0.13055241107940674,0.30178382992744446,-0.2970319390296936
1788860602693563600,7.840563720703125,-0.15464043617248535,0.18996195495128632,-0.2541465163230896
1788860602703604700,7.850604736328125,-0.15623967349529266,0.004828843753784895,-0.2784947454929352
1788860602713646600,7.860646484375,-0.13469070196151733,-0.14125965535640717,-0.347140371799469
1788860602723687700,7.870687744140625,-0.08857221156358719,-0.1391291320323944,-0.4187762141227722
1788860602733728800,7.880728759765625,-0.03166498616337776,-0.05931072682142258,-0.4742211103439331
1788860602743770600,7.8907705078125,0.038186002522706985,0.031266044825315475,-0.5223689079284668
1788860602753811700,7.900811767578125,0.09408841282129288,0.1177777647972107,-0.549393892288208
1788860602763853600,7.910853515625,0.13855814933776855,0.21853792667388916,-0.5653768181800842
1788860602773894700,7.920894775390625,0.1843610554933548,0.30525365471839905,-0.5859697461128235
1788860602783935500,7.930935546875,0.23083561658859253,0.38112393021583557,-0.6467419862747192
1788860602793977600,7.9409775390625,0.2759772539138794,0.44416946172714233,-0.7118698954582214
1788860602804018400,7.951018310546875,0.3136756420135498,0.5166963934898376,-0.7625187039375305
1788860602814060800,7.961060791015625,0.35364940762519836,0.5685728788375854,-0.7894347310066223
1788860602824101600,7.9711015625,0.3658999502658844,0.6001505255699158,-0.7719598412513733
1788860602834142700,7.981142822265625,0.3299728333950043,0.6301771402359009,-0.7420578598976135
1788860602844184600,7.9911845703125,0.2788737118244171,0.6377509236335754,-0.7553454637527466
1788860602854225700,8.0012255859375,0.2593120038509369,0.5777174234390259,-0.8185180425643921
1788860602864267500,8.011267578125,0.2644670605659485,0.5024354457855225,-0.9392870664596558
1788860602874308600,8.02130859375,0.2694530487060547,0.4077509939670563,-1.0712573528289795
1788860602884349700,8.031349609375,0.2479379028081894,0.29591500759124756,-1.1365289688110352
1788860602894391600,8.0413916015625,0.1954541802406311,0.2013656049966812,-1.1156014204025269
1788860602904432600,8.0514326171875,0.10903806984424591,0.15144838392734528,-1.0758875608444214
1788860602914474500,8.061474609375,0.006080529186874628,0.16455619037151337,-1.0591620206832886
1788860602924515600,8.071515625,-0.07857417315244675,0.23039619624614716,-1.0623801946640015
1788860602934556400,8.081556396484375,-0.12392088025808334,0.26086726784706116,-1.0990194082260132
1788860602944598800,8.091598876953125,-0.12577922642230988,0.1976877748966217,-1.1214715242385864
1788860602954639600,8.1016396484375,-0.12489932775497437,0.11256062984466553,-1.0949541330337524
1788860602964681700,8.111681640625,-0.12669216096401215,0.07978671044111252,-1.0506069660186768
1788860602974722600,8.12172265625,-0.12518134713172913,0.055752478539943695,-1.0650663375854492
1788860602984764700,8.1317646484375,-0.09552119672298431,-0.02526434324681759,-1.154547929763794
1788860602994805500,8.141805419921875,-0.04048670455813408,-0.18099455535411835,-1.2492477893829346
1788860603004846600,8.1518466796875,0.028382638469338417,-0.3416236340999603,-1.289763331413269
1788860603014888400,8.161888427734375,0.07480739802122116,-0.43360763788223267,-1.2780821323394775
1788860603024929500,8.171929443359375,0.12370462715625763,-0.46179264783859253,-1.2501198053359985
1788860603034971600,8.1819716796875,0.16404220461845398,-0.44280806183815,-1.2319340705871582
1788860603045012700,8.1920126953125,0.17654840648174286,-0.36295342445373535,-1.2422791719436646
1788860603055053800,8.2020537109375,0.15064969658851624,-0.28690099716186523,-1.2799091339111328
1788860603065095700,8.212095703125,0.10787426680326462,-0.28630632162094116,-1.3509281873703003
1788860603075136800,8.22213671875,0.07367874681949615,-0.3505966365337372,-1.4694737195968628
1788860603085178600,8.2321787109375,0.0656658262014389,-0.4603268504142761,-1.6082395315170288
1788860603095219700,8.2422197265625,0.06663735210895538,-0.7044042348861694,-1.6301432847976685
1788860603105260500,8.252260498046875,0.05463874340057373,-0.9194701910018921,-1.5931884050369263
1788860603115302700,8.262302734375,0.030657777562737465,-0.9107022881507874,-1.5823363065719604
1788860603125343500,8.272343505859375,-0.004062385763972998,-0.7630457282066345,-1.6093535423278809
1788860603135385600,8.282385498046875,-0.035107653588056564,-0.6614961624145508,-1.657073736190796
1788860603145426400,8.292426513671876,-0.04093598201870918,-0.6804413795471191,-1.6941704750061035
1788860603155467500,8.302467529296875,-0.03293478116393089,-0.785269021987915,-1.7005643844604492
1788860603165509600,8.312509521484374,-0.029226595535874367,-0.8744662404060364,-1.6685585975646973
1788860603175550700,8.32255078125,-0.007987885735929012,-0.8748843669891357,-1.6746635437011719
1788860603185592600,8.332592529296875,0.011627094820141792,-0.8542051911354065,-1.7144917249679565
1788860603195633700,8.342633544921876,0.023680029436945915,-0.8752630949020386,-1.7319165468215942
1788860603205674800,8.3526748046875,0.03809039294719696,-0.841468095779419,-1.703948736190796
1788860603215716600,8.362716552734375,0.0391753651201725,-0.712206244468689,-1.6362866163253784
1788860603225757700,8.3727578125,0.009102418087422848,-0.5948852300643921,-1.5372836589813232
1788860603235799600,8.382799560546875,-0.008124771527945995,-0.49975255131721497,-1.4706201553344727
1788860603245840600,8.392840576171874,0.004434429574757814,-0.4489205479621887,-1.4656118154525757
1788860603255881500,8.402881591796875,0.02870354987680912,-0.48319780826568604,-1.526987075805664
1788860603265923600,8.412923583984375,0.03441443294286728,-0.5205603837966919,-1.6262627840042114
1788860603275964400,8.42296435546875,0.041605766862630844,-0.47104766964912415,-1.695633053779602
1788860603286006800,8.4330068359375,0.050686080008745193,-0.41802895069122314,-1.7489508390426636
1788860603296047600,8.443047607421875,0.06834922730922699,-0.3976368308067322,-1.7651269435882568
1788860603306088700,8.453088623046876,0.08398757874965668,-0.38913097977638245,-1.7312512397766113
1788860603316130600,8.463130615234375,0.09317442029714584,-0.3815697431564331,-1.6675361394882202
1788860603326171600,8.473171630859374,0.07441458106040955,-0.3484583795070648,-1.583916425704956
1788860603336213500,8.483213623046876,0.07272720336914062,-0.34402263164520264,-1.493740200996399
1788860603346254600,8.493254638671875,0.07342281937599182,-0.3799063265323639,-1.4090683460235596
1788860603356295700,8.503295654296876,0.053631268441677094,-0.39180320501327515,-1.3200434446334839
1788860603366337500,8.513337646484375,0.011002583429217339,-0.3364022374153137,-1.2523390054702759
1788860603376378600,8.523378662109375,-0.02184644341468811,-0.22761771082878113,-1.2085320949554443
1788860603386420500,8.53342041015625,-0.028447620570659637,-0.15854357182979584,-1.17417573928833
1788860603396461600,8.543461669921875,-0.005788647104054689,-0.21187949180603027,-1.1155273914337158
1788860603406502400,8.55350244140625,0.025078188627958298,-0.20130302011966705,-1.040735125541687
1788860603416544800,8.563544677734376,0.04117726534605026,-0.110011987388134,-0.9766533374786377
1788860603426585600,8.573585693359375,0.06580378115177155,-0.03247858211398125,-0.9360440969467163
1788860603436627700,8.583627685546874,0.07591979950666428,0.030178675428032875,-0.8550435304641724
1788860603446668500,8.59366845703125,0.07506412267684937,0.06635132431983948,-0.7828226089477539
1788860603456710700,8.603710693359375,0.09001244604587555,0.0966503769159317,-0.7053542137145996
1788860603466751500,8.61375146484375,0.11273160576820374,0.09231368452310562,-0.6067333221435547
1788860603476792600,8.62379248046875,0.1232721358537674,0.02563638798892498,-0.5203859210014343
1788860603486834400,8.63383447265625,0.11862944811582565,-0.02214604802429676,-0.4201056659221649
1788860603496875500,8.64387548828125,0.1191793903708458,-0.010397247038781643,-0.3163750171661377
1788860603506917400,8.65391748046875,0.11859934777021408,-0.006193447392433882,-0.19244268536567688
1788860603516958500,8.66395849609375,0.10261932015419006,-0.06187668442726135,-0.05589602142572403
1788860603526999600,8.67399951171875,0.0808413177728653,-0.0115546565502882,0.1141609251499176
1788860603537041700,8.684041748046875,0.05531678348779678,0.09141726791858673,0.258257657289505
1788860603547082800,8.694082763671876,0.05258997529745102,0.14191879332065582,0.3382888436317444
1788860603557124600,8.70412451171875,0.039440348744392395,0.04182787239551544,0.3563440144062042
1788860603567165700,8.714165771484375,-0.006872287020087242,-0.037820350378751755,0.4178188145160675
1788860603577206500,8.72420654296875,-0.07227100431919098,0.004126035608351231,0.5791099667549133
1788860603587248600,8.73424853515625,-0.13885881006717682,0.12944933772087097,0.7483831644058228
1788860603597289500,8.74428955078125,-0.20827437937259674,0.21732673048973083,0.8738731741905212
1788860603607331600,8.75433154296875,-0.24522574245929718,0.20455659925937653,0.9872034192085266
1788860603617372400,8.764372314453125,-0.23289157450199127,0.12857528030872345,1.0723040103912354
1788860603627413500,8.77441357421875,-0.2084818333387375,0.11862092465162277,1.1158889532089233
1788860603637455400,8.784455322265625,-0.20350545644760132,0.2142944484949112,1.1947747468948364
1788860603647496400,8.794496337890624,-0.21653710305690765,0.32868707180023193,1.3282043933868408
1788860603657538600,8.80453857421875,-0.22152626514434814,0.3942756652832031,1.4496158361434937
1788860603667579600,8.81457958984375,-0.21446143090724945,0.3885645270347595,1.5495083332061768
1788860603677621500,8.82462158203125,-0.1928834319114685,0.3582170009613037,1.6752017736434937
1788860603687662600,8.83466259765625,-0.15290085971355438,0.3780713975429535,1.851853847503662
1788860603697703700,8.84470361328125,-0.1305188536643982,0.37735715508461,2.012148380279541
1788860603707745500,8.85474560546875,-0.1512896567583084,0.4679104685783386,2.105029582977295
1788860603717786600,8.86478662109375,-0.1434738039970398,0.7153818011283875,2.186048746109009
1788860603727828500,8.874828369140625,-0.12060710787773132,0.7517648339271545,2.2288460731506348
1788860603737869600,8.88486962890625,-0.09716197103261948,0.6097866296768188,2.2698495388031006
1788860603747910400,8.894910400390625,-0.09521333128213882,0.5042527914047241,2.349788188934326
1788860603757952500,8.904952392578124,-0.16483049094676971,0.4246620833873749,2.4409523010253906
1788860603767993300,8.914993408203125,-0.28043538331985474,0.3577014207839966,2.4827070236206055
1788860603778035700,8.92503564453125,-0.3592468500137329,0.2981818914413452,2.4392049312591553
1788860603788076500,8.93507666015625,-0.4133593440055847,0.24302223324775696,2.389921188354492
1788860603798117600,8.94511767578125,-0.44484883546829224,0.15010002255439758,2.3824782371520996
1788860603808159500,8.955159423828125,-0.4427822232246399,0.02527845837175846,2.3951709270477295
1788860603818200600,8.96520068359375,-0.44152122735977173,-0.06778863817453384,2.4171974658966064
1788860603828242400,8.975242431640625,-0.47513243556022644,-0.08458705246448517,2.4168097972869873
1788860603838283500,8.985283447265624,-0.5201374888420105,-0.07570914179086685,2.4002535343170166
1788860603848325400,8.995325439453126,-0.5916225910186768,-0.044547758996486664,2.347757339477539
1788860603858366500,9.005366455078125,-0.6746618151664734,-0.008521050214767456,2.314478874206543
1788860603868407600,9.015407470703124,-0.7356841564178467,0.03383146598935127,2.318422794342041
1788860603878449700,9.02544970703125,-0.7774145603179932,0.043719518929719925,2.3336992263793945
1788860603888490800,9.03549072265625,-0.7821562886238098,-0.0014969628537073731,2.292372941970825
1788860603898532600,9.04553271484375,-0.7379806041717529,-0.04638320952653885,2.186077356338501
1788860603908573700,9.05557373046875,-0.6576558947563171,-0.07082676887512207,2.0471277236938477
1788860603918614500,9.065614501953124,-0.5761450529098511,-0.06878305971622467,1.9306548833847046
1788860603928656600,9.07565673828125,-0.5192753672599792,-0.06430255621671677,1.870258092880249
1788860603938697500,9.085697509765625,-0.49430426955223083,-0.03333824872970581,1.8652859926223755
1788860603948739600,9.095739501953124,-0.4786515235900879,0.03377607464790344,1.896552324295044
1788860603958780400,9.105780517578125,-0.43641966581344604,0.11795060336589813,1.9273784160614014
1788860603968821500,9.115821533203125,-0.3609083890914917,0.15321938693523407,1.9278777837753296
1788860603978863400,9.12586328125,-0.27827662229537964,0.12729457020759583,1.8630331754684448
1788860603988904400,9.135904541015625,-0.19699536263942719,0.05073587968945503,1.7566570043563843
1788860603998946600,9.145946533203125,-0.11934024095535278,-0.0589570589363575,1.627632975578308
1788860604008987600,9.155987548828126,-0.03575479984283447,-0.1565627157688141,1.4706050157546997
1788860604019028700,9.16602880859375,0.0430087186396122,-0.23373925685882568,1.3053712844848633
1788860604029070600,9.176070556640624,0.07986580580472946,-0.28226444125175476,1.1717402935028076
1788860604039111700,9.186111572265625,0.07772835344076157,-0.19010895490646362,1.1121877431869507
1788860604049153500,9.196153564453125,0.07271095365285873,0.05945427343249321,1.0972846746444702
1788860604059194600,9.206194580078124,0.09325297921895981,0.3086315989494324,1.069301724433899
1788860604069236500,9.216236572265625,0.14087988436222076,0.42165109515190125,0.9985141754150391
1788860604079277600,9.226277587890625,0.16866464912891388,0.3469206690788269,0.8730131983757019
1788860604089318400,9.236318359375,0.15274107456207275,0.190882608294487,0.7028745412826538
1788860604099360500,9.246360595703125,0.10335541516542435,0.06394889205694199,0.49699512124061584
1788860604109401300,9.2564013671875,0.06507300585508347,0.022584138438105583,0.28138452768325806
1788860604119443700,9.266443603515626,0.05395937338471413,0.0241391584277153,0.07194183766841888
1788860604129484500,9.276484619140625,0.03795696794986725,0.08175638318061829,-0.10857627540826797
1788860604139525600,9.286525634765624,0.0007403587806038558,0.19636258482933044,-0.23296907544136047
1788860604149567500,9.2965673828125,0.00002902845517382957,0.3034863770008087,-0.30281898379325867
1788860604159608600,9.306608642578125,0.045699045062065125,0.36589542031288147,-0.3380456864833832
1788860604169650400,9.316650390625,0.08688563108444214,0.409413605928421,-0.3618066906929016
1788860604179691500,9.32669140625,0.12489239871501923,0.4477596580982208,-0.3935912251472473
1788860604189732600,9.336732666015624,0.14694949984550476,0.40429848432540894,-0.4379056990146637
1788860604199774500,9.3467744140625,0.17407245934009552,0.2936590611934662,-0.5028095841407776
1788860604209815600,9.356815673828125,0.18774326145648956,0.19231192767620087,-0.5788468718528748
1788860604219857400,9.366857421875,0.19862334430217743,0.15915609896183014,-0.6523647308349609
1788860604229898500,9.3768984375,0.2325994223356247,0.18406011164188385,-0.708624541759491
1788860604239940600,9.386940673828125,0.2826404869556427,0.22861826419830322,-0.7430144548416138
1788860604249981700,9.396981689453124,0.3176352083683014,0.2731633484363556,-0.7687563300132751
1788860604260022500,9.4070224609375,0.345086008310318,0.33339154720306396,-0.8185558319091797
1788860604270064600,9.417064697265625,0.3750564455986023,0.4366646707057953,-0.8865029215812683
1788860604280105500,9.42710546875,0.3861487805843353,0.545668363571167,-0.915072500705719
1788860604290147600,9.437147705078125,0.38580840826034546,0.5880877375602722,-0.8766915798187256
1788860604300188400,9.4471884765625,0.36555907130241394,0.5657986998558044,-0.7971472144126892
1788860604310229500,9.4572294921875,0.36070865392684937,0.5330181121826172,-0.7423662543296814
1788860604320271600,9.467271728515625,0.3651614487171173,0.5065340399742126,-0.7841347455978394
1788860604330312400,9.4773125,0.3838725686073303,0.4046092629432678,-0.9007143378257751
1788860604340354600,9.4873544921875,0.4140760004520416,0.20910421013832092,-1.0271923542022705
1788860604350395600,9.497395751953125,0.41369596123695374,-0.03789332136511803,-1.1071016788482666
1788860604360436700,9.507436767578126,0.37545058131217957,-0.18867963552474976,-1.1512278318405151
1788860604370478800,9.517478759765625,0.3053319454193115,-0.1871296763420105,-1.1662949323654175
1788860604380520000,9.52752001953125,0.21551844477653503,-0.1120719462633133,-1.1660701036453247
1788860604390561800,9.537561767578126,0.12632225453853607,-0.024220917373895645,-1.1860179901123047
1788860604400603000,9.547602783203125,0.05724118649959564,0.049678605049848557,-1.2515772581100464
1788860604410645000,9.55764501953125,0.02863723784685135,0.1090758889913559,-1.3700916767120361
1788860604420686000,9.56768603515625,0.03551405295729637,0.12433313578367233,-1.4988003969192505
1788860604430727000,9.577726806640625,0.055088020861148834,0.019354522228240967,-1.5614526271820068
1788860604440769000,9.58776904296875,0.06003936752676964,-0.17391081154346466,-1.5802563428878784
1788860604450809900,9.597809814453125,0.04421592876315117,-0.3881261646747589,-1.6043263673782349
1788860604460852000,9.60785205078125,0.03651886433362961,-0.5838567614555359,-1.6101043224334717
1788860604470892800,9.617892822265626,0.03331481292843819,-0.6571760177612305,-1.619863748550415
1788860604480934000,9.627933837890625,0.020777450874447823,-0.5896768569946289,-1.6584044694900513
1788860604490975700,9.637975830078124,-0.001933721243403852,-0.4214644134044647,-1.7116676568984985
1788860604501016800,9.648016845703125,-0.03079812601208687,-0.3137853443622589,-1.7487295866012573
1788860604511059000,9.658058837890625,-0.06981024146080017,-0.31867945194244385,-1.7764464616775513
1788860604521100000,9.66810009765625,-0.10926417261362076,-0.42193660140037537,-1.8206602334976196
1788860604531142000,9.678141845703125,-0.1452227085828781,-0.5693654417991638,-1.8610526323318481
1788860604541183000,9.688182861328125,-0.18502338230609894,-0.696962296962738,-1.8758587837219238
1788860604551224000,9.69822412109375,-0.2260211557149887,-0.7169961929321289,-1.8681398630142212
1788860604561266000,9.708265869140625,-0.2640468180179596,-0.6192033290863037,-1.829758882522583
1788860604571307000,9.71830712890625,-0.28952157497406006,-0.48679041862487793,-1.73948335647583
1788860604581348900,9.728348876953126,-0.31041353940963745,-0.379489004611969,-1.635499358177185
1788860604591390000,9.738389892578125,-0.33304426074028015,-0.2698959410190582,-1.5525131225585938
1788860604601430800,9.7484306640625,-0.3273293972015381,-0.1692579984664917,-1.5228685140609741
1788860604611473000,9.758472900390625,-0.30225732922554016,-0.041970085352659225,-1.5485026836395264
1788860604621513700,9.768513671875,-0.25343599915504456,0.08518067747354507,-1.5768650770187378
1788860604631556000,9.77855615234375,-0.19637776911258698,0.22007670998573303,-1.5664314031600952
1788860604641597000,9.788596923828125,-0.14728638529777527,0.33808642625808716,-1.5550665855407715
1788860604651639000,9.79863916015625,-0.10838053375482559,0.36902332305908203,-1.5489935874938965
1788860604661679900,9.808679931640626,-0.07122623920440674,0.2935783565044403,-1.5132133960723877
1788860604671721000,9.818720947265625,-0.04432964697480202,0.22016805410385132,-1.4722050428390503
1788860604681762800,9.8287626953125,-0.034585140645504,0.1719278246164322,-1.447701334953308
1788860604691804000,9.838803955078125,-0.0357593297958374,0.11231109499931335,-1.459370732307434
1788860604701845800,9.848845703125,-0.013097425922751427,0.0009446232579648495,-1.4811862707138062
1788860604711886800,9.858886962890624,0.006974286399781704,-0.16223257780075073,-1.4980491399765015
1788860604721928000,9.868927978515625,0.01589294709265232,-0.290652871131897,-1.535519003868103
1788860604731969800,9.8789697265625,0.028364529833197594,-0.33041465282440186,-1.59363853931427
1788860604742011000,9.889010986328126,0.061112090945243835,-0.368804395198822,-1.5898171663284302
1788860604752053000,9.899052978515625,0.12077169120311737,-0.4075014591217041,-1.5395773649215698
1788860604762094000,9.909093994140624,0.18938323855400085,-0.3974866569042206,-1.4997823238372803
1788860604772135000,9.919135009765625,0.25254783034324646,-0.41232311725616455,-1.4641069173812866
1788860604782177000,9.929177001953125,0.30112627148628235,-0.4556519389152527,-1.4178842306137085
1788860604792217900,9.9392177734375,0.3269389867782593,-0.4962443709373474,-1.3638697862625122
1788860604802260000,9.949260009765625,0.3438127636909485,-0.4576527774333954,-1.315613031387329
1788860604812300800,9.95930078125,0.36283013224601746,-0.36895832419395447,-1.26304030418396
1788860604822343000,9.969343017578124,0.39257070422172546,-0.349753201007843,-1.2155159711837769
1788860604832383700,9.9793837890625,0.41635194420814514,-0.3913978636264801,-1.160050630569458
1788860604842424800,9.9894248046875,0.3931446373462677,-0.41725820302963257,-1.0875351428985596
1788860604852467000,9.999467041015626,0.35665425658226013,-0.36931225657463074,-0.9821213483810425
1788860604862507800,10.0095078125,0.3376789689064026,-0.279890775680542,-0.8802301287651062
1788860604872550000,10.0195498046875,0.31573426723480225,-0.24299347400665283,-0.7894469499588013
1788860604882591000,10.029591064453125,0.276531457901001,-0.225179061293602,-0.7067467570304871
1788860604892632000,10.039632080078125,0.24075402319431305,-0.19914984703063965,-0.6352965235710144
1788860604902674000,10.049673828125,0.20113790035247803,-0.19825848937034607,-0.5667334794998169
1788860604912715000,10.059715087890625,0.16879966855049133,-0.06218241527676582,-0.4722285270690918
1788860604922756900,10.0697568359375,0.16255135834217072,0.08352658152580261,-0.35769182443618774
1788860604932798000,10.0797978515625,0.1455731838941574,0.13399428129196167,-0.25411590933799744
1788860604942838800,10.0898388671875,0.11096540093421936,0.15624792873859406,-0.11112812161445618
1788860604952881000,10.099880859375,0.0727735385298729,0.1425933688879013,0.04842798784375191
1788860604962922000,10.109921875,0.02857092395424843,0.10113753378391266,0.1873382031917572
1788860604972964000,10.119964111328125,-0.02413835935294628,0.13231489062309265,0.29519543051719666
1788860604983005000,10.1300048828125,-0.0853513851761818,0.14760251343250275,0.38131460547447205
1788860604993047000,10.140047119140625,-0.13931581377983093,0.10365475714206696,0.473189115524292
1788860605003088000,10.150087890625,-0.1880418062210083,0.07019826024770737,0.6138882040977478
1788860605013129000,10.16012890625,-0.2440025508403778,0.12366708368062973,0.7565915584564209
1788860605023171000,10.170171142578125,-0.29816511273384094,0.20807890594005585,0.8640479445457458
1788860605033212000,10.1802119140625,-0.31660616397857666,0.2195909470319748,0.9586753845214844
1788860605043254000,10.19025390625,-0.33825793862342834,0.24082592129707336,1.053655982017517
1788860605053294800,10.200294921875,-0.3626847267150879,0.3271304666996002,1.147304654121399
1788860605063336000,10.2103359375,-0.36629757285118103,0.3850691318511963,1.2375147342681885
1788860605073377800,10.220377685546875,-0.35845401883125305,0.3601619005203247,1.3448805809020996
1788860605083419000,10.2304189453125,-0.3657374978065491,0.33367836475372314,1.4642860889434814
1788860605093461000,10.2404609375,-0.3931480944156647,0.3573509454727173,1.5798872709274292
1788860605103502000,10.250502197265625,-0.4331245422363281,0.3816291093826294,1.6894593238830566
1788860605113544000,10.2605439453125,-0.4664779603481293,0.4163189232349396,1.7902610301971436
1788860605123585000,10.2705849609375,-0.47394227981567383,0.4679592251777649,1.8669168949127197
1788860605133626000,10.280626220703125,-0.4561004340648651,0.47503337264060974,1.9312492609024048
1788860605143668000,10.29066796875,-0.4229286313056946,0.4479122757911682,1.9630144834518433
1788860605153709000,10.300708984375,-0.3869514465332031,0.41865265369415283,1.970131516456604
1788860605163751000,10.3107509765625,-0.35409921407699585,0.4252687394618988,1.9843604564666748
1788860605173792000,10.3207919921875,-0.3283022344112396,0.4495975077152252,2.010714530944824
1788860605183832800,10.330832763671875,-0.315906286239624,0.4389802813529968,2.044191598892212
1788860605193875000,10.340875,-0.3067346215248108,0.4080471396446228,2.049985885620117
1788860605203915800,10.350915771484376,-0.3081493079662323,0.3910817503929138,2.0355000495910645
1788860605213958100,10.360958251953125,-0.30464377999305725,0.3975614905357361,2.065944194793701
1788860605223999000,10.3709990234375,-0.28469324111938477,0.4043051302433014,2.1240644454956055
1788860605234040000,10.3810400390625,-0.257583349943161,0.3889855742454529,2.1664509773254395
1788860605244082000,10.39108203125,-0.22484776377677917,0.3684043884277344,2.2189581394195557
1788860605254123000,10.401123046875,-0.17443092167377472,0.36700543761253357,2.2783114910125732
1788860605264164900,10.411164794921875,-0.11098004877567291,0.3789915144443512,2.3398525714874268
1788860605274206000,10.4212060546875,-0.04625670984387398,0.36368605494499207,2.396174907684326
1788860605284247800,10.431247802734376,0.003847202518954873,0.30278143286705017,2.4376676082611084
1788860605294289000,10.441288818359375,0.056297894567251205,0.2592259645462036,2.438415288925171
1788860605304330000,10.451330078125,0.10397939383983612,0.2366093397140503,2.382481575012207
1788860605314371800,10.461371826171876,0.12952177226543427,0.22568665444850922,2.303593635559082
1788860605324413000,10.471412841796875,0.11776391416788101,0.2095220685005188,2.2354531288146973
1788860605334455000,10.481455078125,0.10136257112026215,0.13150262832641602,2.162548780441284
1788860605344496000,10.49149609375,0.08751280605792999,0.0204544086009264,2.0911073684692383
1788860605354537000,10.501536865234375,0.06702643632888794,-0.05940606817603111,2.022592067718506
1788860605364579000,10.5115791015625,0.05474154278635979,-0.09004200994968414,1.9751513004302979
1788860605374620200,10.5216201171875,0.043181825429201126,-0.10579194128513336,1.933546781539917
1788860605384662300,10.531662353515625,0.04553073272109032,-0.11921427398920059,1.879300832748413
1788860605394703000,10.541703125,0.06661338359117508,-0.1282557100057602,1.8210279941558838
1788860605404744200,10.551744140625,0.07585375010967255,-0.08820495754480362,1.7568495273590088
1788860605414786000,10.5617861328125,0.0851316750049591,-0.02893471159040928,1.6981476545333862
1788860605424827100,10.5718271484375,0.11374307423830032,0.014093714766204357,1.6365231275558472
1788860605434869200,10.581869140625,0.12268224358558655,0.05145653337240219,1.5647616386413574
1788860605444910300,10.591910400390624,0.11933358758687973,0.13216230273246765,1.4879552125930786
1788860605454952200,10.6019521484375,0.11061093211174011,0.18953265249729156,1.398635745048523
1788860605464993300,10.6119931640625,0.10432427376508713,0.17304182052612305,1.299842357635498
1788860605475034000,10.6220341796875,0.09956786781549454,0.13225683569908142,1.1780532598495483
1788860605485076200,10.632076171875,0.08730348199605942,0.11591009050607681,1.0306055545806885
1788860605495117300,10.642117431640624,0.0764114186167717,0.11002983152866364,0.8719255924224854
1788860605505159200,10.6521591796875,0.07700024545192719,0.08475403487682343,0.7046433687210083
1788860605515200300,10.6622001953125,0.07796616852283478,0.04338928684592247,0.5440425276756287
1788860605525241000,10.672240966796876,0.08478093147277832,0.025778867304325104,0.3812863826751709
1788860605535283200,10.682283203125,0.09094109386205673,0.06510470062494278,0.22499743103981018
1788860605545324000,10.692323974609375,0.0910220518708229,0.15921682119369507,0.07795099169015884
1788860605555366400,10.702366455078124,0.11008203029632568,0.27757808566093445,-0.04754994064569473
1788860605565407200,10.7124072265625,0.1639423370361328,0.3634181618690491,-0.14422374963760376
1788860605575448300,10.7224482421875,0.23080258071422577,0.3907618820667267,-0.22451752424240112
1788860605585490200,10.732490234375,0.26422393321990967,0.3568819463253021,-0.2805855870246887
1788860605595531300,10.74253125,0.25992584228515625,0.2766462564468384,-0.3284774720668793
1788860605605573000,10.752572998046874,0.2646404504776001,0.16471438109874725,-0.37708228826522827
1788860605615614200,10.7626142578125,0.24719008803367615,0.058329883962869644,-0.4307175576686859
1788860605625656000,10.772656005859375,0.21815790235996246,0.024112259969115257,-0.49248000979423523
1788860605635697200,10.782697265625,0.19985106587409973,0.060443904250860214,-0.5450209975242615
1788860605645738200,10.79273828125,0.1777963638305664,0.10159053653478622,-0.5760217905044556
1788860605655780000,10.802780029296875,0.16370904445648193,0.1753920614719391,-0.6297308206558228
1788860605665821200,10.8128212890625,0.19375935196876526,0.2703326940536499,-0.7217078804969788
1788860605675863300,10.82286328125,0.21565160155296326,0.33760493993759155,-0.7985107898712158
1788860605685904400,10.832904296875,0.2008923590183258,0.40112051367759705,-0.8523889183998108
1788860605695945200,10.8429453125,0.1917947381734848,0.4380556344985962,-0.9231352210044861
1788860605705987300,10.8529873046875,0.2015237957239151,0.3670632243156433,-1.0012431144714355
1788860605716028200,10.863028076171876,0.21382972598075867,0.17847414314746857,-1.0453077554702759
1788860605726070300,10.8730703125,0.19748058915138245,-0.04193706437945366,-1.0079960823059082
1788860605736111000,10.883111083984375,0.12488894164562225,-0.1287665069103241,-0.9550955891609192
1788860605746152200,10.893152099609376,0.024643294513225555,-0.065796859562397,-0.9727672338485718
1788860605756194000,10.903194091796875,-0.04862958565354347,-0.0010969560826197267,-1.0276530981063843
1788860605766235100,10.913235107421874,-0.10245633125305176,-0.010776481591165066,-1.0589503049850464
1788860605776277200,10.92327734375,-0.15934251248836517,-0.07331016659736633,-1.0300694704055786
1788860605786318300,10.933318359375,-0.21315914392471313,-0.08290846645832062,-0.9633681774139404
1788860605796359400,10.943359375,-0.26289767026901245,-0.0036171053070575,-0.9426916241645813
1788860605806401300,10.9534013671875,-0.311158150434494,0.10446089506149292,-1.0008412599563599
1788860605816442400,10.9634423828125,-0.3332352340221405,0.16358652710914612,-1.0828649997711182
1788860605826484200,10.973484130859376,-0.3328858017921448,0.10764577239751816,-1.1393567323684692
1788860605836525300,10.983525390625,-0.3336557447910309,-0.03638250753283501,-1.161769986152649
1788860605846567200,10.993567138671875,-0.35924285650253296,-0.19092229008674622,-1.1726081371307373
1788860605856608300,11.003608154296876,-0.38623613119125366,-0.31232860684394836,-1.1936538219451904
1788860605866649000,11.013649169921875,-0.4085366427898407,-0.41772693395614624,-1.2303959131240845
1788860605876691200,11.023691162109374,-0.40882718563079834,-0.5199989676475525,-1.2525194883346558
1788860605886732000,11.03373193359375,-0.40353813767433167,-0.5106816291809082,-1.2559473514556885
1788860605896774400,11.0437744140625,-0.42099595069885254,-0.38637885451316833,-1.2701480388641357
1788860605906815200,11.053815185546876,-0.43946579098701477,-0.2604515552520752,-1.3293893337249756
1788860605916856300,11.063856201171875,-0.44027164578437805,-0.21688304841518402,-1.4317162036895752
1788860605926898200,11.073898193359375,-0.43049731850624084,-0.20438270270824432,-1.534855842590332
1788860605936939300,11.083939208984376,-0.4210793077945709,-0.26253122091293335,-1.529330849647522
1788860605946981000,11.093981201171875,-0.43406942486763,-0.3642551898956299,-1.4839881658554077
1788860605957022200,11.104022216796874,-0.424843966960907,-0.419348806142807,-1.4715698957443237
1788860605967063300,11.114063232421875,-0.39559686183929443,-0.3819473683834076,-1.4732239246368408
1788860605977105200,11.124105224609375,-0.3718681037425995,-0.2621626555919647,-1.4310927391052246
1788860605987146200,11.134146240234376,-0.36746883392333984,-0.17296378314495087,-1.3766553401947021
1788860605997188000,11.14418798828125,-0.39308205246925354,-0.22013768553733826,-1.4155359268188477
1788860606007229200,11.154229248046875,-0.3981207311153412,-0.31768500804901123,-1.5111255645751953
1788860606017270000,11.16427001953125,-0.37871161103248596,-0.26809030771255493,-1.5587165355682373
1788860606027312400,11.1743125,-0.36073794960975647,-0.20826852321624756,-1.5663762092590332
1788860606037353200,11.184353271484374,-0.32269442081451416,-0.1944989114999771,-1.5663342475891113
1788860606047395300,11.194395263671876,-0.2638857066631317,-0.13787265121936798,-1.553972840309143
1788860606057436200,11.204436279296875,-0.22120295464992523,-0.11540622264146805,-1.5810776948928833
1788860606067477200,11.214477294921876,-0.2201443463563919,-0.14799638092517853,-1.6034173965454102
1788860606077519000,11.22451904296875,-0.22639532387256622,-0.18654191493988037,-1.65117347240448
1788860606087560200,11.234560302734375,-0.20629511773586273,-0.27852484583854675,-1.7158091068267822
1788860606097602000,11.24460205078125,-0.18374426662921906,-0.4513658583164215,-1.7863880395889282
1788860606107643100,11.25464306640625,-0.1551792025566101,-0.5399519205093384,-1.83310067653656
1788860606117685000,11.26468505859375,-0.12910018861293793,-0.5542266964912415,-1.8312510251998901
1788860606127726000,11.27472607421875,-0.08246531337499619,-0.4353589117527008,-1.846714973449707
1788860606137767200,11.28476708984375,-0.01576138660311699,-0.4039469361305237,-1.8599886894226074
1788860606147809300,11.294809326171874,0.06786613166332245,-0.42566582560539246,-1.8252352476119995
1788860606157850400,11.304850341796875,0.11958897858858109,-0.37912654876708984,-1.7897406816482544
1788860606167892200,11.314892333984375,0.1670670211315155,-0.26507455110549927,-1.7713102102279663
1788860606177933300,11.324933349609376,0.2219579666852951,-0.20779234170913696,-1.718507170677185
1788860606187974100,11.33497412109375,0.25433507561683655,-0.1510624885559082,-1.6530206203460693
1788860606198016300,11.345016357421875,0.2602057456970215,-0.08473832160234451,-1.6089357137680054
1788860606208057000,11.35505712890625,0.23174667358398438,-0.041301898658275604,-1.5858972072601318
1788860606218099200,11.36509912109375,0.2395004779100418,-0.10245633125305176,-1.5665326118469238
1788860606228140000,11.37514013671875,0.28539684414863586,-0.18037350475788116,-1.5235220193862915
1788860606238181000,11.38518115234375,0.31711217761039734,-0.18808068335056305,-1.4359935522079468
1788860606248223200,11.39522314453125,0.3290223777294159,-0.14436836540699005,-1.310308814048767
1788860606258264300,11.405264404296876,0.34428146481513977,-0.03566904738545418,-1.1816341876983643
1788860606268306200,11.41530615234375,0.3745056986808777,0.06274354457855225,-1.1045894622802734
1788860606278347300,11.42534716796875,0.4027245342731476,-0.00986461527645588,-1.0043113231658936
1788860606288388400,11.435388427734376,0.3703159987926483,-0.12899047136306763,-0.8552387356758118
1788860606298430200,11.44543017578125,0.3211527168750763,-0.13054601848125458,-0.6686760783195496
1788860606308471300,11.45547119140625,0.28824084997177124,-0.05700629577040672,-0.4678148627281189
1788860606318513200,11.46551318359375,0.26929616928100586,0.04643594101071358,-0.3472197353839874
1788860606328554200,11.47555419921875,0.24427391588687897,0.09770871698856354,-0.2785235047340393
1788860606338595000,11.485594970703126,0.20341756939888,0.06045668572187424,-0.14690183103084564
1788860606348637200,11.49563720703125,0.15469983220100403,0.09888583421707153,-0.03695109486579895
1788860606358678000,11.505677978515624,0.09147638827562332,0.10785669088363647,0.07003474235534668
1788860606368720400,11.515720458984376,0.022352177649736404,0.11665817350149155,0.24604465067386627
1788860606378760700,11.5257607421875,-0.044986117631196976,0.1653815060853958,0.4403238594532013
1788860606388801500,11.535801513671874,-0.1212364137172699,0.20114749670028687,0.6054904460906982
1788860606398843600,11.54584375,-0.1595851331949234,0.2759205400943756,0.7657749056816101
1788860606408884700,11.555884765625,-0.1831815391778946,0.3542957603931427,0.9022387862205505
1788860606418926600,11.565926513671876,-0.2106722891330719,0.40201854705810547,1.0489528179168701
1788860606428967700,11.5759677734375,-0.23342765867710114,0.4337250888347626,1.2266496419906616
1788860606439008800,11.5860087890625,-0.23465964198112488,0.49799033999443054,1.3686871528625488
1788860606449050600,11.596050537109376,-0.24896854162216187,0.5783302187919617,1.4738966226577759
1788860606459091700,11.606091796875,-0.30457720160484314,0.636360228061676,1.5864343643188477
1788860606469133600,11.616133544921874,-0.3851298391819,0.6551951766014099,1.7051926851272583
1788860606479174700,11.626174560546875,-0.46992382407188416,0.645264744758606,1.7827037572860718
1788860606489215500,11.636215576171875,-0.5207526683807373,0.6419661641120911,1.8166452646255493
1788860606499257900,11.6462578125,-0.5105562210083008,0.5912801027297974,1.890272617340088
1788860606509298700,11.656298583984375,-0.47123250365257263,0.5396445989608765,2.0073015689849854
1788860606519340800,11.6663408203125,-0.43707454204559326,0.5233404636383057,2.103374719619751
1788860606529381600,11.676381591796876,-0.40444496273994446,0.5317096710205078,2.1701624393463135
1788860606539422700,11.686422607421875,-0.3536294400691986,0.5677571892738342,2.219266653060913
1788860606549464600,11.696464599609374,-0.29394426941871643,0.630531907081604,2.2659425735473633
1788860606559505700,11.706505615234375,-0.2529102861881256,0.6857943534851074,2.2886393070220947
1788860606569547800,11.7165478515625,-0.22303414344787598,0.708318293094635,2.2924835681915283
1788860606579588600,11.726588623046876,-0.17767731845378876,0.6413813233375549,2.2696099281311035
1788860606589629700,11.736629638671875,-0.10548967123031616,0.5148340463638306,2.2336771488189697
1788860606599671600,11.746671630859375,-0.013906761072576046,0.4091123938560486,2.1777427196502686
1788860606609712600,11.756712646484376,0.08448772132396698,0.33353641629219055,2.1324007511138916
1788860606619754800,11.766754638671875,0.16445951163768768,0.3128085136413574,2.1162872314453125
1788860606629795800,11.7767958984375,0.21493041515350342,0.3186038136482239,2.132852554321289
1788860606639836700,11.786836669921875,0.2507653832435608,0.30612558126449585,2.182990312576294
1788860606649878800,11.796878662109375,0.2832255959510803,0.28751006722450256,2.2285094261169434
1788860606659919600,11.806919677734374,0.3270343244075775,0.2722301781177521,2.2604751586914062
1788860606669961700,11.816961669921875,0.3798959255218506,0.235041543841362,2.2680411338806152
1788860606680002800,11.8270029296875,0.4386817514896393,0.18017429113388062,2.230036973953247
1788860606690043600,11.837043701171876,0.48933854699134827,0.13294047117233276,2.175096273422241
1788860606700085800,11.847085693359375,0.5378965139389038,0.1123419851064682,2.1315817832946777
1788860606710126600,11.857126708984374,0.588921070098877,0.09965095669031143,2.0807793140411377
1788860606720167700,11.867167724609375,0.6254649758338928,0.04643700644373894,2.036552667617798
1788860606730209500,11.87720947265625,0.6295414566993713,-0.0129924975335598,1.9904446601867676
1788860606740250600,11.887250732421874,0.611190915107727,-0.01745435781776905,1.9422388076782227
1788860606750292700,11.897292724609375,0.5756641030311584,0.02568778581917286,1.9098860025405884
1788860606760333800,11.907333740234375,0.5282412171363831,0.0470559261739254,1.863528847694397
1788860606770374700,11.917374755859376,0.470609575510025,0.024165790528059006,1.801425814628601
1788860606780416800,11.927416748046875,0.4108160436153412,-0.007660849019885063,1.7397013902664185
1788860606790457600,11.93745751953125,0.35112738609313965,0.005621400196105242,1.7038246393203735
1788860606800499700,11.947499755859376,0.31219756603240967,0.0698363408446312,1.691670298576355
1788860606810540800,11.957540771484375,0.2903708517551422,0.1100735068321228,1.6529109477996826
1788860606820581600,11.96758154296875,0.28407272696495056,0.04733875393867493,1.560383677482605
1788860606830623700,11.977623779296875,0.27299317717552185,-0.1043383926153183,1.4363255500793457
1788860606840664600,11.98766455078125,0.2444973587989807,-0.20195762813091278,1.3107540607452393
1788860606850706700,11.997706787109376,0.19571863114833832,-0.1512041687965393,1.223711371421814
1788860606860747500,12.00774755859375,0.14780011773109436,-0.04409395903348923,1.1598104238510132
1788860606870788600,12.01778857421875,0.12256559729576111,0.02377856709063053,1.1090129613876343
1788860606880830700,12.027830810546876,0.10183688253164291,0.05048687756061554,1.0313711166381836
1788860606890871800,12.037871826171875,0.06981450319290161,0.032290030270814896,0.9008728265762329
1788860606900912600,12.04791259765625,0.04321964085102081,-0.013936854898929596,0.704054594039917
1788860606910954800,12.057954833984375,0.02268613688647747,-0.020920461043715477,0.45875346660614014
1788860606920995800,12.067995849609375,-0.0014421016676351428,0.05507203936576843,0.21742446720600128
1788860606931037700,12.07803759765625,-0.011211375705897808,0.18360525369644165,0.012888368219137192
1788860606941078800,12.088078857421875,0.005574262235313654,0.305523157119751,-0.14702247083187103
1788860606951119600,12.09811962890625,0.042882487177848816,0.4322475492954254,-0.2467983365058899
1788860606961161700,12.10816162109375,0.09575928002595901,0.5130742192268372,-0.2807762622833252
1788860606971202600,12.11820263671875,0.1543419063091278,0.450991690158844,-0.2852945923805237
1788860606981245000,12.128244873046874,0.17685680091381073,0.2783360183238983,-0.30549174547195435
1788860606991285800,12.13828564453125,0.16860046982765198,0.10478207468986511,-0.3398001790046692
1788860607001326800,12.148326904296875,0.13419748842716217,-0.05813654139637947,-0.39914605021476746
1788860607011368700,12.15836865234375,0.08426268398761749,-0.14478807151317596,-0.4832010269165039
1788860607021409800,12.168409912109375,0.0497201532125473,-0.177885040640831,-0.5851060748100281
1788860607031450600,12.17845068359375,0.02588486112654209,-0.1804741770029068,-0.6987450122833252
1788860607041492700,12.18849267578125,0.024644093587994576,-0.12584660947322845,-0.793128252029419
1788860607051533800,12.198533935546875,0.044261205941438675,-0.027289943769574165,-0.8707998991012573
1788860607061575700,12.20857568359375,0.05974828451871872,0.11758548766374588,-0.9245195388793945
1788860607071616800,12.21861669921875,0.053578272461891174,0.3227764666080475,-0.9394471049308777
1788860607081657600,12.22865771484375,0.05184801667928696,0.5657448768615723,-0.9366087317466736
1788860607091699700,12.23869970703125,0.0655803382396698,0.7822021245956421,-0.9271553158760071
1788860607101740500,12.248740478515625,0.08512554317712784,0.9106351733207703,-0.8871604800224304
1788860607111783000,12.258782958984375,0.08122748136520386,0.9915193915367126,-0.8689132928848267
1788860607121823700,12.26882373046875,0.08774077147245407,0.9352843165397644,-0.9219262003898621
1788860607131864800,12.27886474609375,0.10791368037462234,0.6372576951980591,-1.034306526184082
1788860607141906700,12.28890673828125,0.1485772281885147,0.24251969158649445,-1.1061937808990479
1788860607151947800,12.29894775390625,0.17241890728473663,-0.10719969123601913,-1.1181156635284424
1788860607161989600,12.30898974609375,0.15881787240505219,-0.3055833578109741,-1.1236217021942139
1788860607172030700,12.31903076171875,0.13350826501846313,-0.27330076694488525,-1.1268864870071411
1788860607182071800,12.32907177734375,0.0867314338684082,-0.09222127497196198,-1.1075804233551025
1788860607192113700,12.33911376953125,0.0193148422986269,0.1270008236169815,-1.085658073425293
1788860607202154800,12.34915478515625,-0.02754933573305607,0.21658290922641754,-1.1054598093032837
1788860607212195600,12.359195556640625,-0.05108901485800743,0.19321952760219574,-1.150860071182251
1788860607222237700,12.36923779296875,-0.08481315523386002,0.12946638464927673,-1.2236239910125732
1788860607232278500,12.379278564453125,-0.1274048238992691,0.02118890918791294,-1.3335368633270264
1788860607242321000,12.38932080078125,-0.13484036922454834,-0.098814457654953,-1.4534281492233276
1788860607252361700,12.39936181640625,-0.11626801639795303,-0.2347395420074463,-1.5458585023880005
1788860607262402800,12.40940283203125,-0.07949908822774887,-0.3090856671333313,-1.5986865758895874
1788860607272444700,12.419444580078125,-0.03876790031790733,-0.34829485416412354,-1.5841169357299805
1788860607282485800,12.42948583984375,0.011258247308433056,-0.3720819652080536,-1.5327743291854858
1788860607292526800,12.43952685546875,0.07661594450473785,-0.3861847221851349,-1.515797734260559
1788860607302568700,12.449568603515624,0.12009551376104355,-0.3532148003578186,-1.554799199104309
1788860607312609800,12.45960986328125,0.14342240989208221,-0.31522640585899353,-1.5811954736709595
1788860607322651600,12.469651611328125,0.1467345803976059,-0.33931389451026917,-1.610677719116211
1788860607332692700,12.479692626953126,0.16689497232437134,-0.42603734135627747,-1.6261141300201416
