time,seconds_elapsed,z,y,x
1789635111576074200,0.06107421875,0.40154823660850525,-0.7381151914596558,1.600897192955017
1789635111586114300,0.0711142578125,0.5587160587310791,-0.726810872554779,1.5608727931976318
1789635111596154000,0.081154052734375,0.7869389653205872,-0.8753423690795898,1.5216513872146606
1789635111606193400,0.091193359375,0.9909578561782837,-1.1401644945144653,1.514907717704773
1789635111616233500,0.1012333984375,1.0928007364273071,-1.478196620941162,1.5663846731185913
1789635111626273300,0.111273193359375,1.0787919759750366,-1.7361456155776978,1.6643452644348145
1789635111636312300,0.121312255859375,0.9478254318237305,-1.8904945850372314,1.7155638933181763
1789635111646352400,0.131352294921875,0.8214132189750671,-1.8831580877304077,1.7090500593185425
1789635111656392400,0.141392333984375,0.7178900241851807,-1.94760262966156,1.587784767150879
1789635111666431200,0.15143115234375,0.6396692395210266,-2.114635705947876,1.4067375659942627
1789635111676471300,0.16147119140625,0.5514116883277893,-2.3617303371429443,1.204703688621521
1789635111686511400,0.171511474609375,0.4386536777019501,-2.638843536376953,1.0373412370681763
1789635111696550400,0.18155029296875,0.34333938360214233,-2.809605598449707,0.9319246411323547
1789635111706590500,0.191590576171875,0.319230854511261,-2.912828207015991,0.8652092218399048
1789635111716629200,0.201629150390625,0.3369171619415283,-3.1162009239196777,0.7991418242454529
1789635111726669300,0.21166943359375,0.3540239930152893,-3.4191291332244873,0.7399810552597046
1789635111736709400,0.22170947265625,0.3625876307487488,-3.7472798824310303,0.7188207507133484
1789635111746749400,0.23174951171875,0.33020544052124023,-3.9070334434509277,0.7534669041633606
1789635111756788200,0.241788330078125,0.1804877668619156,-3.800447702407837,0.8174354434013367
1789635111766828300,0.251828369140625,0.13576237857341766,-3.289288282394409,0.8057034015655518
1789635111776867300,0.261867431640625,0.9367762804031372,-3.263104200363159,0.755012035369873
1789635111786907100,0.2719072265625,2.087740421295166,-3.355180025100708,1.0620192289352417
1789635111796947200,0.281947265625,3.11568546295166,-3.559112787246704,1.6206353902816772
1789635111806987300,0.2919873046875,3.811915636062622,-4.100671291351318,2.222043037414551
1789635111817026300,0.3020263671875,4.228386402130127,-4.768735408782959,2.779456615447998
1789635111827066400,0.31206640625,4.479898452758789,-5.373015403747559,3.303663492202759
1789635111837106200,0.322106201171875,4.609975814819336,-5.736300945281982,3.8272297382354736
1789635111847145200,0.332145263671875,4.611626625061035,-5.678777694702148,4.308036804199219
1789635111857185300,0.342185302734375,4.624603271484375,-5.431309223175049,4.766379356384277
1789635111867224300,0.352224365234375,4.777528285980225,-5.128421783447266,5.2073516845703125
1789635111877264400,0.362264404296875,5.097579479217529,-4.785589694976807,5.429502487182617
1789635111887304200,0.37230419921875,5.243756294250488,-4.45987606048584,5.353220462799072
1789635111897344000,0.382343994140625,5.143824577331543,-4.08336067199707,5.183232307434082
1789635111907382800,0.3923828125,4.973349571228027,-3.662912368774414,5.086855888366699
1789635111917422800,0.4024228515625,4.843618869781494,-3.124330520629883,5.040257453918457
1789635111927462000,0.4124619140625,4.625496864318848,-2.4965696334838867,4.959033012390137
1789635111937501700,0.422501708984375,4.3707427978515625,-2.007307767868042,4.822079658508301
1789635111947541800,0.432541748046875,4.146083831787109,-1.5838555097579956,4.681127071380615
1789635111957581800,0.442581787109375,3.9716238975524902,-1.1944652795791626,4.582176685333252
1789635111967620900,0.452620849609375,3.756864070892334,-0.9471931457519531,4.511264801025391
1789635111977660700,0.46266064453125,3.4411532878875732,-0.7180699110031128,4.485960960388184
1789635111987699700,0.47269970703125,3.1501543521881104,-0.6027715802192688,4.307578086853027
1789635111997739800,0.48273974609375,2.753291606903076,-0.6218926310539246,3.70269513130188
1789635112007779800,0.49277978515625,2.220008611679077,-1.092996597290039,1.4712704420089722
1789635112017818600,0.502818603515625,1.4245884418487549,-1.7110581398010254,-0.8325662612915039
1789635112027858700,0.512858642578125,0.8185831308364868,-0.6773654222488403,-2.393357276916504
1789635112037898800,0.522898681640625,1.0759303569793701,0.23054862022399902,-2.439828395843506
1789635112047937800,0.532937744140625,1.4256244897842407,0.3926733434200287,-1.9025092124938965
1789635112057977600,0.5429775390625,1.6984258890151978,0.001287677325308323,-1.2039612531661987
1789635112068017700,0.553017578125,2.1567327976226807,-0.8247250318527222,-0.3951281011104584
1789635112078056700,0.563056640625,2.8890202045440674,-1.5393470525741577,0.00977511890232563
1789635112088096800,0.5730966796875,3.590843915939331,-1.5513124465942383,0.07406862080097198
1789635112098136600,0.583136474609375,3.9800453186035156,-1.3647489547729492,-0.04142455384135246
1789635112108176000,0.59317578125,4.22055721282959,-1.2505488395690918,-0.2260628491640091
1789635112118215700,0.603215576171875,4.502982139587402,-1.8882160186767578,-0.5738409161567688
1789635112128255700,0.613255859375,4.212186813354492,-2.05190372467041,-0.3760308623313904
1789635112138294800,0.623294677734375,4.075453758239746,-1.907649040222168,-0.07238510996103287
1789635112148334800,0.6333349609375,4.156341075897217,-1.300934076309204,-0.17165549099445343
1789635112158375000,0.643375,4.233547210693359,-0.1521650105714798,-0.6474614143371582
1789635112168414000,0.6534140625,4.026176452636719,0.05039927735924721,-1.099357008934021
1789635112178453800,0.663453857421875,3.5586557388305664,-0.43534591794013977,-0.9339866638183594
1789635112188493800,0.673493896484375,2.832545042037964,-1.4834591150283813,-0.36944758892059326
1789635112198532900,0.683532958984375,2.0967509746551514,-2.2839672565460205,0.4925706684589386
1789635112208573000,0.693572998046875,1.5676838159561157,-2.5143072605133057,1.2957510948181152
1789635112218612700,0.70361279296875,1.4519610404968262,-2.0181076526641846,1.4620838165283203
1789635112228651800,0.71365185546875,1.6627222299575806,-1.6140488386154175,1.339716911315918
1789635112238691800,0.72369189453125,1.576849102973938,-1.241348385810852,1.1812800168991089
1789635112248732000,0.73373193359375,1.0799072980880737,-1.192501187324524,0.9505636692047119
1789635112258770700,0.743770751953125,0.7246830463409424,-1.392926812171936,0.7979993224143982
1789635112268810800,0.753810791015625,0.516921877861023,-1.2289959192276,0.4766172766685486
1789635112278850800,0.763850830078125,0.5832849740982056,-0.8185570240020752,-0.03264198824763298
1789635112288889600,0.7738896484375,0.7520686388015747,-0.1446171998977661,-0.5516822338104248
1789635112298929700,0.7839296875,1.3383978605270386,0.42612403631210327,-0.8740384578704834
1789635112308969700,0.7939697265625,1.7326551675796509,0.08056103438138962,-0.8183158040046692
1789635112319008800,0.8040087890625,1.779784083366394,-0.6477290987968445,-0.4237540662288666
1789635112329048800,0.814048828125,1.9521580934524536,-1.0728107690811157,0.08717548102140427
1789635112339088600,0.824088623046875,2.4100260734558105,-1.1964049339294434,0.7348549365997314
1789635112349127700,0.834127685546875,3.370288133621216,-1.4519778490066528,1.2804416418075562
1789635112359167700,0.844167724609375,4.1073737144470215,-0.7760254144668579,1.3915948867797852
1789635112369207800,0.854207763671875,3.9554648399353027,-0.10115750133991241,0.6878788471221924
1789635112379246600,0.86424658203125,3.5517396926879883,0.44645029306411743,-0.04338580369949341
1789635112389286700,0.87428662109375,2.930210828781128,0.8495223522186279,-0.5936622619628906
1789635112399326700,0.88432666015625,2.4099535942077637,1.5477617979049683,-1.0074703693389893
1789635112409365800,0.89436572265625,2.048013210296631,2.5337958335876465,-1.4369183778762817
1789635112419405800,0.90440576171875,1.4214363098144531,2.9494118690490723,-1.6682332754135132
1789635112429445600,0.914445556640625,0.5667962431907654,1.6209622621536255,-0.9121027588844299
1789635112439485000,0.92448486328125,-0.05784725025296211,-0.16899770498275757,0.5280992388725281
1789635112449525000,0.93452490234375,-0.12063660472631454,-0.23649606108665466,0.42330068349838257
1789635112459564800,0.944564697265625,-0.13269971311092377,-0.09104758501052856,-0.0526389442384243
1789635112469603800,0.954603759765625,-0.12380874902009964,-0.3989044725894928,-0.15179774165153503
1789635112479644000,0.964643798828125,0.038671307265758514,-0.6148834824562073,-0.041427385061979294
1789635112489684000,0.97468408203125,0.2328634113073349,-0.8615400791168213,0.13148953020572662
1789635112499722800,0.98472265625,0.29396456480026245,-1.1892125606536865,0.23351550102233887
1789635112509762800,0.9947626953125,0.1440136730670929,-1.4690357446670532,0.27184054255485535
1789635112519803000,1.004802978515625,-0.02228609099984169,-1.1671571731567383,0.19479428231716156
1789635112529841700,1.014841552734375,-0.117989182472229,-0.6058911681175232,0.011167993769049644
1789635112539881700,1.0248818359375,-0.07788560539484024,-0.18746070563793182,-0.2322665899991989
1789635112549921800,1.034921875,-0.17919863760471344,-0.23512916266918182,-0.2831747829914093
1789635112559960800,1.0449609375,-0.3343687057495117,-0.7028296589851379,-0.0009002366568893194
1789635112570000600,1.055000732421875,-0.49889424443244934,-0.7400801181793213,0.09697146713733673
1789635112580040700,1.065040771484375,-0.5822084546089172,-0.27118250727653503,-0.0473334901034832
1789635112590079700,1.075079833984375,-0.27892497181892395,-0.22269326448440552,0.11314859986305237
1789635112600119800,1.085119873046875,0.1680334210395813,-0.5448978543281555,0.22948211431503296
1789635112610159900,1.095159912109375,0.4948917031288147,-0.9407740831375122,0.2738352119922638
1789635112620198700,1.10519873046875,0.7265649437904358,-0.8314175605773926,0.20194733142852783
1789635112630238700,1.11523876953125,0.877399206161499,-0.44032466411590576,0.1476699858903885
1789635112640278800,1.12527880859375,0.9751406908035278,-0.5600568652153015,0.2798828184604645
1789635112650317600,1.135317626953125,0.8479971289634705,-0.8650751113891602,0.14755620062351227
1789635112660357600,1.145357666015625,0.289308100938797,-0.5366928577423096,0.26016634702682495
1789635112670397700,1.155397705078125,0.17187784612178802,-0.46413105726242065,0.40214693546295166
1789635112680436700,1.165436767578125,0.32291916012763977,-0.2815684676170349,0.6592676043510437
1789635112690476500,1.1754765625,0.49913281202316284,-0.3869505524635315,0.6736185550689697
1789635112700516600,1.1855166015625,0.47883662581443787,-0.45184457302093506,0.2893443703651428
1789635112710556000,1.195555908203125,0.2926824688911438,-0.6940268278121948,-0.30542951822280884
1789635112720595700,1.205595703125,-0.32935255765914917,-0.1731746345758438,-0.5207750201225281
1789635112730635800,1.2156357421875,-0.36790579557418823,0.05834087356925011,-1.1731411218643188
1789635112740674800,1.2256748046875,-0.4369283616542816,0.3563462197780609,-1.7392549514770508
1789635112750715000,1.23571484375,-0.6997493505477905,1.4589319229125977,-1.7735869884490967
1789635112760754000,1.24575390625,-0.4846339523792267,1.4251385927200317,-1.3846019506454468
1789635112770793700,1.255793701171875,-0.2515426278114319,0.34647923707962036,-0.8108936548233032
1789635112780833800,1.265833740234375,0.34848552942276,-0.5450825691223145,-1.0737385749816895
1789635112790872800,1.275872802734375,1.1166660785675049,-2.280061721801758,-1.9254848957061768
1789635112800913000,1.285912841796875,1.4322540760040283,-2.721562623977661,-1.5389015674591064
1789635112810952700,1.29595263671875,1.1719080209732056,-0.9507726430892944,-1.1394037008285522
1789635112820991700,1.30599169921875,1.4281151294708252,-1.1713184118270874,-1.6109644174575806
1789635112831031800,1.31603173828125,1.1939977407455444,-1.882574439048767,-0.9335683584213257
1789635112841071900,1.32607177734375,0.7862008213996887,-1.697509527206421,-0.449341744184494
1789635112851110700,1.336110595703125,0.6247403025627136,-1.3486226797103882,-0.42208561301231384
1789635112861150700,1.346150634765625,0.5546623468399048,-0.9272449612617493,-0.23866459727287292
1789635112871190800,1.356190673828125,0.6389220952987671,-0.5818995237350464,-0.005486466456204653
1789635112881229800,1.366229736328125,0.7667688727378845,-0.5653728246688843,0.07788742333650589
1789635112891270000,1.376269775390625,0.9522774815559387,-0.603649914264679,0.03517778217792511
1789635112901310000,1.38631005859375,1.1309361457824707,-0.37711888551712036,0.13780783116817474
1789635112911348700,1.3963486328125,0.9588485360145569,-0.4874078333377838,0.08716461807489395
1789635112921388800,1.406388916015625,0.6244533061981201,-0.5535094141960144,0.06662143766880035
1789635112931428900,1.416428955078125,0.2224252074956894,-0.4597720205783844,0.00844575185328722
1789635112941468000,1.426468017578125,-0.04217587783932686,-0.4757685661315918,0.05383848398923874
1789635112951507700,1.4365078125,-0.29453808069229126,-0.591192901134491,-0.039813704788684845
1789635112961547800,1.4465478515625,-0.20646889507770538,-0.46985527873039246,0.04258934035897255
1789635112971586800,1.4565869140625,0.07122104614973068,-0.6126585006713867,0.2663753032684326
1789635112981627000,1.466626953125,0.14890871942043304,-1.0317397117614746,0.496883749961853
1789635112991666700,1.476666748046875,0.10913068801164627,-1.2537821531295776,0.48018357157707214
1789635113001706000,1.4867060546875,-0.07888119667768478,-0.8618311285972595,0.19759413599967957
1789635113011746000,1.49674609375,-0.42280876636505127,-0.2195126712322235,0.023981329053640366
1789635113021785900,1.506785888671875,-0.18990708887577057,0.13386444747447968,-0.16220390796661377
1789635113031825000,1.516824951171875,0.1780938357114792,-0.024187766015529633,-0.15431801974773407
1789635113041865000,1.526864990234375,0.06671805679798126,0.15285883843898773,-0.03589671477675438
1789635113051905000,1.536905029296875,-0.06985203921794891,0.662722110748291,0.06926379352807999
1789635113061944000,1.546944091796875,0.08808934688568115,0.7625006437301636,0.11640535295009613
1789635113071983900,1.55698388671875,0.2916850745677948,0.4949461817741394,0.006299086846411228
1789635113082024000,1.56702392578125,0.3052125573158264,0.10408088564872742,-0.4166311025619507
1789635113092063000,1.57706298828125,0.05115283280611038,-0.46325206756591797,-0.42213907837867737
1789635113102103000,1.58710302734375,0.01915844716131687,-0.24206557869911194,-0.0908500924706459
1789635113112142800,1.597142822265625,0.07343500852584839,0.1448531150817871,0.04536207392811775
1789635113122182000,1.607181884765625,0.13774459064006805,0.25743985176086426,0.07319967448711395
1789635113132222000,1.617221923828125,0.28366637229919434,0.14732827246189117,0.07634299993515015
1789635113142262000,1.627261962890625,0.4892640709877014,-0.0019279946573078632,0.05730324983596802
1789635113152300800,1.63730078125,0.7183864712715149,-0.17270906269550323,0.1055312305688858
1789635113162340900,1.6473408203125,0.6662755012512207,-0.20594708621501923,0.15026551485061646
1789635113172381000,1.657380859375,0.3780652582645416,-0.22577379643917084,0.13514673709869385
1789635113182419700,1.667419677734375,-0.09959423542022705,-0.5050150156021118,0.13441729545593262
1789635113192459800,1.677459716796875,-1.1213828325271606,-0.7001416683197021,0.20261792838573456
1789635113202499800,1.687499755859375,-1.748759150505066,-0.7703834176063538,0.1491149365901947
1789635113212539000,1.697538818359375,-1.5794126987457275,-1.101444959640503,0.002913251519203186
1789635113222579000,1.707578857421875,-1.181355357170105,-1.6002321243286133,-0.012697666883468628
1789635113232618800,1.71761865234375,-0.5423116683959961,-2.0760533809661865,-0.004208840429782867
1789635113242657800,1.72765771484375,-0.20978793501853943,-1.988883137702942,0.19663675129413605
1789635113252697900,1.73769775390625,-0.47542068362236023,-0.7993125319480896,0.2748420834541321
1789635113262738000,1.747738037109375,-0.4614178240299225,0.047302525490522385,0.07149729132652283
1789635113272777000,1.75777685546875,-0.06820447742938995,0.586530864238739,-0.14901404082775116
1789635113282816800,1.767816650390625,0.054297495633363724,1.818457007408142,-0.7610020637512207
1789635113292856800,1.77785693359375,0.17595230042934418,1.990840196609497,-1.216837763786316
1789635113302895900,1.787895751953125,0.5059801936149597,1.546298861503601,-1.02848219871521
1789635113312936000,1.79793603515625,0.4594539999961853,0.9788824319839478,-0.37685146927833557
1789635113322976000,1.80797607421875,0.4507143497467041,0.2335585504770279,0.1468886435031891
1789635113333015000,1.81801513671875,0.3583521842956543,-0.23641268908977509,0.34286773204803467
1789635113343054800,1.828054931640625,0.09208596497774124,-0.40608784556388855,0.26030752062797546
1789635113353095000,1.838094970703125,-0.36692821979522705,-0.6075799465179443,-0.04627131670713425
1789635113363134000,1.848134033203125,-0.6040433049201965,-0.5845202803611755,-0.2975870966911316
1789635113373174000,1.858174072265625,-0.6112818121910095,-0.5882819890975952,-0.5252690315246582
1789635113383212800,1.868212890625,-0.6475197672843933,-0.7056701183319092,-0.627621054649353
1789635113393252900,1.8782529296875,-0.8245954513549805,-0.875444769859314,-0.598174512386322
1789635113403293000,1.88829296875,-1.072607159614563,-1.0263375043869019,-0.45291295647621155
1789635113413333000,1.8983330078125,-1.3868093490600586,-1.0119961500167847,-0.27464041113853455
1789635113423371800,1.908371826171875,-1.8297815322875977,-0.9250425100326538,-0.20774731040000916
1789635113433411800,1.918411865234375,-2.4164059162139893,-0.8333389759063721,-0.2290661782026291
1789635113443451000,1.928450927734375,-3.0123789310455322,-0.927948534488678,-0.23986627161502838
1789635113453491000,1.938490966796875,-3.518542528152466,-1.0995420217514038,-0.15013612806797028
1789635113463530800,1.94853076171875,-3.854584217071533,-1.04334557056427,0.16573907434940338
1789635113473569800,1.95856982421875,-3.9358255863189697,-0.9604700207710266,0.32121920585632324
1789635113483609900,1.96860986328125,-3.901125192642212,-0.8011149764060974,0.568325400352478
1789635113493650000,1.97864990234375,-3.54398775100708,-0.6040695309638977,0.8879427909851074
1789635113503688700,1.988688720703125,-2.971303701400757,-0.47669073939323425,1.0570223331451416
1789635113513728800,1.998728759765625,-2.426114797592163,-0.4439181685447693,0.923439085483551
1789635113523768800,2.008768798828125,-1.6060397624969482,-0.2955719232559204,0.6815258264541626
1789635113533807900,2.018807861328125,-0.727830171585083,-0.2344297468662262,0.3319452106952667
1789635113543847700,2.02884765625,0.045247938483953476,-0.10996540635824203,0.03501959890127182
1789635113553887700,2.0388876953125,0.535576343536377,0.028991682454943657,-0.22149235010147095
1789635113563927000,2.048927001953125,0.8786247372627258,-0.13593369722366333,-0.39029255509376526
1789635113573967000,2.058967041015625,1.3271325826644897,-0.5858979225158691,-0.4947342574596405
1789635113584007000,2.0690068359375,1.58098566532135,-1.2513558864593506,-0.567479133605957
1789635113594046000,2.0790458984375,1.468562126159668,-1.8608908653259277,-0.3720760643482208
1789635113604086000,2.0890859375,1.360805869102478,-2.28472638130188,-0.08003854751586914
1789635113614126000,2.0991259765625,1.375604510307312,-2.335827112197876,-0.02497050166130066
1789635113624164900,2.109164794921875,1.4440281391143799,-2.2884459495544434,-0.02627347968518734
1789635113634205000,2.119204833984375,1.5891568660736084,-2.431903123855591,0.029605764895677567
1789635113644245000,2.129244873046875,1.6398227214813232,-2.4985830783843994,0.0859602838754654
1789635113654284000,2.139283935546875,1.5447421073913574,-2.275310516357422,0.023091040551662445
1789635113664323800,2.14932373046875,1.475386142730713,-2.111872911453247,-0.02588777057826519
1789635113674364000,2.159364013671875,1.3605635166168213,-1.9600507020950317,-0.1135808676481247
1789635113684403000,2.16940283203125,1.2007783651351929,-1.861513614654541,-0.21870057284832
1789635113694443000,2.179443115234375,0.9052071571350098,-1.6430068016052246,-0.2281220257282257
1789635113704482800,2.18948291015625,0.515042781829834,-1.1851946115493774,-0.18567147850990295
1789635113714521900,2.19952197265625,0.27379822731018066,-0.9093159437179565,-0.1678362935781479
1789635113724562000,2.20956201171875,0.17245785892009735,-0.6173299551010132,-0.17475715279579163
1789635113734602000,2.21960205078125,0.14170527458190918,-0.32672980427742004,-0.2126730978488922
1789635113744640800,2.229640869140625,0.17177502810955048,-0.1043320745229721,-0.23983076214790344
1789635113754680800,2.239680908203125,0.2679191529750824,0.12196870148181915,-0.23202982544898987
1789635113764721000,2.249720947265625,0.3244483768939972,0.3115147650241852,-0.25063377618789673
1789635113774760000,2.259760009765625,0.36100026965141296,0.5681074261665344,-0.15878480672836304
1789635113784799700,2.2697998046875,0.3281470239162445,0.8021265268325806,-0.07743371278047562
1789635113794839800,2.27983984375,0.21538344025611877,1.076749324798584,-0.008976089768111706
1789635113804878800,2.28987890625,-0.03683873265981674,1.2819997072219849,0.02122916467487812
1789635113814919000,2.2999189453125,-0.24985380470752716,1.2815349102020264,-0.07884124666452408
1789635113824958700,2.309958740234375,-0.33076655864715576,0.9949216246604919,-0.1696206033229828
1789635113834998000,2.319998046875,-0.32951247692108154,0.6249417662620544,-0.24099011719226837
1789635113845037800,2.330037841796875,-0.2876617908477783,0.011359280906617641,-0.30150631070137024
1789635113855078000,2.340077880859375,-0.31044620275497437,-0.5753729343414307,-0.36041489243507385
1789635113865117000,2.350116943359375,-0.27074432373046875,-1.2902889251708984,-0.40140485763549805
1789635113875157000,2.360156982421875,-0.17474642395973206,-1.8401368856430054,-0.47364842891693115
1789635113885196800,2.37019677734375,-0.3606763184070587,-2.5472450256347656,-0.17262263596057892
1789635113895235800,2.38023583984375,-0.9013174772262573,-4.475521087646484,0.6103057265281677
1789635113905276000,2.39027587890625,-0.5816614627838135,-4.478488922119141,0.4206236004829407
1789635113915316000,2.40031591796875,-0.053557127714157104,-3.6201930046081543,0.0029485956765711308
1789635113925354800,2.410354736328125,-0.08284517377614975,-3.1000335216522217,0.03865457698702812
1789635113935394800,2.420394775390625,-0.27965572476387024,-1.9230934381484985,-0.10133901238441467
1789635113945435000,2.430434814453125,-0.062417007982730865,-0.34729114174842834,-0.6407623291015625
1789635113955473700,2.4404736328125,0.033986229449510574,0.26062145829200745,-0.7912729978561401
1789635113965513700,2.450513671875,0.2632318139076233,0.14573699235916138,-0.4567521810531616
1789635113975553800,2.4605537109375,0.43249139189720154,-0.41325628757476807,-0.2367793321609497
1789635113985592800,2.4705927734375,0.3831564784049988,-0.6275514364242554,-0.2051858752965927
1789635113995632600,2.480632568359375,0.2826562523841858,-0.5387614369392395,-0.29874512553215027
1789635114005672700,2.490672607421875,0.26519832015037537,-0.46268367767333984,-0.3458549380302429
1789635114015711700,2.500711669921875,0.27442243695259094,-0.44996950030326843,-0.338191419839859
1789635114025751800,2.510751708984375,0.2909042239189148,-0.33185917139053345,-0.2935655117034912
1789635114035792000,2.5207919921875,0.28833267092704773,-0.1318209022283554,-0.2931756377220154
1789635114045830700,2.53083056640625,0.2332129180431366,0.02370774745941162,-0.32697793841362
1789635114055870700,2.54087060546875,0.16335047781467438,-0.02919221669435501,-0.27746763825416565
1789635114065910800,2.550910888671875,0.11044558882713318,-0.11221541464328766,-0.179254949092865
1789635114075949600,2.560949462890625,0.07466761767864227,-0.12476582825183868,-0.07706733047962189
1789635114085989600,2.57098974609375,0.045621078461408615,-0.07262998074293137,0.009482271037995815
1789635114096029700,2.58102978515625,0.029569940641522408,-0.0526735857129097,0.04571510851383209
1789635114106068700,2.59106884765625,0.04179531708359718,-0.12785084545612335,0.04058409854769707
1789635114116108500,2.601108642578125,0.06512673944234848,-0.2857794761657715,0.014911756850779057
1789635114126148600,2.611148681640625,0.0964663177728653,-0.45078012347221375,-0.004296565894037485
1789635114136188000,2.62118798828125,0.08840866386890411,-0.5413388013839722,0.0008619770524092019
1789635114146227700,2.631227783203125,0.07391010969877243,-0.5489192605018616,-0.020202819257974625
1789635114156267800,2.641267822265625,0.01084539107978344,-0.5174744725227356,-0.0813860222697258
1789635114166306800,2.651306884765625,-0.05288981273770332,-0.42571642994880676,-0.14063824713230133
1789635114176347000,2.661346923828125,-0.10481718927621841,-0.311006098985672,-0.154952734708786
1789635114186387000,2.671386962890625,-0.11478763073682785,-0.24436041712760925,-0.14717355370521545
1789635114196425700,2.68142578125,-0.10454884171485901,-0.24816687405109406,-0.12085886299610138
1789635114206465800,2.6914658203125,-0.04714943841099739,-0.23448431491851807,-0.07646450400352478
1789635114216505900,2.701505859375,-0.03336012363433838,-0.25206971168518066,-0.006096862722188234
1789635114226545000,2.711544921875,-0.06938280910253525,-0.38498058915138245,0.07164666056632996
1789635114236584700,2.721584716796875,-0.022321553900837898,-0.42142459750175476,0.1151597797870636
1789635114246624800,2.731624755859375,0.0010375010315328836,-0.2903742492198944,0.14530518651008606
1789635114256663800,2.741663818359375,-0.023553330451250076,-0.24896982312202454,0.1748705357313156
1789635114266704000,2.751703857421875,-0.03834918886423111,-0.2236354649066925,0.21674996614456177
1789635114276743700,2.76174365234375,-0.043369244784116745,-0.180319681763649,0.2487153559923172
1789635114286782700,2.77178271484375,-0.06995274871587753,-0.2047806680202484,0.2922910749912262
1789635114296822800,2.78182275390625,-0.08854534476995468,-0.17167411744594574,0.34450581669807434
1789635114306862800,2.79186279296875,-0.12249922007322311,-0.12665486335754395,0.4203214645385742
1789635114316901600,2.801901611328125,-0.15654534101486206,-0.12955264747142792,0.4914494454860687
1789635114326941700,2.811941650390625,-0.17852628231048584,-0.17024441063404083,0.5121685862541199
1789635114336980700,2.821980712890625,-0.19546984136104584,-0.20570920407772064,0.4848717153072357
1789635114347020800,2.832020751953125,-0.21728159487247467,-0.27264973521232605,0.4444727897644043
1789635114357060600,2.842060546875,-0.25021156668663025,-0.3718663454055786,0.3812999427318573
1789635114367100700,2.8521005859375,-0.2713320553302765,-0.4336261451244354,0.288398802280426
1789635114377139700,2.8621396484375,-0.3118768334388733,-0.5606421232223511,0.158175528049469
1789635114387179800,2.8721796875,-0.31180068850517273,-0.6249973177909851,0.006917512509971857
1789635114397218800,2.88221875,-0.29093536734580994,-0.5587807893753052,-0.08575543016195297
1789635114407258600,2.892258544921875,-0.32391732931137085,-0.47991177439689636,-0.0823696106672287
1789635114417298700,2.902298583984375,-0.3560715317726135,-0.44327014684677124,-0.04440571740269661
1789635114427337700,2.912337646484375,-0.35580235719680786,-0.3578527271747589,-0.025868039578199387
1789635114437377800,2.922377685546875,-0.3574170470237732,-0.33453407883644104,0.010748294182121754
1789635114447417900,2.93241796875,-0.33594536781311035,-0.2967905104160309,0.03144293650984764
1789635114457457000,2.942456787109375,-0.3044963479042053,-0.2468288242816925,0.019746335223317146
1789635114467497000,2.9524970703125,-0.26199376583099365,-0.21397942304611206,-0.0007429270772263408
1789635114477536800,2.962536865234375,-0.22587917745113373,-0.1668209582567215,-0.005311313550919294
1789635114487575800,2.972575927734375,-0.21304744482040405,-0.08124389499425888,-0.00494062714278698
1789635114497616000,2.982615966796875,-0.21997538208961487,-0.015425200574100018,-0.01721167378127575
1789635114507656000,2.992656005859375,-0.2218584567308426,0.02904365584254265,-0.028050081804394722
1789635114517694700,3.00269482421875,-0.20497667789459229,0.03109109401702881,-0.045995261520147324
1789635114527734800,3.01273486328125,-0.15567360818386078,0.011579413898289204,-0.06402644515037537
1789635114537774800,3.02277490234375,-0.10395661741495132,-0.037612367421388626,-0.05250588431954384
1789635114547813600,3.032813720703125,-0.0708262026309967,-0.06192623823881149,-0.013422769494354725
1789635114557853700,3.042853759765625,-0.05154012143611908,-0.03266049548983574,0.038779716938734055
1789635114567893800,3.052893798828125,-0.0406058169901371,0.05328351631760597,0.08859369903802872
1789635114577932800,3.062932861328125,-0.03181232511997223,0.1473735272884369,0.1368541717529297
1789635114587972900,3.072972900390625,-0.02254389226436615,0.20322047173976898,0.18021221458911896
1789635114598012700,3.0830126953125,-0.0036050889175385237,0.1978643238544464,0.19785591959953308
1789635114608051700,3.0930517578125,0.03752853721380234,0.18694601953029633,0.18115195631980896
1789635114618091800,3.103091796875,0.09074807912111282,0.19735391438007355,0.12373128533363342
1789635114628131800,3.1131318359375,0.140377014875412,0.21983380615711212,0.041877128183841705
1789635114638170600,3.123170654296875,0.17213201522827148,0.22532311081886292,-0.027267588302493095
1789635114648210700,3.133210693359375,0.18265117704868317,0.2130880355834961,-0.05421723052859306
1789635114658250800,3.143250732421875,0.1938074231147766,0.2323637306690216,-0.06814822554588318
1789635114668289500,3.15328955078125,0.22094646096229553,0.2687028646469116,-0.11469864100217819
1789635114678329600,3.16332958984375,0.2359302043914795,0.2516080439090729,-0.16370587050914764
1789635114688369700,3.17336962890625,0.22002942860126495,0.13430356979370117,-0.1697666049003601
1789635114698409000,3.183408935546875,0.19260819256305695,0.04859825596213341,-0.1569400131702423
1789635114708448800,3.19344873046875,0.19374413788318634,0.03723347932100296,-0.16327503323554993
1789635114718488600,3.203488525390625,0.2088003158569336,0.017113830894231796,-0.17479826509952545
1789635114728528000,3.21352783203125,0.22195006906986237,0.000700811855494976,-0.1879672408103943
1789635114738568000,3.22356787109375,0.22675201296806335,-0.007771236822009087,-0.20145800709724426
1789635114748608000,3.23360791015625,0.24222701787948608,0.09432191401720047,-0.21343015134334564
1789635114758646800,3.243646728515625,0.261807382106781,0.3412182629108429,-0.18924091756343842
1789635114768686800,3.253686767578125,0.23287728428840637,0.5321425199508667,-0.11600162088871002
1789635114778727000,3.263726806640625,0.14829501509666443,0.49007388949394226,-0.019529948011040688
1789635114788765700,3.273765625,0.09366650134325027,0.3821694552898407,0.013379707001149654
1789635114798805800,3.2838056640625,0.08246897161006927,0.351510614156723,-0.06432440876960754
1789635114808844800,3.2938447265625,0.07578263431787491,0.34293532371520996,-0.20186631381511688
1789635114818884900,3.303884765625,0.020031489431858063,0.2742105722427368,-0.3131036162376404
1789635114828924700,3.313924560546875,-0.0517207533121109,0.23823103308677673,-0.3851003646850586
1789635114838963700,3.323963623046875,-0.11830110847949982,0.2676677703857422,-0.42753225564956665
1789635114849003800,3.334003662109375,-0.17090889811515808,0.35805168747901917,-0.4621335566043854
1789635114859043800,3.3440439453125,-0.21941278874874115,0.46965569257736206,-0.46890759468078613
1789635114869082600,3.35408251953125,-0.2874618470668793,0.5962964296340942,-0.4137425124645233
1789635114879122700,3.364122802734375,-0.37499168515205383,0.6364254355430603,-0.30695798993110657
1789635114889162800,3.374162841796875,-0.43946149945259094,0.5591219067573547,-0.21858683228492737
1789635114899201800,3.384201904296875,-0.45376378297805786,0.4688127934932709,-0.2087242156267166
1789635114909241900,3.394241943359375,-0.40795478224754333,0.4543762803077698,-0.29485800862312317
1789635114919281700,3.40428173828125,-0.31368234753608704,0.5330213308334351,-0.4182068407535553
1789635114929320700,3.41432080078125,-0.23752404749393463,0.6313644051551819,-0.5207298398017883
1789635114939360800,3.42436083984375,-0.18266639113426208,0.7642396092414856,-0.6051366329193115
1789635114949400800,3.43440087890625,-0.1711217164993286,0.909007728099823,-0.6318669319152832
1789635114959440000,3.44443994140625,-0.19480255246162415,0.9888852834701538,-0.5693931579589844
1789635114969479700,3.454479736328125,-0.20858605206012726,0.9948636889457703,-0.4212004542350769
1789635114979519700,3.464519775390625,-0.16320285201072693,0.9853495359420776,-0.2547856569290161
1789635114989558800,3.474558837890625,-0.08982986956834793,0.9901500344276428,-0.14034287631511688
1789635114999598800,3.484598876953125,0.0016670263139531016,0.9400181770324707,-0.11282948404550552
1789635115009639000,3.494638916015625,0.09427826851606369,0.7671873569488525,-0.17983275651931763
1789635115019678000,3.504677978515625,0.10183019191026688,0.4058201313018799,-0.25880667567253113
1789635115029718000,3.514718017578125,0.0547897033393383,-0.043316297233104706,-0.27633628249168396
1789635115039757800,3.5247578125,0.029761848971247673,-0.25954845547676086,-0.24116390943527222
1789635115049796900,3.534796875,0.02240019664168358,-0.22607025504112244,-0.1388723999261856
1789635115059837000,3.5448369140625,-0.027684275060892105,-0.18153448402881622,-0.00783954281359911
1789635115069877000,3.554876953125,-0.08366954326629639,-0.18963444232940674,0.11039163917303085
1789635115079915800,3.564915771484375,-0.12187843769788742,-0.19724202156066895,0.1958780437707901
1789635115089955800,3.574955810546875,-0.17147496342658997,-0.1525191366672516,0.2559348940849304
1789635115099996000,3.584995849609375,-0.21102289855480194,-0.019949911162257195,0.2991976737976074
1789635115110034700,3.59503466796875,-0.1987726241350174,0.03903031721711159,0.30996057391166687
1789635115120074800,3.60507470703125,-0.1514652967453003,-0.048540808260440826,0.24308568239212036
1789635115130113800,3.61511376953125,-0.10787022113800049,-0.1631796658039093,0.10249163955450058
1789635115140153900,3.62515380859375,-0.05435559153556824,-0.19897840917110443,-0.046401165425777435
1789635115150193700,3.635193603515625,-0.018059566617012024,-0.12566302716732025,-0.1705133467912674
1789635115160232700,3.645232666015625,-0.012020849622786045,0.026083093136548996,-0.28662317991256714
1789635115170272800,3.655272705078125,-0.04430915042757988,0.22410745918750763,-0.3760346472263336
1789635115180312800,3.665312744140625,-0.10931318253278732,0.48749223351478577,-0.4007948338985443
1789635115190351600,3.6753515625,-0.20743189752101898,0.7166820168495178,-0.3166646957397461
1789635115200391700,3.6853916015625,-0.27971914410591125,0.8202739357948303,-0.18012337386608124
1789635115210431700,3.695431640625,-0.2909500300884247,0.7284802794456482,-0.04795006290078163
1789635115220470800,3.705470703125,-0.28527960181236267,0.4862864911556244,0.059310879558324814
1789635115230510600,3.715510498046875,-0.3123328983783722,0.24028566479682922,0.09545665979385376
1789635115240550700,3.725550537109375,-0.36083412170410156,0.0806797593832016,0.05700460821390152
1789635115250590000,3.73558984375,-0.38676297664642334,-0.021962963044643402,0.02008967101573944
1789635115260630000,3.745630126953125,-0.3913465440273285,-0.13577981293201447,-0.005235925316810608
1789635115270669800,3.755669921875,-0.3947828710079193,-0.3363315761089325,-0.029037706553936005
1789635115280708900,3.765708984375,-0.39031729102134705,-0.5812861919403076,-0.012920256704092026
1789635115290749000,3.7757490234375,-0.3649148941040039,-0.7519763112068176,0.009646810591220856
1789635115300789000,3.7857890625,-0.31226101517677307,-0.7673766016960144,0.03157341480255127
1789635115310827800,3.795827880859375,-0.2176561951637268,-0.6518682241439819,0.017310725525021553
1789635115320867800,3.805867919921875,-0.10979604721069336,-0.44401276111602783,-0.16343748569488525
1789635115330908000,3.815907958984375,-0.13752450048923492,-0.588945746421814,-0.25186577439308167
1789635115340947000,3.825947021484375,-0.12287898361682892,-0.6183786988258362,-0.1768631786108017
1789635115350986800,3.83598681640625,-0.0799797922372818,-0.2717040777206421,-0.21206600964069366
1789635115361026800,3.84602685546875,-0.043305132538080215,-0.03867456316947937,-0.38818538188934326
1789635115371065900,3.85606591796875,-0.06057094782590866,-0.13519637286663055,-0.2675401270389557
1789635115381106000,3.86610595703125,-0.04543140530586243,0.003707979805767536,0.02056463249027729
1789635115391145700,3.876145751953125,0.020749785006046295,0.5141040682792664,0.1981339454650879
1789635115401184800,3.886184814453125,0.1914224475622177,0.522567629814148,0.29777583479881287
1789635115411224800,3.896224853515625,0.35999035835266113,-0.04201473668217659,0.19072218239307404
1789635115421263600,3.906263671875,0.562263548374176,-0.24142690002918243,-0.24829725921154022
1789635115431303700,3.9163037109375,0.6345611214637756,-0.35551881790161133,-0.509743332862854
1789635115441343700,3.92634375,0.614286482334137,-0.40182584524154663,-0.4179231524467468
1789635115451382800,3.9363828125,0.6496154069900513,-0.3667963147163391,-0.23933421075344086
1789635115461422800,3.9464228515625,0.740720808506012,-0.27321362495422363,-0.19602322578430176
1789635115471462700,3.956462646484375,0.7811230421066284,-0.22815290093421936,-0.2598433494567871
1789635115481501700,3.966501708984375,0.6951189041137695,-0.21072465181350708,-0.35509583353996277
1789635115491541800,3.976541748046875,0.5605288147926331,-0.09185732156038284,-0.4338303804397583
1789635115501581800,3.986581787109375,0.4293612539768219,0.10460034757852554,-0.44552886486053467
1789635115511620900,3.996620849609375,0.3617618680000305,0.3168306052684784,-0.338634729385376
1789635115521661000,4.006660888671875,0.3463112711906433,0.2683914303779602,-0.13767579197883606
1789635115531700700,4.01670068359375,0.299752414226532,-0.14409483969211578,0.07056080549955368
1789635115541739800,4.02673974609375,0.2334977686405182,-0.6799688935279846,0.18839742243289948
1789635115551779800,4.03677978515625,0.19121752679347992,-0.967191219329834,0.15798138082027435
1789635115561820000,4.04681982421875,0.14919710159301758,-0.9982527494430542,0.01096689235419035
1789635115571859000,4.05685888671875,0.09802163392305374,-0.8040484189987183,-0.16174930334091187
1789635115581898800,4.066898681640625,0.011738942936062813,-0.47664710879325867,-0.29722458124160767
1789635115591938800,4.076938720703125,-0.08832008391618729,-0.138482004404068,-0.3792594373226166
1789635115601977900,4.086977783203125,-0.15870769321918488,0.07205367088317871,-0.4150930643081665
1789635115612018000,4.097017822265625,-0.1789761781692505,0.13253256678581238,-0.4233654737472534
1789635115622058000,4.10705810546875,-0.15274590253829956,0.05517546460032463,-0.3732101619243622
1789635115632096800,4.1170966796875,-0.14911659061908722,-0.07553791999816895,-0.25081732869148254
1789635115642136800,4.12713671875,-0.16414746642112732,-0.13914673030376434,-0.14111213386058807
1789635115652177000,4.137177001953125,-0.18173529207706451,-0.13662908971309662,-0.10352819412946701
1789635115662215700,4.147215576171875,-0.18564827740192413,-0.13816092908382416,-0.13563711941242218
1789635115672255700,4.157255859375,-0.18918807804584503,-0.17546933889389038,-0.17284630239009857
1789635115682295800,4.1672958984375,-0.17646031081676483,-0.1876825988292694,-0.16892586648464203
1789635115692334800,4.1773349609375,-0.16723380982875824,-0.1829095035791397,-0.17569847404956818
1789635115702374700,4.187374755859375,-0.1341855823993683,-0.056529462337493896,-0.24952690303325653
1789635115712414700,4.197414794921875,-0.12032399326562881,0.16417045891284943,-0.3287779986858368
1789635115722453800,4.207453857421875,-0.1131153479218483,0.25359782576560974,-0.31779032945632935
1789635115732493800,4.217493896484375,-0.12364806979894638,0.23802566528320312,-0.2591121792793274
1789635115742532600,4.22753271484375,-0.15184830129146576,0.20538648962974548,-0.21339449286460876
1789635115752572700,4.23757275390625,-0.18430642783641815,0.11364824324846268,-0.2034907042980194
1789635115762612700,4.24761279296875,-0.22734418511390686,-0.002163039520382881,-0.21062345802783966
1789635115772652000,4.257652099609375,-0.29067444801330566,-0.14950096607208252,-0.20846430957317352
1789635115782691800,4.26769189453125,-0.33362776041030884,-0.2833421230316162,-0.2356051206588745
1789635115792731600,4.277731689453125,-0.34512653946876526,-0.4053913354873657,-0.2936442196369171
1789635115802771000,4.28777099609375,-0.32191920280456543,-0.42865484952926636,-0.37682726979255676
1789635115812811000,4.29781103515625,-0.29325905442237854,-0.38693681359291077,-0.44763100147247314
1789635115822850800,4.307850830078125,-0.29391685128211975,-0.3060515522956848,-0.4542715847492218
1789635115832889900,4.317889892578125,-0.30030468106269836,-0.19850219786167145,-0.4157382845878601
1789635115842930000,4.327929931640625,-0.3059045076370239,-0.07024168968200684,-0.4080348014831543
1789635115852970000,4.337969970703125,-0.2998252213001251,-0.02034156024456024,-0.42365121841430664
1789635115863008800,4.3480087890625,-0.26971232891082764,-0.048280782997608185,-0.4125303626060486
1789635115873048800,4.358048828125,-0.22269587218761444,-0.10771618783473969,-0.3360616862773895
1789635115883089000,4.3680888671875,-0.20075061917304993,-0.2000032514333725,-0.2217572033405304
1789635115893128200,4.378128173828125,-0.1751997172832489,-0.295159250497818,-0.07716307044029236
1789635115903168300,4.388168212890625,-0.15539245307445526,-0.34479978680610657,-0.018531454727053642
1789635115913208300,4.398208251953125,-0.1393854320049286,-0.42426350712776184,-0.0790361687541008
1789635115923247000,4.4082470703125,-0.1317663937807083,-0.5543397665023804,-0.17068272829055786
1789635115933287200,4.418287109375,-0.14821895956993103,-0.7383659482002258,-0.18067587912082672
1789635115943327200,4.4283271484375,-0.16881905496120453,-0.7665824294090271,-0.1504245102405548
1789635115953366000,4.438365966796875,-0.19858552515506744,-0.5695834755897522,-0.13091842830181122
1789635115963406000,4.448406005859375,-0.24088451266288757,-0.3200998604297638,-0.17020218074321747
1789635115973446100,4.458446044921875,-0.28170934319496155,-0.20495548844337463,-0.22747169435024261
1789635115983485200,4.468485107421875,-0.2768959701061249,-0.16917726397514343,-0.3135663568973541
1789635115993525000,4.47852490234375,-0.23969225585460663,-0.15975315868854523,-0.394723117351532
1789635116003565000,4.48856494140625,-0.18638722598552704,-0.20995348691940308,-0.39127403497695923
1789635116013604000,4.49860400390625,-0.11536763608455658,-0.2695799767971039,-0.3893073797225952
1789635116023644200,4.50864404296875,-0.03268421068787575,-0.3504186272621155,-0.40908533334732056
1789635116033683000,4.518682861328125,0.03311111405491829,-0.43808576464653015,-0.40822550654411316
1789635116043723000,4.528722900390625,0.086728535592556,-0.4885856807231903,-0.3672298491001129
1789635116053763000,4.53876318359375,0.11363242566585541,-0.4843858778476715,-0.2930423319339752
1789635116063802400,4.54880224609375,0.11085421591997147,-0.3730199337005615,-0.25415271520614624
1789635116073842200,4.55884228515625,0.10291685909032822,-0.27120113372802734,-0.26185816526412964
1789635116083882000,4.568882080078125,0.10997849702835083,-0.21789102256298065,-0.2952935993671417
1789635116093921300,4.57892138671875,0.12320434302091599,-0.21532458066940308,-0.35469502210617065
1789635116103961300,4.58896142578125,0.11258818209171295,-0.2593919038772583,-0.39140164852142334
1789635116114001200,4.599001220703125,0.0879639983177185,-0.2935357987880707,-0.44761064648628235
1789635116124040200,4.609040283203125,0.08162914216518402,-0.2882760465145111,-0.5174304842948914
1789635116134080300,4.619080322265625,0.11676732450723648,-0.3006564676761627,-0.5449832081794739
1789635116144120300,4.629120361328125,0.158242329955101,-0.4104340970516205,-0.5642032027244568
1789635116154159000,4.6391591796875,0.1971185803413391,-0.5601645708084106,-0.6127458810806274
1789635116164199200,4.64919921875,0.22457337379455566,-0.6239967942237854,-0.6165920495986938
1789635116174239200,4.6592392578125,0.2307279407978058,-0.47874003648757935,-0.5638686418533325
1789635116184278300,4.6692783203125,0.19690153002738953,-0.3119686245918274,-0.4964054524898529
1789635116194318000,4.679318115234375,0.11091282963752747,-0.2920934855937958,-0.4776410758495331
1789635116204358100,4.689358154296875,0.04348265379667282,-0.28104403614997864,-0.5181125998497009
1789635116214397200,4.699397216796875,0.03794581815600395,-0.2772289514541626,-0.5993655920028687
1789635116224437200,4.709437255859375,0.084925577044487,-0.3940461277961731,-0.6945464611053467
1789635116234477000,4.71947705078125,0.12394314259290695,-0.5136259198188782,-0.8034697771072388
1789635116244516000,4.72951611328125,0.12839381396770477,-0.5501950979232788,-0.883169412612915
1789635116254556200,4.73955615234375,0.10894189029932022,-0.49565398693084717,-0.8897136449813843
1789635116264596200,4.74959619140625,0.03909702226519585,-0.4611806869506836,-0.8218362927436829
1789635116274635000,4.759635009765625,-0.020364370197057724,-0.3666287362575531,-0.8098145723342896
1789635116284675000,4.769675048828125,-0.06620243191719055,-0.2994545102119446,-0.8165028095245361
1789635116294715100,4.779715087890625,-0.059819698333740234,-0.29730913043022156,-0.8160693049430847
1789635116304754200,4.789754150390625,-0.01412065327167511,-0.3777403235435486,-0.7978655099868774
1789635116314794000,4.7997939453125,0.05501387268304825,-0.4912779629230499,-0.7881193161010742
1789635116324833300,4.809833251953125,0.1299448311328888,-0.5203562378883362,-0.8091830611228943
1789635116334873000,4.819873046875,0.1888778656721115,-0.5277288556098938,-0.8121417164802551
1789635116344913200,4.8299130859375,0.1965850442647934,-0.5343100428581238,-0.7780095338821411
1789635116354952200,4.8399521484375,0.2092985212802887,-0.3718838691711426,-0.7431439161300659
1789635116364992300,4.8499921875,0.19970820844173431,-0.13892251253128052,-0.7091993093490601
1789635116375032000,4.860031982421875,0.11968673765659332,-0.14738620817661285,-0.6387847065925598
1789635116385071000,4.870071044921875,0.08855119347572327,-0.11379655450582504,-0.5500718951225281
1789635116395111200,4.880111083984375,0.12932485342025757,-0.0577787421643734,-0.5041600465774536
1789635116405151200,4.890151123046875,0.2193189263343811,-0.09120061248540878,-0.49050894379615784
1789635116415190300,4.900190185546875,0.30541861057281494,-0.2510593831539154,-0.48463204503059387
1789635116425230000,4.91022998046875,0.39538443088531494,-0.37299755215644836,-0.4987180233001709
1789635116435270100,4.920270263671875,0.4351077079772949,-0.44564253091812134,-0.5062252879142761
1789635116445309200,4.93030908203125,0.4701852798461914,-0.34371671080589294,-0.535676121711731
1789635116455349200,4.940349365234375,0.5532122850418091,-0.18140961229801178,-0.4931378960609436
1789635116465389300,4.950389404296875,0.5923940539360046,-0.15583793818950653,-0.41144728660583496
1789635116475428000,4.960427978515625,0.6275455951690674,-0.20779567956924438,-0.401598185300827
1789635116485468200,4.97046826171875,0.7008600234985352,-0.18301177024841309,-0.4484381377696991
1789635116495508200,4.98050830078125,0.7770630717277527,-0.20811399817466736,-0.4386369287967682
1789635116505547000,4.990547119140625,0.7902787327766418,-0.21667499840259552,-0.3945104777812958
1789635116515587000,5.000587158203125,0.8180216550827026,-0.05065827816724777,-0.38806310296058655
1789635116525627100,5.010627197265625,0.888533890247345,0.14633575081825256,-0.383739709854126
1789635116535666200,5.020666259765625,0.9440323114395142,0.05356132984161377,-0.3761851191520691
1789635116545706000,5.0307060546875,0.9819285869598389,-0.03878644108772278,-0.3917510509490967
1789635116555746000,5.04074609375,0.9559163451194763,0.0349777527153492,-0.3710675835609436
1789635116565785000,5.05078515625,0.8889259099960327,0.08480256795883179,-0.30839407444000244
1789635116575825200,5.0608251953125,0.8323102593421936,0.1525413990020752,-0.21564358472824097
1789635116585865200,5.070865234375,0.7357648611068726,0.12877081334590912,-0.14214274287223816
1789635116595904000,5.080904052734375,0.7098174095153809,0.10845770686864853,-0.18251053988933563
1789635116605944000,5.090944091796875,0.7152108550071716,0.1432814747095108,-0.28496554493904114
1789635116615983400,5.1009833984375,0.6961379647254944,0.1581556499004364,-0.3570477068424225
1789635116626023200,5.111023193359375,0.6368288397789001,0.1278643161058426,-0.4191094636917114
1789635116636063000,5.12106298828125,0.5617013573646545,0.13655807077884674,-0.5113893747329712
1789635116646102300,5.131102294921875,0.501671314239502,0.20325720310211182,-0.5925127267837524
1789635116656142300,5.141142333984375,0.4676814079284668,0.2863045036792755,-0.6675815582275391
1789635116666182100,5.15118212890625,0.4375038146972656,0.367038756608963,-0.7257614731788635
1789635116676221200,5.16122119140625,0.3862974941730499,0.3506092429161072,-0.753324568271637
1789635116686261200,5.17126123046875,0.37448424100875854,0.4927293658256531,-0.8170878291130066
1789635116696301300,5.18130126953125,0.393372505903244,0.854794442653656,-0.9789093136787415
1789635116706340000,5.191340087890625,0.40608644485473633,0.8995845913887024,-1.1659358739852905
1789635116716380200,5.201380126953125,0.4163525402545929,0.6123780608177185,-1.2746485471725464
1789635116726420200,5.211420166015625,0.33348244428634644,0.23530587553977966,-1.1547844409942627
1789635116736459300,5.221459228515625,0.10718796402215958,0.028329435735940933,-0.8461843132972717
1789635116746499000,5.2314990234375,-0.19800230860710144,0.09511858969926834,-0.537802517414093
1789635116756539100,5.2415390625,-0.3100360333919525,0.21750737726688385,-0.30936816334724426
1789635116766578200,5.251578125,-0.2711573541164398,0.20125837624073029,-0.17066648602485657
1789635116776618200,5.2616181640625,-0.26321956515312195,0.16202783584594727,-0.17720507085323334
1789635116786658000,5.271657958984375,-0.2830318808555603,0.2233191579580307,-0.22951434552669525
1789635116796697000,5.281697021484375,-0.3338851034641266,0.3296522796154022,-0.2786298394203186
1789635116806737200,5.291737060546875,-0.3893851041793823,0.4189933240413666,-0.289768785238266
1789635116816777200,5.301777099609375,-0.4701331853866577,0.466076135635376,-0.2545364201068878
1789635116826816000,5.31181591796875,-0.5839137434959412,0.6182063221931458,-0.16735760867595673
1789635116836856000,5.32185595703125,-0.6959308385848999,0.8040748834609985,-0.10256190598011017
1789635116846896000,5.331896240234375,-0.7383792400360107,0.8549926280975342,-0.0927811786532402
1789635116856935000,5.341934814453125,-0.7772696614265442,0.7816548943519592,-0.047947850078344345
1789635116866975000,5.35197509765625,-0.84796541929245,0.7013036012649536,0.06581041216850281
1789635116877015000,5.36201513671875,-0.9300588965415955,0.6291148066520691,0.18499818444252014
1789635116887054000,5.37205419921875,-1.0206938982009888,0.6159769296646118,0.3103720545768738
1789635116897094000,5.382093994140625,-1.0914970636367798,0.6096713542938232,0.43719178438186646
1789635116907133200,5.39213330078125,-1.1212698221206665,0.5895227193832397,0.5301827788352966
1789635116917173200,5.40217333984375,-1.0706956386566162,0.6361357569694519,0.5617142915725708
1789635116927213000,5.412213134765625,-0.9692896604537964,0.6899435520172119,0.6039637923240662
1789635116937252000,5.422252197265625,-0.8719121813774109,0.6867212057113647,0.6885694265365601
1789635116947292200,5.432292236328125,-0.7985298037528992,0.6944878101348877,0.7616846561431885
1789635116957332200,5.442332275390625,-0.7071940302848816,0.6858101487159729,0.8258359432220459
1789635116967371000,5.45237109375,-0.5989852547645569,0.6800696849822998,0.8886130452156067
1789635116977411000,5.4624111328125,-0.4776299297809601,0.6215766072273254,0.9261966943740845
1789635116987451100,5.472451171875,-0.33953967690467834,0.5698979496955872,0.9452511072158813
1789635116997490200,5.482490234375,-0.20210948586463928,0.6204979419708252,0.9765027761459351
1789635117007530000,5.492530029296875,-0.05252372846007347,0.6439132690429688,1.0033007860183716
1789635117017570000,5.502570068359375,0.08851523697376251,0.7019727826118469,1.0217888355255127
1789635117027609000,5.512609130859375,0.2393345683813095,0.7878655791282654,1.0391331911087036
1789635117037649200,5.522649169921875,0.36381861567497253,0.7245864272117615,1.0362118482589722
1789635117047689000,5.53268896484375,0.46016353368759155,0.6588204503059387,1.0250829458236694
1789635117057728000,5.54272802734375,0.505081295967102,0.7034807801246643,1.0173813104629517
1789635117067768000,5.55276806640625,0.49270907044410706,0.8418149948120117,1.0194348096847534
1789635117077808000,5.56280810546875,0.47407054901123047,0.9199236631393433,1.0024913549423218
1789635117087847000,5.572846923828125,0.49383997917175293,0.843949556350708,0.9703474640846252
1789635117097887000,5.582886962890625,0.4968768358230591,0.7785215973854065,0.9442082643508911
1789635117107927000,5.592927001953125,0.4500613808631897,0.7681331634521484,0.943306028842926
1789635117117966000,5.602966064453125,0.36019378900527954,0.7555567622184753,0.9938681125640869
1789635117128006000,5.613005859375,0.2903982102870941,0.6109569668769836,1.0692294836044312
1789635117138046000,5.6230458984375,0.2078026533126831,0.5719753503799438,1.079463005065918
1789635117148085000,5.6330849609375,0.0738629624247551,0.7227523326873779,0.9917752742767334
1789635117158125000,5.643125,-0.11980244517326355,0.7898563146591187,0.9079639315605164
1789635117168164000,5.6531640625,-0.30358585715293884,0.715344250202179,0.9184724688529968
1789635117178204200,5.6632041015625,-0.41973066329956055,0.6420091390609741,1.0364409685134888
1789635117188244200,5.673244140625,-0.47691458463668823,0.6354460120201111,1.1844251155853271
1789635117198283000,5.683282958984375,-0.5259109139442444,0.7248039245605469,1.2839645147323608
1789635117208323000,5.693322998046875,-0.5640162229537964,0.8587470650672913,1.3059911727905273
1789635117218363100,5.703363037109375,-0.6006858348846436,0.9256466031074524,1.310288906097412
1789635117228402200,5.713402099609375,-0.614628791809082,0.8817068338394165,1.3460760116577148
1789635117238442000,5.72344189453125,-0.5677716732025146,0.7992299795150757,1.3885912895202637
1789635117248482000,5.73348193359375,-0.46825334429740906,0.6255918741226196,1.3911375999450684
1789635117258521000,5.74352099609375,-0.369080513715744,0.4763297438621521,1.3767907619476318
1789635117268561200,5.75356103515625,-0.26658767461776733,0.4489785432815552,1.4033504724502563
1789635117278601200,5.763601318359375,-0.17458675801753998,0.46889960765838623,1.4893629550933838
1789635117288640000,5.773639892578125,-0.013143273070454597,0.37889301776885986,1.571808934211731
1789635117298680000,5.78368017578125,0.17664019763469696,0.2625492513179779,1.5647789239883423
1789635117308720000,5.79372021484375,0.2874191701412201,0.20068508386611938,1.4681824445724487
1789635117318759000,5.803759033203125,0.2973945438861847,0.1624753624200821,1.3477530479431152
1789635117328799000,5.813799072265625,0.21023406088352203,0.06267660111188889,1.2712266445159912
1789635117338839000,5.823839111328125,0.04791704937815666,-0.08023988455533981,1.282495379447937
1789635117348878000,5.833878173828125,-0.07221920788288116,-0.060031548142433167,1.3711602687835693
1789635117358918000,5.84391796875,-0.10945868492126465,0.06183268129825592,1.509216547012329
1789635117368958000,5.8539580078125,-0.09859325736761093,0.1541178822517395,1.586681842803955
1789635117378997000,5.8639970703125,-0.06704925000667572,0.1922285556793213,1.520625114440918
1789635117389037000,5.874037109375,-0.010259737260639668,0.23528175055980682,1.3567278385162354
1789635117399076900,5.884076904296875,-0.008325253613293171,0.35394009947776794,1.1944679021835327
1789635117409116000,5.894115966796875,-0.09416079521179199,0.549947202205658,1.1112979650497437
1789635117419156000,5.904156005859375,-0.1843171864748001,0.6401620507240295,1.1536306142807007
1789635117429196000,5.914196044921875,-0.15043886005878448,0.6454012989997864,1.2371710538864136
1789635117439235000,5.924235107421875,-0.06115850433707237,0.6331249475479126,1.2911196947097778
1789635117449275100,5.934275146484375,-0.012175250798463821,0.5510085225105286,1.2699576616287231
1789635117459315000,5.94431494140625,0.03056102804839611,0.3906368911266327,1.1707309484481812
1789635117469354200,5.954354248046875,0.046393416821956635,0.23563750088214874,1.0440500974655151
1789635117479394000,5.96439404296875,0.03304905444383621,0.1460617035627365,0.9445225596427917
1789635117489433000,5.97443310546875,0.024508561939001083,0.3240034878253937,0.8510186672210693
1789635117499473200,5.98447314453125,0.0666518285870552,0.7141538858413696,0.7341552972793579
1789635117509513200,5.99451318359375,0.16321563720703125,0.9403079152107239,0.6319412589073181
1789635117519552000,6.004552001953125,0.24671845138072968,0.9360273480415344,0.5620052814483643
1789635117529592000,6.014592041015625,0.23380663990974426,0.8058770895004272,0.5362977981567383
1789635117539632000,6.024632080078125,0.17204637825489044,0.5629639029502869,0.5640584826469421
1789635117549671200,6.034671142578125,0.14500011503696442,0.2784477472305298,0.6035441160202026
1789635117559711000,6.0447109375,0.15608227252960205,0.1276387721300125,0.6634308695793152
1789635117569751000,6.0547509765625,0.15673501789569855,0.07405731081962585,0.7321712970733643
1789635117579790000,6.0647900390625,0.07611686736345291,0.1336415410041809,0.7396808862686157
1789635117589830100,6.074830078125,-0.04195091500878334,0.2717810273170471,0.6538706421852112
1789635117599870000,6.084869873046875,-0.08552316576242447,0.35125961899757385,0.5483615398406982
1789635117609909000,6.094908935546875,-0.06135071441531181,0.3952006995677948,0.4709530472755432
1789635117619949000,6.104948974609375,-0.041280172765254974,0.4273892939090729,0.4068780839443207
1789635117629989000,6.114989013671875,-0.03745320811867714,0.4515974223613739,0.3425696790218353
1789635117640028000,6.12502783203125,-0.0715208575129509,0.35110580921173096,0.2532746195793152
1789635117650068000,6.13506787109375,-0.09042344242334366,0.08468610793352127,0.15737496316432953
1789635117660108000,6.14510791015625,-0.0651436597108841,-0.23468182981014252,0.034504763782024384
1789635117670146800,6.155146728515625,-0.0791148692369461,-0.5177249908447266,-0.11287589371204376
1789635117680187000,6.165186767578125,-0.10400030761957169,-0.6415618062019348,-0.2602919638156891
1789635117690227000,6.17522705078125,-0.15019923448562622,-0.4353092908859253,-0.39422741532325745
1789635117700266200,6.185266357421875,-0.187875896692276,-0.07266547530889511,-0.4656032621860504
1789635117710306000,6.19530615234375,-0.16793495416641235,0.1743461936712265,-0.44345057010650635
1789635117720345900,6.205345947265625,-0.17355985939502716,0.14021378755569458,-0.3451789319515228
1789635117730385200,6.21538525390625,-0.23096562922000885,-0.09246206283569336,-0.2550024092197418
1789635117740425200,6.22542529296875,-0.29318833351135254,-0.42569902539253235,-0.19231532514095306
1789635117750464000,6.235464111328125,-0.30514195561408997,-0.6159946322441101,-0.17009656131267548
1789635117760504000,6.245504150390625,-0.2782753109931946,-0.5828666090965271,-0.16986176371574402
1789635117770544000,6.255544189453125,-0.22944840788841248,-0.4683690369129181,-0.146983340382576
1789635117780583200,6.265583251953125,-0.1544853001832962,-0.3313703238964081,-0.1445896029472351
1789635117790623000,6.275623046875,-0.11861010640859604,-0.03704310208559036,-0.26474130153656006
1789635117800663000,6.2856630859375,-0.08286671340465546,0.2689540386199951,-0.46010109782218933
1789635117810702000,6.2957021484375,-0.006346378941088915,0.5223868489265442,-0.6249779462814331
1789635117820742100,6.3057421875,0.08536538481712341,0.638373076915741,-0.6957414150238037
1789635117830782200,6.3157822265625,0.177275612950325,0.556329607963562,-0.6867849230766296
1789635117840821000,6.325821044921875,0.23175717890262604,0.4472513496875763,-0.71088045835495
1789635117850861000,6.335861083984375,0.2621880769729614,0.4592664837837219,-0.7630459070205688
1789635117860901000,6.345901123046875,0.3581428825855255,0.45413121581077576,-0.7430658936500549
1789635117870940000,6.35593994140625,0.4480906128883362,0.47077810764312744,-0.6693160533905029
1789635117880980000,6.36597998046875,0.45673200488090515,0.503116250038147,-0.5873467922210693
1789635117891020000,6.37602001953125,0.3924049437046051,0.4300641715526581,-0.5160755515098572
1789635117901058800,6.386058837890625,0.3367372751235962,0.2343159317970276,-0.4253055453300476
1789635117911099000,6.396098876953125,0.2824136018753052,0.03352876752614975,-0.3026568591594696
1789635117921139000,6.406138916015625,0.2651340663433075,-0.12377810478210449,-0.2133433073759079
1789635117931177700,6.416177734375,0.25487130880355835,-0.18395303189754486,-0.23997758328914642
1789635117941217800,6.4262177734375,0.24460119009017944,-0.23070581257343292,-0.3802371621131897
1789635117951257900,6.4362578125,0.2278491109609604,-0.2319527119398117,-0.5535889863967896
1789635117961297000,6.446296875,0.23291602730751038,-0.20659497380256653,-0.6547189950942993
1789635117971337000,6.4563369140625,0.25850608944892883,-0.13980208337306976,-0.6930011510848999
1789635117981376800,6.466376708984375,0.29547566175460815,0.02669600024819374,-0.7072930932044983
1789635117991416000,6.476416015625,0.3369903266429901,0.062115512788295746,-0.7350024580955505
1789635118001455900,6.486455810546875,0.40725064277648926,-0.1409483104944229,-0.7727328538894653
1789635118011496000,6.496495849609375,0.4736371338367462,-0.3980533480644226,-0.8120315074920654
1789635118021535000,6.506534912109375,0.5220897197723389,-0.5128829479217529,-0.8262252807617188
1789635118031575000,6.516574951171875,0.5286418795585632,-0.4460724890232086,-0.8116010427474976
1789635118041613800,6.52661376953125,0.49436843395233154,-0.14584875106811523,-0.7962945103645325
1789635118051654000,6.53665380859375,0.48580533266067505,0.1399390548467636,-0.7761330604553223
1789635118061694000,6.54669384765625,0.5105658173561096,0.19803762435913086,-0.7606543302536011
1789635118071733000,6.55673291015625,0.5181403756141663,0.03307849541306496,-0.7596529722213745
1789635118081772800,6.566772705078125,0.49562546610832214,-0.12286373972892761,-0.7641063332557678
1789635118091812900,6.576812744140625,0.4571116268634796,-0.13913539052009583,-0.7332248091697693
1789635118101852000,6.586851806640625,0.4098728895187378,-0.1108371689915657,-0.6683116555213928
1789635118111892000,6.59689208984375,0.39087390899658203,-0.2632860839366913,-0.5953719615936279
1789635118121931800,6.606931884765625,0.3820851445198059,-0.5720863342285156,-0.5542247891426086
1789635118131970800,6.616970703125,0.3735017776489258,-0.7040433287620544,-0.5593343377113342
1789635118142011000,6.627010986328125,0.3290547728538513,-0.5164889693260193,-0.6094552874565125
1789635118152051000,6.637051025390625,0.25531476736068726,-0.3601875603199005,-0.6602053046226501
1789635118162089700,6.64708984375,0.23697589337825775,-0.4413222670555115,-0.7035729289054871
1789635118172129800,6.6571298828125,0.2876076400279999,-0.5803020000457764,-0.7897852659225464
1789635118182169900,6.667169921875,0.3377213478088379,-0.6460183262825012,-0.8953238725662231
1789635118192209000,6.677208984375,0.3512691259384155,-0.6436039209365845,-0.959661602973938
1789635118202248700,6.687248779296875,0.35878223180770874,-0.5648068189620972,-0.9317781925201416
1789635118212288800,6.697288818359375,0.3759998381137848,-0.49480190873146057,-0.8168814778327942
1789635118222328000,6.707328125,0.4126666784286499,-0.4674183428287506,-0.6920313239097595
1789635118232367900,6.717367919921875,0.4349863827228546,-0.4078708589076996,-0.6302502751350403
1789635118242407700,6.72740771484375,0.4008660316467285,-0.48146671056747437,-0.6199337840080261
1789635118252447000,6.737447021484375,0.3708229064941406,-0.650278627872467,-0.6649606227874756
1789635118262487000,6.747487060546875,0.37194496393203735,-0.8810071349143982,-0.7458285689353943
1789635118272527000,6.757527099609375,0.4064858853816986,-1.0554287433624268,-0.8278903961181641
1789635118282566000,6.76756591796875,0.40755537152290344,-1.141029953956604,-0.8504481911659241
1789635118292606000,6.77760595703125,0.35504263639450073,-1.1424169540405273,-0.8035454154014587
1789635118302646000,6.78764599609375,0.30360832810401917,-1.0718246698379517,-0.7460606098175049
1789635118312684800,6.797684814453125,0.28704214096069336,-0.9941878318786621,-0.7399526834487915
1789635118322724900,6.807724853515625,0.30753448605537415,-1.1210614442825317,-0.7759232521057129
1789635118332764000,6.817763916015625,0.34105515480041504,-1.229092001914978,-0.8270175457000732
1789635118342804000,6.827803955078125,0.3104773163795471,-1.2487623691558838,-0.8003787994384766
1789635118352844000,6.837843994140625,0.2570468485355377,-1.2837752103805542,-0.7585139274597168
1789635118362882800,6.8478828125,0.2406415194272995,-1.4148108959197998,-0.8110480308532715
1789635118372923000,6.8579228515625,0.24732285737991333,-1.5566097497940063,-0.9175885915756226
1789635118382963000,6.867962890625,0.24777479469776154,-1.5816810131072998,-1.035046100616455
1789635118393001700,6.878001708984375,0.28559407591819763,-1.3191192150115967,-1.1371433734893799
1789635118403041800,6.888041748046875,0.3537886440753937,-1.0362341403961182,-1.1812517642974854
1789635118413081900,6.898081787109375,0.4065868854522705,-0.9840782284736633,-1.2257931232452393
1789635118423121000,6.908120849609375,0.4257323145866394,-1.1226736307144165,-1.2518991231918335
1789635118433160700,6.91816064453125,0.37700340151786804,-1.1518245935440063,-1.212327241897583
1789635118443200800,6.92820068359375,0.3661954402923584,-1.0492113828659058,-1.1820564270019531
1789635118453239800,6.93823974609375,0.35883790254592896,-0.8659939169883728,-1.181990385055542
1789635118463279900,6.94827978515625,0.3785908818244934,-0.5313854813575745,-1.2024273872375488
1789635118473320000,6.95831982421875,0.37178170680999756,-0.4484649896621704,-1.1912654638290405
1789635118483359000,6.96835888671875,0.37774550914764404,-0.7203863263130188,-1.1407800912857056
1789635118493398800,6.978398681640625,0.42208608984947205,-0.9679639339447021,-1.0606586933135986
1789635118503438800,6.98843896484375,0.4189945459365845,-1.1132514476776123,-0.9767822623252869
1789635118513478000,6.998477783203125,0.3789632320404053,-0.8940886855125427,-0.9409555792808533
1789635118523518000,7.00851806640625,0.36400851607322693,-0.41258254647254944,-0.9447134733200073
1789635118533558000,7.01855810546875,0.3175768554210663,-0.22862550616264343,-0.925979733467102
1789635118543597000,7.02859716796875,0.1917012333869934,-0.5852485299110413,-0.8917685151100159
1789635118553636900,7.038636962890625,0.16302645206451416,-0.8870078921318054,-0.9447334408760071
1789635118563677000,7.048677001953125,0.1770733743906021,-1.020133376121521,-0.9861793518066406
1789635118573716000,7.058716064453125,0.25535139441490173,-0.7269933819770813,-0.9938197135925293
1789635118583756000,7.068756103515625,0.20268964767456055,-0.43309319019317627,-0.9038299322128296
1789635118593795800,7.0787958984375,0.08849889785051346,-0.27471980452537537,-0.8025062084197998
1789635118603835000,7.0888349609375,-0.053187090903520584,-0.20831821858882904,-0.7827313542366028
1789635118613875000,7.098875,-0.13644975423812866,-0.08514516055583954,-0.8424569964408875
1789635118623915000,7.1089150390625,-0.1514032483100891,0.07172940671443939,-0.9716875553131104
1789635118633953800,7.118953857421875,-0.1321973353624344,0.35418587923049927,-1.0951210260391235
1789635118643993900,7.128993896484375,-0.10996375977993011,0.4911517798900604,-1.1637521982192993
1789635118654033000,7.139032958984375,-0.11284849792718887,0.4203982651233673,-1.2096410989761353
1789635118664073000,7.149072998046875,-0.12387894839048386,0.32357969880104065,-1.251707673072815
1789635118674112800,7.15911279296875,-0.12125200778245926,0.239219531416893,-1.2309296131134033
1789635118684151800,7.16915185546875,-0.18462425470352173,0.3031448721885681,-1.0699571371078491
1789635118694191900,7.17919189453125,-0.2968655824661255,0.2776466906070709,-0.8938326835632324
1789635118704232000,7.18923193359375,-0.4012247920036316,0.26757481694221497,-0.8768342733383179
1789635118714270700,7.199270751953125,-0.38210728764533997,0.4686810076236725,-0.8980663418769836
1789635118724310800,7.209310791015625,-0.25830790400505066,0.5025739073753357,-0.8223085999488831
1789635118734350800,7.219350830078125,-0.17371739447116852,0.08194700628519058,-0.6478033661842346
1789635118744390000,7.229389892578125,-0.22804966568946838,-0.0025872085243463516,-0.46340784430503845
1789635118754429700,7.2394296875,-0.266930490732193,0.45185086131095886,-0.2836921513080597
1789635118764469800,7.2494697265625,-0.1328839510679245,0.6602700352668762,-0.21290145814418793
1789635118774509000,7.259509033203125,-0.025759633630514145,0.4062228202819824,-0.1976732462644577
1789635118784549000,7.269549072265625,-0.15604440867900848,0.24007201194763184,-0.0032255342230200768
1789635118794589000,7.2795888671875,-0.4107147753238678,0.5050922632217407,0.2623984217643738
1789635118804628000,7.2896279296875,-0.4079835116863251,0.9035972952842712,0.3307691216468811
1789635118814668000,7.29966796875,-0.26315683126449585,0.9458264708518982,0.3122095465660095
1789635118824708000,7.3097080078125,-0.2721254825592041,0.6401987075805664,0.3951651155948639
1789635118834747000,7.319746826171875,-0.4805756211280823,0.35048195719718933,0.5879982709884644
1789635118844787000,7.329786865234375,-0.5570230484008789,0.5190112590789795,0.7175543904304504
1789635118854827000,7.339826904296875,-0.420985609292984,0.9906210899353027,0.7190713286399841
1789635118864865800,7.34986572265625,-0.28435274958610535,1.1940720081329346,0.6788496971130371
1789635118874905900,7.35990576171875,-0.2956477403640747,0.8512763381004333,0.7620646953582764
1789635118884946000,7.36994580078125,-0.4407235085964203,0.5288166999816895,1.0571520328521729
1789635118894985000,7.37998486328125,-0.5857957601547241,0.601407527923584,1.374165654182434
1789635118905025800,7.39002587890625,-0.6285045146942139,1.0326693058013916,1.5296835899353027
1789635118915065600,7.400065673828125,-0.5896393656730652,1.3289552927017212,1.5391737222671509
1789635118925104600,7.410104736328125,-0.5332937240600586,1.1674981117248535,1.539419174194336
1789635118935144700,7.420144775390625,-0.45267343521118164,0.8313639163970947,1.6097044944763184
1789635118945183700,7.430183837890625,-0.35856568813323975,0.7568185925483704,1.6589524745941162
1789635118955223600,7.4402236328125,-0.2801326513290405,0.7242534756660461,1.6054534912109375
1789635118965263600,7.450263671875,-0.2853749096393585,0.6678324937820435,1.4481642246246338
1789635118975302700,7.460302734375,-0.35691672563552856,0.6750767827033997,1.305818796157837
1789635118985342700,7.4703427734375,-0.3790290951728821,0.6688612103462219,1.3145719766616821
1789635118995382500,7.480382568359375,-0.37945544719696045,0.7355750203132629,1.4331982135772705
1789635119005421600,7.490421630859375,-0.3856596350669861,0.8261255025863647,1.5442516803741455
1789635119015461600,7.500461669921875,-0.35686951875686646,0.7960568070411682,1.5522023439407349
1789635119025501700,7.510501708984375,-0.25285759568214417,0.6688867807388306,1.5071347951889038
1789635119035540500,7.52054052734375,-0.08106107264757156,0.6702260375022888,1.4716559648513794
1789635119045580500,7.53058056640625,0.06540312618017197,0.8635803461074829,1.4243111610412598
1789635119055620600,7.54062060546875,0.09467606246471405,0.986029863357544,1.360215187072754
1789635119065659600,7.55065966796875,0.05042281746864319,0.7283141613006592,1.3287429809570312
1789635119075699500,7.560699462890625,0.09846944361925125,0.3245592713356018,1.3695993423461914
1789635119085739500,7.570739501953125,0.12241475284099579,0.3123074471950531,1.3852168321609497
1789635119095778800,7.58077880859375,0.061800405383110046,0.569241464138031,1.3403146266937256
1789635119105818600,7.590818603515625,-0.0714058056473732,0.7220067381858826,1.3667786121368408
1789635119115858400,7.6008583984375,-0.14033374190330505,0.7954205274581909,1.4880582094192505
1789635119125897700,7.610897705078125,-0.06963235139846802,0.7160742878913879,1.6659533977508545
1789635119135937800,7.620937744140625,0.08320193737745285,0.7094427347183228,1.7779966592788696
1789635119145977900,7.630977783203125,0.17199477553367615,0.5453993678092957,1.7808769941329956
1789635119156016600,7.6410166015625,0.08358289301395416,0.2518695294857025,1.6525770425796509
1789635119166056700,7.651056640625,-0.09837161749601364,0.02640232816338539,1.4730210304260254
1789635119176096800,7.6610966796875,-0.2682115137577057,-0.11189243197441101,1.3654844760894775
1789635119186135600,7.671135498046875,-0.4329254627227783,-0.07250180840492249,1.4334152936935425
1789635119196175600,7.681175537109375,-0.5105491876602173,0.20488080382347107,1.6055482625961304
1789635119206215700,7.691215576171875,-0.5020369291305542,0.7056706547737122,1.715171456336975
1789635119216254700,7.701254638671875,-0.5403321385383606,0.9477402567863464,1.7127410173416138
1789635119226294800,7.711294677734375,-0.6374488472938538,0.6307191252708435,1.6245112419128418
1789635119236333600,7.72133349609375,-0.717674970626831,0.2566925287246704,1.4878681898117065
1789635119246373600,7.73137353515625,-0.7579604983329773,0.24199332296848297,1.4026669263839722
1789635119256413700,7.74141357421875,-0.7172314524650574,0.48278650641441345,1.4125072956085205
1789635119266452500,7.751452392578125,-0.6265276670455933,0.5809934735298157,1.4369536638259888
1789635119276492500,7.761492431640625,-0.5602877140045166,0.30389687418937683,1.4193443059921265
1789635119286532600,7.77153271484375,-0.5311772227287292,-0.020991474390029907,1.3468844890594482
1789635119296571600,7.781571533203125,-0.5328667163848877,-0.09082568436861038,1.2913378477096558
1789635119306611500,7.791611572265625,-0.5208258628845215,0.16759081184864044,1.2673686742782593
1789635119316651500,7.801651611328125,-0.464645117521286,0.6363937258720398,1.191393494606018
1789635119326690600,7.811690673828125,-0.2908686101436615,0.8181609511375427,1.089876651763916
1789635119336730600,7.821730712890625,-0.04649936407804489,0.767930269241333,1.0107916593551636
1789635119346770400,7.8317705078125,0.10353253781795502,0.9179590344429016,0.9190394878387451
1789635119356809700,7.841809814453125,0.1745864897966385,1.0319063663482666,0.8202966451644897
1789635119366849500,7.851849609375,0.16199831664562225,0.7952517867088318,0.5971421599388123
1789635119376889600,7.8618896484375,0.0802840068936348,0.14810951054096222,0.23976939916610718
1789635119386928600,7.8719287109375,0.09311877936124802,-0.3688173294067383,-0.15122365951538086
1789635119396968700,7.88196875,0.20866721868515015,-0.29633647203445435,-0.4744429886341095
1789635119407008800,7.8920087890625,0.29958492517471313,0.10981826484203339,-0.7374147176742554
1789635119417047800,7.9020478515625,0.34776681661605835,0.49778756499290466,-0.9179109930992126
1789635119427087600,7.912087646484375,0.3495171368122101,0.7851396799087524,-0.9744535088539124
1789635119437127700,7.922127685546875,0.38126495480537415,0.8105470538139343,-0.892066478729248
1789635119447166700,7.932166748046875,0.39008039236068726,0.5217170715332031,-0.740215003490448
1789635119457206800,7.942206787109375,0.20491905510425568,0.28253668546676636,-0.6547091603279114
1789635119467246600,7.95224658203125,0.09956416487693787,-0.0567806214094162,-0.5010223984718323
1789635119477285600,7.96228564453125,0.14301443099975586,-0.3884198069572449,-0.18008673191070557
1789635119487325700,7.97232568359375,0.1347879022359848,-0.5552948117256165,0.161003977060318
1789635119497365800,7.98236572265625,0.05982152000069618,-0.4145698845386505,0.3233518600463867
1789635119507404500,7.992404541015625,0.01199513953179121,-0.23439186811447144,0.3676159977912903
1789635119517444600,8.002444580078125,-0.01526124868541956,-0.062477365136146545,0.365695059299469
1789635119527484700,8.012484619140626,-0.05089578405022621,0.10018526762723923,0.2429312765598297
1789635119537523700,8.022523681640624,-0.057166729122400284,0.12533482909202576,-0.013611557893455029
1789635119547563500,8.0325634765625,-0.07180648297071457,-0.008690412156283855,-0.32922014594078064
1789635119557602600,8.0426025390625,-0.08950105309486389,-0.05613728612661362,-0.6506056189537048
1789635119567642600,8.052642578125,-0.07749785482883453,0.04951385408639908,-0.8796766400337219
1789635119577682700,8.0626826171875,-0.006308902055025101,0.22574001550674438,-0.9152969717979431
1789635119587721500,8.072721435546875,0.06763412058353424,0.31171971559524536,-0.8468014597892761
1789635119597761500,8.082761474609375,0.09455414861440659,0.37882497906684875,-0.8000076413154602
1789635119607801600,8.092801513671875,0.11471742391586304,0.39515843987464905,-0.8282617926597595
1789635119617840600,8.102840576171875,0.14764554798603058,0.2701645791530609,-0.8535122871398926
1789635119627880400,8.11288037109375,0.22006791830062866,0.04236524552106857,-0.8305724263191223
1789635119637920500,8.12292041015625,0.2825331687927246,-0.12470737099647522,-0.763800859451294
1789635119647959800,8.132959716796876,0.3194237947463989,-0.24252314865589142,-0.6732694506645203
1789635119658000000,8.142999755859375,0.3093370497226715,-0.2948838472366333,-0.6046142578125
1789635119668039700,8.153039794921876,0.31912145018577576,-0.45859551429748535,-0.5588945150375366
1789635119678078700,8.16307861328125,0.3452760875225067,-0.6674182415008545,-0.5178618431091309
1789635119688118800,8.173118896484375,0.2996562421321869,-0.6763813495635986,-0.4871387481689453
1789635119698158800,8.183158935546874,0.2511446177959442,-0.5935559868812561,-0.49081072211265564
1789635119708197600,8.19319775390625,0.23108181357383728,-0.5902166366577148,-0.5140572786331177
1789635119718237700,8.20323779296875,0.17907027900218964,-0.44436463713645935,-0.6043136715888977
1789635119728277800,8.21327783203125,0.14897288382053375,-0.22792139649391174,-0.7694079279899597
1789635119738316500,8.223316650390625,0.21462459862232208,-0.23132333159446716,-0.958637535572052
1789635119748356600,8.233356689453124,0.2798105478286743,-0.31542640924453735,-1.098725438117981
1789635119758396700,8.243396728515625,0.2923543155193329,-0.37852948904037476,-1.1812310218811035
1789635119768435700,8.253435791015624,0.30837851762771606,-0.5270074605941772,-1.1812655925750732
1789635119778475500,8.2634755859375,0.321866899728775,-0.7559868097305298,-1.1218000650405884
1789635119788515600,8.273515625,0.308404803276062,-1.0104315280914307,-1.01526939868927
1789635119798554600,8.2835546875,0.2835785448551178,-1.2168749570846558,-0.9192487597465515
1789635119808594700,8.2935947265625,0.2636066973209381,-1.2482722997665405,-0.8635903596878052
1789635119818634800,8.303634765625,0.21838542819023132,-1.0963698625564575,-0.815186083316803
1789635119828673500,8.313673583984375,0.1860307902097702,-0.9690030813217163,-0.7677856683731079
1789635119838713600,8.323713623046874,0.1896665394306183,-0.8996666073799133,-0.7609759569168091
1789635119848752600,8.333752685546875,0.1943393498659134,-0.9032565951347351,-0.8314202427864075
1789635119858792400,8.34379248046875,0.2074839025735855,-0.9922354817390442,-0.9006006717681885
1789635119868832500,8.35383251953125,0.19486138224601746,-1.0568972826004028,-0.8975949883460999
1789635119878871600,8.36387158203125,0.1778549700975418,-1.1376852989196777,-0.9101533889770508
1789635119888911600,8.37391162109375,0.18208637833595276,-1.3282095193862915,-0.9565619826316833
1789635119898951200,8.383951171875,0.20360605418682098,-1.4212051630020142,-0.9812606573104858
1789635119908990500,8.393990478515626,0.16966569423675537,-1.3206729888916016,-0.9227121472358704
1789635119919030300,8.4040302734375,0.12997767329216003,-1.2660685777664185,-0.8378797769546509
1789635119929070300,8.4140703125,0.10561510175466537,-1.4675278663635254,-0.8411016464233398
1789635119939109400,8.424109375,0.08043357729911804,-1.7716803550720215,-0.886825442314148
1789635119949149400,8.4341494140625,0.06285116076469421,-1.9016706943511963,-0.9021163582801819
1789635119959189200,8.444189208984374,0.017904724925756454,-1.7256869077682495,-0.9152436256408691
1789635119969228300,8.454228271484375,-0.030500095337629318,-1.3567893505096436,-0.928499698638916
1789635119979268400,8.464268310546874,-0.11180959641933441,-1.0350011587142944,-0.9666012525558472
1789635119989308400,8.474308349609375,-0.11533601582050323,-0.947697639465332,-1.0691627264022827
1789635119999347200,8.48434716796875,-0.012341990135610104,-1.0916575193405151,-1.1615504026412964
1789635120009387300,8.49438720703125,0.06213226914405823,-1.0364837646484375,-1.2584210634231567
1789635120019427300,8.50442724609375,0.15105921030044556,-0.7113192081451416,-1.346798300743103
1789635120029466000,8.514466064453124,0.24743127822875977,-0.47206002473831177,-1.3872679471969604
1789635120039506200,8.524506103515625,0.3026614189147949,-0.646612286567688,-1.4021435976028442
1789635120049546200,8.534546142578124,0.3122476041316986,-1.0514705181121826,-1.489923119544983
1789635120059585300,8.544585205078125,0.32798025012016296,-1.218129277229309,-1.6409882307052612
1789635120069625300,8.554625244140626,0.3743458688259125,-1.0903059244155884,-1.6963828802108765
1789635120079665200,8.5646650390625,0.41474467515945435,-0.8177847266197205,-1.7273354530334473
1789635120089704200,8.5747041015625,0.46151912212371826,-0.5717326998710632,-1.7669074535369873
1789635120099744300,8.584744140625,0.44711142778396606,-0.5285716652870178,-1.7542656660079956
1789635120109784300,8.594784423828125,0.525409460067749,-0.6371209025382996,-1.7703007459640503
1789635120119823000,8.604822998046876,0.6377370357513428,-0.5951929092407227,-1.7621948719024658
1789635120129863200,8.61486328125,0.7143887877464294,-0.5075123310089111,-1.6810293197631836
1789635120139902500,8.62490234375,0.693740725517273,-0.5251823663711548,-1.5072221755981445
1789635120149942300,8.6349423828125,0.6578732132911682,-0.43383121490478516,-1.3074204921722412
1789635120159982000,8.644982177734375,0.6232116222381592,-0.2529492974281311,-1.1501799821853638
1789635120170021400,8.655021484375,0.6312531232833862,-0.02813570946455002,-1.0539101362228394
1789635120180061400,8.6650615234375,0.6786544919013977,0.1318022906780243,-1.0362046957015991
1789635120190101200,8.675101318359374,0.7334770560264587,0.31827718019485474,-1.0427601337432861
1789635120200140300,8.685140380859375,0.7707935571670532,0.4889298975467682,-1.0762661695480347
1789635120210180400,8.695180419921876,0.7530248761177063,0.4329042136669159,-1.0200920104980469
1789635120220220400,8.705220458984375,0.6181637048721313,0.17703889310359955,-0.8349833488464355
1789635120230259200,8.71525927734375,0.468221515417099,0.20026607811450958,-0.6191224455833435
1789635120240299300,8.72529931640625,0.3240547478199005,0.2139185070991516,-0.48668479919433594
1789635120250339300,8.73533935546875,0.31882309913635254,0.43732964992523193,-0.5201823115348816
1789635120260378400,8.74537841796875,0.395153284072876,0.5786987543106079,-0.6293045282363892
1789635120270418200,8.755418212890625,0.3942759037017822,0.24932041764259338,-0.5740899443626404
1789635120280458200,8.765458251953126,0.3365500569343567,0.003471757285296917,-0.37845465540885925
1789635120290497300,8.775497314453125,0.26713427901268005,0.13462601602077484,-0.19745999574661255
1789635120300537300,8.785537353515625,0.23056694865226746,0.2389817088842392,-0.06272934377193451
1789635120310577200,8.7955771484375,0.19653572142124176,0.31045597791671753,-0.01940915733575821
1789635120320616200,8.8056162109375,0.14693593978881836,0.3168707489967346,0.04137057065963745
1789635120330656300,8.81565625,0.12294182926416397,0.3126247227191925,0.05935145914554596
1789635120340696300,8.8256962890625,0.047753069549798965,0.2917380928993225,0.08148019760847092
1789635120350735000,8.835735107421876,-0.08593271672725677,0.39578041434288025,0.15427161753177643
1789635120360775200,8.845775146484375,-0.24645021557807922,0.5510086417198181,0.3070036470890045
1789635120370815200,8.855815185546875,-0.3326455056667328,0.6975642442703247,0.39336124062538147
1789635120380854300,8.865854248046874,-0.3652369976043701,0.6447497606277466,0.41351762413978577
1789635120390894000,8.87589404296875,-0.4108555018901825,0.7705766558647156,0.4638836979866028
1789635120400934100,8.88593408203125,-0.46348968148231506,1.0228352546691895,0.5969565510749817
1789635120410973200,8.89597314453125,-0.5290701985359192,1.0802191495895386,0.7295249104499817
1789635120421013200,8.90601318359375,-0.6031071543693542,0.95906662940979,0.8437670469284058
1789635120431053000,8.916052978515625,-0.6597946882247925,0.8990606665611267,1.0100759267807007
1789635120441092400,8.92609228515625,-0.6908660531044006,0.9538238048553467,1.211175799369812
1789635120451132400,8.93613232421875,-0.6922158002853394,1.0178146362304688,1.3471708297729492
1789635120461171200,8.946171142578125,-0.6921290159225464,0.9659855961799622,1.4292031526565552
1789635120471211300,8.956211181640626,-0.6967955231666565,0.9106874465942383,1.5213160514831543
1789635120481251300,8.966251220703125,-0.6779587268829346,0.9927652478218079,1.6307799816131592
1789635120491290400,8.976290283203125,-0.6039319634437561,1.2149971723556519,1.7219123840332031
1789635120501330400,8.986330322265625,-0.4787769317626953,1.3290313482284546,1.7628800868988037
1789635120511370200,8.996370361328125,-0.36560362577438354,1.4163622856140137,1.785697102546692
1789635120521409300,9.0064091796875,-0.2675420641899109,1.5278451442718506,1.8231302499771118
1789635120531449300,9.016449462890625,-0.17821820080280304,1.4519989490509033,1.8783468008041382
1789635120541489400,9.026489501953124,-0.1389605551958084,1.0665045976638794,1.9769484996795654
1789635120551528200,9.036528076171875,-0.13753481209278107,0.8319737911224365,2.0961380004882812
1789635120561568300,9.046568359375,-0.22097909450531006,1.0178016424179077,2.1912341117858887
1789635120571608300,9.0566083984375,-0.33572348952293396,1.1899842023849487,2.113584280014038
1789635120581647000,9.066647216796875,-0.3367232382297516,0.8969637751579285,1.8613543510437012
1789635120591687200,9.076687255859374,-0.25456708669662476,0.5664013624191284,1.6607357263565063
1789635120601727200,9.086727294921875,-0.16495493054389954,0.5809690952301025,1.6801241636276245
1789635120611766300,9.096766357421876,-0.11229456216096878,0.6056995987892151,1.7890106439590454
1789635120621806300,9.106806396484375,-0.1531762182712555,0.6242210865020752,1.8921515941619873
1789635120631846100,9.11684619140625,-0.250255823135376,0.6993637084960938,1.9747891426086426
1789635120641885200,9.12688525390625,-0.30981209874153137,0.8009651899337769,2.0107486248016357
1789635120651925200,9.13692529296875,-0.2867029309272766,0.8377662897109985,2.003570318222046
1789635120661965300,9.14696533203125,-0.21733452379703522,0.7694578170776367,1.962152123451233
1789635120672004000,9.157004150390625,-0.15473507344722748,0.6831337809562683,1.8895379304885864
1789635120682044200,9.167044189453126,-0.11314394325017929,0.4691644608974457,1.8113818168640137
1789635120692084200,9.177084228515625,-0.04498712718486786,0.18127885460853577,1.7105417251586914
1789635120702123300,9.187123291015626,-0.013156494125723839,0.06865058839321136,1.640559434890747
1789635120712163300,9.197163330078125,-0.02672056294977665,0.25720635056495667,1.6344568729400635
1789635120722203100,9.207203125,-0.11001785099506378,0.5034720301628113,1.7033507823944092
1789635120732242400,9.217242431640624,-0.21592724323272705,0.6396471261978149,1.8114686012268066
1789635120742282200,9.2272822265625,-0.25249749422073364,0.5915645956993103,1.8595788478851318
1789635120752322300,9.237322265625,-0.20969684422016144,0.5098621845245361,1.820717692375183
1789635120762361300,9.247361328125,-0.10686314105987549,0.556187629699707,1.7527685165405273
1789635120772401400,9.2574013671875,-0.026319926604628563,0.6998119354248047,1.636781096458435
1789635120782440200,9.267440185546874,-0.02358272857964039,0.6742008328437805,1.4857186079025269
1789635120792480300,9.277480224609375,-0.13692587614059448,0.5360363721847534,1.2951598167419434
1789635120802520300,9.287520263671874,-0.25259149074554443,0.39401480555534363,1.1642982959747314
1789635120812559400,9.297559326171875,-0.1974017322063446,0.4455016851425171,1.1329357624053955
1789635120822599200,9.30759912109375,-0.13941939175128937,0.6905492544174194,1.101569652557373
1789635120832639200,9.31763916015625,-0.14332358539104462,0.8806885480880737,1.0710679292678833
1789635120842678300,9.32767822265625,-0.08992427587509155,0.9130595326423645,1.026694893836975
1789635120852718300,9.33771826171875,0.005337968003004789,0.7763642072677612,0.9427259564399719
1789635120862758100,9.347758056640625,0.08495849370956421,0.4656001627445221,0.785519540309906
1789635120872797200,9.357797119140624,0.11097558587789536,0.10731901228427887,0.6070716977119446
1789635120882837200,9.367837158203125,0.05763992667198181,-0.1828313171863556,0.4593074917793274
1789635120892877300,9.377877197265626,-0.012964506633579731,-0.227189838886261,0.3039342164993286
1789635120902915800,9.387915771484375,-0.06559789180755615,-0.14790301024913788,0.20401668548583984
1789635120912955600,9.39795556640625,-0.09181904792785645,0.00511139165610075,0.19471290707588196
1789635120922995700,9.40799560546875,-0.051377080380916595,0.14298084378242493,0.2417224943637848
1789635120933034800,9.41803466796875,-0.019937263801693916,0.21146060526371002,0.28786957263946533
1789635120943074800,9.42807470703125,-0.059830084443092346,0.48065185546875,0.22653084993362427
1789635120953114600,9.438114501953125,-0.027476802468299866,0.5838627219200134,0.13879257440567017
1789635120963154000,9.44815380859375,0.0038494279142469168,0.37667277455329895,0.03226986527442932
1789635120973194000,9.458194091796875,-0.04828011989593506,0.008168124593794346,-0.1020154282450676
1789635120983233800,9.46823388671875,-0.10846303403377533,-0.3147425651550293,-0.20928461849689484
1789635120993272800,9.47827294921875,-0.09743715822696686,-0.3951714336872101,-0.25950655341148376
1789635121003313000,9.48831298828125,-0.07214245200157166,-0.3383118808269501,-0.29173800349235535
1789635121013353000,9.49835302734375,-0.05115530639886856,-0.18107514083385468,-0.34794682264328003
1789635121023391700,9.508391845703125,-0.04721542447805405,0.05590438097715378,-0.44802284240722656
1789635121033431800,9.518431884765626,-0.015351828187704086,0.3629727065563202,-0.5371684432029724
1789635121043472000,9.528471923828125,0.037794213742017746,0.37595507502555847,-0.5718739628791809
1789635121053510700,9.5385107421875,0.04294852912425995,0.12773971259593964,-0.6215251684188843
1789635121063550700,9.54855078125,0.020042413845658302,-0.127165287733078,-0.742814302444458
1789635121073589800,9.55858984375,0.03800787031650543,-0.2178143709897995,-0.853600025177002
1789635121083629800,9.5686298828125,0.06580141931772232,-0.18528252840042114,-0.8543720245361328
1789635121093669600,9.578669677734375,0.09857067465782166,-0.21247324347496033,-0.7341293096542358
1789635121103708700,9.588708740234376,0.1363060623407364,-0.24849489331245422,-0.643115758895874
1789635121113748700,9.598748779296875,0.1313829869031906,-0.2678234875202179,-0.6671866178512573
1789635121123788800,9.608788818359375,0.12401987612247467,-0.1972193568944931,-0.7169011235237122
1789635121133827600,9.61882763671875,0.14662258327007294,-0.1276034712791443,-0.7184674143791199
1789635121143867600,9.62886767578125,0.19694648683071136,-0.2724325656890869,-0.6859683394432068
1789635121153907700,9.63890771484375,0.1796305775642395,-0.4900229573249817,-0.6626750230789185
1789635121163946800,9.64894677734375,0.11476155370473862,-0.4246029555797577,-0.7178924679756165
1789635121173986600,9.658986572265626,0.02815457619726658,-0.06507698446512222,-0.8363170623779297
1789635121184026600,9.669026611328125,0.06315144151449203,0.029925696551799774,-0.9062349200248718
1789635121194066000,9.67906591796875,0.16243188083171844,-0.12266746163368225,-0.9695639610290527
1789635121204105700,9.689105712890624,0.23160456120967865,-0.21140186488628387,-1.0341720581054688
1789635121214145500,9.6991455078125,0.2746778428554535,-0.20756812393665314,-1.0923006534576416
1789635121224184800,9.709184814453126,0.30115073919296265,-0.26062893867492676,-1.130159616470337
1789635121234225000,9.719224853515625,0.3178066909313202,-0.40802201628685,-1.1466714143753052
1789635121244265000,9.729264892578126,0.3345326781272888,-0.5462536811828613,-1.1869603395462036
1789635121254303700,9.7393037109375,0.3522377014160156,-0.46544820070266724,-1.2576922178268433
1789635121264343800,9.74934375,0.3003430962562561,-0.3240700364112854,-1.2672780752182007
1789635121274384000,9.7593837890625,0.28126564621925354,-0.40203675627708435,-1.2238961458206177
1789635121284423000,9.7694228515625,0.35184553265571594,-0.5865866541862488,-1.2085400819778442
1789635121294462700,9.779462646484374,0.3711952567100525,-0.6757135987281799,-1.2451258897781372
1789635121304502800,9.789502685546875,0.37547868490219116,-0.8380388617515564,-1.2797213792800903
1789635121314541800,9.799541748046876,0.35580191016197205,-1.068774700164795,-1.2275121212005615
1789635121324582000,9.809581787109375,0.3267795741558075,-1.276888132095337,-1.122713327407837
1789635121334621700,9.81962158203125,0.32288363575935364,-1.2291014194488525,-1.1009176969528198
1789635121344660700,9.82966064453125,0.33364787697792053,-0.8869411945343018,-1.2064704895019531
1789635121354700800,9.83970068359375,0.2846648097038269,-0.89878249168396,-1.272742748260498
1789635121364740900,9.849740966796874,0.32903042435646057,-1.140505313873291,-1.3449116945266724
1789635121374779600,9.859779541015625,0.4059135317802429,-1.267667293548584,-1.4153498411178589
1789635121384819700,9.86981982421875,0.4470388889312744,-1.4396814107894897,-1.4739444255828857
1789635121394859800,9.87985986328125,0.46141576766967773,-1.7359576225280762,-1.4121747016906738
1789635121404898800,9.88989892578125,0.45326197147369385,-1.8693476915359497,-1.281914472579956
1789635121414938600,9.899938720703124,0.4509781002998352,-1.5418404340744019,-1.2206979990005493
1789635121424977700,9.909977783203125,0.49116039276123047,-1.1333274841308594,-1.2550396919250488
1789635121435017700,9.920017822265624,0.48907458782196045,-0.9528568983078003,-1.2779591083526611
1789635121445057800,9.930057861328125,0.45015889406204224,-1.0560030937194824,-1.2995011806488037
1789635121455096800,9.940096923828126,0.49880537390708923,-1.257388949394226,-1.3363598585128784
1789635121465136600,9.95013671875,0.5487199425697327,-1.4193369150161743,-1.3422586917877197
1789635121475176700,9.9601767578125,0.5291898250579834,-1.3831194639205933,-1.3256462812423706
1789635121485215700,9.9702158203125,0.4860130548477173,-1.2042200565338135,-1.2840356826782227
1789635121495255800,9.980255859375,0.45069849491119385,-0.8523926138877869,-1.2728228569030762
1789635121505296000,9.9902958984375,0.42902863025665283,-0.6292056441307068,-1.3204561471939087
1789635121515335000,10.0003349609375,0.42871204018592834,-0.8176953196525574,-1.3903590440750122
1789635121525374700,10.010374755859376,0.40581417083740234,-1.1585309505462646,-1.4034793376922607
1789635121535414800,10.020414794921875,0.3161090612411499,-1.3025141954421997,-1.3678630590438843
1789635121545453800,10.030453857421875,0.27828097343444824,-1.0504494905471802,-1.3478150367736816
1789635121555494000,10.040493896484374,0.2507005035877228,-0.7566888332366943,-1.3422465324401855
1789635121565534000,10.050533935546875,0.24532568454742432,-0.725479245185852,-1.3876891136169434
1789635121575572700,10.06057275390625,0.21946826577186584,-0.8344628810882568,-1.4743242263793945
1789635121585612800,10.07061279296875,0.19562312960624695,-0.8559367656707764,-1.5594288110733032
1789635121595652900,10.08065283203125,0.1828543245792389,-0.7155274152755737,-1.6160962581634521
1789635121605691600,10.090691650390625,0.16044995188713074,-0.5396420955657959,-1.622136116027832
1789635121615731700,10.100731689453125,0.0760047435760498,-0.31670352816581726,-1.5375686883926392
1789635121625771800,10.110771728515624,0.00407889299094677,-0.06964340060949326,-1.4691808223724365
1789635121635810800,10.120810791015625,-0.00018602842465043068,0.11754590272903442,-1.4404374361038208
1789635121645850600,10.1308505859375,-0.0115438774228096,0.22199347615242004,-1.397228717803955
1789635121655890700,10.140890625,-0.03428853303194046,0.21274320781230927,-1.2648684978485107
1789635121665929700,10.1509296875,-0.06376492977142334,0.2455568164587021,-1.0859324932098389
1789635121675969800,10.1609697265625,-0.12616084516048431,0.34844398498535156,-0.9249224066734314
1789635121686008600,10.171008544921875,-0.15826471149921417,0.36207377910614014,-0.8059840202331543
1789635121696048600,10.181048583984374,-0.19079773128032684,0.35207486152648926,-0.6938601732254028
1789635121706088700,10.191088623046875,-0.17529520392417908,0.43003225326538086,-0.5591412782669067
1789635121716128000,10.2011279296875,-0.12523747980594635,0.31391844153404236,-0.4550967812538147
1789635121726167600,10.21116748046875,-0.08628396689891815,0.14340664446353912,-0.33315330743789673
1789635121736207600,10.22120751953125,-0.0771576464176178,0.2276044636964798,-0.16660979390144348
1789635121746247000,10.231246826171875,-0.070689357817173,0.3554207384586334,-1.9738508854061365e-05
1789635121756287000,10.241286865234375,-0.07797619700431824,0.26867812871932983,0.12038455158472061
1789635121766326800,10.251326904296874,-0.10606295615434647,0.15705783665180206,0.21451929211616516
1789635121776365800,10.26136572265625,-0.13667233288288116,0.21562460064888,0.27228519320487976
1789635121786406000,10.271406005859374,-0.08721823245286942,0.4701104164123535,0.2618109881877899
1789635121796446000,10.281446044921875,0.033338312059640884,0.7082741260528564,0.19564415514469147
1789635121806484700,10.291484619140626,0.17409835755825043,0.7323269844055176,0.11952834576368332
1789635121816524800,10.30152490234375,0.11898017674684525,0.28602468967437744,0.15039794147014618
1789635121826564900,10.31156494140625,-0.14421150088310242,0.08901762217283249,0.3656407296657562
1789635121836604000,10.32160400390625,-0.36110591888427734,0.6788648366928101,0.7094839811325073
1789635121846643700,10.331643798828125,-0.43336305022239685,1.2090754508972168,0.9956310987472534
1789635121856683800,10.341683837890624,-0.3003079891204834,1.109749436378479,1.0724965333938599
1789635121866722800,10.351722900390625,-0.21128596365451813,0.7104570269584656,1.136738657951355
1789635121876763000,10.361762939453126,-0.22809959948062897,0.7874236106872559,1.2902967929840088
1789635121886802700,10.371802734375,-0.25735387206077576,1.2137024402618408,1.403693675994873
1789635121896842500,10.381842529296875,-0.2534877359867096,1.3933393955230713,1.3845173120498657
1789635121906882300,10.39188232421875,-0.24016369879245758,1.238237977027893,1.4149649143218994
1789635121916922400,10.40192236328125,-0.2612649202346802,1.2236151695251465,1.6683156490325928
1789635121926961400,10.41196142578125,-0.2729436755180359,1.2978359460830688,2.0063812732696533
1789635121937001500,10.42200146484375,-0.23646721243858337,1.2067233324050903,2.1783313751220703
1789635121947041300,10.432041259765626,-0.17042161524295807,1.0573102235794067,2.1256263256073
1789635121957080300,10.442080322265625,-0.06918567419052124,0.9935593605041504,1.9904537200927734
1789635121967120400,10.452120361328125,0.020289350301027298,1.0662087202072144,1.935524344444275
1789635121977160400,10.462160400390625,0.025219431146979332,1.2516404390335083,1.9815043210983276
1789635121987199200,10.47219921875,-0.022641301155090332,1.2907540798187256,2.0774834156036377
1789635121997239300,10.4822392578125,-0.08437634259462357,1.1274172067642212,2.2163164615631104
1789635122007279400,10.492279296875,-0.12287978827953339,0.9606255292892456,2.4016947746276855
1789635122017318400,10.502318359375,-0.1007024496793747,0.9025604128837585,2.5246734619140625
1789635122027358200,10.512358154296875,-0.02425241842865944,0.8319429755210876,2.437126636505127
1789635122037398300,10.522398193359376,0.09167858958244324,0.5449647903442383,2.1220180988311768
1789635122047437300,10.532437255859374,0.11716770380735397,0.2595948278903961,1.8370925188064575
1789635122057477400,10.542477294921875,0.05589325353503227,0.35823479294776917,1.8164026737213135
1789635122067516400,10.552516357421876,-0.015372402034699917,0.6109040379524231,1.906914472579956
1789635122077556500,10.562556396484375,-0.06546726077795029,0.741087794303894,1.9504659175872803
1789635122087596500,10.572596435546876,-0.20263683795928955,0.7234664559364319,1.976861596107483
1789635122097635600,10.582635498046875,-0.29231590032577515,0.6116839051246643,2.0245866775512695
1789635122107675400,10.59267529296875,-0.25664418935775757,0.5489054918289185,2.1029441356658936
1789635122117715500,10.602715576171875,-0.23341065645217896,0.6661325097084045,2.138363838195801
1789635122127754500,10.61275439453125,-0.22603370249271393,0.7069990038871765,2.075404644012451
1789635122137794600,10.622794677734374,-0.21729980409145355,0.5453190803527832,1.9444515705108643
1789635122147834400,10.63283447265625,-0.19870881736278534,0.2117810696363449,1.8289167881011963
1789635122157873400,10.642873291015626,-0.22106193006038666,0.13437898457050323,1.7796523571014404
1789635122167913500,10.65291357421875,-0.32949039340019226,0.4524232745170593,1.8138161897659302
1789635122177953500,10.66295361328125,-0.49448588490486145,0.9005512595176697,1.927435040473938
1789635122187992300,10.672992431640624,-0.5699740052223206,1.196556806564331,2.0292859077453613
1789635122198032400,10.683032470703125,-0.4584401845932007,1.1520220041275024,2.045229196548462
1789635122208072400,10.693072509765624,-0.27519312500953674,0.801173746585846,1.946131944656372
1789635122218111200,10.703111328125,-0.24441640079021454,0.4971500039100647,1.7034157514572144
1789635122228151300,10.7131513671875,-0.28125858306884766,0.40261414647102356,1.4384618997573853
1789635122238191400,10.72319140625,-0.2664109766483307,0.4783300757408142,1.2523658275604248
1789635122248230400,10.73323046875,-0.2619059681892395,0.5161589980125427,1.1207606792449951
1789635122258270500,10.7432705078125,-0.24713361263275146,0.45886608958244324,1.010588526725769
1789635122268310300,10.753310302734375,-0.17133577167987823,0.4105302393436432,0.9333975911140442
1789635122278349300,10.763349365234374,-0.13413196802139282,0.5579935908317566,0.8311354517936707
1789635122288389400,10.773389404296875,-0.07828522473573685,0.7522919774055481,0.7321577072143555
1789635122298429400,10.783429443359376,0.02594977430999279,0.7525710463523865,0.6891591548919678
1789635122308468200,10.79346826171875,0.04326964169740677,0.5220770835876465,0.6354029774665833
1789635122318508300,10.80350830078125,-0.057479146867990494,0.17025937139987946,0.5121042132377625
1789635122328548400,10.81354833984375,-0.11529957503080368,-0.28893378376960754,0.3589566946029663
1789635122338587400,10.82358740234375,-0.1614459604024887,-0.6873012185096741,0.21135836839675903
1789635122348627500,10.83362744140625,-0.2186988741159439,-0.8067160248756409,0.08076547086238861
1789635122358666500,10.84366650390625,-0.1494935154914856,-0.6395986080169678,-0.005981849040836096
1789635122368706600,10.85370654296875,-0.05225885286927223,-0.12289024889469147,-0.1446518450975418
1789635122378746600,10.86374658203125,-0.030620569363236427,0.5936712622642517,-0.361978143453598
1789635122388785400,10.873785400390625,0.04970169812440872,1.0525155067443848,-0.5958702564239502
1789635122398825500,10.883825439453124,0.16663765907287598,1.1007393598556519,-0.8023852109909058
1789635122408865500,10.893865478515625,0.2424730360507965,0.8861014246940613,-0.9960779547691345
1789635122418904300,10.903904296875,0.24671566486358643,0.5144176483154297,-1.1456079483032227
1789635122428944400,10.9139443359375,0.2334536463022232,0.010404572822153568,-1.1577895879745483
1789635122438984400,10.923984375,0.20142565667629242,-0.3207639157772064,-1.1217354536056519
1789635122449023500,10.9340234375,0.208068385720253,-0.2982428967952728,-1.0426185131072998
1789635122459063300,10.944063232421875,0.2297927737236023,-0.2673022747039795,-0.9082067608833313
1789635122469103400,10.954103271484374,0.23118481040000916,-0.28343144059181213,-0.8585572242736816
1789635122479142400,10.964142333984375,0.22307565808296204,-0.2525695860385895,-0.9481881856918335
1789635122489182500,10.974182373046874,0.2141237109899521,-0.04713013768196106,-1.0368866920471191
1789635122499222300,10.98422216796875,0.20391353964805603,0.1725848764181137,-1.0175180435180664
1789635122509261300,10.99426123046875,0.2446279525756836,0.0906577855348587,-0.9087860584259033
1789635122519301400,11.00430126953125,0.26072564721107483,-0.22125433385372162,-0.7834246158599854
1789635122529341400,11.014341552734376,0.2195422649383545,-0.43553388118743896,-0.6162739992141724
1789635122539380200,11.024380126953124,0.19937974214553833,-0.5690719485282898,-0.456954687833786
1789635122549420300,11.034420166015625,0.18424846231937408,-0.6064643263816833,-0.43053320050239563
1789635122559460400,11.04446044921875,0.12169979512691498,-0.5295045375823975,-0.5596547722816467
1789635122569499400,11.05449951171875,0.05948914960026741,-0.4287422299385071,-0.7663326263427734
1789635122579539200,11.064539306640626,-0.02629612572491169,-0.41513943672180176,-0.9814979434013367
1789635122589579300,11.074579345703125,-0.08969959616661072,-0.5068041086196899,-1.1257270574569702
1789635122599618600,11.08461865234375,-0.06975678354501724,-0.5680647492408752,-1.1263235807418823
1789635122609658400,11.094658447265624,0.00986534170806408,-0.48955056071281433,-1.03617525100708
1789635122619698200,11.1046982421875,0.12580369412899017,-0.3799019753932953,-1.040355920791626
1789635122629737500,11.114737548828124,0.21393249928951263,-0.3482438921928406,-1.1391997337341309
1789635122639777500,11.124777587890625,0.27309778332710266,-0.3054792582988739,-1.2813128232955933
1789635122649817300,11.1348173828125,0.317790150642395,-0.2690429389476776,-1.3864762783050537
1789635122659856400,11.1448564453125,0.3217376470565796,-0.408016175031662,-1.411831259727478
1789635122669896400,11.154896484375,0.2969220280647278,-0.6538299322128296,-1.360798716545105
1789635122679935500,11.164935546875,0.2643018960952759,-0.8282960653305054,-1.3035081624984741
1789635122689975600,11.1749755859375,0.24922199547290802,-0.8788481950759888,-1.2800291776657104
1789635122700015400,11.185015380859374,0.2114168405532837,-0.8723872900009155,-1.3024253845214844
1789635122710054400,11.195054443359375,0.16939055919647217,-0.8970274329185486,-1.3107938766479492
1789635122720094500,11.205094482421876,0.1709609180688858,-1.0126850605010986,-1.2517173290252686
1789635122730134500,11.215134521484375,0.18571962416172028,-1.0830724239349365,-1.2313646078109741
1789635122740173300,11.22517333984375,0.18485063314437866,-1.1509244441986084,-1.2584017515182495
1789635122750213400,11.23521337890625,0.17077316343784332,-1.2698569297790527,-1.2865527868270874
1789635122760253400,11.24525341796875,0.17372876405715942,-1.5404337644577026,-1.3591508865356445
1789635122770292200,11.255292236328126,0.20517511665821075,-1.8144257068634033,-1.5806281566619873
1789635122780332300,11.265332275390625,0.2864084839820862,-1.8346118927001953,-1.7785564661026
1789635122790372400,11.275372314453126,0.36261242628097534,-1.4669348001480103,-1.8629761934280396
1789635122800411400,11.285411376953125,0.3501562476158142,-1.2168220281600952,-1.8476473093032837
1789635122810451500,11.295451416015625,0.31054091453552246,-1.1650171279907227,-1.7619978189468384
1789635122820491300,11.3054912109375,0.31007859110832214,-1.2456748485565186,-1.6398087739944458
1789635122830530300,11.3155302734375,0.35288572311401367,-1.249292016029358,-1.509035587310791
1789635122840570400,11.3255703125,0.399747371673584,-1.1333633661270142,-1.4290732145309448
1789635122850610400,11.3356103515625,0.4579624831676483,-0.9416311383247375,-1.4516855478286743
1789635122860649500,11.3456494140625,0.5344275832176208,-0.9608391523361206,-1.5620554685592651
1789635122870689300,11.355689208984375,0.5976201295852661,-1.1043204069137573,-1.6411879062652588
1789635122880729300,11.365729248046875,0.61356520652771,-1.3410037755966187,-1.6681705713272095
1789635122890768400,11.375768310546874,0.576511561870575,-1.4771058559417725,-1.651694655418396
1789635122900808000,11.385807861328125,0.5170018076896667,-1.3169994354248047,-1.559797763824463
1789635122910847700,11.39584765625,0.43274685740470886,-1.11381196975708,-1.4102314710617065
1789635122920886800,11.40588671875,0.3680012822151184,-1.0953872203826904,-1.2866265773773193
1789635122930926800,11.4159267578125,0.2942884564399719,-1.0879292488098145,-1.26543128490448
1789635122940967000,11.425966796875,0.2530706822872162,-0.9063650369644165,-1.3498787879943848
1789635122951005700,11.436005615234375,0.32341939210891724,-0.7602461576461792,-1.4646031856536865
1789635122961045800,11.446045654296874,0.4558567404747009,-0.8021746277809143,-1.5685622692108154
1789635122971085800,11.4560859375,0.527288019657135,-0.6605708599090576,-1.653610110282898
1789635122981124900,11.466124755859376,0.5514385104179382,-0.626588761806488,-1.604601502418518
1789635122991164700,11.47616455078125,0.5217088460922241,-0.6693061590194702,-1.4653629064559937
1789635123001203700,11.48620361328125,0.3282238841056824,-0.41494661569595337,-1.2392128705978394
1789635123011243800,11.496243896484375,0.13613326847553253,-0.03319685533642769,-1.0750243663787842
1789635123021283800,11.506283935546875,0.0673404112458229,0.22716498374938965,-1.052854299545288
1789635123031322600,11.516322509765626,0.007310630287975073,0.08978954702615738,-1.0044784545898438
1789635123041362700,11.52636279296875,-0.03599156439304352,-0.10364431142807007,-0.8417253494262695
1789635123051402800,11.53640283203125,-0.0995955765247345,0.004053392447531223,-0.6453526616096497
1789635123061441500,11.546441650390625,-0.13437838852405548,0.19060561060905457,-0.5580624938011169
1789635123071481600,11.556481689453125,-0.12402881681919098,0.18170425295829773,-0.481967955827713
1789635123081521700,11.566521728515625,-0.19144976139068604,0.14631038904190063,-0.37745213508605957
1789635123091561000,11.57656103515625,-0.22897982597351074,0.22331009805202484,-0.33152857422828674
1789635123101600800,11.586600830078124,-0.23523668944835663,0.2027778923511505,-0.3051760792732239
1789635123111640600,11.596640625,-0.3583810031414032,0.06364636868238449,-0.1364632248878479
1789635123121680000,11.606679931640626,-0.41449427604675293,0.005674264393746853,0.07187207043170929
1789635123131720000,11.616719970703125,-0.320045530796051,0.09480813890695572,0.11735353618860245
1789635123141760000,11.626760009765626,-0.16443635523319244,0.42508795857429504,0.059999655932188034
1789635123151798800,11.636798828125,-0.1438107043504715,0.5034706592559814,0.12001346051692963
1789635123161838800,11.6468388671875,-0.14699257910251617,0.5580153465270996,0.2974402904510498
1789635123171879000,11.65687890625,-0.10686326771974564,0.7056293487548828,0.47406405210494995
1789635123181917700,11.666917724609375,-0.11532776057720184,0.690813422203064,0.6153202652931213
1789635123191957800,11.676957763671876,-0.21593719720840454,0.5445992350578308,0.7401074171066284
1789635123201997800,11.686997802734375,-0.3291507363319397,0.6102195382118225,0.841137170791626
1789635123212036900,11.697036865234375,-0.366710364818573,0.9437799453735352,0.922642707824707
1789635123222076700,11.70707666015625,-0.3395780622959137,0.9811155796051025,0.9485960006713867
1789635123232116700,11.71711669921875,-0.32472455501556396,0.8060569763183594,0.9228547215461731
1789635123242155800,11.72715576171875,-0.32725751399993896,0.8209988474845886,0.9358845949172974
1789635123252195800,11.73719580078125,-0.3190150260925293,1.0853831768035889,1.0164326429367065
1789635123262236000,11.74723583984375,-0.2665840983390808,1.2977124452590942,1.116569995880127
1789635123272274700,11.757274658203125,-0.2423831820487976,1.1617871522903442,1.2053592205047607
1789635123282314800,11.767314697265626,-0.2652081251144409,0.8767638206481934,1.426110029220581
1789635123292354800,11.777354736328125,-0.3949282765388489,0.9168252348899841,1.8128572702407837
1789635123302393600,11.7873935546875,-0.5182822346687317,1.1599094867706299,2.1012208461761475
1789635123312433700,11.79743359375,-0.5089846253395081,1.2826311588287354,2.0918056964874268
1789635123322473700,11.8074736328125,-0.3943626880645752,1.1487598419189453,1.9824039936065674
1789635123332512800,11.8175126953125,-0.30400350689888,1.0067816972732544,2.023979425430298
1789635123342552600,11.827552490234375,-0.25032341480255127,0.9782612323760986,2.1569323539733887
1789635123352592000,11.837591796875,-0.21250732243061066,1.0481960773468018,2.243570327758789
1789635123362631700,11.847631591796874,-0.17664584517478943,1.1098569631576538,2.265571355819702
1789635123372671700,11.857671630859375,-0.1564692109823227,1.2167967557907104,2.3022372722625732
1789635123382711600,11.867711669921874,-0.15964901447296143,1.2682708501815796,2.3082213401794434
1789635123392750800,11.877750732421875,-0.14292782545089722,1.1687980890274048,2.2603940963745117
1789635123402791000,11.887791015625,-0.12453334778547287,0.9129806756973267,2.2682762145996094
1789635123412830000,11.897829833984375,-0.17452114820480347,0.757836103439331,2.4331307411193848
1789635123422869800,11.907869873046875,-0.3425050377845764,0.8392130136489868,2.6518943309783936
1789635123432909800,11.917909912109375,-0.5349040627479553,0.914955198764801,2.734437942504883
1789635123442948900,11.927948974609375,-0.6468415260314941,0.8074848651885986,2.626014471054077
1789635123452989000,11.937989013671874,-0.6997018456459045,0.681786835193634,2.4296112060546875
1789635123463028700,11.94802880859375,-0.6706802248954773,0.5628015995025635,2.2751643657684326
1789635123473067800,11.95806787109375,-0.5706774592399597,0.4040258526802063,2.2343735694885254
1789635123483107800,11.96810791015625,-0.5248417258262634,0.28006377816200256,2.25901198387146
1789635123493148000,11.97814794921875,-0.5688384771347046,0.32122480869293213,2.3054747581481934
1789635123503186700,11.988186767578124,-0.648362398147583,0.45190927386283875,2.34233021736145
1789635123513226800,11.998226806640625,-0.7044523358345032,0.5837133526802063,2.3393216133117676
1789635123523266800,12.008266845703124,-0.7057421207427979,0.6846002340316772,2.285590648651123
1789635123533305900,12.018305908203125,-0.6120806336402893,0.6732082962989807,2.1706464290618896
1789635123543345700,12.028345703125,-0.4378528594970703,0.606375515460968,2.0190460681915283
1789635123553385700,12.0383857421875,-0.262734055519104,0.7290668487548828,1.8546879291534424
1789635123563424800,12.0484248046875,-0.08249012380838394,1.0350992679595947,1.713127851486206
1789635123573464800,12.05846484375,0.11770741641521454,1.2055926322937012,1.5964769124984741
1789635123583504600,12.068504638671875,0.2560320198535919,1.1128361225128174,1.4615627527236938
1789635123593543700,12.078543701171874,0.2613130807876587,0.9952859282493591,1.2852524518966675
1789635123603583700,12.088583740234375,0.21694326400756836,0.9966495633125305,1.0498625040054321
1789635123613623800,12.098623779296876,0.13503187894821167,0.925488293170929,0.7831098437309265
1789635123623662600,12.10866259765625,-0.05335494503378868,0.7243945598602295,0.4568890631198883
1789635123633702700,12.11870263671875,-0.15387383103370667,0.5046462416648865,0.17260725796222687
1789635123643742700,12.12874267578125,-0.04728548228740692,0.14014144241809845,0.006476310547441244
1789635123653781800,12.13878173828125,-0.06485728174448013,-0.0948343276977539,-0.1773395985364914
1789635123663821800,12.14882177734375,-0.11809451878070831,-0.07212439179420471,-0.3984695374965668
1789635123673861600,12.158861572265625,-0.04534681886434555,0.015658989548683167,-0.5082631707191467
1789635123683901000,12.16890087890625,0.021414371207356453,0.0856039822101593,-0.5398032665252686
1789635123693941000,12.17894091796875,0.07711758464574814,0.2237117886543274,-0.5759183764457703
1789635123703980800,12.188980712890626,0.22738580405712128,0.4855339527130127,-0.5899214744567871
1789635123714019800,12.199019775390624,0.3316464424133301,0.8888625502586365,-0.6119511723518372
1789635123724060000,12.209059814453125,0.3986701965332031,1.1408913135528564,-0.6499714851379395
1789635123734100000,12.219099853515624,0.42826324701309204,0.8960397243499756,-0.6386799812316895
1789635123744138800,12.229138671875,0.3950149118900299,0.2637544870376587,-0.6391997337341309
1789635123754178800,12.2391787109375,0.42753130197525024,-0.4688166677951813,-0.5764732360839844
1789635123764217900,12.2492177734375,0.4406762421131134,-1.0123591423034668,-0.43188920617103577
1789635123774257700,12.259257568359375,0.3672473132610321,-1.1119779348373413,-0.30362337827682495
1789635123784297700,12.269297607421874,0.319425106048584,-0.9945105910301208,-0.13467848300933838
1789635123794336800,12.279336669921875,0.2424810379743576,-0.6381703019142151,0.0007147700525820255
1789635123804376800,12.289376953125,0.16430221498012543,-0.056474942713975906,-0.061506692320108414
1789635123814416600,12.299416748046875,0.061646413058042526,0.517703652381897,-0.3879351317882538
1789635123824455700,12.30945556640625,-0.04160177707672119,0.7458606958389282,-0.7942687273025513
1789635123834495700,12.319495849609375,-0.10787028074264526,0.758716881275177,-1.1497173309326172
1789635123844535800,12.329535888671876,-0.07739755511283875,0.6866335272789001,-1.4120155572891235
1789635123854574600,12.33957470703125,0.01788156107068062,0.5601282715797424,-1.5505948066711426
1789635123864614700,12.34961474609375,0.15075628459453583,0.3495710492134094,-1.5211645364761353
1789635123874654700,12.35965478515625,0.25626567006111145,0.05785026401281357,-1.3692623376846313
1789635123884693800,12.36969384765625,0.3307691216468811,-0.37407413125038147,-1.190126895904541
1789635123894733600,12.379733642578126,0.38815227150917053,-0.8078604936599731,-1.0304656028747559
1789635123904774100,12.389774169921875,0.36357802152633667,-0.9030983448028564,-0.8676626086235046
1789635123914813000,12.39981298828125,0.2310066819190979,-0.6899506449699402,-0.7593252062797546
1789635123924853000,12.40985302734375,0.1512230634689331,-0.5440222024917603,-0.7738781571388245
1789635123934893000,12.41989306640625,0.18109361827373505,-0.5504612326622009,-0.8465398550033569
1789635123944932000,12.42993212890625,0.25140881538391113,-0.6187468767166138,-0.9753879308700562
1789635123954972000,12.439971923828125,0.2950194180011749,-0.7800944447517395,-1.0814635753631592
1789635123965012000,12.450011962890626,0.2789827585220337,-0.9236661791801453,-1.1397838592529297
1789635123975051300,12.46005126953125,0.2279198169708252,-0.9339297413825989,-1.1648300886154175
1789635123985091300,12.47009130859375,0.1545810103416443,-0.9023556709289551,-1.197576642036438
1789635123995131100,12.480131103515625,0.09560530632734299,-1.0669665336608887,-1.2292296886444092
1789635124005170200,12.490170166015625,0.0633823573589325,-1.288011074066162,-1.2393759489059448
1789635124015210200,12.500210205078124,0.08459017425775528,-1.2526406049728394,-1.2675689458847046
