time,seconds_elapsed,z,y,x
1789635377646317800,0.05231787109375,-1.111122727394104,-0.11196701228618622,1.0240466594696045
1789635377656356900,0.06235693359375,-1.2249451875686646,-0.016752082854509354,1.0348089933395386
1789635377666397000,0.07239697265625,-1.335355520248413,0.18014873564243317,0.9689562916755676
1789635377676437000,0.08243701171875,-1.4147907495498657,0.46475276350975037,0.767939567565918
1789635377686475800,0.092475830078125,-1.3959465026855469,0.8070592284202576,0.4365176558494568
1789635377696515800,0.102515869140625,-1.190471887588501,1.0577402114868164,0.08086369186639786
1789635377706556000,0.112555908203125,-0.8684054017066956,0.9977796673774719,-0.18568331003189087
1789635377716594700,0.1225947265625,-0.607068657875061,0.4325335621833801,-0.41306746006011963
1789635377726634800,0.132634765625,-0.4959908425807953,-0.35954856872558594,-0.5012287497520447
1789635377736673800,0.142673828125,-0.44080162048339844,-0.9884452819824219,-0.3702017664909363
1789635377746713900,0.1527138671875,-0.19777406752109528,-1.5951032638549805,-0.134677916765213
1789635377756753700,0.162753662109375,0.26103025674819946,-2.2528915405273438,0.030908914282917976
1789635377766793700,0.172793701171875,0.5035065412521362,-2.8371152877807617,0.07724205404520035
1789635377776832800,0.182832763671875,0.5720645785331726,-3.263636827468872,0.16476711630821228
1789635377786872800,0.192872802734375,0.7568514943122864,-3.629507064819336,0.29116979241371155
1789635377796911600,0.20291162109375,1.0674594640731812,-3.827333450317383,0.37710654735565186
1789635377806951700,0.21295166015625,1.3899799585342407,-3.7668118476867676,0.3844432830810547
1789635377816991700,0.22299169921875,1.6124763488769531,-3.48691463470459,0.2669893503189087
1789635377827030800,0.23303076171875,1.6319198608398438,-3.1829471588134766,0.014493455179035664
1789635377837070600,0.243070556640625,1.4772948026657104,-3.2507758140563965,-0.23087716102600098
1789635377847110700,0.253110595703125,1.4393384456634521,-3.4481759071350098,-0.2467075139284134
1789635377857150000,0.26314990234375,1.4554479122161865,-3.6194100379943848,-0.09715717285871506
1789635377867189800,0.273189697265625,1.458687663078308,-3.84076189994812,0.16904520988464355
1789635377877229600,0.2832294921875,1.4953652620315552,-4.187588691711426,0.5258738994598389
1789635377887268900,0.293268798828125,1.646555781364441,-4.736656665802002,0.9730748534202576
1789635377897309000,0.303308837890625,2.021103858947754,-5.452507019042969,1.5079742670059204
1789635377907349000,0.313348876953125,2.5764763355255127,-6.192995548248291,2.068272829055786
1789635377917387800,0.3233876953125,3.071484327316284,-6.86714506149292,2.5595316886901855
1789635377927427800,0.333427734375,3.4750864505767822,-7.414700508117676,2.991877555847168
1789635377937468000,0.343468017578125,3.849252939224243,-7.6608757972717285,3.420412302017212
1789635377947507000,0.3535068359375,4.11580753326416,-7.637850761413574,3.8311121463775635
1789635377957546800,0.363546630859375,4.134260177612305,-7.652300834655762,4.158441543579102
1789635377967586800,0.3735869140625,3.8742945194244385,-7.607466697692871,4.357517719268799
1789635377977625900,0.3836259765625,3.5496997833251953,-7.342380046844482,4.39360237121582
1789635377987666000,0.393666015625,3.3766260147094727,-7.012231826782227,4.280719757080078
1789635377997705700,0.403705810546875,3.359405994415283,-6.579507350921631,4.052717685699463
1789635378007744800,0.413744873046875,3.3789703845977783,-5.908249378204346,3.717603921890259
1789635378017784800,0.423784912109375,3.3452723026275635,-5.044313430786133,3.386420249938965
1789635378027825000,0.433824951171875,3.177762985229492,-4.140924453735352,3.098221778869629
1789635378037863700,0.44386376953125,2.8379955291748047,-3.0754408836364746,2.641507625579834
1789635378047903700,0.45390380859375,2.4448659420013428,-2.2959892749786377,2.2501096725463867
1789635378057943800,0.46394384765625,2.1022255420684814,-1.7009263038635254,1.9278987646102905
1789635378067982600,0.473982666015625,1.8995387554168701,-1.2201623916625977,1.7822710275650024
1789635378078022700,0.484022705078125,1.8157410621643066,-0.9977322816848755,1.8084203004837036
1789635378088062700,0.494062744140625,1.756661295890808,-0.9354332089424133,1.9918053150177002
1789635378098101800,0.504101806640625,1.5982025861740112,-0.8037832975387573,2.257321357727051
1789635378108141800,0.514141845703125,1.4009087085723877,-0.5861707925796509,2.5059964656829834
1789635378118181600,0.524181640625,1.3626435995101929,-0.20452624559402466,2.671600580215454
1789635378128220700,0.534220703125,1.3343499898910522,-0.0454242080450058,2.81282377243042
1789635378138260700,0.5442607421875,1.1846438646316528,-0.34054774045944214,3.0025832653045654
1789635378148301300,0.55430126953125,1.1050227880477905,-1.0162737369537354,3.2034666538238525
1789635378158340400,0.56434033203125,1.1414092779159546,-1.5743862390518188,3.309689521789551
1789635378168380400,0.57438037109375,1.1758314371109009,-1.640026569366455,3.340384006500244
1789635378178420500,0.58442041015625,1.0932276248931885,-0.8236214518547058,2.4058492183685303
1789635378188459500,0.59445947265625,0.9516081809997559,-1.953040361404419,0.2186575084924698
1789635378198499300,0.604499267578125,1.2377821207046509,-2.9762346744537354,-1.647762417793274
1789635378208538600,0.61453857421875,1.408864974975586,-1.1638927459716797,-1.7077698707580566
1789635378218578700,0.62457861328125,1.2298758029937744,0.25049692392349243,-0.9628344774246216
1789635378228618500,0.634618408203125,1.3524839878082275,0.333356112241745,-0.5769320130348206
1789635378238658300,0.644658203125,1.9379642009735107,0.03503388538956642,-0.2432379573583603
1789635378248697600,0.654697509765625,2.928443670272827,-0.39964166283607483,0.10441561788320541
1789635378258737700,0.664737548828125,3.869823455810547,-1.066654086112976,0.3846137225627899
1789635378268776400,0.6747763671875,4.691157341003418,-1.466915488243103,0.48115330934524536
1789635378278816500,0.68481640625,5.663259983062744,-1.4192368984222412,0.5735852122306824
1789635378288856600,0.694856689453125,6.6067399978637695,-0.43252238631248474,0.6573227643966675
1789635378298895400,0.704895263671875,7.208249092102051,0.12198502570390701,1.1147148609161377
1789635378308935400,0.714935302734375,6.553470611572266,-0.32740288972854614,0.9977932572364807
1789635378318975500,0.7249755859375,4.9400248527526855,0.2761934995651245,0.9579470157623291
1789635378329014500,0.7350146484375,3.6729841232299805,1.05112886428833,0.42533957958221436
1789635378339054300,0.745054443359375,3.204491376876831,1.4064781665802002,-0.25439685583114624
1789635378349094400,0.755094482421875,3.0516116619110107,1.3649643659591675,-0.6110292673110962
1789635378359133400,0.765133544921875,3.1306862831115723,0.5814599394798279,-0.6364235877990723
1789635378369173500,0.775173583984375,3.148428201675415,-0.2681928277015686,-0.41449758410453796
1789635378379213600,0.785213623046875,3.1115987300872803,-0.941658079624176,-0.2715739905834198
1789635378389252400,0.79525244140625,2.798396110534668,-1.2706780433654785,-0.12146864086389542
1789635378399292400,0.80529248046875,2.0488948822021484,-1.7023303508758545,0.0517880953848362
1789635378409332500,0.81533251953125,1.0226091146469116,-1.4612972736358643,0.19154493510723114
1789635378419371300,0.825371337890625,0.2134542167186737,-1.306191325187683,-0.029339512810111046
1789635378429411300,0.835411376953125,-0.732978880405426,-1.313847303390503,-0.42939770221710205
1789635378439451400,0.845451416015625,-1.4835284948349,-1.2424194812774658,-0.1921774297952652
1789635378449490400,0.855490478515625,-1.361946940422058,-0.6086726784706116,0.08544379472732544
1789635378459530200,0.8655302734375,0.27697116136550903,-0.267336368560791,0.2044876217842102
1789635378469570300,0.8755703125,1.9157276153564453,0.9714332818984985,-0.24137774109840393
1789635378479609600,0.885609619140625,2.3250632286071777,0.4008648693561554,-0.6865485310554504
1789635378489649400,0.8956494140625,1.859565258026123,-0.7023269534111023,-0.3375396728515625
1789635378499689200,0.905689208984375,1.4566431045532227,-0.6917955279350281,-0.05337240919470787
1789635378509728500,0.915728515625,1.080635905265808,-0.8559596538543701,-0.02959757298231125
1789635378519768600,0.9257685546875,0.6497942805290222,-1.2543102502822876,0.050996072590351105
1789635378529808600,0.93580859375,0.36339497566223145,-1.577954888343811,0.381131649017334
1789635378539847400,0.945847412109375,0.22739773988723755,-1.4715301990509033,0.5888124108314514
1789635378549887500,0.955887451171875,0.6505324840545654,-0.8364160656929016,-0.02021392434835434
1789635378559927600,0.965927490234375,1.1653790473937988,-0.36741235852241516,-0.7749798893928528
1789635378569966600,0.975966552734375,1.5228532552719116,-0.04174984246492386,-1.0009491443634033
1789635378580006400,0.98600634765625,1.9609179496765137,0.7270128726959229,-1.2803524732589722
1789635378590046500,0.99604638671875,2.5920662879943848,1.2280539274215698,-1.7347745895385742
1789635378600085500,1.00608544921875,3.0881900787353516,1.1741315126419067,-1.7654366493225098
1789635378610125600,1.01612548828125,2.9806065559387207,-0.19970592856407166,-0.5883199572563171
1789635378620165400,1.026165283203125,2.6984663009643555,-0.39736175537109375,0.30093348026275635
1789635378630204400,1.036204345703125,2.1633243560791016,0.0632878914475441,0.2171642780303955
1789635378640244500,1.046244384765625,1.415453553199768,-0.00720571493729949,-0.08606298267841339
1789635378650284500,1.056284423828125,0.6568319201469421,-0.17608341574668884,-0.19264161586761475
1789635378660323300,1.0663232421875,0.08580092340707779,-0.18140468001365662,-0.21944260597229004
1789635378670363400,1.07636328125,-0.01050244178622961,-0.2199813723564148,-0.22685924172401428
1789635378680403500,1.086403564453125,0.03189907595515251,0.11556121706962585,-0.46321266889572144
1789635378690442500,1.0964423828125,-0.11565469205379486,-0.20528098940849304,-0.31693029403686523
1789635378700482300,1.106482421875,-0.15747138857841492,-0.5221558809280396,0.09207852929830551
1789635378710522400,1.1165224609375,-0.2416408509016037,-0.40278393030166626,0.1639668345451355
1789635378720561400,1.1265615234375,-0.46114683151245117,-0.3401477336883545,0.050154514610767365
1789635378730601500,1.1366015625,-0.5198469161987305,-0.5401950478553772,-0.12641200423240662
1789635378740641300,1.146641357421875,-0.41171032190322876,-0.7262932658195496,-0.21335196495056152
1789635378750680300,1.156680419921875,-0.24784362316131592,-0.7494302988052368,-0.2998357117176056
1789635378760720400,1.166720458984375,0.05427762120962143,-0.6934381127357483,-0.20373262465000153
1789635378770760400,1.176760498046875,0.37575364112854004,-0.5567625761032104,-0.12969088554382324
1789635378780799500,1.186799560546875,0.5320969223976135,-0.4119635820388794,-0.18356849253177643
1789635378790839600,1.196839599609375,0.5347297191619873,-0.24591335654258728,-0.16236627101898193
1789635378800879400,1.20687939453125,0.4073379337787628,-0.11740412563085556,-0.04701225087046623
1789635378810918700,1.216918701171875,0.15698455274105072,-0.1750975102186203,0.030072148889303207
1789635378820958500,1.22695849609375,-0.12082122266292572,-0.36257341504096985,0.006374009884893894
1789635378830998500,1.23699853515625,-0.8187057971954346,-0.45401090383529663,-0.11883796751499176
1789635378841037600,1.24703759765625,-1.2438684701919556,-0.659224271774292,-0.31223565340042114
1789635378851077600,1.25707763671875,-1.118003487586975,-0.6610032320022583,-0.4426237642765045
1789635378861117400,1.267117431640625,-1.50502347946167,-0.45590999722480774,-0.4138546884059906
1789635378871156500,1.277156494140625,-1.6257407665252686,-0.34236133098602295,-0.015840481966733932
1789635378881196500,1.287196533203125,-1.1537638902664185,-0.9591044187545776,0.10863300412893295
1789635378891236600,1.297236572265625,-1.0246645212173462,-1.300227165222168,0.2510457932949066
1789635378901275400,1.307275390625,-1.0455906391143799,-1.587891936302185,0.6405230164527893
1789635378911315500,1.3173154296875,-1.4128447771072388,-1.771267056465149,0.0979800894856453
1789635378921354500,1.3273544921875,-1.1769757270812988,-2.1231441497802734,-0.36973944306373596
1789635378931394600,1.33739453125,-0.8271586298942566,-2.1133205890655518,-0.4309931993484497
1789635378941434400,1.347434326171875,-1.1980557441711426,-1.4424521923065186,-1.0656859874725342
1789635378951473400,1.357473388671875,-1.1370757818222046,-1.4011287689208984,-1.534761667251587
1789635378961513500,1.367513427734375,-0.5864080786705017,-1.6669678688049316,-1.870552659034729
1789635378971553500,1.377553466796875,-0.49540841579437256,-2.0065200328826904,-2.4059646129608154
1789635378981592300,1.38759228515625,0.25494998693466187,-2.9766132831573486,-2.323411703109741
1789635378991632400,1.39763232421875,-0.08981537073850632,-4.049117565155029,-2.1210110187530518
1789635379001672400,1.40767236328125,-0.1042555645108223,-3.7225115299224854,-2.7338318824768066
1789635379011711200,1.417711181640625,-0.41733837127685547,-2.6560866832733154,-2.392496347427368
1789635379021751300,1.427751220703125,-0.4050598740577698,-1.2940055131912231,-1.0097777843475342
1789635379031791400,1.437791259765625,-0.2683928310871124,-1.6739511489868164,-0.8687668442726135
1789635379041830700,1.44783056640625,0.3673660159111023,-2.5265533924102783,-0.875917375087738
1789635379051870500,1.457870361328125,0.7845898866653442,-1.8594398498535156,-0.4658169746398926
1789635379061910300,1.46791015625,0.698300302028656,-0.8312535285949707,-0.5428051948547363
1789635379071949600,1.477949462890625,0.46701300144195557,0.2016923725605011,-0.6659777760505676
1789635379081989600,1.48798974609375,0.46972036361694336,0.892132580280304,-0.7502998113632202
1789635379092029700,1.49802978515625,0.4836486876010895,0.426341712474823,-0.6490544080734253
1789635379102068500,1.508068359375,0.5591879487037659,-0.232503280043602,-0.572718620300293
1789635379112108500,1.518108642578125,0.5715125203132629,-0.5859140753746033,-0.49963563680648804
1789635379122148600,1.528148681640625,0.44519931077957153,-0.793433427810669,-0.3565980792045593
1789635379132187400,1.5381875,0.24433304369449615,-0.7187901139259338,-0.16257266700267792
1789635379142227500,1.5482275390625,0.10290853679180145,-0.36653992533683777,-0.06722404062747955
1789635379152267500,1.558267578125,0.09177625924348831,-0.06526076048612595,-0.10763218998908997
1789635379162306600,1.568306640625,0.07455546408891678,-0.08894984424114227,-0.12401089072227478
1789635379172346600,1.5783466796875,0.09024414420127869,-0.3394923210144043,-0.04433736950159073
1789635379182386700,1.58838671875,0.12253151088953018,-0.5528855323791504,-0.01555339340120554
1789635379192425500,1.598425537109375,0.2104720175266266,-0.6766610145568848,-0.0625523254275322
1789635379202465500,1.608465576171875,0.3305259943008423,-0.7899308800697327,-0.09375312179327011
1789635379212505600,1.618505615234375,0.4637519419193268,-0.9519085884094238,-0.12579494714736938
1789635379222544400,1.62854443359375,0.6341109275817871,-0.9998838305473328,-0.1985892504453659
1789635379232584400,1.63858447265625,0.8136122226715088,-0.9949596524238586,-0.2673446238040924
1789635379242624500,1.64862451171875,0.9511783123016357,-0.925297737121582,-0.32531869411468506
1789635379252663600,1.65866357421875,1.0662643909454346,-0.774232029914856,-0.3345138132572174
1789635379262703600,1.66870361328125,1.193745732307434,-0.40030959248542786,-0.4782411456108093
1789635379272743400,1.678743408203125,1.1078001260757446,-0.12669989466667175,-0.4611146152019501
1789635379282782500,1.688782470703125,0.961979329586029,-0.09135042130947113,-0.29532086849212646
1789635379292822500,1.698822509765625,0.8090608716011047,0.04885862022638321,-0.16638311743736267
1789635379302862600,1.708862548828125,0.6072736978530884,0.3389231860637665,-0.12144360691308975
1789635379312901400,1.7189013671875,0.44347649812698364,0.23695528507232666,-0.18228672444820404
1789635379322941400,1.72894140625,0.5261953473091125,0.2779812812805176,-0.15139351785182953
1789635379332981500,1.7389814453125,0.6364294290542603,0.34568044543266296,-0.23471955955028534
1789635379343020500,1.7490205078125,0.7933927178382874,0.7235633134841919,-0.36671167612075806
1789635379353060600,1.759060546875,0.9711251258850098,1.0436952114105225,-0.45459386706352234
1789635379363100400,1.769100341796875,1.1474841833114624,1.0489749908447266,-0.4001045227050781
1789635379373139700,1.7791396484375,1.1977460384368896,0.8574129343032837,-0.2698701024055481
1789635379383179500,1.789179443359375,1.0820682048797607,0.631283700466156,-0.1986992508172989
1789635379393219600,1.799219482421875,0.8724744915962219,0.5209729075431824,-0.20311982929706573
1789635379403258600,1.809258544921875,0.8633052110671997,0.3110598623752594,-0.14654229581356049
1789635379413298700,1.819298583984375,0.8617051839828491,0.2589527368545532,-0.011986888013780117
1789635379423338800,1.8293388671875,0.8557407855987549,0.14745549857616425,0.058946140110492706
1789635379433377500,1.83937744140625,0.7994521856307983,0.11597001552581787,0.12956757843494415
1789635379443417600,1.84941748046875,0.6669460535049438,-0.019100990146398544,0.1345314383506775
1789635379453457700,1.859457763671875,0.5445218682289124,-0.26119378209114075,0.09332036226987839
1789635379463496400,1.869496337890625,0.4467167854309082,-0.3493207097053528,0.07585454732179642
1789635379473536500,1.87953662109375,0.40490832924842834,-0.39700034260749817,0.07180202007293701
1789635379483576600,1.88957666015625,0.3674997091293335,-0.4801170825958252,0.04583699628710747
1789635379493615600,1.89961572265625,0.36345943808555603,-0.48686686158180237,0.029103290289640427
1789635379503655400,1.909655517578125,0.36108627915382385,-0.5722461938858032,-0.00878097489476204
1789635379513695500,1.919695556640625,0.38571521639823914,-0.6868931651115417,-0.07055512815713882
1789635379523734500,1.929734619140625,0.39845043420791626,-0.8399444818496704,-0.08758603781461716
1789635379533774600,1.939774658203125,0.37307822704315186,-0.9658611416816711,-0.08782652765512466
1789635379543814700,1.949814697265625,0.3291773498058319,-1.0625879764556885,-0.08298170566558838
1789635379553853400,1.959853515625,0.2573348581790924,-1.133249282836914,-0.10397593677043915
1789635379563893500,1.9698935546875,0.1935548186302185,-1.1669514179229736,-0.10490377992391586
1789635379573933600,1.97993359375,0.15310512483119965,-1.0918928384780884,-0.04833583906292915
1789635379583972400,1.989972412109375,0.09280823171138763,-0.8447693586349487,0.024649687111377716
1789635379594012400,2.000012451171875,0.07543323934078217,-0.7368221282958984,0.0712779089808464
1789635379604052500,2.010052490234375,0.10269681364297867,-0.6610602140426636,0.1035037562251091
1789635379614091500,2.020091552734375,0.13186109066009521,-0.46950918436050415,0.16514848172664642
1789635379624131300,2.03013134765625,0.03476756811141968,-0.3616650104522705,0.2451903223991394
1789635379634171400,2.04017138671875,-0.11033636331558228,-0.4816795587539673,0.3222067952156067
1789635379644210700,2.050210693359375,-0.26295387744903564,-0.5141416192054749,0.3040461838245392
1789635379654250500,2.06025048828125,-0.6618402600288391,-0.25201547145843506,0.26473870873451233
1789635379664290300,2.070290283203125,-1.0453433990478516,-0.2268398106098175,-0.08744382858276367
1789635379674329600,2.08032958984375,-0.469901442527771,-0.1151401698589325,-0.4376694858074188
1789635379684369700,2.09036962890625,0.17363837361335754,-0.32422521710395813,-0.4957285225391388
1789635379694409700,2.10040966796875,0.22515295445919037,-0.5464425683021545,-0.24570830166339874
1789635379704448500,2.110448486328125,0.19736340641975403,-0.4125257730484009,0.16425418853759766
1789635379714488600,2.120488525390625,0.182905375957489,-0.18300683796405792,0.30469971895217896
1789635379724528600,2.130528564453125,-0.03647918254137039,-0.18478822708129883,0.02936987206339836
1789635379734567700,2.140567626953125,-0.05800604447722435,-0.05674850195646286,-0.2833944261074066
1789635379744607500,2.150607421875,0.2553074061870575,-0.12759923934936523,-0.4790797829627991
1789635379754647600,2.1606474609375,0.2261790782213211,-0.5687012672424316,-0.38462305068969727
1789635379764686600,2.1706865234375,0.2620435953140259,-0.46486008167266846,-0.07651261985301971
1789635379774726700,2.1807265625,0.33877646923065186,-0.49089035391807556,-0.06591403484344482
1789635379784766500,2.190766357421875,0.3183310925960541,-0.48104891180992126,-0.17041674256324768
1789635379794805500,2.200805419921875,0.2543063163757324,-0.4298571050167084,-0.24926069378852844
1789635379804845600,2.210845458984375,0.17354676127433777,-0.38890540599823,-0.17999772727489471
1789635379814885600,2.2208857421875,0.1668315976858139,-0.3611270487308502,-0.05758446827530861
1789635379824924400,2.23092431640625,0.16114015877246857,-0.3579759895801544,0.014904913492500782
1789635379834964500,2.240964599609375,0.09937239438295364,-0.2450222671031952,-0.08944226801395416
1789635379845004500,2.251004638671875,0.08360274881124496,-0.40035513043403625,-0.18766842782497406
1789635379855043600,2.261043701171875,0.07775551825761795,-0.5791387557983398,-0.21884340047836304
1789635379865083400,2.27108349609375,0.09411131590604782,-0.5551705360412598,-0.2332279235124588
1789635379875123500,2.28112353515625,0.10272184759378433,-0.42120447754859924,-0.11492045968770981
1789635379885162500,2.29116259765625,0.13078837096691132,-0.28726932406425476,0.12378931790590286
1789635379895202600,2.30120263671875,0.18686389923095703,-0.16465818881988525,0.2481088787317276
1789635379905242400,2.311242431640625,0.2759951055049896,-0.17590445280075073,0.27333301305770874
1789635379915281400,2.321281494140625,0.3383711278438568,-0.2870679795742035,0.2678849697113037
1789635379925321500,2.331321533203125,0.3855961561203003,-0.3711138963699341,0.30231085419654846
1789635379935361500,2.341361572265625,0.40737709403038025,-0.4172012209892273,0.3625454306602478
1789635379945400600,2.351400634765625,0.40539810061454773,-0.4188598394393921,0.3786724805831909
1789635379955440600,2.361440673828125,0.43589261174201965,-0.2938569188117981,0.34390145540237427
1789635379965480400,2.37148046875,0.49535220861434937,-0.40651315450668335,0.2769455909729004
1789635379975519700,2.381519775390625,0.5391673445701599,-0.6173141002655029,0.22372257709503174
1789635379985559600,2.3915595703125,0.5974013805389404,-0.6404950022697449,0.17625892162322998
1789635379995599600,2.401599609375,0.6672017574310303,-0.6075549125671387,0.21394024789333344
1789635380005638700,2.411638671875,0.7224663496017456,-0.5885101556777954,0.3091173768043518
1789635380015678700,2.4216787109375,0.7433053255081177,-0.5397508144378662,0.3441168963909149
1789635380025718500,2.431718505859375,0.7106336355209351,-0.5805286169052124,0.2802385687828064
1789635380035757600,2.441757568359375,0.6440495252609253,-0.6829689741134644,0.13734933733940125
1789635380045797600,2.451797607421875,0.5966109037399292,-0.8007968068122864,-0.0012650014832615852
1789635380055837700,2.461837646484375,0.5441639423370361,-1.0152068138122559,-0.10071516036987305
1789635380065876500,2.47187646484375,0.5381574630737305,-0.8907576203346252,-0.16818714141845703
1789635380075916500,2.48191650390625,0.5286737084388733,-0.604835569858551,-0.28150489926338196
1789635380085956600,2.49195654296875,0.5095958709716797,-0.7238525152206421,-0.35191357135772705
1789635380095995400,2.501995361328125,0.493286669254303,-1.0342886447906494,-0.43927910923957825
1789635380106035500,2.512035400390625,0.46349388360977173,-0.9674044251441956,-0.5481006503105164
1789635380116075500,2.522075439453125,0.4287169873714447,-0.7758153080940247,-0.6184856295585632
1789635380126114600,2.532114501953125,0.38950541615486145,-0.7006379961967468,-0.6709003448486328
1789635380136154600,2.542154541015625,0.3423147201538086,-0.6015385985374451,-0.7519747018814087
1789635380146194400,2.5521943359375,0.31545090675354004,-0.5333973169326782,-0.8341473340988159
1789635380156233000,2.56223291015625,0.3127078413963318,-0.7208021283149719,-0.8504652976989746
1789635380166272800,2.572272705078125,0.27821722626686096,-0.9028393030166626,-0.8907826542854309
1789635380176312800,2.582312744140625,0.21734564006328583,-0.9689487814903259,-0.8588518500328064
1789635380186351900,2.592351806640625,0.14072676002979279,-0.9224697351455688,-0.5621797442436218
1789635380196392000,2.602391845703125,0.09242686629295349,-0.8854150176048279,-0.1351357102394104
1789635380206431700,2.612431640625,0.05609362944960594,-0.34264710545539856,0.160098597407341
1789635380216470800,2.622470703125,0.045473210513591766,0.1894405037164688,0.05796103924512863
1789635380226510800,2.6325107421875,0.07777389138936996,0.10339563339948654,-0.1392154097557068
1789635380236551000,2.642551025390625,0.1505626142024994,-0.15310406684875488,-0.18443481624126434
1789635380246590000,2.65258984375,0.18350458145141602,-0.2992599308490753,-0.24899516999721527
1789635380256630000,2.662630126953125,0.06902007758617401,-0.4137180745601654,-0.3079192042350769
1789635380266669800,2.672669921875,-0.04765060916543007,-0.3892931640148163,-0.2555406987667084
1789635380276710000,2.6827099609375,-0.09616222232580185,-0.40416187047958374,-0.1849975436925888
1789635380286749000,2.6927490234375,-0.08942442387342453,-0.5923075079917908,-0.13669419288635254
1789635380296789000,2.7027890625,-0.021984660997986794,-0.7240796685218811,-0.0995955690741539
1789635380306828800,2.712828857421875,0.08652716875076294,-0.8197710514068604,-0.14671353995800018
1789635380316867800,2.722867919921875,0.17748424410820007,-0.9385973215103149,-0.22360379993915558
1789635380326908000,2.732907958984375,0.16860978305339813,-1.0388975143432617,-0.34951460361480713
1789635380336948000,2.742947998046875,0.07448462396860123,-1.0801488161087036,-0.47203412652015686
1789635380346986800,2.75298681640625,-0.027657726779580116,-1.0031659603118896,-0.6141222715377808
1789635380357026800,2.76302685546875,-0.04837046191096306,-0.8654919266700745,-0.8794586062431335
1789635380367067000,2.77306689453125,-0.03996579349040985,-0.7422131299972534,-1.1356652975082397
1789635380377106000,2.78310595703125,-0.02779407985508442,-0.7841861248016357,-1.2505784034729004
1789635380387145700,2.793145751953125,-0.007426757365465164,-0.8677497506141663,-1.2952888011932373
1789635380397185800,2.803185791015625,0.05006183683872223,-0.9354398250579834,-1.3196884393692017
1789635380407224800,2.813224853515625,0.08389916270971298,-0.9930291175842285,-1.3504120111465454
1789635380417265000,2.823264892578125,0.06491614878177643,-0.9030643105506897,-1.4210883378982544
1789635380427304700,2.8333046875,0.023192936554551125,-0.7464584708213806,-1.5062005519866943
1789635380437343700,2.84334375,-0.01501170638948679,-0.6133835315704346,-1.4941582679748535
1789635380447383800,2.8533837890625,-0.013049222528934479,-0.5980660915374756,-1.4001684188842773
1789635380457424000,2.863423828125,-0.0004058657505083829,-0.5622409582138062,-1.3237519264221191
1789635380467462700,2.873462646484375,-0.017178453505039215,-0.41104212403297424,-1.1640375852584839
1789635380477502700,2.883502685546875,-0.010387660004198551,-0.21848547458648682,-0.8628466129302979
1789635380487542800,2.893542724609375,0.06569698452949524,-0.07805778086185455,-0.6168972849845886
1789635380497581800,2.903581787109375,0.23037542402744293,0.052977465093135834,-0.4498579800128937
1789635380507622000,2.913621826171875,0.39812713861465454,0.12548814713954926,-0.26417598128318787
1789635380517661700,2.92366162109375,0.5085777640342712,0.15330034494400024,-0.15282124280929565
1789635380527701000,2.933700927734375,0.5200290679931641,0.27215856313705444,-0.17892713844776154
1789635380537741000,2.943740966796875,0.45073866844177246,0.4031951427459717,-0.24947267770767212
1789635380547780900,2.95378076171875,0.36346662044525146,0.5824580788612366,-0.3487912714481354
1789635380557820000,2.96381982421875,0.30559319257736206,0.46614453196525574,-0.38537511229515076
1789635380567860000,2.97385986328125,0.29810041189193726,0.356669157743454,-0.20629830658435822
1789635380577900000,2.983900146484375,0.29112479090690613,0.29199323058128357,0.04321298375725746
1789635380587938800,2.993938720703125,0.28801289200782776,0.3501143455505371,0.19334949553012848
1789635380597979000,3.003978759765625,0.2781922221183777,0.3965049982070923,0.10699409246444702
1789635380608019000,3.01401904296875,0.21961864829063416,0.46555542945861816,-0.06868132948875427
1789635380618057700,3.0240576171875,0.10845350474119186,0.6946810483932495,-0.12925972044467926
1789635380628097800,3.034097900390625,-0.009443036280572414,0.9328190088272095,-0.1332446038722992
1789635380638137900,3.044137939453125,-0.10968468338251114,1.1268436908721924,-0.1355021744966507
1789635380648177000,3.054177001953125,-0.2176622897386551,1.3662554025650024,-0.00923104863613844
1789635380658217000,3.064217041015625,-0.30047541856765747,1.659846305847168,0.21584413945674896
1789635380668256800,3.0742568359375,-0.37413790822029114,1.8975656032562256,0.4605782628059387
1789635380678295800,3.0842958984375,-0.4480576813220978,2.0832958221435547,0.6899209022521973
1789635380688336000,3.0943359375,-0.5032258629798889,2.215388536453247,0.8270329236984253
1789635380698376000,3.1043759765625,-0.5463661551475525,2.384519577026367,0.7293479442596436
1789635380708414700,3.114414794921875,-0.5657052397727966,2.670452356338501,0.41638070344924927
1789635380718454800,3.124454833984375,-0.44235050678253174,2.8972768783569336,-0.09491213411092758
1789635380728494800,3.134494873046875,-0.2666391432285309,2.8859870433807373,-0.646678626537323
1789635380738533600,3.14453369140625,-0.3059585988521576,3.0199334621429443,-0.967067301273346
1789635380748573700,3.15457373046875,-0.3929363787174225,2.7638416290283203,-0.7937772870063782
1789635380758613800,3.16461376953125,-0.555076539516449,1.8778561353683472,-0.6016746759414673
1789635380768652800,3.17465283203125,-0.9703482985496521,1.6268457174301147,-0.17960891127586365
1789635380778692600,3.184692626953125,-1.2753229141235352,1.4832731485366821,0.4323101341724396
1789635380788732700,3.194732666015625,-1.150567889213562,1.1987982988357544,0.715719997882843
1789635380798772000,3.20477197265625,-0.7717779278755188,1.1328541040420532,0.8701063990592957
1789635380808811800,3.214811767578125,-0.5844914317131042,1.3118782043457031,1.1063657999038696
1789635380818851800,3.224851806640625,-0.6275773644447327,1.6180813312530518,1.3481080532073975
1789635380828891600,3.2348916015625,-0.6835317015647888,1.8653477430343628,1.526042103767395
1789635380838931000,3.244930908203125,-0.5713284611701965,1.9144335985183716,1.5623549222946167
1789635380848971000,3.254970947265625,-0.35090556740760803,1.892067790031433,1.5280715227127075
1789635380859009800,3.265009765625,-0.08893918991088867,1.735827922821045,1.4514049291610718
1789635380869049900,3.2750498046875,0.15322230756282806,1.538864254951477,1.4456101655960083
1789635380879090000,3.28508984375,0.3835867941379547,1.380983829498291,1.4575821161270142
1789635380889130000,3.2951298828125,0.6014214158058167,1.292763113975525,1.4672771692276
1789635380899168800,3.305168701171875,0.7723801136016846,1.298284649848938,1.4583117961883545
1789635380909208800,3.315208740234375,0.8152692317962646,1.3513697385787964,1.4087141752243042
1789635380919249000,3.325248779296875,0.773248553276062,1.3443807363510132,1.377483606338501
1789635380929288000,3.335287841796875,0.7452486157417297,1.3077260255813599,1.3088440895080566
1789635380939327700,3.34532763671875,0.7482132315635681,1.2189905643463135,1.2166086435317993
1789635380949367800,3.355367919921875,0.7322534322738647,1.0447090864181519,1.15171217918396
1789635380959406800,3.36540673828125,0.6864076852798462,0.8334431648254395,1.0978798866271973
1789635380969447000,3.375447021484375,0.6048909425735474,0.6649260520935059,1.0077226161956787
1789635380979487000,3.385487060546875,0.5186561942100525,0.5736667513847351,0.938229501247406
1789635380989525800,3.39552587890625,0.47274571657180786,0.5434781908988953,0.8271903395652771
1789635380999565800,3.40556591796875,0.3864787220954895,0.5837774276733398,0.7200407385826111
1789635381009606000,3.41560595703125,0.2888360619544983,0.5528237819671631,0.68718421459198
1789635381019644700,3.425644775390625,0.16012069582939148,0.5891761779785156,0.7898845076560974
1789635381029684700,3.435684814453125,-0.012679842300713062,0.6472852826118469,0.9289073944091797
1789635381039724800,3.445724853515625,-0.21361401677131653,0.7143620848655701,1.0386279821395874
1789635381049763800,3.455763916015625,-0.37194639444351196,0.7342787981033325,1.1200072765350342
1789635381059803600,3.4658037109375,-0.45286840200424194,0.7736948728561401,1.1642591953277588
1789635381069843700,3.47584375,-0.5203017592430115,0.8612399101257324,1.2053743600845337
1789635381079882800,3.4858828125,-0.6317428350448608,0.9300666451454163,1.2565374374389648
1789635381089922800,3.4959228515625,-0.7496142983436584,0.7992729544639587,1.2760376930236816
1789635381099963000,3.505962890625,-0.7657451033592224,0.5251580476760864,1.267883062362671
1789635381110002000,3.516001953125,-0.6949105858802795,0.3039817214012146,1.23821222782135
1789635381120041700,3.526041748046875,-0.6231014132499695,0.22876287996768951,1.2036092281341553
1789635381130081800,3.536081787109375,-0.594235897064209,0.16037902235984802,1.1943893432617188
1789635381140120800,3.546120849609375,-0.5633578896522522,0.0781019926071167,1.2387778759002686
1789635381150161400,3.556161376953125,-0.4899694323539734,0.050998203456401825,1.3145275115966797
1789635381160201200,3.566201171875,-0.3790631592273712,0.10767213255167007,1.3637725114822388
1789635381170240500,3.576240478515625,-0.23930686712265015,0.1375000774860382,1.3421775102615356
1789635381180280300,3.5862802734375,-0.12346708029508591,0.08067940175533295,1.2035964727401733
1789635381190320400,3.5963203125,-0.08530797064304352,-0.04268354922533035,1.0025835037231445
1789635381200359400,3.606359375,-0.10886096954345703,-0.1288653016090393,0.8322980403900146
1789635381210399500,3.6163994140625,-0.11291003972291946,-0.14249137043952942,0.7739995718002319
1789635381220439600,3.626439453125,-0.07337221503257751,-0.13520096242427826,0.7802172303199768
1789635381230478600,3.636478515625,0.028054270893335342,-0.12256639450788498,0.7724794149398804
1789635381240518400,3.646518310546875,0.17221836745738983,-0.04959338530898094,0.7539318203926086
1789635381250558500,3.656558349609375,0.32204967737197876,0.2664487361907959,0.7375398278236389
1789635381260597500,3.666597412109375,0.39919427037239075,0.45643386244773865,0.6672163605690002
1789635381270637600,3.676637451171875,0.4125843644142151,0.17131023108959198,0.5160194039344788
1789635381280677400,3.686677490234375,0.4382319450378418,-0.006773217581212521,0.42424795031547546
1789635381290716400,3.69671630859375,0.4249955117702484,0.02022644132375717,0.38942578434944153
1789635381300756500,3.706756591796875,0.3280990421772003,-0.1931963562965393,0.290871262550354
1789635381310796500,3.716796630859375,0.19998767971992493,-0.3229396939277649,0.1451800912618637
1789635381320835300,3.72683544921875,0.1583358496427536,0.08019284158945084,0.19835436344146729
1789635381330875400,3.73687548828125,0.22638733685016632,0.5812594294548035,0.43160200119018555
1789635381340915500,3.74691552734375,0.42058876156806946,0.6571978330612183,0.6059458255767822
1789635381350954500,3.75695458984375,0.6143497228622437,0.4660840928554535,0.6529468894004822
1789635381360994300,3.766994384765625,0.630987823009491,0.35029730200767517,0.698239803314209
1789635381371034400,3.777034423828125,0.5111335515975952,0.23253098130226135,0.7027413845062256
1789635381381073400,3.787073486328125,0.34439945220947266,-0.26256585121154785,0.5708869099617004
1789635381391113500,3.797113525390625,0.17798250913619995,-0.5854336619377136,0.4744970202445984
1789635381401153300,3.8071533203125,0.08189060539007187,0.09840060770511627,0.5330458283424377
1789635381411193300,3.817193359375,0.0678112730383873,1.023047685623169,0.6711608171463013
1789635381421232400,3.827232421875,0.15768496692180634,1.1492525339126587,0.7457769513130188
1789635381431272400,3.8372724609375,0.33441951870918274,0.7565966248512268,0.7184761166572571
1789635381441312300,3.847312255859375,0.48562848567962646,0.4641338586807251,0.644507884979248
1789635381451351300,3.857351318359375,0.47260457277297974,0.3738015592098236,0.626209020614624
1789635381461391400,3.867391357421875,0.31233420968055725,0.3448924124240875,0.6087658405303955
1789635381471431400,3.877431396484375,0.19937914609909058,0.29187658429145813,0.5494495630264282
1789635381481470500,3.887470458984375,0.17623920738697052,0.15519064664840698,0.504482626914978
1789635381491510300,3.89751025390625,0.19211778044700623,0.18629556894302368,0.5383846163749695
1789635381501550300,3.90755029296875,0.27206534147262573,0.29461511969566345,0.5996509194374084
1789635381511589600,3.917589599609375,0.3492671847343445,0.2814718782901764,0.6247738599777222
1789635381521629400,3.92762939453125,0.3512861132621765,0.24210478365421295,0.675745964050293
1789635381531669500,3.93766943359375,0.3031848967075348,0.3139302432537079,0.7842812538146973
1789635381541708500,3.94770849609375,0.23287320137023926,0.3980797231197357,0.8996049165725708
1789635381551748600,3.95774853515625,0.1515336036682129,0.5037432909011841,0.9336467385292053
1789635381561788400,3.967788330078125,0.1339476853609085,0.4675607979297638,0.8802567720413208
1789635381571827500,3.977827392578125,0.22792424261569977,0.1511405110359192,0.7341962456703186
1789635381581867500,3.987867431640625,0.32030344009399414,-0.18543989956378937,0.5909708738327026
1789635381591907600,3.997907470703125,0.30747607350349426,-0.1402125060558319,0.5117239952087402
1789635381601946400,4.0079462890625,0.12285401672124863,0.23186679184436798,0.45736730098724365
1789635381611986400,4.017986328125,-0.03483760729432106,0.5664977431297302,0.3833034336566925
1789635381622026500,4.028026611328125,-0.043478500097990036,0.6028235554695129,0.3193596303462982
1789635381632065500,4.0380654296875,-0.02009781077504158,0.5439708828926086,0.2605687379837036
1789635381642105300,4.048105224609375,0.06127107888460159,0.4951927065849304,0.19664914906024933
1789635381652145400,4.0581455078125,0.18559995293617249,0.18909402191638947,0.07295010983943939
1789635381662184400,4.068184326171875,0.2629035413265228,-0.05185680463910103,-0.04986928775906563
1789635381672224500,4.078224609375,0.22558411955833435,0.008584965951740742,-0.025724537670612335
1789635381682264300,4.088264404296875,0.10236605256795883,0.3398049771785736,0.11664006114006042
1789635381692303400,4.098303466796875,0.03723045811057091,0.7604624629020691,0.21020835638046265
1789635381702343400,4.108343505859375,0.12928742170333862,0.6904357075691223,0.23043639957904816
1789635381712383500,4.118383544921875,0.2564389705657959,0.21532057225704193,0.18231041729450226
1789635381722422300,4.12842236328125,0.26263561844825745,0.060393836349248886,0.10724922269582748
1789635381732462300,4.13846240234375,0.1448272317647934,0.3295459449291229,0.07568251341581345
1789635381742502400,4.14850244140625,0.020385166630148888,0.7516255378723145,0.0667494684457779
1789635381752541200,4.158541259765625,0.029046831652522087,0.7202543020248413,0.03338006138801575
1789635381762581200,4.168581298828125,0.0958210676908493,0.2387864738702774,-0.012771189212799072
1789635381772621300,4.178621337890625,0.09491772204637527,0.06055788695812225,-0.08480729907751083
1789635381782661400,4.188661376953125,0.0801856517791748,0.020298879593610764,-0.14705176651477814
1789635381792700400,4.198700439453125,0.025399100035429,-0.045823413878679276,-0.1984664797782898
1789635381802740200,4.208740234375,-0.10344010591506958,-0.010517622344195843,-0.2564629316329956
1789635381812780300,4.2187802734375,-0.17835749685764313,0.11683686822652817,-0.2969251573085785
1789635381822819600,4.228819580078125,-0.1984289288520813,0.30154120922088623,-0.30894240736961365
1789635381832859400,4.238859375,-0.1544542908668518,0.21783459186553955,-0.3061088025569916
1789635381842899200,4.248899169921875,-0.15296770632266998,-0.05176705867052078,-0.24632002413272858
1789635381852938500,4.2589384765625,-0.22195850312709808,-0.15481168031692505,-0.15897314250469208
1789635381862978600,4.268978515625,-0.2795046269893646,-0.18835286796092987,-0.06797105818986893
1789635381873018600,4.2790185546875,-0.31947386264801025,-0.2882815897464752,-0.015515576116740704
1789635381883057400,4.289057373046875,-0.37054771184921265,-0.38108450174331665,-0.02178385853767395
1789635381893097500,4.299097412109375,-0.4059392511844635,-0.39309534430503845,-0.02815760113298893
1789635381903137500,4.309137451171875,-0.45223990082740784,-0.2477155178785324,-0.05435565114021301
1789635381913176600,4.319176513671875,-0.4859699010848999,-0.11622727662324905,-0.12165479362010956
1789635381923216400,4.32921630859375,-0.48773425817489624,-0.02443397045135498,-0.21359564363956451
1789635381933256400,4.33925634765625,-0.446620911359787,-0.09501545876264572,-0.28864723443984985
1789635381943295500,4.34929541015625,-0.4290775954723358,-0.08105224370956421,-0.3517273962497711
1789635381953335600,4.35933544921875,-0.43985673785209656,0.10176417976617813,-0.3878784775733948
1789635381963375400,4.369375244140625,-0.397905558347702,0.2335967719554901,-0.4177035093307495
1789635381973414400,4.379414306640625,-0.32727372646331787,0.26314935088157654,-0.44109803438186646
1789635381983454500,4.389454345703125,-0.2392416149377823,0.20459096133708954,-0.44592902064323425
1789635381993494500,4.39949462890625,-0.12371634691953659,0.07035059481859207,-0.4302546977996826
1789635382003533300,4.409533203125,0.005538043566048145,-0.11326237767934799,-0.40882956981658936
1789635382013573400,4.419573486328125,0.08766140788793564,-0.32806843519210815,-0.4206162095069885
1789635382023613400,4.429613525390625,0.13396978378295898,-0.5677286982536316,-0.4634810984134674
1789635382033652200,4.43965234375,0.10162676125764847,-0.7767412662506104,-0.5304327011108398
1789635382043692300,4.4496923828125,-0.002442118711769581,-0.8211655020713806,-0.6222214698791504
1789635382053732400,4.459732421875,-0.12600374221801758,-0.6202302575111389,-0.683739423751831
1789635382063771400,4.469771484375,-0.22667309641838074,-0.3089868724346161,-0.6748133301734924
1789635382073811500,4.4798115234375,-0.307277649641037,-0.07750864326953888,-0.5773229598999023
1789635382083851300,4.489851318359375,-0.3416353762149811,0.01426495611667633,-0.40882956981658936
1789635382093890300,4.499890380859375,-0.3490525186061859,-0.004047738388180733,-0.23083481192588806
1789635382103930400,4.509930419921875,-0.3122386038303375,0.005573996342718601,-0.11009987443685532
1789635382113970400,4.519970458984375,-0.24668940901756287,-0.03820997104048729,-0.07706921547651291
1789635382124010200,4.53001025390625,-0.16605502367019653,-0.16882044076919556,-0.08851441740989685
1789635382134049500,4.540049560546875,-0.09757422655820847,-0.3027398884296417,-0.14663684368133545
1789635382144089300,4.55008935546875,-0.048345427960157394,-0.4548002779483795,-0.2509576678276062
1789635382154129700,4.560129638671875,-0.0507153756916523,-0.611111044883728,-0.36975622177124023
1789635382164168700,4.570168701171875,-0.07041850686073303,-0.6529684662818909,-0.4775495231151581
1789635382174208800,4.580208740234375,-0.07755125313997269,-0.5627549886703491,-0.5672008395195007
1789635382184248600,4.59024853515625,-0.08295400440692902,-0.3617888391017914,-0.6410391330718994
1789635382194287900,4.600287841796875,-0.04044755920767784,-0.1213916763663292,-0.7383790016174316
1789635382204327700,4.61032763671875,0.019107114523649216,-0.025008946657180786,-0.8399002552032471
1789635382214367700,4.62036767578125,0.08949659019708633,-0.09468496590852737,-0.9482347369194031
1789635382224406800,4.63040673828125,0.1062350943684578,-0.06889890879392624,-1.0191112756729126
1789635382234446800,4.64044677734375,0.0780591145157814,0.1416974812746048,-1.0395023822784424
1789635382244486700,4.650486572265625,0.02279932238161564,0.3236851096153259,-1.0055880546569824
1789635382254525700,4.660525634765625,-0.023187877610325813,0.3211788237094879,-0.9618187546730042
1789635382264565800,4.670565673828125,-0.06829383969306946,0.2609386444091797,-0.916256308555603
1789635382274605800,4.680605712890625,-0.09405512362718582,0.1581249237060547,-0.8931517601013184
1789635382284644600,4.69064453125,-0.08359503000974655,-0.09773295372724533,-0.8839228749275208
1789635382294684700,4.7006845703125,-0.045272406190633774,-0.43434587121009827,-0.8625459671020508
1789635382304724700,4.710724853515625,-0.03218243643641472,-0.55574631690979,-0.793645977973938
1789635382314763800,4.720763671875,-0.03912369906902313,-0.4182390570640564,-0.7354236841201782
1789635382324803600,4.730803466796875,-0.06124924123287201,-0.3192608058452606,-0.7294328808784485
1789635382334843600,4.74084375,-0.09138104319572449,-0.339219868183136,-0.765246570110321
1789635382344882700,4.750882568359375,-0.12433207035064697,-0.359910249710083,-0.831537663936615
1789635382354922800,4.7609228515625,-0.15960350632667542,-0.2810348570346832,-0.9051629304885864
1789635382364962600,4.770962646484375,-0.15987275540828705,-0.21935471892356873,-0.9138599634170532
1789635382375001600,4.781001708984375,-0.13009941577911377,-0.2641448378562927,-0.8432755470275879
1789635382385041700,4.791041748046875,-0.11391884833574295,-0.3559969961643219,-0.7267367243766785
1789635382395081700,4.801081787109375,-0.14857882261276245,-0.3898950219154358,-0.6415451169013977
1789635382405120500,4.81112060546875,-0.21577996015548706,-0.4435707926750183,-0.6172091364860535
1789635382415160600,4.82116064453125,-0.2800324559211731,-0.5871031880378723,-0.6254633665084839
1789635382425200600,4.83120068359375,-0.33837297558784485,-0.6089325547218323,-0.6384369134902954
1789635382435239700,4.84123974609375,-0.3851543366909027,-0.4623660445213318,-0.6147915124893188
1789635382445279500,4.851279541015625,-0.4148600399494171,-0.4478265047073364,-0.5851889252662659
1789635382455319600,4.861319580078125,-0.40828976035118103,-0.61178058385849,-0.5864139795303345
1789635382465359600,4.871359619140625,-0.3832126259803772,-0.6966805458068848,-0.6016885042190552
1789635382475398700,4.881398681640625,-0.35579031705856323,-0.5909903049468994,-0.6184616088867188
1789635382485438500,4.8914384765625,-0.2901569902896881,-0.466239869594574,-0.6688331961631775
1789635382495478500,4.901478515625,-0.2243976891040802,-0.45550787448883057,-0.7066676616668701
1789635382505517800,4.911517822265625,-0.19864784181118011,-0.5435426235198975,-0.7540689706802368
1789635382515558000,4.921557861328125,-0.24181289970874786,-0.6057119965553284,-0.8424355983734131
1789635382525597700,4.93159765625,-0.28229907155036926,-0.5920957922935486,-0.9462056756019592
1789635382535636700,4.94163671875,-0.25707414746284485,-0.5116733908653259,-0.9984233379364014
1789635382545676800,4.9516767578125,-0.2211744636297226,-0.4071219563484192,-0.9855267405509949
1789635382555716900,4.961716796875,-0.21236978471279144,-0.35498154163360596,-0.9299971461296082
1789635382565755600,4.971755615234375,-0.19762519001960754,-0.35476207733154297,-0.8718768358230591
1789635382575795700,4.981795654296875,-0.17723843455314636,-0.3596479296684265,-0.8171395659446716
1789635382585835800,4.991835693359375,-0.17214274406433105,-0.2968769371509552,-0.7701278328895569
1789635382595874800,5.001874755859375,-0.13949957489967346,-0.26294028759002686,-0.795228123664856
1789635382605914600,5.01191455078125,-0.07167338579893112,-0.2847664952278137,-0.8373343348503113
1789635382615954700,5.02195458984375,-0.011896340176463127,-0.3407953977584839,-0.9035314321517944
1789635382625993700,5.03199365234375,0.030284669250249863,-0.2521483600139618,-1.0038747787475586
1789635382636033800,5.04203369140625,0.10264941304922104,-0.06934738159179688,-1.085943579673767
1789635382646073600,5.052073486328125,0.17564666271209717,-0.20048250257968903,-1.0990610122680664
1789635382656112600,5.062112548828125,0.14828826487064362,-0.420023649930954,-1.0403060913085938
1789635382666152700,5.072152587890625,0.042080074548721313,-0.48142096400260925,-1.0188833475112915
1789635382676192800,5.08219287109375,-0.0035960664972662926,-0.37853533029556274,-1.0485224723815918
1789635382686232600,5.092232666015625,0.08410395681858063,-0.3288034498691559,-1.057761788368225
1789635382696271600,5.102271728515625,0.17861342430114746,-0.43910279870033264,-0.9535562992095947
1789635382706311700,5.112311767578125,0.21202783286571503,-0.3623211979866028,-0.8005752563476562
1789635382716351700,5.122351806640625,0.2160326987504959,-0.1421230584383011,-0.7276474833488464
1789635382726390500,5.132390625,0.24607661366462708,0.050815243273973465,-0.7980177998542786
1789635382736430600,5.1424306640625,0.2782483994960785,0.05642972141504288,-0.8951994776725769
1789635382746470700,5.152470703125,0.2697201669216156,-0.07646627724170685,-1.004130482673645
1789635382756509700,5.162509765625,0.1924474686384201,-0.3159305453300476,-1.0652287006378174
1789635382766549500,5.172549560546875,0.07107817381620407,-0.44292736053466797,-1.0921833515167236
1789635382776589600,5.182589599609375,-0.04127100855112076,-0.4199967384338379,-1.1006892919540405
1789635382786628600,5.192628662109375,-0.13633999228477478,-0.33361393213272095,-1.1131856441497803
1789635382796668700,5.202668701171875,-0.19492635130882263,-0.2710866332054138,-1.137113094329834
1789635382806708500,5.21270849609375,-0.2511536777019501,-0.17567382752895355,-1.1407173871994019
1789635382816747800,5.222747802734375,-0.26208168268203735,0.11374121159315109,-1.1144921779632568
1789635382826787600,5.23278759765625,-0.1956523209810257,0.39274862408638,-1.075790524482727
1789635382836827600,5.24282763671875,-0.14325863122940063,0.4312392771244049,-1.039231538772583
1789635382846866700,5.25286669921875,-0.1356787383556366,0.5213620066642761,-0.9684047102928162
1789635382856906800,5.26290673828125,-0.14277233183383942,0.6951960921287537,-0.9458882212638855
1789635382866946800,5.27294677734375,-0.13442066311836243,0.6197929382324219,-0.9813487529754639
1789635382876985600,5.282985595703125,-0.14684750139713287,0.40021079778671265,-0.9978108406066895
1789635382887025700,5.293025634765625,-0.14664004743099213,0.3158077597618103,-0.7954912781715393
1789635382897065700,5.303065673828125,-0.173979252576828,0.36256489157676697,-0.4601108729839325
1789635382907104800,5.313104736328125,-0.21870598196983337,0.5622433423995972,-0.1835317462682724
1789635382917144800,5.323144775390625,-0.13619911670684814,0.681046187877655,-0.021527929231524467
1789635382927184600,5.3331845703125,-0.05025145411491394,0.5852344632148743,0.1036939024925232
1789635382937224700,5.343224609375,-0.043595146387815475,0.5417564511299133,0.2259817272424698
1789635382947263700,5.353263671875,-0.049314018338918686,0.6260671019554138,0.3679383397102356
1789635382957303800,5.3633037109375,-0.11596149206161499,0.5751157402992249,0.4708513915538788
1789635382967343600,5.373343505859375,-0.1890580654144287,0.4695906639099121,0.5369201898574829
1789635382977382700,5.383382568359375,-0.2227846086025238,0.4069952070713043,0.6044901609420776
1789635382987422700,5.393422607421875,-0.25659504532814026,0.4000169038772583,0.6551229953765869
1789635382997462800,5.403462890625,-0.27793654799461365,0.3761563301086426,0.6373516917228699
1789635383007501600,5.41350146484375,-0.23497310280799866,0.3510432541370392,0.5857270956039429
1789635383017541600,5.423541748046875,-0.14944088459014893,0.2489118129014969,0.6239567995071411
1789635383027581700,5.433581787109375,-0.096366748213768,0.26290008425712585,0.8928654789924622
1789635383037620700,5.443620849609375,-0.073848657310009,0.5672740936279297,1.2406519651412964
1789635383047660500,5.45366064453125,-0.0049161952920258045,0.7706852555274963,1.3971078395843506
1789635383057700600,5.46370068359375,0.08143733441829681,0.7662124633789062,1.3664692640304565
1789635383067739600,5.47373974609375,0.14022502303123474,0.7488909959793091,1.3304977416992188
1789635383077779700,5.48377978515625,0.1733909547328949,0.6343905329704285,1.3520010709762573
1789635383087819500,5.493819580078125,0.15448197722434998,0.6590583324432373,1.426655888557434
1789635383097858600,5.503858642578125,0.14158855378627777,0.7078788876533508,1.4427459239959717
1789635383107898600,5.513898681640625,0.17617689073085785,0.6393546462059021,1.4197982549667358
1789635383117938700,5.523938720703125,0.22129777073860168,0.6053839325904846,1.436807632446289
1789635383127977700,5.533977783203125,0.2835427522659302,0.6346325874328613,1.4813151359558105
1789635383138017500,5.544017578125,0.37437573075294495,0.5490726828575134,1.4929603338241577
1789635383148057600,5.5540576171875,0.45159196853637695,0.458759069442749,1.4746761322021484
1789635383158097200,5.56409716796875,0.47947606444358826,0.44229060411453247,1.434110403060913
1789635383168136200,5.57413623046875,0.4654292166233063,0.40647560358047485,1.384731650352478
1789635383178176300,5.58417626953125,0.43379032611846924,0.3966861069202423,1.3359131813049316
1789635383188216300,5.59421630859375,0.38976961374282837,0.27344539761543274,1.247045636177063
1789635383198255000,5.604255126953125,0.34513822197914124,0.13560070097446442,1.1630452871322632
1789635383208295200,5.614295166015625,0.28519365191459656,0.23540054261684418,1.1905629634857178
1789635383218335200,5.624335205078125,0.2354319542646408,0.3469960391521454,1.305616855621338
1789635383228374300,5.634374267578125,0.2634742558002472,0.2521161437034607,1.3968173265457153
1789635383238414000,5.6444140625,0.3438771963119507,0.1630224734544754,1.435765027999878
1789635383248454100,5.6544541015625,0.3992677628993988,0.2767397165298462,1.4579640626907349
1789635383258493200,5.6644931640625,0.44815966486930847,0.3484503924846649,1.460934042930603
1789635383268533200,5.674533203125,0.47699132561683655,0.18749479949474335,1.4530712366104126
1789635383278573300,5.6845732421875,0.4073163568973541,0.1268511563539505,1.4916322231292725
1789635383288612000,5.694612060546875,0.3628586232662201,0.048172056674957275,1.4983335733413696
1789635383298652200,5.704652099609375,0.3879498541355133,-0.11295318603515625,1.4858475923538208
1789635383308692200,5.714692138671875,0.4345719516277313,-0.16297852993011475,1.5079609155654907
1789635383318731000,5.72473095703125,0.4082798957824707,-0.004405933897942305,1.5147831439971924
1789635383328771000,5.73477099609375,0.3481537103652954,0.08414177596569061,1.4732366800308228
1789635383338811100,5.74481103515625,0.311501681804657,-0.014542457647621632,1.4359066486358643
1789635383348850200,5.75485009765625,0.28759342432022095,-0.06995351612567902,1.4517838954925537
1789635383358890000,5.764889892578125,0.2571612298488617,-0.06088279187679291,1.4786208868026733
1789635383368930000,5.774929931640625,0.23702320456504822,-0.12970499694347382,1.4494925737380981
1789635383378970000,5.78497021484375,0.20767542719841003,-0.20848822593688965,1.4047322273254395
1789635383389009200,5.795009033203125,0.2043779045343399,-0.2041637897491455,1.4057525396347046
1789635383399049200,5.80504931640625,0.20359493792057037,-0.0802285298705101,1.4551621675491333
1789635383409089000,5.815089111328125,0.1882716417312622,0.12123614549636841,1.5108864307403564
1789635383419128000,5.825128173828125,0.1806563287973404,0.16569815576076508,1.5044034719467163
1789635383429168000,5.835168212890625,0.17973381280899048,-0.08037233352661133,1.4115453958511353
1789635383439208200,5.845208251953125,0.13092924654483795,-0.20172859728336334,1.3538389205932617
1789635383449247200,5.855247314453125,0.09300584346055984,0.06087160483002663,1.3931498527526855
1789635383459287000,5.865287109375,0.11558464914560318,0.3022221624851227,1.4237607717514038
1789635383469327000,5.8753271484375,0.1643601804971695,0.22400327026844025,1.3163621425628662
1789635383479366100,5.8853662109375,0.19461528956890106,-0.047689758241176605,1.0947374105453491
1789635383489406200,5.89540625,0.24212688207626343,-0.07305476814508438,0.9381884932518005
1789635383499446300,5.9054462890625,0.24363023042678833,0.09620749205350876,0.8875349164009094
1789635383509485300,5.9154853515625,0.18876831233501434,0.17327244579792023,0.75621098279953
1789635383519525000,5.925525146484375,0.12981605529785156,0.05607045814394951,0.519574761390686
1789635383529565200,5.935565185546875,0.12104013562202454,-0.027902470901608467,0.3079674243927002
1789635383539604200,5.945604248046875,0.14128123223781586,0.15044516324996948,0.22928431630134583
1789635383549644300,5.955644287109375,0.15149977803230286,0.4162651300430298,0.21953316032886505
1789635383559684400,5.965684326171875,0.18399620056152344,0.5389564037322998,0.20488762855529785
1789635383569724200,5.97572412109375,0.20712947845458984,0.5031174421310425,0.1780453622341156
1789635383579763200,5.98576318359375,0.22448237240314484,0.4496747553348541,0.14521710574626923
1789635383589803300,5.99580322265625,0.22365865111351013,0.4017879068851471,0.12463753670454025
1789635383599843300,6.00584326171875,0.19019390642642975,0.2835869789123535,0.11058483272790909
1789635383609882000,6.015882080078125,0.17178800702095032,0.11840654164552689,0.10648542642593384
1789635383619922200,6.025922119140625,0.20145775377750397,-0.23062282800674438,0.09803282469511032
1789635383629962200,6.035962158203125,0.165646493434906,-0.4460773468017578,0.10039930790662766
1789635383640001000,6.0460009765625,0.06012618914246559,-0.31693294644355774,0.10187309980392456
1789635383650041000,6.056041015625,0.001019990653730929,-0.18134528398513794,0.10257990658283234
1789635383660081200,6.0660810546875,-0.012713132426142693,-0.15019269287586212,0.07751849293708801
1789635383670120200,6.0761201171875,-0.06933486461639404,-0.04518292471766472,-0.018321216106414795
1789635383680160300,6.08616015625,-0.12771907448768616,0.15106354653835297,-0.1971932351589203
1789635383690200000,6.096199951171875,-0.16200675070285797,0.352594256401062,-0.37085264921188354
1789635383700239000,6.106239013671875,-0.19649921357631683,0.38104668259620667,-0.47619450092315674
1789635383710279200,6.116279052734375,-0.22739213705062866,0.16974908113479614,-0.5072464346885681
1789635383720319200,6.1263193359375,-0.23018446564674377,0.02665211632847786,-0.49751895666122437
1789635383730358000,6.13635791015625,-0.19733943045139313,0.029699305072426796,-0.46255698800086975
1789635383740398000,6.146398193359375,-0.15262149274349213,0.012402607128024101,-0.41601452231407166
1789635383750438100,6.156438232421875,-0.15409928560256958,-0.027630295604467392,-0.3561147153377533
1789635383760478200,6.166478271484375,-0.16722866892814636,-0.060447897762060165,-0.3039838671684265
1789635383770517000,6.17651708984375,-0.1561105102300644,-0.18925407528877258,-0.2770169675350189
1789635383780557000,6.18655712890625,-0.12370756268501282,-0.24862127006053925,-0.26979580521583557
1789635383790597000,6.19659716796875,-0.09744320064783096,-0.11037977039813995,-0.2759154736995697
1789635383800636200,6.20663623046875,-0.08717431873083115,0.13251037895679474,-0.34410199522972107
1789635383810676200,6.21667626953125,-0.09595981985330582,0.2780313491821289,-0.4464038610458374
1789635383820716000,6.226716064453125,-0.1203242838382721,0.34287214279174805,-0.5409061312675476
1789635383830755300,6.23675537109375,-0.08183654397726059,0.2264765501022339,-0.5677528977394104
1789635383840795400,6.24679541015625,-0.012555738911032677,-0.15271630883216858,-0.5464628338813782
1789635383850835200,6.256835205078125,-0.018695123493671417,-0.24343502521514893,-0.5491377115249634
1789635383860874200,6.266874267578125,-0.028985844925045967,-0.032287098467350006,-0.6475257873535156
1789635383870914300,6.276914306640625,0.0014466290595009923,-0.041603367775678635,-0.7265007495880127
1789635383880954400,6.286954345703125,0.014214355498552322,-0.21139585971832275,-0.7645317316055298
1789635383890993200,6.2969931640625,-0.011503524146974087,-0.09241754561662674,-0.7736006379127502
1789635383901033200,6.307033203125,0.009081912226974964,0.05571040138602257,-0.7764896154403687
1789635383911073300,6.3170732421875,0.020060526207089424,0.04538692161440849,-0.735892653465271
1789635383921112000,6.327112060546875,-0.007213437929749489,0.03461230546236038,-0.7090448141098022
1789635383931152100,6.337152099609375,-0.0670381560921669,0.07685829699039459,-0.7438568472862244
1789635383941192200,6.347192138671875,-0.10400256514549255,0.15799815952777863,-0.829811155796051
1789635383951232300,6.357232177734375,-0.12658989429473877,0.18685562908649445,-0.9097845554351807
1789635383961271300,6.367271240234375,-0.1284852772951126,0.1636086404323578,-0.9612538814544678
1789635383971311000,6.37731103515625,-0.1086985170841217,0.08041813969612122,-0.9966803193092346
1789635383981351200,6.38735107421875,-0.06276644766330719,-0.026560503989458084,-0.9799588322639465
1789635383991390200,6.39739013671875,-0.016717195510864258,-0.1802150458097458,-0.9180366396903992
1789635384001430300,6.40743017578125,0.018382469192147255,-0.38954031467437744,-0.8447701334953308
1789635384011470000,6.417469970703125,0.01031495537608862,-0.5301133990287781,-0.7768890857696533
1789635384021509000,6.427509033203125,-0.05564248934388161,-0.5010772347450256,-0.7427231073379517
1789635384031549200,6.437549072265625,-0.11368848383426666,-0.36077043414115906,-0.7739404439926147
1789635384041589200,6.44758935546875,-0.1427353173494339,-0.2848533093929291,-0.823686957359314
1789635384051628000,6.4576279296875,-0.1368132382631302,-0.19836634397506714,-0.8658514618873596
1789635384061668000,6.467668212890625,-0.12523408234119415,-0.0986219123005867,-0.9230982065200806
1789635384071708200,6.477708251953125,-0.09833189845085144,-0.11422377824783325,-1.0297613143920898
1789635384081747000,6.487746826171875,-0.09023375809192657,-0.23903389275074005,-1.1491444110870361
1789635384091787000,6.497787109375,-0.09997879713773727,-0.3206528425216675,-1.2088322639465332
1789635384101827000,6.5078271484375,-0.12923096120357513,-0.4348055124282837,-1.176807165145874
1789635384111866000,6.5178662109375,-0.19925691187381744,-0.2870109975337982,-1.0951142311096191
1789635384121906200,6.52790625,-0.26207396388053894,-0.19899192452430725,-1.0549005270004272
1789635384131946000,6.537946044921875,-0.28793057799339294,-0.40496718883514404,-1.0478800535202026
1789635384141986000,6.547986083984375,-0.34277838468551636,-0.505982518196106,-1.032454013824463
1789635384152025300,6.558025390625,-0.36506080627441406,-0.46871528029441833,-1.020711898803711
1789635384162065400,6.5680654296875,-0.31756386160850525,-0.4287351071834564,-0.9629266262054443
1789635384172105500,6.57810546875,-0.27542492747306824,-0.3573701083660126,-0.9008318185806274
1789635384182144500,6.58814453125,-0.28115150332450867,-0.40216901898384094,-0.8991113901138306
1789635384192184600,6.5981845703125,-0.27409520745277405,-0.5194714069366455,-0.9762035012245178
1789635384202224400,6.608224365234375,-0.29085713624954224,-0.3980187475681305,-1.0862666368484497
1789635384212263400,6.618263427734375,-0.26355281472206116,-0.2548554539680481,-1.1375082731246948
1789635384222303500,6.628303466796875,-0.14372281730175018,-0.2733202278614044,-1.075317621231079
1789635384232343600,6.638343505859375,-0.04158126562833786,-0.4543699026107788,-0.974690318107605
1789635384242382600,6.648382568359375,-0.016438893973827362,-0.6030331254005432,-0.9311574697494507
1789635384252422700,6.658422607421875,-0.029925940558314323,-0.6271158456802368,-0.9758666157722473
1789635384262462500,6.66846240234375,-0.06492440402507782,-0.521600604057312,-1.093417763710022
1789635384272501500,6.67850146484375,-0.04909004643559456,-0.5238502025604248,-1.201166033744812
1789635384282541600,6.68854150390625,-0.01817687414586544,-0.6422827839851379,-1.229101538658142
1789635384292581600,6.69858154296875,0.006706638727337122,-0.6933936476707458,-1.2330116033554077
1789635384302620400,6.708620361328125,-0.00891200266778469,-0.5426070690155029,-1.2590059041976929
1789635384312660500,6.718660400390625,-0.00797403696924448,-0.44119125604629517,-1.3639006614685059
1789635384322700500,6.728700439453125,-0.007897071540355682,-0.36798176169395447,-1.4928836822509766
1789635384332740600,6.73874072265625,-0.042504582554101944,-0.35877785086631775,-1.6526552438735962
1789635384342779400,6.748779296875,-0.11782197654247284,-0.4310416877269745,-1.818119764328003
1789635384352819500,6.7588193359375,-0.10586704313755035,-0.6502254009246826,-1.891615390777588
1789635384362859500,6.768859619140625,-0.09283167123794556,-0.8134737610816956,-1.7911473512649536
1789635384372898300,6.778898193359375,-0.12901364266872406,-0.7059286236763,-1.657357096672058
1789635384382938400,6.7889384765625,-0.16340729594230652,-0.47990429401397705,-1.616974949836731
1789635384392978400,6.798978515625,-0.1466488242149353,-0.31865227222442627,-1.6274724006652832
1789635384403017500,6.809017578125,-0.1227211281657219,-0.19453060626983643,-1.629968523979187
1789635384413057500,6.8190576171875,-0.06021273881196976,-0.20037810504436493,-1.5908992290496826
1789635384423097300,6.829097412109375,-0.03417208418250084,-0.14060504734516144,-1.5268045663833618
1789635384433136400,6.839136474609375,-0.04374774545431137,-0.033962227404117584,-1.4271928071975708
1789635384443176400,6.849176513671875,-0.09449242055416107,0.0019052254501730204,-1.256969928741455
1789635384453216500,6.859216552734375,-0.15701039135456085,-0.03176645189523697,-1.0559988021850586
1789635384463256300,6.86925634765625,-0.21618156135082245,-0.004215517546981573,-0.8790950775146484
1789635384473295400,6.87929541015625,-0.2331847846508026,0.10911396890878677,-0.742321252822876
1789635384483335400,6.88933544921875,-0.14634309709072113,0.40580981969833374,-0.6796355247497559
1789635384493375500,6.89937548828125,-0.0494873933494091,0.5202799439430237,-0.6565589308738708
1789635384503414300,6.909414306640625,0.014260162599384785,0.4050702750682831,-0.5725993514060974
1789635384513454300,6.919454345703125,0.04198979586362839,0.2604829967021942,-0.4158877432346344
1789635384523494400,6.929494384765625,0.08802759647369385,0.3050464689731598,-0.2418493777513504
1789635384533533700,6.93953369140625,0.09890101104974747,0.3160437047481537,-0.1381687968969345
1789635384543573500,6.949573486328125,0.035363584756851196,0.10656239837408066,-0.05651307851076126
1789635384553613300,6.95961328125,-0.0695899948477745,-0.15595391392707825,0.09634783864021301
1789635384563652600,6.969652587890625,-0.16002801060676575,-0.12925146520137787,0.26265400648117065
1789635384573692700,6.979692626953125,-0.16418787837028503,0.27291861176490784,0.251423180103302
1789635384583732500,6.989732421875,-0.10743697732686996,0.4259001612663269,0.15324866771697998
1789635384593771500,6.999771484375,-0.042151447385549545,0.32770195603370667,0.17241837084293365
1789635384603811600,7.0098115234375,-0.04117326810956001,0.21288910508155823,0.37701866030693054
1789635384613851600,7.0198515625,-0.11798150092363358,0.378214955329895,0.7448696494102478
1789635384623890400,7.029890380859375,-0.17786453664302826,0.6222619414329529,1.104324221611023
1789635384633930500,7.039930419921875,-0.1110660657286644,0.7886011600494385,1.284384846687317
1789635384643970600,7.049970458984375,-0.0060264673084020615,0.6301145553588867,1.3025254011154175
1789635384654010600,7.0600107421875,-0.04284573346376419,0.41604194045066833,1.4459718465805054
1789635384664049400,7.07004931640625,-0.15817205607891083,0.4779607057571411,1.7418212890625
1789635384674089500,7.08008935546875,-0.21507209539413452,0.6052981615066528,1.8465099334716797
1789635384684129500,7.090129638671875,-0.23909567296504974,0.4923441708087921,1.6938072443008423
1789635384694168600,7.10016845703125,-0.23245161771774292,0.3798767626285553,1.570271372795105
1789635384704208400,7.11020849609375,-0.18152664601802826,0.35362038016319275,1.5776880979537964
1789635384714248400,7.12024853515625,-0.10301213711500168,0.455063134431839,1.6225939989089966
1789635384724287500,7.13028759765625,-0.004260525107383728,0.6369157433509827,1.6560633182525635
1789635384734327600,7.14032763671875,0.14651566743850708,0.6969830989837646,1.7208303213119507
1789635384744367400,7.150367431640625,0.3462900221347809,0.5572872161865234,1.809035301208496
1789635384754406400,7.160406494140625,0.5410163998603821,0.5913282632827759,1.9725232124328613
1789635384764446500,7.170446533203125,0.7218980193138123,0.7795423865318298,2.132296085357666
1789635384774486500,7.180486572265625,0.7982329726219177,0.8701215386390686,2.164926290512085
1789635384784526300,7.1905263671875,0.7941192388534546,0.8626974821090698,1.9772028923034668
1789635384794565400,7.2005654296875,0.6774216294288635,0.7569795846939087,1.7129164934158325
1789635384804605400,7.21060546875,0.5229294896125793,0.463395893573761,1.5581066608428955
1789635384814645500,7.2206455078125,0.3783946931362152,0.029332056641578674,1.5735745429992676
1789635384824684300,7.230684326171875,0.27585527300834656,-0.2039848268032074,1.6878643035888672
1789635384834724400,7.240724365234375,0.3451211750507355,-0.04802451655268669,1.7724783420562744
1789635384844764400,7.250764404296875,0.5039635300636292,0.08094518631696701,1.6461513042449951
1789635384854803500,7.260803466796875,0.5645776391029358,0.029443908482789993,1.3997704982757568
1789635384864843300,7.27084326171875,0.4508691728115082,-0.06932075321674347,1.2168102264404297
1789635384874883300,7.28088330078125,0.3043558895587921,-0.1391160786151886,1.1672544479370117
1789635384884922600,7.290922607421875,0.17597343027591705,-0.1682015210390091,1.2766646146774292
1789635384894962400,7.30096240234375,0.15674380958080292,-0.012051336467266083,1.4799913167953491
1789635384905002200,7.311002197265625,0.2589396834373474,0.3125283420085907,1.6354162693023682
1789635384915041500,7.32104150390625,0.3819982409477234,0.5170543193817139,1.634360432624817
1789635384925081600,7.33108154296875,0.42488816380500793,0.38631975650787354,1.4528372287750244
1789635384935121700,7.34112158203125,0.4553033411502838,-0.07926525920629501,1.1765578985214233
1789635384945161200,7.3511611328125,0.45504021644592285,-0.41565871238708496,1.080333948135376
1789635384955200500,7.361200439453125,0.3575213849544525,-0.17248281836509705,1.2531400918960571
1789635384965240600,7.371240478515625,0.17649061977863312,0.3261658549308777,1.5101159811019897
1789635384975280600,7.38128076171875,0.036501817405223846,0.5221279263496399,1.6288998126983643
1789635384985319400,7.3913193359375,0.017737984657287598,0.19863133132457733,1.5514098405838013
1789635384995359500,7.401359375,0.07512138038873672,-0.06872633099555969,1.4106929302215576
1789635385005399600,7.411399658203125,0.09368041902780533,0.1701110154390335,1.392080307006836
1789635385015438600,7.4214384765625,0.04523938521742821,0.5925307273864746,1.444966435432434
1789635385025478400,7.431478515625,0.03888667747378349,0.44171321392059326,1.4096990823745728
1789635385035518500,7.4415185546875,0.11005273461341858,-0.23329398036003113,1.2824180126190186
1789635385045557500,7.4515576171875,0.1220066025853157,-0.471688449382782,1.2270690202713013
1789635385055597600,7.46159765625,0.07164143025875092,0.00040746363811194897,1.3041340112686157
1789635385065637400,7.471637451171875,0.02731604315340519,0.4081003963947296,1.3555982112884521
1789635385075677400,7.481677490234375,0.0154354153200984,0.2422267496585846,1.2890688180923462
1789635385085716500,7.491716552734375,-0.00812077708542347,-0.18288326263427734,1.154240369796753
1789635385095756500,7.501756591796875,-0.0945747122168541,-0.22558598220348358,1.059630274772644
1789635385105796600,7.511796630859375,-0.1969120055437088,0.17758889496326447,1.0221188068389893
1789635385115835400,7.52183544921875,-0.2622270882129669,0.5126081705093384,0.9431518316268921
1789635385125875500,7.53187548828125,-0.26438772678375244,0.24813763797283173,0.804713249206543
1789635385135915500,7.54191552734375,-0.2494356632232666,-0.2616172134876251,0.6943225860595703
1789635385145954300,7.551954345703125,-0.255453884601593,-0.37960004806518555,0.6565088629722595
1789635385155993600,7.56199365234375,-0.24271278083324432,-0.08889258652925491,0.6545445322990417
1789635385166033700,7.57203369140625,-0.2146233469247818,0.27548083662986755,0.6121113300323486
1789635385176073000,7.582072998046875,-0.12343885004520416,0.38620176911354065,0.5353329181671143
1789635385186112800,7.59211279296875,-0.014614095911383629,0.5167219638824463,0.4526790678501129
1789635385196152600,7.602152587890625,0.08226371556520462,0.6457590460777283,0.33234864473342896
1789635385206191900,7.61219189453125,0.15344202518463135,0.2651592195034027,0.2110683023929596
1789635385216232000,7.62223193359375,0.14777109026908875,-0.3563019335269928,0.09131606668233871
1789635385226271700,7.632271728515625,0.051666390150785446,-0.7084471583366394,-0.02852059155702591
1789635385236311600,7.6423115234375,-0.046616505831480026,-0.7729566693305969,-0.13232262432575226
1789635385246350800,7.652350830078125,-0.14430896937847137,-0.4293348491191864,-0.2504330277442932
1789635385256391000,7.662390869140625,-0.16644597053527832,0.08367066085338593,-0.4228396713733673
1789635385266431000,7.672430908203125,-0.0979800894856453,0.4957844614982605,-0.5435969829559326
1789635385276469800,7.6824697265625,-0.05260968208312988,0.803367018699646,-0.6461822390556335
1789635385286509800,7.692509765625,-0.008841162547469139,0.9057021737098694,-0.7457119822502136
1789635385296550000,7.7025498046875,-0.01170699018985033,0.6782967448234558,-0.8151395320892334
1789635385306589000,7.7125888671875,-0.04024462401866913,0.29083797335624695,-0.8183622360229492
1789635385316628700,7.722628662109375,-0.057076334953308105,0.029996247962117195,-0.7594302296638489
1789635385326668800,7.732668701171875,-0.08880337327718735,-0.056476857513189316,-0.6763174533843994
1789635385336707800,7.742707763671875,-0.1313585489988327,0.005923136603087187,-0.6500387191772461
1789635385346748000,7.752747802734375,-0.15393151342868805,0.11487971246242523,-0.6525274515151978
1789635385356787700,7.76278759765625,-0.11985662579536438,0.26525643467903137,-0.6509263515472412
1789635385366826800,7.77282666015625,-0.0166785791516304,0.3428494930267334,-0.6378371715545654
1789635385376866800,7.78286669921875,0.12036902457475662,0.2748890817165375,-0.6316733360290527
1789635385386907000,7.792906982421875,0.12955613434314728,0.23187318444252014,-0.6533724665641785
1789635385396947000,7.802947021484375,0.04697922617197037,0.32131171226501465,-0.7639802098274231
1789635385406985700,7.81298583984375,-0.01178954727947712,0.32292214035987854,-0.8412675261497498
1789635385417025800,7.82302587890625,-0.01384071446955204,0.20799927413463593,-0.8097628951072693
1789635385427065900,7.83306591796875,-0.00192226970102638,0.11090175062417984,-0.7712599635124207
1789635385437104600,7.843104736328125,-0.003915645647794008,0.1367996633052826,-0.8396936058998108
1789635385447144700,7.853144775390625,0.027602333575487137,0.18524070084095,-0.9109193086624146
1789635385457184800,7.863184814453125,0.09815452992916107,0.11696310341358185,-0.8875466585159302
1789635385467223800,7.873223876953125,0.15188033878803253,0.04236689954996109,-0.8356437683105469
1789635385477263600,7.883263671875,0.18037749826908112,0.07884794473648071,-0.8564523458480835
1789635385487303700,7.8933037109375,0.15121348202228546,0.12902376055717468,-0.9625409841537476
1789635385497342700,7.9033427734375,0.08682437986135483,0.1740647405385971,-1.0849329233169556
1789635385507382800,7.9133828125,0.05588030815124512,0.24597860872745514,-1.1331603527069092
1789635385517422600,7.923422607421875,0.07703965902328491,0.28512123227119446,-1.1294732093811035
1789635385527462700,7.933462646484375,0.1294567883014679,0.19011268019676208,-1.144365668296814
1789635385537501700,7.943501708984375,0.19504591822624207,-0.005333246197551489,-1.1794573068618774
1789635385547541800,7.953541748046875,0.2403537482023239,-0.15936435759067535,-1.192931056022644
1789635385557581800,7.963581787109375,0.24022671580314636,-0.25221893191337585,-1.1649763584136963
1789635385567620900,7.973620849609375,0.1926533430814743,-0.31424739956855774,-1.1336568593978882
1789635385577660700,7.98366064453125,0.10010023415088654,-0.38047969341278076,-1.138704776763916
1789635385587700700,7.99370068359375,-0.010323477908968925,-0.4155106544494629,-1.1951185464859009
1789635385597739800,8.00373974609375,-0.0920225977897644,-0.42926907539367676,-1.2372667789459229
1789635385607779800,8.01377978515625,-0.13476261496543884,-0.40441033244132996,-1.2373344898223877
1789635385617820000,8.02381982421875,-0.17480936646461487,-0.3283299505710602,-1.2298190593719482
1789635385627859000,8.03385888671875,-0.20320585370063782,-0.3893924951553345,-1.2467814683914185
1789635385637898800,8.043898681640625,-0.19262005388736725,-0.5515838265419006,-1.2481039762496948
1789635385647938800,8.053938720703124,-0.14459820091724396,-0.6494967937469482,-1.233510136604309
1789635385657977900,8.063977783203125,-0.09651455283164978,-0.5945717692375183,-1.2137023210525513
1789635385668018000,8.074017822265626,-0.0549364872276783,-0.5897519588470459,-1.2075613737106323
1789635385678058000,8.08405810546875,-0.05073108896613121,-0.7357501983642578,-1.2226940393447876
1789635385688097800,8.094097900390626,-0.09255017340183258,-0.7643506526947021,-1.2392992973327637
1789635385698136800,8.10413671875,-0.11935222893953323,-0.7234548926353455,-1.2227832078933716
1789635385708177000,8.114177001953125,-0.13209624588489532,-0.7170462608337402,-1.178367257118225
1789635385718217000,8.124217041015624,-0.10957842320203781,-0.7753857374191284,-1.1638174057006836
1789635385728255700,8.134255859375,-0.08355002105236053,-0.7784779071807861,-1.1590111255645752
1789635385738295800,8.1442958984375,-0.0820234939455986,-0.5867143869400024,-1.1439001560211182
1789635385748335900,8.1543359375,-0.08374496549367905,-0.4139561653137207,-1.1741288900375366
1789635385758374700,8.164374755859376,-0.04576961696147919,-0.5791800022125244,-1.3040757179260254
1789635385768414700,8.174414794921875,-0.006096774712204933,-0.8185499906539917,-1.4626165628433228
1789635385778454800,8.184454833984375,-0.03895006328821182,-0.7693938612937927,-1.5428904294967651
1789635385788493800,8.194493896484374,-0.07870759814977646,-0.6674635410308838,-1.5378549098968506
1789635385798533600,8.20453369140625,-0.10342598706483841,-0.6200240850448608,-1.516093134880066
1789635385808573700,8.21457373046875,-0.0957622155547142,-0.6245583891868591,-1.5061123371124268
1789635385818613800,8.22461376953125,-0.08287091553211212,-0.5234035849571228,-1.5343786478042603
1789635385828652800,8.23465283203125,-0.030707845464348793,-0.4034923315048218,-1.5993882417678833
1789635385838692900,8.24469287109375,0.010762100107967854,-0.37518399953842163,-1.6207257509231567
1789635385848732700,8.254732666015625,0.04171309247612953,-0.4316246509552002,-1.6698427200317383
1789635385858771700,8.264771728515624,0.04057112708687782,-0.5440523624420166,-1.710352897644043
1789635385868811800,8.274811767578125,-0.026142388582229614,-0.5161730647087097,-1.6986488103866577
1789635385878851800,8.284851806640624,-0.09300530701875687,-0.3518163561820984,-1.68742835521698
1789635385888890600,8.294890625,-0.16179528832435608,-0.2954241931438446,-1.633779525756836
1789635385898930700,8.3049306640625,-0.2293919175863266,-0.26366573572158813,-1.5531795024871826
1789635385908970800,8.314970703125,-0.2607381045818329,-0.18395918607711792,-1.4688187837600708
1789635385919009800,8.325009765625,-0.23193523287773132,-0.10911396890878677,-1.3684802055358887
1789635385929049900,8.3350498046875,-0.1687280386686325,-0.10118041187524796,-1.2911033630371094
1789635385939089700,8.345089599609375,-0.1533895581960678,-0.10880956798791885,-1.1838747262954712
1789635385949129700,8.355129638671874,-0.18799041211605072,-0.012582903727889061,-1.021457552909851
1789635385959169000,8.3651689453125,-0.20366764068603516,0.23335230350494385,-0.8807928562164307
1789635385969208800,8.375208740234376,-0.14363598823547363,0.3128734827041626,-0.8474812507629395
1789635385979248600,8.38524853515625,-0.15533792972564697,0.0972871407866478,-0.7533459663391113
1789635385989288000,8.395287841796875,-0.18358181416988373,-0.02965882606804371,-0.5053108334541321
1789635385999328000,8.405327880859375,-0.1282583624124527,-0.011559983715415001,-0.2594510018825531
1789635386009367800,8.415367919921875,-0.05367281660437584,0.14146152138710022,-0.11250284314155579
1789635386019406800,8.42540673828125,-0.06734095513820648,0.22037310898303986,-0.031798675656318665
1789635386029447000,8.435447021484375,-0.03343864902853966,0.19763211905956268,0.1075616106390953
1789635386039487000,8.445487060546874,0.07952199131250381,0.18461565673351288,0.22035899758338928
1789635386049525800,8.45552587890625,0.18815365433692932,0.4030507802963257,0.3061324954032898
1789635386059565800,8.46556591796875,0.2274952083826065,0.5198703408241272,0.33921533823013306
1789635386069606000,8.47560595703125,0.24527926743030548,0.40613311529159546,0.42352065443992615
1789635386079646000,8.48564599609375,0.1872151643037796,0.19186930358409882,0.6009098291397095
1789635386089684700,8.495684814453124,0.0992586761713028,0.17283062636852264,0.7683414220809937
1789635386099724800,8.505724853515625,0.006943393498659134,0.2038615196943283,0.9029048085212708
1789635386109764900,8.515764892578124,-0.09620696306228638,0.16617272794246674,1.0320724248886108
1789635386119804000,8.525803955078125,-0.1556154191493988,0.2886802554130554,1.1642512083053589
1789635386129843700,8.53584375,-0.14473827183246613,0.5772561430931091,1.2297154664993286
1789635386139883800,8.5458837890625,-0.0750470831990242,0.6842520833015442,1.2107784748077393
1789635386149922800,8.5559228515625,0.03160080313682556,0.5224589109420776,1.17724609375
1789635386159963600,8.565963623046875,0.11000613123178482,0.42799583077430725,1.272422194480896
1789635386170003700,8.576003662109375,0.11422803997993469,0.5365784764289856,1.512812614440918
1789635386180042500,8.58604248046875,0.05266720429062843,0.6608207821846008,1.7420903444290161
1789635386190082600,8.59608251953125,0.005619536153972149,0.7795128226280212,1.9080630540847778
1789635386200122600,8.60612255859375,0.02906467393040657,0.8072201013565063,1.9599978923797607
1789635386210162700,8.61616259765625,0.06603973358869553,0.7291079759597778,1.9024502038955688
1789635386220201500,8.626201416015626,0.055806539952754974,0.6937686204910278,1.848495364189148
1789635386230241500,8.636241455078125,0.055148739367723465,0.5399196743965149,1.8247798681259155
1789635386240281600,8.646281494140625,0.08580119162797928,0.3627268075942993,1.8777860403060913
1789635386250320400,8.6563203125,0.10778931528329849,0.3978874385356903,2.018063545227051
1789635386260360400,8.6663603515625,0.1341460794210434,0.5292854309082031,2.151472806930542
1789635386270400500,8.676400390625,0.1988462507724762,0.5525385141372681,2.2299013137817383
1789635386280439600,8.686439453125,0.30258169770240784,0.4555392861366272,2.225900650024414
1789635386290479600,8.696479736328126,0.34620800614356995,0.31960010528564453,2.189650535583496
1789635386300519400,8.70651953125,0.2893495261669159,0.386732280254364,2.1667423248291016
1789635386310558500,8.716558349609375,0.19850802421569824,0.541325032711029,2.11354923248291
1789635386320598500,8.7265986328125,0.1634294092655182,0.17584213614463806,1.911507248878479
1789635386330638600,8.736638671875,0.20667541027069092,-0.47700944542884827,1.6481128931045532
1789635386340678400,8.746678466796874,0.16721801459789276,-0.5357707738876343,1.638712763786316
1789635386350717400,8.756717529296875,0.09658166766166687,-0.12437494844198227,1.8254812955856323
1789635386360757500,8.766757568359376,0.057077933102846146,0.12636485695838928,1.957218885421753
1789635386370797600,8.776797607421875,0.037748709321022034,-0.01859658770263195,1.9263304471969604
1789635386380836600,8.786836669921875,-0.0007022755453363061,-0.21660155057907104,1.809122920036316
1789635386390876400,8.79687646484375,-0.019271166995167732,-0.026164758950471878,1.7800118923187256
1789635386400916500,8.80691650390625,0.02634638547897339,0.19400329887866974,1.7709230184555054
1789635386410955500,8.81695556640625,0.12047635018825531,-0.08970697969198227,1.6285065412521362
1789635386420995600,8.82699560546875,0.15916888415813446,-0.5692014098167419,1.48368239402771
1789635386431035400,8.837035400390626,0.08114837855100632,-0.40247422456741333,1.556655764579773
1789635386441074700,8.84707470703125,0.0027358653023838997,0.25386902689933777,1.6784697771072388
1789635386451114800,8.85711474609375,0.0070648337714374065,0.5007102489471436,1.640256643295288
1789635386461154600,8.867154541015625,0.10818692296743393,0.07962425798177719,1.4594404697418213
1789635386471194600,8.877194580078125,0.18926259875297546,-0.32262492179870605,1.285050630569458
1789635386481233700,8.887233642578124,0.2011576145887375,-0.031010113656520844,1.314288854598999
1789635386491273700,8.897273681640625,0.19173507392406464,0.4949444830417633,1.4018794298171997
1789635386501313500,8.9073134765625,0.22696417570114136,0.46922314167022705,1.3564836978912354
1789635386511352600,8.9173525390625,0.23958276212215424,0.00637880340218544,1.226935625076294
1789635386521392600,8.927392578125,0.16335563361644745,-0.1570732444524765,1.1689682006835938
1789635386531432700,8.9374326171875,0.07441484183073044,0.17876362800598145,1.205880880355835
1789635386541471500,8.947471435546875,0.0755714550614357,0.4902898073196411,1.1729520559310913
1789635386551511600,8.957511474609374,0.18545721471309662,0.36514148116111755,1.0494180917739868
1789635386561551600,8.967551513671875,0.3012184202671051,0.06167561560869217,0.8674792051315308
1789635386571590400,8.97759033203125,0.30984359979629517,-0.024571122601628304,0.7060346007347107
1789635386581630500,8.98763037109375,0.19050443172454834,0.05101444944739342,0.580031156539917
1789635386591670500,8.99767041015625,0.10880903899669647,-0.1885850876569748,0.4779372811317444
1789635386601710600,9.007710693359375,0.053948454558849335,-0.5037451982498169,0.4014393091201782
1789635386611749600,9.01774951171875,-0.04640265181660652,-0.31622588634490967,0.31230756640434265
1789635386621789400,9.02778955078125,-0.11311750113964081,0.23928529024124146,0.2102200835943222
1789635386631829500,9.03782958984375,-0.07383054494857788,0.5299674272537231,0.1439952552318573
1789635386641868500,9.04786865234375,-0.04099616780877113,0.6482533812522888,0.12836942076683044
1789635386651908600,9.05790869140625,-0.01516031101346016,0.7144419550895691,0.08913680166006088
1789635386661948400,9.067948486328126,0.06499684602022171,0.4165301024913788,0.017075123265385628
1789635386671987500,9.077987548828125,0.050335075706243515,0.11460940539836884,-0.12659336626529694
1789635386682027500,9.088027587890625,-0.008678709156811237,-0.14625760912895203,-0.31714892387390137
1789635386692067600,9.098067626953124,-0.013466806150972843,-0.5435304045677185,-0.43014073371887207
1789635386702106400,9.1081064453125,-0.07998937368392944,-0.528104305267334,-0.48271843791007996
1789635386712146400,9.118146484375,-0.13208159804344177,-0.063873790204525,-0.5261753797531128
1789635386722186500,9.1281865234375,-0.10341107845306396,-0.005185973364859819,-0.5292369723320007
1789635386732226600,9.1382265625,-0.10911743342876434,-0.09978118538856506,-0.45655715465545654
1789635386742265300,9.148265380859375,-0.17985178530216217,0.10359589755535126,-0.542069673538208
1789635386752305400,9.158305419921875,-0.15913532674312592,0.4401547312736511,-0.7581609487533569
1789635386762345500,9.168345458984374,-0.10767319798469543,0.6687687635421753,-0.9298163056373596
1789635386772384800,9.178384765625,-0.0677604079246521,0.7970934510231018,-0.9771497249603271
1789635386782424600,9.188424560546874,-0.06504877656698227,0.7373512983322144,-0.9343133568763733
1789635386792464400,9.19846435546875,-0.04782744497060776,0.5445738434791565,-0.8915618658065796
1789635386802503700,9.208503662109376,0.015970177948474884,0.2161080688238144,-0.852159321308136
1789635386812543700,9.218543701171875,0.07619037479162216,-0.2183632254600525,-0.7697568535804749
1789635386822583600,9.22858349609375,0.022902119904756546,-0.436129629611969,-0.6856617331504822
1789635386832622600,9.23862255859375,-0.0640743225812912,-0.27379506826400757,-0.723188042640686
1789635386842662700,9.24866259765625,-0.12595206499099731,-0.05754292011260986,-0.8350170850753784
1789635386852702700,9.25870263671875,-0.20004761219024658,0.0500091053545475,-0.9282330870628357
1789635386862742500,9.268742431640625,-0.21445636451244354,-0.028148280456662178,-0.9233525395393372
1789635386872781600,9.278781494140626,-0.16674929857254028,-0.11676683276891708,-0.8146644234657288
1789635386882821600,9.288821533203125,-0.1262711137533188,-0.055574577301740646,-0.7329951524734497
1789635386892861700,9.29886181640625,-0.09957665950059891,-0.08776580542325974,-0.7802124619483948
1789635386902900500,9.308900390625,-0.1263592690229416,-0.055381499230861664,-0.9382920861244202
1789635386912940500,9.3189404296875,-0.2699257433414459,0.13285711407661438,-1.138614535331726
1789635386922980600,9.328980712890624,-0.42502427101135254,0.31868717074394226,-1.2735486030578613
1789635386933019600,9.33901953125,-0.48703914880752563,0.2689739465713501,-1.2239078283309937
1789635386943059500,9.3490595703125,-0.41988569498062134,-0.02143019065260887,-1.0900055170059204
1789635386953099500,9.359099609375,-0.3326597213745117,-0.31783443689346313,-1.0412043333053589
1789635386963139600,9.3691396484375,-0.3042895793914795,-0.44349008798599243,-1.0703766345977783
1789635386973178600,9.3791787109375,-0.3328855335712433,-0.3219865560531616,-1.0784600973129272
1789635386983218400,9.389218505859375,-0.3340117931365967,-0.27809739112854004,-1.068993091583252
1789635386993258500,9.399258544921874,-0.25971654057502747,-0.44272735714912415,-1.1033543348312378
1789635387003297500,9.409297607421875,-0.1970912367105484,-0.5116084218025208,-1.1605627536773682
1789635387013337600,9.419337646484376,-0.19608215987682343,-0.5767581462860107,-1.2219496965408325
1789635387023377700,9.429377685546875,-0.1975860446691513,-0.7432477474212646,-1.2565516233444214
1789635387033416400,9.43941650390625,-0.221947580575943,-0.8702986836433411,-1.2904841899871826
1789635387043456500,9.44945654296875,-0.27585369348526,-0.9031226634979248,-1.3844903707504272
1789635387053496600,9.45949658203125,-0.3938769996166229,-0.8379372358322144,-1.4990030527114868
1789635387063535400,9.469535400390624,-0.5990727543830872,-0.32499006390571594,-1.5206111669540405
1789635387073575400,9.479575439453125,-0.7024587988853455,0.1193666085600853,-1.60867178440094
1789635387083615500,9.489615478515624,-0.6307446360588074,0.12926238775253296,-1.6485658884048462
1789635387093654500,9.499654541015625,-0.48733609914779663,-0.07150507718324661,-1.5540589094161987
1789635387103694300,9.5096943359375,-0.36138883233070374,-0.032580845057964325,-1.4949675798416138
1789635387113734400,9.519734375,-0.29222333431243896,0.18903543055057526,-1.4714417457580566
1789635387123774500,9.5297744140625,-0.30021122097969055,0.33773836493492126,-1.5300227403640747
1789635387133813500,9.5398134765625,-0.2844013571739197,0.1327761560678482,-1.6768321990966797
1789635387143853300,9.549853271484375,-0.2903394103050232,-0.18840186297893524,-1.7776647806167603
1789635387153893400,9.559893310546874,-0.25463467836380005,-0.5967185497283936,-1.8293119668960571
1789635387163931600,9.569931640625,-0.25245940685272217,-0.7772606015205383,-1.8089311122894287
1789635387173971700,9.5799716796875,-0.27712082862854004,-0.561427116394043,-1.729392647743225
1789635387184011800,9.59001171875,-0.27071112394332886,-0.3772713840007782,-1.648840308189392
1789635387194050600,9.600050537109375,-0.2861015200614929,-0.3557474613189697,-1.5428552627563477
1789635387204090600,9.610090576171874,-0.26973506808280945,-0.4677552282810211,-1.4955133199691772
1789635387214130700,9.620130615234375,-0.20286895334720612,-0.5678538680076599,-1.5053081512451172
1789635387224170800,9.630170654296874,-0.08468133211135864,-0.6446623206138611,-1.4964264631271362
1789635387234209800,9.640209716796875,-0.04205504059791565,-0.6364185214042664,-1.4223450422286987
1789635387244249600,9.65024951171875,0.03190626576542854,-0.6803588271141052,-1.4098182916641235
1789635387254289700,9.66028955078125,0.13983939588069916,-0.6203498244285583,-1.4507031440734863
1789635387264328700,9.67032861328125,0.18459461629390717,-0.5120187997817993,-1.4413299560546875
1789635387274368800,9.68036865234375,0.1879217028617859,-0.4827621281147003,-1.373548984527588
1789635387284408600,9.69040869140625,0.2112552523612976,-0.4967120289802551,-1.3586251735687256
1789635387294447600,9.700447509765626,0.25827735662460327,-0.5001216530799866,-1.3117865324020386
1789635387304487700,9.71048779296875,0.23229315876960754,-0.4705619215965271,-1.172394871711731
1789635387314527700,9.72052783203125,0.1544463038444519,-0.410197377204895,-1.0397441387176514
1789635387324566500,9.73056640625,0.09976734220981598,-0.3283967971801758,-0.9428908228874207
1789635387334606600,9.740606689453125,0.10969800502061844,-0.09497284889221191,-0.8595448136329651
1789635387344646700,9.750646728515624,0.1379309743642807,0.11492312699556351,-0.7592336535453796
1789635387354686700,9.760686767578125,0.15494830906391144,0.13734987378120422,-0.7115926146507263
1789635387364725500,9.7707255859375,0.15169498324394226,0.016936106607317924,-0.6530851125717163
1789635387374765600,9.780765625,0.11576521396636963,0.016386430710554123,-0.5520977973937988
1789635387384805600,9.7908056640625,0.07175807654857635,-0.11612846702337265,-0.49593040347099304
1789635387394844700,9.8008447265625,-0.001782453735359013,-0.26200976967811584,-0.41441768407821655
1789635387404884500,9.810884521484375,-0.08117847889661789,-0.26711106300354004,-0.21976804733276367
1789635387414924500,9.820924560546874,-0.09860487282276154,-0.04206303134560585,-0.0489952377974987
1789635387424963800,9.8309638671875,-0.0815100371837616,0.2678908407688141,0.03705708682537079
1789635387435003600,9.841003662109374,-0.01817474327981472,0.3906894624233246,0.15013757348060608
1789635387445043500,9.85104345703125,0.05060618743300438,0.1827477067708969,0.33347275853157043
1789635387455083500,9.86108349609375,0.10605532675981522,0.12697099149227142,0.5455730557441711
1789635387465122800,9.871122802734375,0.05746196210384369,0.24998188018798828,0.746273398399353
1789635387475162600,9.88116259765625,-0.02009115368127823,0.30968010425567627,0.9594892859458923
1789635387485202400,9.891202392578125,-0.04156901314854622,0.2271074503660202,1.1511585712432861
1789635387495241700,9.90124169921875,-0.07332055270671844,0.15047898888587952,1.3175363540649414
1789635387505281800,9.91128173828125,-0.13447818160057068,0.2261607050895691,1.5511754751205444
1789635387515321900,9.92132177734375,-0.15273840725421906,0.33678069710731506,1.7257390022277832
1789635387525360600,9.931360595703126,-0.09161034226417542,0.358006089925766,1.722517967224121
1789635387535400700,9.941400634765625,-0.04003769904375076,0.34012293815612793,1.6318758726119995
1789635387545440800,9.951440673828126,-0.0229929331690073,0.4254873991012573,1.6655372381210327
1789635387555479800,9.961479736328124,-0.033854901790618896,0.34276747703552246,1.7653908729553223
1789635387565519600,9.97151953125,-0.06532041728496552,0.2859260141849518,1.8630329370498657
1789635387575559700,9.9815595703125,-0.09108836203813553,0.3522390127182007,1.972739815711975
1789635387585599700,9.991599853515625,-0.09843522310256958,0.4672614634037018,2.05488920211792
1789635387595638800,10.001638671875,-0.10988442599773407,0.5398805141448975,2.034580945968628
1789635387605678600,10.0116787109375,-0.09808981418609619,0.5176724195480347,1.9403862953186035
1789635387615718700,10.02171875,-0.07310350239276886,0.4636840522289276,1.9187053442001343
1789635387625757700,10.0317578125,-0.0633494108915329,0.5118094682693481,1.9929488897323608
1789635387635797800,10.0417978515625,-0.0711149200797081,0.5985140204429626,2.0595076084136963
1789635387645837800,10.051837890625,-0.05258411541581154,0.565001368522644,2.0340373516082764
1789635387655876600,10.061876708984375,-0.0005422196118161082,0.4557238519191742,1.9971880912780762
1789635387665916700,10.071916748046876,-0.0032623722217977047,0.6063352227210999,2.0949997901916504
1789635387675956700,10.081956787109375,0.017359549179673195,0.6537871360778809,2.1783127784729004
1789635387685995500,10.09199560546875,0.12957610189914703,0.3532525897026062,2.127659797668457
1789635387696035600,10.10203564453125,0.20460480451583862,0.011287808418273926,2.03836989402771
1789635387706075600,10.11207568359375,0.19642303884029388,-0.06662137061357498,1.9997715950012207
1789635387716115700,10.12211572265625,0.20849861204624176,0.0038570561446249485,2.001429796218872
1789635387726154500,10.132154541015625,0.2368335872888565,-0.02412664145231247,2.029757499694824
1789635387736194600,10.142194580078124,0.22773675620555878,-0.14174941182136536,2.0472021102905273
1789635387746234600,10.152234619140625,0.19668295979499817,-0.21026667952537537,2.034564971923828
1789635387756273700,10.162273681640626,0.17972129583358765,-0.15730705857276917,1.9981989860534668
1789635387766313500,10.1723134765625,0.1709728091955185,0.006402239203453064,1.9695141315460205
1789635387776353500,10.182353515625,0.1274825930595398,0.09805572777986526,1.9299025535583496
1789635387786392600,10.192392578125,0.05335270240902901,-0.09190995246171951,1.8554972410202026
1789635387796432600,10.2024326171875,0.03007827326655388,-0.33423498272895813,1.8088445663452148
1789635387806472700,10.21247265625,0.03798573091626167,-0.3429695963859558,1.8611652851104736
1789635387816512500,10.222512451171875,0.021131383255124092,-0.00977380108088255,1.9854214191436768
1789635387826551600,10.232551513671876,-0.020836573094129562,0.32708942890167236,2.007498025894165
1789635387836591600,10.242591552734375,-0.05473834648728371,0.2259199470281601,1.8145437240600586
1789635387846631700,10.252631591796876,-0.10991211980581284,-0.20245350897312164,1.5312888622283936
1789635387856670700,10.262670654296874,-0.16398628056049347,-0.44126129150390625,1.3790642023086548
1789635387866710800,10.272710693359375,-0.14233317971229553,-0.200226828455925,1.368213415145874
1789635387876750600,10.28275048828125,-0.19078299403190613,0.28551802039146423,1.3507814407348633
1789635387886789600,10.29278955078125,-0.3041236698627472,0.7005090713500977,1.2142735719680786
1789635387896829700,10.30282958984375,-0.3947763442993164,0.7986487150192261,1.0501632690429688
1789635387906869800,10.312869873046875,-0.4082636535167694,0.6686336994171143,0.9140797257423401
1789635387916908800,10.32290869140625,-0.32180625200271606,0.4668846130371094,0.842657744884491
1789635387926948900,10.332948974609375,-0.221498042345047,0.3803976774215698,0.812174916267395
1789635387936988700,10.34298876953125,-0.1410127878189087,0.3097589313983917,0.7447181344032288
1789635387947028700,10.35302880859375,-0.0913807824254036,0.1308746635913849,0.6339519023895264
1789635387957067800,10.36306787109375,-0.13355806469917297,0.07627452909946442,0.5531289577484131
1789635387967107800,10.37310791015625,-0.23467828333377838,0.12934839725494385,0.4672204554080963
1789635387977147600,10.383147705078125,-0.226689875125885,0.03443041071295738,0.3619568645954132
1789635387987186700,10.393186767578126,-0.07701675593852997,-0.08370581269264221,0.23399998247623444
1789635387997226800,10.403226806640625,0.0049313753843307495,0.07308592647314072,0.014199175871908665
1789635388007266800,10.413266845703125,0.05152124911546707,0.5375710725784302,-0.24583160877227783
1789635388017305600,10.4233056640625,0.10396687686443329,0.7427295446395874,-0.477105051279068
1789635388027345700,10.433345703125,0.22083517909049988,0.27374446392059326,-0.5945520401000977
1789635388037385700,10.4433857421875,0.29372668266296387,-0.33261868357658386,-0.5679092407226562
1789635388047424500,10.453424560546875,0.2908448874950409,-0.4946688413619995,-0.6040898561477661
1789635388057464600,10.463464599609376,0.2125926911830902,-0.35724467039108276,-0.687329113483429
1789635388067504600,10.473504638671875,0.029712354764342308,-0.030180806294083595,-0.7706114649772644
1789635388077544700,10.483544677734375,-0.14300189912319183,0.3313180208206177,-0.8132058382034302
1789635388087583700,10.493583740234374,-0.23192697763442993,0.38891711831092834,-0.7959828972816467
1789635388097623600,10.50362353515625,-0.2845049500465393,0.2888491153717041,-0.7184910178184509
1789635388107663600,10.51366357421875,-0.2835158705711365,0.37987834215164185,-0.6783785223960876
1789635388117702700,10.52370263671875,-0.2076655775308609,0.6666829586029053,-0.6875341534614563
1789635388127742700,10.53374267578125,-0.09734732657670975,0.8089389204978943,-0.6572462916374207
1789635388137782500,10.543782470703125,-0.02689925767481327,0.8027728796005249,-0.6331825256347656
1789635388147821600,10.553821533203125,-0.014072941616177559,0.7996506094932556,-0.7136622071266174
1789635388157862100,10.563862060546874,-0.04260125756263733,0.7347136735916138,-0.8411927223205566
1789635388167902200,10.573902099609375,-0.012600480578839779,0.27514156699180603,-0.9239339232444763
1789635388177941200,10.583941162109374,0.09805040061473846,-0.4088596701622009,-0.9330190420150757
1789635388187981300,10.593981201171875,0.06438697874546051,-0.6742894649505615,-0.9313356280326843
1789635388198021000,10.604021240234376,-0.05548909306526184,-0.4934379458427429,-0.9082306027412415
1789635388208061200,10.614061279296875,-0.14567996561527252,-0.10968601703643799,-0.84050452709198
1789635388218100200,10.624100341796876,-0.20499815046787262,0.3066190481185913,-0.8358746767044067
1789635388228140300,10.634140380859375,-0.2514047920703888,0.5904569029808044,-0.9035500884056091
1789635388238180400,10.644180419921875,-0.23314909636974335,0.6541551947593689,-1.0004258155822754
1789635388248219100,10.65421923828125,-0.11934130638837814,0.48803651332855225,-1.0896451473236084
1789635388258259200,10.66425927734375,-0.012054266408085823,0.13625237345695496,-1.252793550491333
1789635388268299300,10.67429931640625,0.03611725941300392,-0.3522328734397888,-1.449513554573059
1789635388278338300,10.68433837890625,0.06835615634918213,-0.6217429041862488,-1.5448552370071411
1789635388288378000,10.694378173828126,-0.031127559021115303,-0.3032666742801666,-1.5478670597076416
1789635388298418200,10.704418212890625,-0.1922546625137329,0.3222997486591339,-1.5382037162780762
1789635388308458200,10.714458251953126,-0.25637853145599365,0.7105920910835266,-1.5391532182693481
1789635388318497300,10.724497314453124,-0.22986462712287903,0.7609151601791382,-1.573752999305725
1789635388328537300,10.734537353515625,-0.1180022731423378,0.4460136890411377,-1.6053385734558105
1789635388338577200,10.7445771484375,0.028027640655636787,0.43085846304893494,-1.6293368339538574
1789635388348616400,10.754616455078125,0.14227645099163055,0.37011441588401794,-1.6804392337799072
1789635388358656500,10.764656494140626,0.2414480447769165,-0.08060403168201447,-1.7740404605865479
1789635388368696300,10.7746962890625,0.17499497532844543,-0.06916975229978561,-1.9072185754776
1789635388378735400,10.7847353515625,-0.06647089868783951,0.24073217809200287,-2.017740488052368
1789635388388775400,10.794775390625,-0.22181814908981323,0.06925737112760544,-2.001096725463867
1789635388398815500,10.8048154296875,-0.29384440183639526,-0.3130601644515991,-1.8429279327392578
1789635388408855300,10.814855224609374,-0.314823180437088,-0.7270384430885315,-1.6430566310882568
1789635388418894300,10.824894287109375,-0.3264870345592499,-1.0380173921585083,-1.4624730348587036
1789635388428934400,10.834934326171876,-0.3098830282688141,-0.965507984161377,-1.3796751499176025
1789635388438974500,10.844974365234375,-0.15713422000408173,-0.8495606184005737,-1.3866560459136963
1789635388449013200,10.85501318359375,0.03423014283180237,-0.7922714948654175,-1.4125635623931885
1789635388459053300,10.86505322265625,0.19898420572280884,-0.8571197390556335,-1.5353238582611084
1789635388469093400,10.87509326171875,0.3572918176651001,-0.9242300987243652,-1.6628730297088623
1789635388479132200,10.885132080078124,0.46883857250213623,-0.903562068939209,-1.733160138130188
1789635388489172200,10.895172119140625,0.5062205791473389,-0.8559018969535828,-1.751084804534912
1789635388499212300,10.90521240234375,0.4516526758670807,-0.787441611289978,-1.7340673208236694
1789635388509251300,10.915251220703125,0.36773645877838135,-0.602070152759552,-1.7005313634872437
1789635388519291400,10.92529150390625,0.3047202229499817,-0.44293561577796936,-1.6954764127731323
1789635388529331200,10.935331298828125,0.2898145020008087,-0.43375036120414734,-1.7635873556137085
1789635388539371300,10.945371337890625,0.3248923420906067,-0.45278477668762207,-1.82595694065094
1789635388549410300,10.955410400390624,0.3717770278453827,-0.49814373254776,-1.8685446977615356
1789635388559450400,10.965450439453125,0.3966245651245117,-0.5915365219116211,-1.8675669431686401
1789635388569490200,10.975490234375,0.3451736271381378,-0.49537724256515503,-1.8116390705108643
1789635388579529200,10.985529296875,0.2680673897266388,-0.25949761271476746,-1.7346315383911133
1789635388589569300,10.9955693359375,0.1989932656288147,-0.2167927622795105,-1.6363409757614136
1789635388599609300,11.005609375,0.15594086050987244,-0.3707045614719391,-1.5496894121170044
1789635388609648000,11.015648193359375,0.1264335662126541,-0.4428029954433441,-1.373018503189087
1789635388619688200,11.025688232421874,0.15373124182224274,-0.3616042733192444,-1.1490753889083862
1789635388629728300,11.035728271484375,0.2017355114221573,-0.26188406348228455,-0.9569134712219238
1789635388639767300,11.045767333984376,0.2168380320072174,-0.20498616993427277,-0.8022610545158386
1789635388649807000,11.05580712890625,0.1579321026802063,-0.026087526232004166,-0.6532840728759766
1789635388659847200,11.06584716796875,0.1435672789812088,-0.013137373141944408,-0.6264244914054871
1789635388669887200,11.07588720703125,0.09189077466726303,-0.17800408601760864,-0.5773274898529053
1789635388679926300,11.08592626953125,0.004464789759367704,-0.3043375313282013,-0.38776636123657227
1789635388689966000,11.095966064453124,-0.06480616331100464,-0.2503989338874817,-0.17298269271850586
1789635388700006100,11.106006103515625,-0.00968298688530922,-0.1676180213689804,-0.04162440821528435
1789635388710045400,11.11604541015625,-0.011447864584624767,-0.20603013038635254,0.02863217703998089
1789635388720085500,11.12608544921875,-0.09324739128351212,-0.24880662560462952,0.08752398937940598
1789635388730125300,11.136125244140626,-0.18072398006916046,-0.22382323443889618,0.09726610034704208
1789635388740164400,11.146164306640625,-0.2180529683828354,-0.23932842910289764,0.0851079672574997
1789635388750204400,11.156204345703125,-0.23611558973789215,-0.269094854593277,0.1329820156097412
1789635388760244500,11.166244384765625,-0.27799540758132935,-0.24373356997966766,0.2692487835884094
1789635388770284300,11.1762841796875,-0.2810593545436859,-0.07702314853668213,0.4999227225780487
1789635388780323300,11.1863232421875,-0.17130623757839203,0.3497750461101532,0.7332713007926941
1789635388790363400,11.19636328125,-0.06029423326253891,0.6001558899879456,0.7898712158203125
1789635388800403500,11.206403564453124,0.005224322900176048,0.5806007981300354,0.7552181482315063
1789635388810442200,11.216442138671875,0.04090721905231476,0.3892638683319092,0.8759594559669495
1789635388820482300,11.226482421875,-0.009672068059444427,0.3675103783607483,1.1535801887512207
1789635388830522400,11.2365224609375,-0.25345703959465027,0.5120049715042114,1.3917770385742188
1789635388840561400,11.2465615234375,-0.51658695936203,0.5679470896720886,1.5797072649002075
1789635388850601200,11.256601318359374,-0.604544997215271,0.5419799089431763,1.684348702430725
1789635388860641300,11.266641357421875,-0.4751409590244293,0.5290249586105347,1.7496094703674316
1789635388870681300,11.276681396484374,-0.2452574223279953,0.6597464680671692,1.829920768737793
1789635388880720400,11.286720458984375,-0.030174147337675095,0.6670281291007996,1.876678705215454
1789635388890760200,11.29676025390625,0.07186567038297653,0.6586055755615234,1.966328501701355
1789635388900800300,11.30680029296875,0.07710650563240051,0.7719742059707642,2.119641065597534
1789635388910839300,11.31683935546875,0.0617416612803936,0.8451999425888062,2.2188987731933594
1789635388920879400,11.32687939453125,0.06995005905628204,0.7901098132133484,2.2470202445983887
1789635388930919400,11.33691943359375,0.12267745286226273,0.625760555267334,2.2206573486328125
1789635388940958200,11.346958251953126,0.24033616483211517,0.4861952066421509,2.183915853500366
1789635388950998300,11.356998291015625,0.349862664937973,0.5814942717552185,2.1701841354370117
1789635388961038300,11.367038330078126,0.4571891129016876,0.5012356638908386,2.054594039916992
1789635388971077000,11.3770771484375,0.4881680905818939,0.22081440687179565,1.933376669883728
1789635388981117200,11.3871171875,0.4299255311489105,0.040398821234703064,1.9522347450256348
1789635388991157200,11.3971572265625,0.3173052668571472,0.10999520868062973,2.059634208679199
1789635389001197300,11.407197265625,0.22879669070243835,0.17100343108177185,2.110398292541504
1789635389011236000,11.417236083984376,0.2532040476799011,0.019331619143486023,2.0244557857513428
1789635389021276200,11.427276123046875,0.3454071879386902,-0.11997753381729126,1.8619951009750366
1789635389031316200,11.437316162109376,0.40526387095451355,-0.06356219947338104,1.7213141918182373
1789635389041355300,11.447355224609375,0.45897236466407776,-0.0641251876950264,1.6232129335403442
1789635389051395000,11.45739501953125,0.45220527052879333,-0.03461923077702522,1.627102255821228
1789635389061435100,11.46743505859375,0.3735155165195465,0.16493836045265198,1.7288106679916382
1789635389071474400,11.477474365234375,0.2528761923313141,0.36601927876472473,1.8330761194229126
1789635389081514200,11.48751416015625,0.20053230226039886,0.22570449113845825,1.842078447341919
1789635389091554300,11.49755419921875,0.2602001428604126,0.01853799819946289,1.751320242881775
1789635389101594000,11.507593994140626,0.3671335279941559,0.022053370252251625,1.6277475357055664
1789635389111633400,11.51763330078125,0.45485326647758484,-0.16966067254543304,1.5165876150131226
1789635389121673500,11.527673583984376,0.4937244951725006,-0.3541263937950134,1.4471383094787598
1789635389131713300,11.53771337890625,0.3755885362625122,-0.1702636033296585,1.4714641571044922
1789635389141752300,11.54775244140625,0.2065339982509613,0.1783580183982849,1.527904987335205
1789635389151792400,11.55779248046875,0.04273707792162895,0.48876330256462097,1.5312068462371826
1789635389161832400,11.56783251953125,-0.03652658686041832,0.5113386511802673,1.448988914489746
1789635389171871500,11.57787158203125,-0.027906466275453568,0.3505566716194153,1.3388434648513794
1789635389181911600,11.58791162109375,0.020363328978419304,0.2581343352794647,1.248961329460144
1789635389191951600,11.59795166015625,0.1320299357175827,0.159745454788208,1.1954901218414307
1789635389201990400,11.607990478515624,0.2664247751235962,-0.007208644412457943,1.151609182357788
1789635389212030500,11.618030517578125,0.2848123013973236,-0.13257455825805664,1.0849004983901978
1789635389222070500,11.628070556640624,0.17085109651088715,-0.11982307583093643,1.030585527420044
1789635389232110600,11.638110595703125,0.08624966442584991,-0.07904421538114548,0.9783028960227966
1789635389242149400,11.6481494140625,0.13172367215156555,-0.2260083705186844,0.8873423933982849
1789635389252189400,11.658189453125,0.08486775308847427,-0.27657565474510193,0.7650468349456787
1789635389262229500,11.6682294921875,-0.04861786961555481,0.006935670506209135,0.5980588793754578
1789635389272268500,11.6782685546875,-0.10435756295919418,0.1395496428012848,0.4107297360897064
1789635389282308400,11.688308349609375,-0.062298260629177094,-0.060451626777648926,0.23455578088760376
1789635389292348400,11.698348388671874,-0.07748999446630478,-0.14380031824111938,0.05235615000128746
1789635389302387500,11.708387451171875,-0.13316737115383148,0.10936404019594193,-0.15514270961284637
1789635389312427500,11.718427490234374,-0.11122798919677734,0.2838282585144043,-0.35560497641563416
1789635389322467600,11.728467529296875,-0.1422697901725769,0.4445151388645172,-0.4936975836753845
1789635389332506400,11.73850634765625,-0.2090616077184677,0.5346798896789551,-0.6195953488349915
1789635389342546400,11.74854638671875,-0.22915595769882202,0.2758321166038513,-0.7002922892570496
1789635389352586500,11.75858642578125,-0.2380027025938034,0.0540429949760437,-0.7489911317825317
1789635389362626600,11.76862646484375,-0.25907498598098755,0.0718853771686554,-0.8420385122299194
1789635389372665300,11.778665283203125,-0.31541362404823303,0.20708714425563812,-0.9119976162910461
1789635389382705400,11.788705322265624,-0.3481864631175995,0.4904397428035736,-0.9367197751998901
1789635389392745500,11.798745361328125,-0.295401006937027,0.6964850425720215,-0.876368522644043
1789635389402784300,11.8087841796875,-0.1935492306947708,0.8703601956367493,-0.7376386523246765
1789635389412824300,11.81882421875,-0.06328629702329636,0.9705411195755005,-0.6398912668228149
1789635389422864400,11.828864501953126,0.01635793410241604,0.7525851130485535,-0.6257150173187256
1789635389432903400,11.8389033203125,0.05215214937925339,0.3273160755634308,-0.6549096703529358
1789635389442943500,11.848943603515625,0.04685405641794205,-0.13156788051128387,-0.7182720899581909
1789635389452983300,11.8589833984375,0.04490568861365318,-0.4455825388431549,-0.7784909605979919
1789635389463023400,11.8690234375,0.047513723373413086,-0.657653272151947,-0.783105731010437
1789635389473062400,11.8790625,0.012139753438532352,-0.5797973275184631,-0.7340835928916931
1789635389483102500,11.8891025390625,-0.08248715102672577,-0.1612062007188797,-0.7144938707351685
1789635389493142300,11.899142333984376,-0.14436011016368866,0.23393526673316956,-0.7329850196838379
1789635389503181600,11.909181640625,-0.13834482431411743,0.2742456793785095,-0.7771229147911072
1789635389513221400,11.919221435546875,-0.08783850818872452,0.06150011345744133,-0.8560760617256165
1789635389523261400,11.929261474609374,-0.11573591828346252,0.03903581574559212,-0.9909595847129822
1789635389533300500,11.939300537109375,-0.20040154457092285,0.15516002476215363,-1.1658085584640503
1789635389543340500,11.949340576171876,-0.2426786869764328,0.18829746544361115,-1.2885135412216187
1789635389553380600,11.959380615234375,-0.24724601209163666,0.28882062435150146,-1.3507089614868164
1789635389563419400,11.96941943359375,-0.22095447778701782,0.41553622484207153,-1.4134641885757446
1789635389573459500,11.97945947265625,-0.13829582929611206,0.40847882628440857,-1.4682917594909668
1789635389583499500,11.98949951171875,-0.06844697147607803,0.2028828114271164,-1.4467185735702515
1789635389593539600,11.99953955078125,-0.035000063478946686,-0.169367715716362,-1.391611933708191
1789635389603578600,12.00957861328125,-0.020490361377596855,-0.4113917946815491,-1.3301531076431274
1789635389613618400,12.019618408203126,0.0023031015880405903,-0.5906081795692444,-1.2946581840515137
1789635389623658500,12.029658447265625,0.09629617631435394,-0.6875048875808716,-1.2961714267730713
1789635389633697500,12.039697509765626,0.17503146827220917,-0.6341196894645691,-1.3342136144638062
1789635389643737600,12.049737548828125,0.20858436822891235,-0.5189625024795532,-1.438471794128418
1789635389653777400,12.05977734375,0.15426680445671082,-0.4751465618610382,-1.5279021263122559
1789635389663816400,12.06981640625,0.10173674672842026,-0.5234304666519165,-1.5844793319702148
1789635389673856500,12.0798564453125,0.05570081248879433,-0.7667853236198425,-1.6237173080444336
1789635389683896600,12.089896484375,-0.05333299562335014,-0.8484759330749512,-1.655644416809082
1789635389693936400,12.099936279296875,-0.17124472558498383,-0.7276474833488464,-1.6975175142288208
1789635389703975400,12.109975341796876,-0.1863219439983368,-0.6415999531745911,-1.6877548694610596
1789635389714015500,12.120015380859375,-0.17920677363872528,-0.5243346095085144,-1.6197025775909424
1789635389724055600,12.1300556640625,-0.1247778832912445,-0.5803307890892029,-1.6222152709960938
1789635389734094300,12.14009423828125,-0.015076421201229095,-0.7902402877807617,-1.6216334104537964
1789635389744134400,12.150134521484375,0.027058515697717667,-0.7653376460075378,-1.5817354917526245
1789635389754174500,12.160174560546874,0.020001403987407684,-0.7282861471176147,-1.6037966012954712
1789635389764213500,12.170213623046875,-0.03339337557554245,-0.6575464606285095,-1.680774211883545
1789635389774253300,12.18025341796875,-0.03405330702662468,-0.6275193095207214,-1.774163007736206
1789635389784293400,12.19029345703125,0.002025866648182273,-0.6974435448646545,-1.838417410850525
1789635389794332400,12.20033251953125,-0.012022041715681553,-0.6789103150367737,-1.822566270828247
1789635389804372500,12.21037255859375,-0.02845134772360325,-0.5577532649040222,-1.793200135231018
1789635389814412300,12.220412353515625,0.017171796411275864,-0.5633555054664612,-1.7954810857772827
1789635389824452400,12.230452392578124,0.05886811017990112,-0.7712548971176147,-1.8411990404129028
1789635389834491400,12.240491455078125,-0.013170663267374039,-0.9357019066810608,-1.9009188413619995
1789635389844531500,12.250531494140626,-0.13551095128059387,-0.9273896217346191,-1.9055449962615967
1789635389854571300,12.2605712890625,-0.1971103996038437,-0.795589804649353,-1.8726922273635864
1789635389864610600,12.270610595703126,-0.22727257013320923,-0.6994978785514832,-1.7753275632858276
1789635389874650400,12.280650390625,-0.27483901381492615,-0.5886683464050293,-1.6510910987854004
1789635389884690400,12.2906904296875,-0.28652551770210266,-0.49365925788879395,-1.5716136693954468
1789635389894729500,12.3007294921875,-0.2567753195762634,-0.34738725423812866,-1.5286445617675781
1789635389904769500,12.31076953125,-0.2372349202632904,-0.2961792051792145,-1.4790395498275757
1789635389914809300,12.320809326171876,-0.23963363468647003,-0.3892146050930023,-1.395802617073059
1789635389924849400,12.330849365234375,-0.2691420018672943,-0.37966904044151306,-1.2448195219039917
1789635389934888400,12.340888427734376,-0.2913511395454407,-0.20496326684951782,-1.0432624816894531
1789635389944928500,12.350928466796875,-0.2729889154434204,0.12342872470617294,-0.8454263210296631
1789635389954968600,12.360968505859375,-0.20643439888954163,0.4525269865989685,-0.6636853218078613
1789635389965007600,12.371007568359374,-0.10449152439832687,0.5715007781982422,-0.5101146697998047
1789635389975047400,12.38104736328125,-0.03423786535859108,0.5757921934127808,-0.3061239719390869
1789635389985087500,12.39108740234375,0.014925952069461346,0.5653582215309143,-0.06354249268770218
1789635389995126500,12.40112646484375,0.03391934931278229,0.5030362606048584,0.15643301606178284
1789635390005166600,12.41116650390625,-0.0167989544570446,0.37426841259002686,0.35694560408592224
1789635390015206700,12.42120654296875,-0.06275525689125061,0.26477867364883423,0.5444949865341187
1789635390025246500,12.43124658203125,-0.012318451888859272,0.3689018785953522,0.6704998016357422
1789635390035285500,12.441285400390624,0.05679137632250786,0.3764849603176117,0.6832616925239563
1789635390045325600,12.45132568359375,0.09108703583478928,0.30365121364593506,0.7091901898384094
1789635390055365600,12.46136572265625,0.11582433432340622,0.2998756766319275,0.8166695237159729
1789635390065404400,12.471404296875,0.1475772112607956,0.3095780909061432,0.9235687851905823
