time,seconds_elapsed,z,y,x
1788861424782753500,0.03575341796875,9.418190780639648,1.388636962890625,-0.5333084197998047
1788861424792760600,0.045760498046875,9.993547367095946,1.3232453300476072,-0.6676829879760742
1788861424802766600,0.0557666015625,10.239102674865721,1.2876315803527831,-0.3272574394226074
1788861424812772600,0.065772705078125,9.97125136413574,1.3178583763122558,0.16909049224853515
1788861424822779400,0.075779296875,9.770886612701416,1.8128595695495604,0.6138134506225585
1788861424832785700,0.08578564453125,9.941323843383788,1.9402011703491209,1.213560966491699
1788861424842792400,0.09579248046875,10.024223075866699,1.627308940887451,1.562216583251953
1788861424852798500,0.105798583984375,9.871443082427978,1.031751277923584,1.6093524284362792
1788861424862805500,0.115805419921875,9.376142613983154,0.4346972389221191,1.690007096862793
1788861424872811500,0.1258115234375,8.897302281951903,0.22206220397949217,1.8300678939819335
1788861424882817500,0.135817626953125,8.737489321136474,0.4424783943176269,1.4733318466186522
1788861424892824300,0.14582421875,9.298181422424316,1.1218331153869627,0.5475239921569824
1788861424902830600,0.15583056640625,9.438840769958496,1.5987281585693358,0.012569558715820313
1788861424912837600,0.165837646484375,8.833257387542725,1.6175824966430663,0.014065934753417967
1788861424922843400,0.175843505859375,8.642020529937744,1.5083470458984374,0.4215291297912597
1788861424932850700,0.1858505859375,8.7593364112854,1.3031938911437988,1.16837041015625
1788861424942856400,0.1958564453125,8.83565158920288,1.1590928787231445,1.4386159225463866
1788861424952862500,0.205862548828125,8.885331273651122,1.3691840744018553,1.0989385620117187
1788861424962869500,0.215869384765625,9.011326136016844,1.915959878540039,0.7817068420410156
1788861424972875500,0.22587548828125,8.91840118408203,2.1800702491760253,0.5868786819458007
1788861424982882600,0.235882568359375,9.266607888031006,2.212840884399414,0.5000888717651367
1788861424992888600,0.245888671875,9.534908111572266,2.230049208831787,0.591816722869873
1788861425002895600,0.2558955078125,9.724498955535887,2.1657050392150876,1.0519523544311522
1788861425012901600,0.265901611328125,9.099761959838867,2.4253262817382812,1.4671967048645018
1788861425022907400,0.275907470703125,8.494178577423096,2.8898014038085935,1.9584569580078124
1788861425032914400,0.28591455078125,8.29291600036621,3.1311668586730956,2.130540202331543
1788861425042920700,0.295920654296875,8.526799575042723,3.111713970184326,2.0834043571472165
1788861425052927500,0.305927490234375,8.822034567260742,3.1708208236694335,2.3033716346740722
1788861425062933500,0.31593359375,8.934562045288086,3.1830911071777344,2.5745149726867673
1788861425072939500,0.325939453125,8.90702872619629,3.23696064453125,2.3656208778381345
1788861425082946600,0.335946533203125,8.473528588104248,3.017143004608154,2.2379800018310547
1788861425092952600,0.34595263671875,8.29336491317749,2.7822119667053222,1.9879355659484863
1788861425102959400,0.35595947265625,8.737489321136474,2.6472388481140134,1.7348983779907226
1788861425112965600,0.365965576171875,9.714922148895264,2.3413795860290527,2.43250888671875
1788861425122972400,0.375972412109375,10.867879885864257,1.8296189811706542,4.168305090332031
1788861425132978400,0.385978515625,11.232846001434325,1.5040075553894041,5.894374849700927
1788861425142984700,0.395984619140625,10.984297941589356,1.3350667007446289,6.172102242279053
1788861425152991500,0.405991455078125,10.641627828979491,1.3949217422485352,5.262604886627197
1788861425162997500,0.41599755859375,10.086472319030761,1.4131775299072264,4.204667028045654
1788861425173004500,0.426004638671875,10.025869089508056,1.3862427612304686,3.369689199066162
1788861425183010600,0.436010498046875,10.34938558883667,1.3420996681213377,2.473659227752685
1788861425193017600,0.446017578125,10.611999583435058,0.9288006065368651,2.2260089935302734
1788861425203023400,0.4560234375,11.002104816436766,-0.16310498809814453,3.467851467132568
1788861425213029600,0.466029541015625,11.049689574432373,-0.9711480484008789,5.270535679626464
1788861425223036400,0.476036376953125,10.315118577575683,-1.160140341949463,7.18245534286499
1788861425233042400,0.48604248046875,8.635436475372314,-0.8755296195983886,7.6101196144104
1788861425243049700,0.4960498046875,6.1641714492797846,-0.567575431060791,7.048529687499999
1788861425253055500,0.506055419921875,4.444985019683838,-0.8491934013366699,6.833949363708496
1788861425263062500,0.5160625,4.576366835784912,-0.8845078758239746,6.612186434936523
1788861425273068500,0.526068603515625,5.549909085845947,0.10145429534912109,6.434267324066162
1788861425283074600,0.536074462890625,5.1422962532043455,1.1348515869140625,6.658125179290771
1788861425293081600,0.54608154296875,2.8567314933776853,1.9909283180236814,7.662343138122558
1788861425303087400,0.55608740234375,1.246780514526367,3.018340105438232,8.837596878051757
1788861425313094700,0.5660947265625,0.7872434333801269,3.1569045265197753,8.974216010284424
1788861425323100700,0.5761005859375,0.5669768806457519,2.540247961425781,8.359804009246826
1788861425333107500,0.586107421875,0.9512462471008301,1.5227122558593749,7.733720275115966
1788861425343113500,0.596113525390625,1.3371616271972655,0.07392097625732422,6.846369284820557
1788861425353119500,0.606119384765625,-0.041000703430175776,-1.2291232772827148,6.527491551208496
1788861425363126500,0.61612646484375,-2.6089316215515135,-1.3184569267272948,7.222408583068847
1788861425373132500,0.626132568359375,-4.396203160858154,-0.7270891166687011,7.590068175506591
1788861425383139600,0.6361396484375,-5.580584794616699,-0.316034619140625,7.720701803588867
1788861425393145600,0.6461455078125,-6.298246742248534,0.6462848106384277,7.713219923400878
1788861425403152400,0.65615234375,-6.3429883857727045,1.4847043045043944,6.346878963470458
1788861425413158400,0.666158447265625,-5.597044931030273,1.362450382232666,5.1243397407531734
1788861425423164700,0.67616455078125,-4.400093738555908,0.44532150878906246,4.707599014282226
1788861425433171500,0.68617138671875,-4.618863915252685,-0.46417584686279295,4.428225608062744
1788861425443177500,0.696177490234375,-6.196193896484375,-1.2975076622009276,4.248510845947266
1788861425453184500,0.7061845703125,-7.837419134521484,-1.7589900321960448,5.490951869964599
1788861425463190500,0.7161904296875,-11.129745692443848,-2.084002907562256,8.947879792022704
1788861425473197600,0.726197509765625,-14.151976375579833,-3.227234200286865,11.028141759490966
1788861425483203300,0.736203369140625,-16.41359911880493,-3.8373067108154295,12.728473851013183
1788861425493209600,0.746209716796875,-15.055488227081298,-2.776376100158691,9.776872116851806
1788861425503216400,0.75621630859375,-10.542418097686767,-2.8718448913574215,7.330895845794677
1788861425513222400,0.766222412109375,-6.910863092041015,-4.460696968078613,7.07980394668579
1788861425523229700,0.776229736328125,-4.885069212341309,-5.59255580291748,7.818714434051513
1788861425533235500,0.7862353515625,-3.1325135971069336,-5.378125116729736,9.348758932495116
1788861425543242500,0.796242431640625,-2.518700146484375,-4.656871866607665,9.794828629302978
1788861425553248500,0.80624853515625,-1.2023381462097167,-5.405808073425293,9.463830249786376
1788861425563254500,0.816254638671875,3.0515596534729004,-6.653636051177978,9.150189832305907
1788861425573261600,0.826261474609375,-1.6211737991333006,-3.7147535133361815,4.899883335113525
1788861425583267300,0.836267333984375,-7.764395983886718,-2.764854004669189,5.1033904762268065
1788861425593274600,0.846274658203125,-9.811139128112792,-4.9905637229919435,5.055805718231201
1788861425603280600,0.85628076171875,-4.8235681571960445,-8.737489321136474,5.648819541931152
1788861425613287400,0.866287353515625,-0.8406640579223632,-9.054721041107177,5.006874221801757
1788861425623293400,0.87629345703125,-1.1483189712524413,-8.051400907897948,3.8230911384582518
1788861425633300500,0.886300537109375,-2.9129952323913573,-6.893804405212402,3.2604537483215332
1788861425643306500,0.896306396484375,-2.9587843391418454,-5.899911441040039,2.883217349243164
1788861425653312500,0.9063125,-2.86017315826416,-8.767416841888426,3.8723219100952146
1788861425663319000,0.916319091796875,-2.7985224655151364,-9.020154754638671,3.1407436653137206
1788861425673325000,0.926324951171875,-4.5802574134826655,-12.83262162322998,3.033303865814209
1788861425683332000,0.93633203125,-7.688978631591796,-14.207342288970947,4.219331513214111
1788861425693338000,0.946338134765625,-7.16285281677246,-14.192977079010008,4.383932877349853
1788861425703345200,0.95634521484375,-5.544222856903076,-13.620912519836425,3.67719447479248
1788861425713351000,0.966350830078125,-4.534019393920898,-13.389123871612549,4.160374297332764
1788861425723357200,0.976357177734375,-4.400692288970947,-11.129895330047606,4.797381576538085
1788861425733364200,0.9863642578125,-4.2785880043029785,-8.812757035827635,3.5181297019958495
1788861425743370000,0.996369873046875,-4.295497053527832,-6.474220564270019,2.9797336036682127
1788861425753377300,1.006377197265625,-4.920234049224853,-5.2450972869873045,3.186981684875488
1788861425763383000,1.016383056640625,-5.627720639801025,-4.392911133575439,2.7521348083496093
1788861425773390000,1.02639013671875,-6.87584789276123,-4.6453497711181635,2.6785131072998047
1788861425783396000,1.03639599609375,-7.323862878417969,-6.527641188812256,2.9290064559936524
1788861425793402000,1.046402099609375,-6.383689813995361,-7.136815873718262,3.355623264312744
1788861425803409200,1.0564091796875,-4.812644612121582,-7.167790857696533,2.9212253005981443
1788861425813415200,1.066415283203125,-3.6016274848937986,-8.798391825866698,2.2076035682678223
1788861425823422200,1.076422119140625,-4.115632653808594,-10.558130046081542,2.5329157188415525
1788861425833428200,1.08642822265625,-5.777058968353271,-10.595389809417725,3.274519683074951
1788861425843435000,1.09643505859375,-6.52494771194458,-10.124180995178222,3.6727053466796873
1788861425853441000,1.10644091796875,-6.817489227294922,-9.236979642486572,3.1343092483520505
1788861425863448000,1.116447998046875,-6.63986939163208,-8.289773610687256,3.086125939941406
1788861425873454000,1.1264541015625,-6.303035145568847,-7.377433140563965,3.1199440383911132
1788861425883460000,1.136460205078125,-6.318148543548584,-6.890063465118407,3.4298435157775877
1788861425893467100,1.146467041015625,-5.8737248603820795,-6.963984441375732,3.946093248748779
1788861425903473200,1.15647314453125,-5.222950921630859,-7.953388277435303,4.484938259887695
1788861425913480000,1.16647998046875,-4.313752841186523,-9.060706545257569,4.401290839385986
1788861425923486000,1.17648583984375,-4.622904130554199,-9.205106832885741,3.4147301177978515
1788861425933493200,1.1864931640625,-4.965125330352783,-8.649502410125733,2.352452768707275
1788861425943499000,1.1964990234375,-4.961234752655029,-7.91612851409912,2.0519804603576657
1788861425953506000,1.206506103515625,-5.438728346252441,-6.514921992492676,2.3485621910095213
1788861425963512000,1.216511962890625,-5.590460876464843,2.024896054077148,2.442235330963135
1788861425973518000,1.22651806640625,-4.012382707214355,6.885574337005615,2.3383868339538574
1788861425983525000,1.236525146484375,-4.604498705291748,-1.2400468223571777,2.795828988647461
1788861425993531000,1.24653076171875,-5.17102667312622,-3.496581887054443,2.642300807189941
1788861426003538200,1.2565380859375,-4.202272826385498,-4.294000677490234,1.3848960227966307
1788861426013544200,1.266544189453125,-4.895394207000732,-5.606472100067139,0.49365445480346676
1788861426023551000,1.276551025390625,-4.674978016662598,-5.599289495086669,0.2510918991088867
1788861426033557200,1.28655712890625,-3.832069394683838,-3.1817443687438964,-0.22176292877197265
1788861426043563000,1.29656298828125,-3.114856359863281,-2.0370166999816894,-0.316034619140625
1788861426053570000,1.306570068359375,-2.5727193214416504,-2.9587843391418454,-0.2885013000488281
1788861426063576000,1.316576171875,-2.482188571166992,-4.576516473388671,-0.14694412689208983
1788861426073583000,1.3265830078125,-2.0745757385253905,-6.066308456420898,-0.3892074073791504
1788861426083589000,1.336589111328125,-2.300378882598877,-6.576722322845459,-0.7769184387207031
1788861426093596000,1.346595947265625,-2.811391299438476,-7.183053893280029,-1.4796166259765624
1788861426103602200,1.356602294921875,-5.777358243560791,-8.04361975250244,-1.2069769119262694
1788861426113609000,1.36660888671875,-9.480140748596192,-8.157643606567383,1.1559504890441894
1788861426123615000,1.376614990234375,-6.940341699981689,-6.10970336151123,2.185307565307617
1788861426133622300,1.386622314453125,-1.8574515754699705,-7.557746453094482,1.6065093139648436
1788861426143628000,1.3966279296875,-2.3050176483154297,-10.947936003875732,1.233462767791748
1788861426153634000,1.406634033203125,-3.398269981384277,-9.719411277008057,1.7378911300659179
1788861426163641000,1.41664111328125,-4.9446249786376955,-8.441955053710936,1.9321207397460936
1788861426173647000,1.426647216796875,-3.059490446472168,-8.122778044891357,0.6534674156188964
1788861426183654100,1.436654052734375,-4.281730393981934,-11.710938145446777,-0.6350619903564453
1788861426193660000,1.446659912109375,-5.333533110809326,-8.557026371002197,-0.9745897132873534
1788861426203667200,1.456667236328125,-7.3094976684570305,-7.217171266937256,-1.6434698020935057
1788861426213673200,1.466673095703125,-5.928492223358154,-6.340743821716308,-2.4226328048706054
1788861426223680000,1.476679931640625,-4.668094686889648,-10.187028788757324,-2.9294553688049314
1788861426233686300,1.486686279296875,-5.531952573394775,-13.705906678771973,-1.6494553062438964
1788861426243692000,1.496692138671875,-5.708076033020019,-15.438710130310058,0.337732071685791
1788861426253699000,1.506698974609375,-4.506785350036621,-14.551209502410888,2.964769843292236
1788861426263705000,1.516705078125,-4.781669628143311,-16.82136158905029,5.609614489746093
1788861426273712000,1.526712158203125,-2.2080524810791013,-14.590713829803466,5.802646998596191
1788861426283718100,1.53671826171875,-1.4923358222961425,-13.109600827789306,3.8462849670410155
1788861426293725000,1.546724853515625,-2.524236737823486,-11.368866583251952,1.143979480743408
1788861426303731200,1.556731201171875,-2.7916391357421872,-9.757568865966796,-1.1414356414794922
1788861426313738000,1.566738037109375,-2.5700258445739745,-8.093897987365722,-2.5239374626159665
1788861426323744000,1.576743896484375,-2.9554923118591305,-8.10167914276123,-3.4952351486206052
1788861426333751300,1.586751220703125,-3.333177623748779,-9.063549659729004,-3.6336499320983884
1788861426343757000,1.596757080078125,-3.3086370567321777,-10.34833812561035,-3.139546564483642
1788861426353763000,1.60676318359375,-4.44378791885376,-11.494113257598876,-2.250549560546875
1788861426363770000,1.61677001953125,-5.710919147491455,-12.826935394287108,-1.4870985061645507
1788861426373776100,1.626776123046875,-6.684910310363769,-14.044087663269043,-1.2547113075256346
1788861426383783200,1.636783203125,-4.975300687408447,-12.956371921539306,-1.7042226692199707
1788861426393789000,1.646788818359375,-3.4208652595520017,-11.52284367752075,-2.295141566467285
1788861426403796200,1.656796142578125,-2.466775897979736,-10.12507882080078,-2.5444378143310544
1788861426413802200,1.66680224609375,-2.9504046333312988,-11.393556787872313,-2.9008745864868164
1788861426423809000,1.67680908203125,-3.552695988464355,-13.38867495880127,-3.181894006347656
1788861426433815000,1.68681494140625,-4.7101428535461425,-13.940538441467284,-2.6843489738464354
1788861426443822000,1.696822021484375,-5.95677373046875,-13.885471803283691,-1.4665981544494628
1788861426453828000,1.706828125,-6.812700823974609,-13.431022400665283,-1.343296768951416
1788861426463834000,1.716834228515625,-7.576151878356933,-12.006472412872315,-2.240224565887451
1788861426473841200,1.726841064453125,-7.0184525291442865,-11.21683477783203,-2.8452093978881834
1788861426483847200,1.73684716796875,-5.862502040100098,-10.684274546051025,-2.94307239074707
1788861426493854000,1.74685400390625,-5.024082546234131,-10.554987656402588,-2.826953610229492
1788861426503860000,1.75685986328125,-4.697274019622802,-10.55962642211914,-2.428468671417236
1788861426513867300,1.7668671875,-4.406228880310058,-10.442759453582763,-1.9355624046325683
1788861426523873000,1.776873046875,-4.433462924194336,-10.096049125671387,-1.4829086532592772
1788861426533880000,1.786880126953125,-4.88387211151123,-9.689783031463623,-1.298555125427246
1788861426543886000,1.796885986328125,-5.557690241241454,-9.722703304290771,-1.8700211341857909
1788861426553892000,1.80689208984375,-6.99750326461792,-9.904213717651366,-2.619406253814697
1788861426563899100,1.816899169921875,-7.587823611450195,-8.470386198425292,-3.0180408302307127
1788861426573905000,1.82690478515625,-6.486041934967041,-7.252186466217041,-2.8655601119995118
1788861426583912200,1.836912109375,-5.471648619079589,-7.000346379089355,-2.4645313339233397
1788861426593918200,1.846918212890625,-5.162796604919433,-7.024737308502197,-2.2334908737182615
1788861426603925000,1.856925048828125,-5.303904865264892,-7.537096463775634,-2.179022785949707
1788861426613931300,1.86693115234375,-5.799055696105957,-8.066215030670165,-2.1335329544067383
1788861426623938000,1.87693798828125,-5.895871225738525,-8.43372498550415,-2.33045604095459
1788861426633944000,1.886944091796875,-5.683685103607178,-8.728810340118407,-2.615066763305664
1788861426643951000,1.896951171875,-5.587468124389648,-8.88757583770752,-2.645742472076416
1788861426653957000,1.90695703125,-5.482871439361572,-8.70262375946045,-2.4899697265625
1788861426663963100,1.916963134765625,-5.584625009918213,-8.163928385925292,-2.2934955528259278
1788861426673970700,1.926970703125,-6.26338118057251,-7.588871074676513,-2.1856068405151365
1788861426683976700,1.936976806640625,-6.50564446105957,-7.0187518043518065,-2.1691467041015624
1788861426693983700,1.946983642578125,-6.210858381652832,-6.338948170471191,-2.355295883178711
1788861426703989800,1.95698974609375,-5.40790299987793,-6.062567516326904,-2.809745285797119
1788861426713996500,1.96699658203125,-5.962011046600342,-5.879411089324951,-2.8176760787963864
1788861426724002800,1.9770029296875,-5.814169094085693,-5.727828196716308,-3.066972326660156
1788861426734009900,1.987009765625,-4.8144402633666985,-5.110124168395996,-3.5711014137268062
1788861426744015600,1.997015625,-6.670395462799072,-4.361337599182129,-3.349039209747314
1788861426754023000,2.00702294921875,-9.004293168640137,-3.843890765380859,-3.046621612548828
1788861426764028700,2.017028564453125,-9.662997900390625,-3.282899388885498,-3.1006407875061033
1788861426774034700,2.02703466796875,-8.50390502166748,-2.8592753326416016,-3.2601544731140133
1788861426784041700,2.037041748046875,-6.945279740905761,-2.717119609069824,-3.224690361022949
1788861426794047700,2.0470478515625,-5.68862314453125,-2.775328636932373,-3.1606454666137695
1788861426804054800,2.0570546875,-4.92876339263916,-2.4628853202819823,-3.3098341575622556
1788861426814060800,2.067060791015625,-5.843498064422607,-2.008435917663574,-3.42191272277832
1788861426824067800,2.07706787109375,-6.994660150146484,-1.8269255043029784,-3.4138322921752926
1788861426834073900,2.087073974609375,-7.594258028411865,-1.8781015647888182,-3.342155879974365
1788861426844080600,2.09708056640625,-7.633911993408202,-2.0409072776794432,-3.404554760742187
1788861426854086700,2.107086669921875,-7.352144385528564,-2.2207716773986816,-3.845836054229736
1788861426864093000,2.117093017578125,-7.06738402557373,-2.2930466400146483,-4.160075022125244
1788861426874099700,2.127099609375,-6.9044286750793455,-2.221070952606201,-3.816507083892822
1788861426884105700,2.137105712890625,-6.8213798049926755,-1.9086276359558105,-3.2981624244689938
1788861426894112800,2.14711279296875,-6.720224784851074,-1.4309844047546385,-3.3036990158081054
1788861426904118800,2.157118896484375,-6.298396379852295,-1.0672153900146484,-3.5791818443298338
1788861426914125600,2.16712548828125,-6.931213806152344,-1.0739490821838378,-3.886088569641113
1788861426924131600,2.177131591796875,-7.781903583526611,-1.6338929954528807,-4.1091982368469235
1788861426934139000,2.187138916015625,-8.36908154067993,-2.3246201744079587,-4.331858991241455
1788861426944144600,2.19714453125,-8.246079430389404,-2.8528409156799315,-4.4473792213439935
1788861426954151700,2.207151611328125,-7.9098437347412105,-2.8610709838867185,-4.144063798522949
1788861426964157700,2.21715771484375,-7.994538618469238,-2.389413256835937,-3.8009447731018065
1788861426974163700,2.227163818359375,-7.550114935302734,-1.8906711235046385,-3.6522049949645994
1788861426984170800,2.237170654296875,-7.321319039154052,-1.532887612915039,-3.850325182342529
1788861426994176500,2.247176513671875,-7.719654340362548,-1.6124948181152343,-4.276193802642822
1788861427004183800,2.257183837890625,-8.249820370483398,-1.802235299682617,-4.75623123550415
1788861427014189800,2.26718994140625,-8.73988352279663,-2.1197662948608396,-5.112219094848633
1788861427024196600,2.277196533203125,-9.001300416564941,-1.8828899681091307,-5.510554396057128
1788861427034203000,2.287202880859375,-8.90583162536621,-1.4335282440185546,-5.4333413925170895
1788861427044209700,2.297209716796875,-9.20630393371582,-1.8336591964721678,-4.32228218460083
1788861427054215700,2.307215576171875,-9.387215796661376,-2.842964833831787,-3.9290345619201656
1788861427064222700,2.31722265625,-9.362226316833496,-3.724629595184326,-4.054580511474609
1788861427074228700,2.327228759765625,-9.215132552337646,-4.159326834106445,-3.9516298400878904
1788861427084234800,2.33723486328125,-8.920945023345947,-4.116530479431152,-3.8413469261169433
1788861427094241500,2.347241455078125,-8.737339683532714,-3.284096489715576,-4.165910888671875
1788861427104247800,2.357247802734375,-8.541613697814942,-1.856553749847412,-5.13271944656372
1788861427114254600,2.367254638671875,-7.420977683258056,-0.598849690246582,-5.794117655181885
1788861427124260600,2.377260498046875,-5.513696785736084,0.0805050308227539,-5.421968934631347
1788861427134268000,2.387267822265625,-6.179733760070801,0.21009119567871093,-4.555716846466064
1788861427144273700,2.397273681640625,-8.09569363861084,-0.30750527572631836,-4.178929360198975
1788861427154280700,2.40728076171875,-7.403619721221923,-1.061678798675537,-3.397072880554199
1788861427164286700,2.41728662109375,-6.942286988830566,-0.9706991355895995,-3.0508114654541014
1788861427174293800,2.427293701171875,-7.727136220550537,-0.860565859222412,-3.5939959671020505
1788861427184299800,2.4372998046875,-8.189067503356933,-0.8722375923156738,-4.3342531929016115
1788861427194305500,2.447305419921875,-8.691700214385985,-0.9430161788940429,-4.624400506591797
1788861427204312800,2.457312744140625,-9.402927745056152,-1.191264963531494,-4.535964682769775
1788861427214318800,2.46731884765625,-9.944017320251465,-1.6874632575988768,-4.113388089752197
1788861427224325600,2.47732568359375,-10.497377178955077,-2.4322096115112304,-3.359364204406738
1788861427234331600,2.48733154296875,-10.57249525604248,-2.9511528213500973,-2.9535470230102536
1788861427244338700,2.497338623046875,-10.940753398895263,-3.069665803527832,-3.024325609588623
1788861427254344700,2.5073447265625,-11.310059004974365,-2.823212670135498,-3.3469442832946776
1788861427264351500,2.5173515625,-10.223390726470946,-2.4322096115112304,-3.375824340820312
1788861427274357800,2.527357666015625,-9.514108484649658,-2.0843021827697754,-2.7748797241210936
1788861427284364800,2.53736474609375,-9.204657920074462,-1.6947955001831054,-2.267009696960449
1788861427294370600,2.54737060546875,-8.67568899078369,-1.30873048248291,-2.1000141311645506
1788861427304376800,2.557376953125,-8.161085271453857,-1.0461164878845215,-2.031480108642578
1788861427314384000,2.5673837890625,-8.504204296874999,-1.0069114356994628,-1.645115815734863
1788861427324389600,2.5773896484375,-8.738985697174071,-1.2425906616210938,-1.201589958190918
1788861427334397000,2.58739697265625,-9.017311640167236,-1.6409259628295898,-0.9549871871948241
1788861427344402700,2.597402587890625,-8.411428982543946,-2.065447844696045,-0.74055650100708
1788861427354409700,2.60740966796875,-8.572738319396972,-2.251746661376953,-0.44861353607177734
1788861427364415700,2.617415771484375,-9.354744436645507,-2.345569438934326,-0.313490779876709
1788861427374422800,2.6274228515625,-9.386916521453857,-2.427870121002197,-0.6079775840759277
1788861427384428800,2.6374287109375,-9.95239702606201,-2.472611764526367,-1.3447931449890136
1788861427394435600,2.647435546875,-10.411634832000733,-2.5116671791076657,-2.245461882019043
1788861427404441900,2.65744189453125,-10.4954318901062,-2.498349432373047,-2.82830034866333
1788861427414448600,2.66744873046875,-10.172663578796387,-2.362927400970459,-2.8966847335815427
1788861427424454700,2.67745458984375,-9.738564890289306,-2.129043826293945,-2.5674820053100587
1788861427434460700,2.687460693359375,-9.725845693969726,-1.8893243850708006,-2.289305699920654
1788861427444467700,2.6974677734375,-10.054150596618651,-1.8011878364562988,-2.396296586608887
1788861427454473700,2.7074736328125,-9.934739788818359,-1.898601916503906,-2.594566411590576
1788861427464480500,2.71748046875,-9.764452195739745,-2.0596119781494138,-2.743306189727783
1788861427474486800,2.72748681640625,-9.938331091308592,-2.295740116882324,-2.7890952964782714
1788861427484493800,2.737493896484375,-9.456797282409667,-2.4048259300231933,-2.7539304595947263
1788861427494499600,2.74749951171875,-9.333046984100342,-2.2839187461853028,-2.64289935760498
1788861427504507000,2.7575068359375,-9.36013139038086,-2.0465935066223144,-2.5086744270324703
1788861427514513000,2.767512939453125,-8.868422224426268,-1.98554136428833,-2.314893730163574
1788861427524519700,2.777519775390625,-8.417564124298096,-2.231246309661865,-1.873163523864746
1788861427534525700,2.787525634765625,-8.289025422668457,-2.56000012512207,-1.4047978240966796
1788861427544532700,2.79753271484375,-8.539967684173584,-2.6657939109802244,-1.0257657737731933
1788861427554538800,2.807538818359375,-8.84223564376831,-2.60459213104248,-0.7730278610229492
1788861427564544800,2.817544677734375,-8.763975177001953,-2.3714567443847656,-0.8173205917358398
1788861427574551800,2.8275517578125,-8.63738176422119,-2.079364141845703,-1.0013748443603514
1788861427584557800,2.837557861328125,-8.730755628967284,-1.9387047943115234,-1.1767501159667968
1788861427594564600,2.847564697265625,-8.873060990142822,-1.85790048828125,-1.4924854598999022
1788861427604570600,2.857570556640625,-8.819640365600586,-1.848174044036865,-1.8552070114135741
1788861427614577700,2.86757763671875,-8.864830921936035,-1.8369512237548826,-1.9660884757995605
1788861427624583700,2.877583740234375,-9.09766703338623,-1.8222867385864256,-1.835454847717285
1788861427634590700,2.8875908203125,-9.227552473449707,-1.9533692794799804,-1.651550232696533
1788861427644596700,2.8975966796875,-9.133280783081053,-2.205957554626465,-1.3603554557800293
1788861427654603800,2.907603759765625,-9.382128118133544,-2.5513211441040036,-1.1417349166870117
1788861427664609800,2.91760986328125,-9.975740492248535,-2.8802245971679685,-1.1245265922546386
1788861427674616600,2.927616455078125,-10.234763184356689,-2.9240684150695797,-1.3072341064453123
1788861427684622600,2.93762255859375,-10.12552773361206,-2.671629777526855,-1.2114660400390624
1788861427694628400,2.94762841796875,-9.619752632904053,-2.327014376068115,-0.6967126831054687
1788861427704635400,2.957635498046875,-9.023895694732666,-2.1389199081420895,-0.3010708587646484
1788861427714641700,2.9676416015625,-8.539967684173584,-2.0540753868103026,-0.3930979850769043
1788861427724648400,2.9776484375,-8.570793030548096,-1.9584569580078124,-0.6359598159790039
1788861427734654500,2.987654541015625,-8.902689235687255,-1.887229458618164,-0.6528688652038573
1788861427744661500,2.99766162109375,-9.030629386901856,-1.9188029930114745,-0.5749076736450195
1788861427754667500,3.00766748046875,-8.975862023925782,-2.1740847450256346,-0.43290158767700193
1788861427764674300,3.01767431640625,-8.900893584442137,-2.5725696838378904,-0.30092122116088865
1788861427774680300,3.027680419921875,-8.843732019805907,-2.980182516479492,-0.506224013519287
1788861427784687600,3.0376875,-8.889820401763915,-3.2941222091674804,-0.89378540725708
1788861427794693400,3.047693359375,-9.053972853088379,-3.479972113037109,-1.153705924987793
1788861427804700400,3.057700439453125,-9.205555745697021,-3.541473168182373,-1.2460323265075683
1788861427814706700,3.067706787109375,-9.21812530441284,-3.6041713241577145,-1.1231798538208007
1788861427824713500,3.07771337890625,-9.037662354278565,-3.69634808807373,-0.8830114997863769
1788861427834719500,3.087719482421875,-8.838943616485595,-3.7747581924438474,-0.6043862815856933
1788861427844725200,3.097725341796875,-8.729109615325926,-3.8338650459289547,-0.4504091873168945
1788861427854732500,3.107732666015625,-8.773252708435058,-3.8117186805725094,-0.4825812721252441
1788861427864738600,3.117738525390625,-8.784026615905761,-3.7002386657714843,-0.6432920585632323
1788861427874745300,3.127745361328125,-8.572139768981932,-3.6049195121765134,-0.824203921508789
1788861427884751600,3.137751708984375,-8.287529046630858,-3.731662562561035,-0.7484872940063476
1788861427894758400,3.14775830078125,-7.896675625610351,-4.058620726776123,-0.5249287139892578
1788861427904764400,3.157764404296875,-7.713519198608398,-4.299088356018066,-0.36152445068359373
1788861427914771500,3.167771484375,-7.976582106018066,-4.527285701751708,-0.19153613281249998
1788861427924777500,3.177777587890625,-8.214505895996094,-4.798728314971924,-0.24794950942993163
1788861427934784500,3.187784423828125,-8.062025177764893,-5.107879604339599,-0.4682160621643066
1788861427944790300,3.197790283203125,-7.716661588287353,-5.376928015899658,-0.4547486778259277
1788861427954797600,3.207797607421875,-7.646032639312744,-5.5267152572631835,-0.3612251754760742
1788861427964803600,3.217803466796875,-7.912237936401366,-5.588665225219726,-0.19228432083129882
1788861427974810400,3.227810302734375,-8.227973280334473,-5.65615178451538,0.04219780426025391
1788861427984816600,3.237816650390625,-8.177246132659912,-5.77122310180664,0.35449148330688474
1788861427994822400,3.247822509765625,-7.804498861694335,-5.941361057281494,0.49799394531249996
1788861428004829400,3.257829345703125,-7.472004106140136,-5.853224508666992,0.43409868850708005
1788861428014835500,3.26783544921875,-7.706635868835448,-5.692812997436523,0.429011009979248
1788861428024842500,3.277842529296875,-8.309974687194824,-5.657199247741699,0.6298246742248534
1788861428034848500,3.2878486328125,-8.429984045410155,-5.656002146911621,0.9317933586120605
1788861428044855300,3.297855224609375,-7.813177842712402,-5.822997712707519,1.2713210815429687
1788861428054861600,3.307861572265625,-7.136965511322021,-6.246322493743896,1.578826357269287
1788861428064868400,3.317868408203125,-7.050325338745116,-6.688800888061523,1.5342343513488768
1788861428074874400,3.327874267578125,-7.412747615051269,-7.0744169929504395,1.0254664985656738
1788861428084881700,3.337881591796875,-7.577049703979492,-7.493551921081543,0.48108489608764643
1788861428094887400,3.347887451171875,-7.382071906280517,-8.004564337921142,0.10504559783935546
1788861428104894500,3.35789453125,-7.053617366027831,-8.419359775543212,-0.1423053611755371
1788861428114900500,3.367900390625,-6.800729815673828,-8.573037594604491,-0.314089330291748
1788861428124907500,3.377907470703125,-6.617723026275635,-8.3502272026062,-0.4317044868469238
1788861428134913500,3.38791357421875,-6.6510922119140625,-7.766490910339355,-0.6383540176391601
1788861428144919300,3.397919189453125,-6.8034232925415035,-7.15686731262207,-0.8102876243591308
1788861428154926600,3.407926513671875,-6.744316439056396,-6.914604032135009,-0.6985083343505859
1788861428164932600,3.4179326171875,-6.3797992362976075,-7.076362281799316,-0.256029940032959
1788861428174939400,3.427939453125,-6.037877311706542,-7.3457099685668945,0.1375169578552246
1788861428184945700,3.437945556640625,-6.120177993774414,-7.521833428192139,0.11896189498901366
1788861428194952400,3.447952392578125,-6.35840105895996,-7.690325370025635,-0.1858499038696289
1788861428204958500,3.45795849609375,-6.005256314086914,-8.072050897216796,-0.369006330871582
1788861428214965500,3.467965576171875,-5.783343747711181,-8.435370999145507,-0.48662148742675776
1788861428224971500,3.477971435546875,-6.0048074012756345,-8.755445833587647,-0.6313210502624511
1788861428234978600,3.487978515625,-6.25694676361084,-9.009680122375487,-0.8246528343200683
1788861428244984300,3.497984375,-6.192153681182861,-9.151536570739745,-0.7716811225891113
1788861428254991600,3.50799169921875,-6.414365522766113,-9.110685504913329,-0.5337573326110839
1788861428264997400,3.517997314453125,-6.630891135406494,-8.996212738037109,-0.3296516410827637
1788861428275004400,3.52800439453125,-6.3694742416381835,-9.107992028045654,-0.10684124908447265
1788861428285010700,3.5380107421875,-6.176441732788086,-9.350105670928954,0.11507131729125976
1788861428295017500,3.548017578125,-6.292410875701904,-9.622595747375488,0.3624222763061523
1788861428305023500,3.5580234375,-6.244526842498779,-9.938031816101073,0.5029319862365722
1788861428315029500,3.568029541015625,-5.897367601776122,-10.11984150466919,0.7196072364807129
1788861428325036500,3.57803662109375,-5.974430967712402,-10.027215827941895,0.988356372833252
1788861428335042600,3.58804248046875,-6.549338641357421,-9.73617068862915,1.2855366539001465
1788861428345049300,3.59804931640625,-6.718429133605957,-9.44871685180664,1.343296768951416
1788861428355055600,3.6080556640625,-6.536020894622802,-9.227253198242186,0.9305962577819824
1788861428365062400,3.6180625,-5.893626661682129,-9.29518867034912,0.41584290084838865
1788861428375068400,3.628068359375,-5.271283867645264,-9.408613973999023,-0.06868366012573242
1788861428385075500,3.638075439453125,-4.953004684448242,-9.40427448348999,-0.49036242752075193
1788861428395081500,3.64808154296875,-4.498555281829834,-9.413252739715576,-0.6808510971069336
1788861428405088500,3.658088623046875,-4.0447044296264645,-9.468768290710448,-0.6652887863159179
1788861428415094300,3.66809423828125,-3.624970951080322,-9.469965391540526,-0.49889177093505854
1788861428425101600,3.6781015625,-3.3146225608825683,-9.40367593307495,-0.296881005859375
1788861428435107600,3.688107666015625,-3.180547267913818,-9.494206683349608,-0.05117606048583984
1788861428445114400,3.6981142578125,-3.212120802307129,-9.745897132873534,0.22400749282836913
1788861428455120600,3.70812060546875,-3.5787329315185543,-10.179995821380615,0.5313631309509277
1788861428465127400,3.71812744140625,-4.138826482391357,-10.301950468444824,0.7643488800048828
1788861428475133400,3.728133544921875,-4.879981533813476,-10.072855297088623,0.7320271575927734
1788861428485140500,3.738140380859375,-5.52282467956543,-9.639205521392821,0.6165069274902344
1788861428495146500,3.748146484375,-6.000018997955322,-9.03272431335449,0.689530078125
1788861428505152500,3.758152587890625,-6.429329283142089,-8.354417055511474,0.8803180229187011
1788861428515159300,3.7681591796875,-6.763021139526367,-7.907748808288574,1.1843816337585449
1788861428525165600,3.77816552734375,-6.930914530944824,-8.029254542541503,1.4525322196960448
1788861428535172400,3.78817236328125,-7.797765169525146,-8.489839086914062,1.4814122772216796
1788861428545178400,3.798178466796875,-9.471611405181884,-9.009979397583008,1.2397475471496582
1788861428555185700,3.808185546875,-10.162188946533202,-9.535506661987304,0.7767688011169434
1788861428565191400,3.81819140625,-9.728838446044922,-9.80006594543457,0.17732056045532227
1788861428575198500,3.828198486328125,-8.747215765380858,-9.499443999481201,-0.23552958831787107
1788861428585204500,3.83820458984375,-6.8025254669189446,-8.732700917816162,-0.3389291725158691
1788861428595211500,3.84821142578125,-4.190601093292236,-7.677606173706054,-0.11043255157470702
1788861428605217500,3.858217529296875,-2.352003855895996,-6.541407848358154,0.5379471855163573
1788861428615224300,3.868224365234375,-2.0676924087524413,-5.347748683166504,1.4930840103149414
1788861428625230600,3.878230712890625,-3.0795418853759764,-4.350563691711425,2.267009696960449
1788861428635237400,3.8882373046875,-4.695628005981445,-3.611503566741943,2.4582465545654295
1788861428645243400,3.898243408203125,-6.131400814056396,-3.484012328338623,2.092232975769043
1788861428655250400,3.90825048828125,-6.700173345947265,-4.3525089805603026,1.3461398834228515
1788861428665256400,3.91825634765625,-6.676231329345702,-5.7703252761840815,0.6657376991271973
1788861428675263500,3.928263427734375,-7.068730764007568,-6.92014062347412,0.5454290657043457
1788861428685269200,3.938269287109375,-7.869142306518555,-7.556848627471924,0.7384615745544433
1788861428695276300,3.9482763671875,-8.887725475311278,-7.855525284576416,1.1200374641418456
1788861428705282600,3.958282470703125,-9.916932913970946,-7.866598467254638,1.6885107208251953
1788861428715288300,3.968288330078125,-10.599579662322997,-7.583184845733642,2.2918495391845704
1788861428725295400,3.97829541015625,-10.199299072265624,-6.9892731964111325,2.5746646102905273
1788861428735301400,3.98830126953125,-8.88667801208496,-6.243629016876221,2.443282794189453
1788861428745308400,3.998308349609375,-7.500435250854491,-5.597493843841552,2.093430076599121
1788861428755314400,4.008314453125,-6.542455311584472,-5.149029945373535,1.6334440826416015
1788861428765321200,4.0183212890625,-6.40972675704956,-4.822819969177246,1.1822867073059082
1788861428775327500,4.028327392578125,-6.82482146987915,-4.742165300750732,0.8563760063171386
1788861428785334300,4.038334228515625,-7.4208280456542965,-4.843021045684814,0.732326432800293
1788861428795340300,4.04834033203125,-8.153902666473389,-5.1140147460937495,0.7772177139282226
1788861428805347300,4.058347412109375,-8.485948509216309,-5.513696785736084,0.8201637062072753
1788861428815353300,4.068353271484375,-8.487893798065185,-5.840355674743652,0.8008604553222656
1788861428825360400,4.0783603515625,-8.511686177062987,-5.895721588134765,0.6346130775451659
1788861428835366100,4.0883662109375,-8.699930282592772,-5.67560467300415,0.3724479957580566
1788861428845373400,4.09837353515625,-8.948328704833983,-5.4242134986877435,0.24361001892089842
1788861428855379500,4.10837939453125,-9.009380847167968,-5.232078815460205,0.26126725616455077
1788861428865386200,4.11838623046875,-8.764723365020751,-5.037998843383789,0.34446576385498046
1788861428875392500,4.128392578125,-8.466495620727539,-4.756829785919189,0.4676175117492676
1788861428885399300,4.1383994140625,-8.445995269012451,-4.744559502410889,0.49455228042602534
1788861428895405300,4.1484052734375,-8.45901374053955,-4.859331544494629,0.378583137512207
1788861428905412400,4.158412353515625,-8.53667565689087,-4.862025021362304,0.2241571304321289
1788861428915418400,4.16841845703125,-8.620023802185058,-4.760421088409424,0.241964005279541
1788861428925425400,4.17842529296875,-8.761431337738037,-4.487931011962891,0.5539584091186524
1788861428935431200,4.18843115234375,-8.888024750518799,-4.356399558258056,0.8936357696533203
1788861428945438500,4.1984384765625,-9.149890557098388,-4.463540082550049,1.0236708473205567
1788861428955444200,4.2084443359375,-9.502586389160156,-4.714332706451415,0.7703343841552734
1788861428965450200,4.2184501953125,-9.515006310272216,-4.879382983398437,0.3366846084594726
1788861428975457500,4.22845751953125,-9.108740216064453,-4.85184966430664,0.19078794479370115
1788861428985463300,4.23846337890625,-8.678232830047607,-4.584147991180419,0.36496611557006836
1788861428995470300,4.24847021484375,-8.495226040649413,-4.164414512634277,0.6637924102783203
1788861429005476400,4.258476318359375,-8.508244512176514,-3.7645828353881834,0.8013093681335449
1788861429015483400,4.2684833984375,-8.391227906036377,-3.4056022239685055,0.6976105087280273
1788861429025489400,4.278489501953125,-8.202834162902832,-3.131316496276855,0.4100070343017578
1788861429035496200,4.28849609375,-8.330325401306151,-3.168276984405517,-0.005536591339111328
1788861429045502500,4.29850244140625,-8.690952026367187,-3.374627239990234,-0.6206967803955078
1788861429055509200,4.30850927734375,-8.304438095855712,-3.5640684463500976,-1.2618939125061035
1788861429065515300,4.318515380859375,-7.849689418029785,-3.746476685333252,-1.4278420150756834
1788861429075522300,4.328522216796875,-8.328230474853514,-3.9043443572998044,-1.175852290344238
1788861429085528300,4.3385283203125,-9.071181177520751,-4.1481040138244625,-1.066916114807129
1788861429095535400,4.348535400390625,-7.937975604248046,-4.42418539276123,-1.2645873893737791
1788861429105541000,4.358541015625,-7.556698989868163,-4.791096797180176,-1.274313833618164
1788861429115548400,4.36854833984375,-10.504859059143065,-5.174169062805175,-0.6587047317504883
1788861429125554400,4.378554443359375,-14.559589208221436,-5.491550420379638,0.24645313339233396
1788861429135561200,4.388561279296875,-14.468609545135497,-5.550956549072265,0.5053261878967285
1788861429145567500,4.3985673828125,-9.143306502532958,-4.908562316131592,0.0939724151611328
1788861429155574300,4.40857421875,-5.486612379455566,-3.599382920837402,-0.6404489440917969
1788861429165580300,4.418580322265625,-7.968950588226318,-2.409315058135986,-1.0480617767333984
1788861429175587300,4.42858740234375,-10.124330632781982,-2.5522189697265625,-0.5722141967773438
1788861429185593300,4.43859326171875,-7.5840826713562,-2.952050646972656,-0.037110125732421874
1788861429195600400,4.448600341796875,-7.826046676635742,-2.8381764305114743,0.16460136413574217
1788861429205606400,4.4586064453125,-9.638606970977783,-3.1159038230895995,-0.14948796615600585
1788861429215613400,4.468613525390625,-7.729231147003174,-3.5064579689025877,-0.5813420906066894
1788861429225619200,4.478619140625,-7.587524336242676,-3.7196915542602538,-0.9267056800842285
1788861429235626500,4.48862646484375,-9.081955084991455,-4.078223252868652,-1.5969325073242187
1788861429245632500,4.498632568359375,-8.839841442108154,-4.170549654388427,-2.6473884857177734
1788861429255639300,4.508639404296875,-8.84163709335327,-3.9309798507690425,-2.9206267501831054
1788861429265645300,4.518645263671875,-8.348581188964843,-3.5769372802734374,-2.3657705154418944
1788861429275652400,4.52865234375,-8.26224029159546,-3.0768484085083005,-1.8617910659790038
1788861429285658400,4.538658447265625,-8.427589843749999,-2.5139117431640625,-1.8236334770202636
1788861429295665200,4.5486650390625,-7.654412345123291,-1.9604022468566893,-1.6947955001831054
1788861429305671400,4.55867138671875,-7.586626510620117,-1.7727566917419433,-1.3648445838928223
1788861429315677400,4.568677490234375,-7.840860799407959,-1.661276676940918,-1.4776713371276855
1788861429325684200,4.578684326171875,-7.902810767364501,-1.2226888603210448,-2.1383213577270506
1788861429335690200,4.588690185546875,-7.447762814331054,-0.8473977500915527,-2.1568764205932616
1788861429345697300,4.598697265625,-6.871807677459716,-0.4843769233703613,-1.734599102783203
1788861429355703300,4.608703369140625,-7.077858657836914,-0.1236006607055664,-1.3646949462890625
1788861429365710300,4.61871044921875,-6.943484089660644,-0.05835866546630859,-1.1113584831237793
1788861429375716400,4.62871630859375,-6.9330094573974606,-0.11417349166870117,-0.8360252922058105
1788861429385723400,4.638723388671875,-7.873182521820068,-0.28086978225708004,-0.6682815383911133
1788861429395729400,4.6487294921875,-7.727136220550537,-0.557998624420166,-0.42063130416870115
1788861429405736400,4.658736328125,-7.551012760925293,-0.9380781379699706,0.19288287124633788
1788861429415742500,4.668742431640625,-8.097040377044678,-1.3379098152160644,0.675464143371582
1788861429425749200,4.678749267578125,-8.281543542480469,-1.7669208251953124,0.7101800674438477
1788861429435755300,4.68875537109375,-8.255356961822509,-2.0834043571472165,0.282815071105957
1788861429445762300,4.69876220703125,-8.40125362548828,-1.8927660499572754,-0.4165910888671875
1788861429455768300,4.708768310546875,-8.458714465332031,-1.2958616485595702,-0.9124901077270507
1788861429465775400,4.718775390625,-8.120084568023682,-0.7453449043273925,-1.0383353324890137
1788861429475781400,4.728781494140625,-7.638700396728515,-0.5243301635742187,-0.8285434120178222
1788861429485788400,4.738788330078125,-7.296628834533691,-0.7523778717041015,-0.3441664886474609
1788861429495794200,4.748794189453125,-7.213879239654541,-1.2548609451293944,-0.08798691101074219
1788861429505801500,4.758801513671875,-6.881534121704101,-1.7148469390869139,-0.09472060317993164
1788861429515807500,4.768807373046875,-6.516717643737793,-2.05572140045166,-0.05252279891967773
1788861429525814300,4.778814208984375,-7.0263833221435545,-2.1628619247436522,-0.0570119270324707
1788861429535820300,4.7888203125,-7.883806791687011,-2.3886650688171387,-0.06434416961669921
1788861429545827300,4.798827392578125,-7.935132489776611,-2.7742811737060546,0.03007715835571289
1788861429555833300,4.808833251953125,-7.534402986907959,-3.3066917678833008,0.14963760375976562
1788861429565840100,4.818840087890625,-7.537994289398193,-3.791816879272461,0.3408744613647461
1788861429575846400,4.828846435546875,-7.706785506439209,-4.123413809204101,0.42287586822509765
1788861429585853400,4.838853515625,-7.91612851409912,-4.266168083190918,0.22296002960205077
1788861429595859200,4.848859130859375,-8.271667460632324,-4.346523476409912,-0.17522563400268554
1788861429605866500,4.858866455078125,-8.304138820648193,-4.640860643005371,-0.3640682899475097
1788861429615872300,4.868872314453125,-8.109161022949218,-5.10129554977417,-0.20485387954711912
1788861429625879300,4.87887939453125,-8.124723333740233,-5.678597425079345,0.1619078872680664
1788861429635885300,4.88888525390625,-8.429235857391356,-6.51192924041748,0.8735843307495117
1788861429645892400,4.898892333984375,-8.729558528137206,-7.22031365661621,1.4806640892028808
1788861429655898400,4.9088984375,-8.588001354980468,-7.561786668395996,1.8504186080932616
1788861429665905200,4.9189052734375,-8.40738876724243,-7.464073313140869,2.0067899040222166
1788861429675911400,4.928911376953125,-7.945906397247314,-7.14369920349121,1.8887258346557616
1788861429685918200,4.938918212890625,-7.750928599548339,-6.908468890380859,1.4532804077148436
1788861429695924200,4.94892431640625,-7.723544918060302,-6.9527616210937495,0.8583212951660156
1788861429705931500,4.958931640625,-7.531410234832763,-7.242609659576416,0.40970775909423823
1788861429715937300,4.968937255859375,-7.33523533630371,-7.624035911560058,0.30406361083984373
1788861429725944300,4.9789443359375,-7.203105332183838,-8.008754190826416,0.41808746490478516
1788861429735950300,4.988950439453125,-7.478737798309326,-8.350975390624999,0.5891232460021972
1788861429745957400,4.998957275390625,-7.832331455993652,-8.745420114135742,0.8259995727539062
1788861429755963400,5.00896337890625,-8.029404180145264,-9.2190231300354,1.0362404060363768
1788861429765970200,5.01897021484375,-8.077886763763427,-9.739761991119384,1.0088567245483397
1788861429775976400,5.0289765625,-7.902212216949462,-10.331728351593018,0.8102876243591308
1788861429785983200,5.038983154296875,-7.923909669494629,-10.818948389434814,0.5065232887268066
1788861429795989200,5.0489892578125,-8.257302250671387,-10.992378372192382,0.07616554031372069
1788861429805996500,5.05899658203125,-8.20971749267578,-10.985345404815673,-0.1331774673461914
1788861429816002300,5.069002197265625,-7.5731591262817375,-10.933121881103515,-0.07392097625732422
1788861429826009300,5.07900927734375,-6.867767462158203,-10.804882454681396,0.16609774017333984
1788861429836015400,5.089015380859375,-6.498761131286621,-10.478223565673828,0.46238019561767574
1788861429846022400,5.0990224609375,-6.494272003173828,-10.051457119750976,0.8646060745239257
1788861429856028400,5.1090283203125,-6.886771437835693,-9.770288062286376,1.1997943069458008
1788861429866035500,5.119035400390625,-7.370998723602295,-9.680954412841796,1.2274772636413573
1788861429876041500,5.12904150390625,-7.621043159484863,-9.779864868927001,1.0708066925048827
1788861429886048300,5.13904833984375,-7.679401824951172,-9.90211879119873,0.7454945419311523
1788861429896054300,5.14905419921875,-7.754669539642333,-10.006565838623047,0.40895957107543945
1788861429906061300,5.159061279296875,-7.98645818786621,-10.08677159423828,0.2603694305419922
1788861429916067300,5.1690673828125,-8.35696089477539,-10.284592506408691,0.45070846252441404
1788861429926074400,5.179074462890625,-8.743774100494385,-10.410886643981932,0.8661024505615234
1788861429936080400,5.189080322265625,-8.794201972961424,-10.349984139251708,1.3133692481994628
1788861429946087400,5.19908740234375,-8.315212003326415,-10.206332039642334,1.5035586425781249
1788861429956093200,5.20909326171875,-7.853879270935058,-9.855132583618163,1.1082160934448242
1788861429966100500,5.2191005859375,-7.5248261802673335,-9.330203869628905,0.2558803024291992
1788861429976106500,5.2291064453125,-6.789955908203124,-8.934262770080565,-0.5476736297607422
1788861429986113300,5.23911328125,-5.824045175933837,-8.667010009765624,-1.0158896919250489
1788861429996119300,5.249119384765625,-4.8329953262329095,-8.52320827255249,-0.7200561492919921
1788861430006126300,5.259126220703125,-3.9701849029541014,-8.166921138000488,0.39579146194458004
1788861430016132400,5.26913232421875,-3.584269522857666,-7.673565958404541,1.9011457557678222
1788861430026139100,5.27913916015625,-4.5455414894104,-7.104643788909912,2.968061870574951
1788861430036145400,5.2891455078125,-6.368277140808105,-6.606500205993652,3.47308878326416
1788861430046152400,5.29915234375,-8.204330538940429,-6.181230136108398,3.748272336578369
1788861430056158200,5.309158203125,-8.996661650848388,-5.868038631439209,3.896263926696777
1788861430066165500,5.31916552734375,-8.720280996704101,-5.875370874023437,3.6406828994750975
1788861430076171500,5.329171630859375,-8.17200881652832,-6.2110080192565915,2.879925321960449
1788861430086178300,5.33917822265625,-7.781753945922851,-6.481702444458008,1.8040309509277344
1788861430096184300,5.349184326171875,-7.489810980987548,-6.550835017395019,0.848445213317871
1788861430106191400,5.35919140625,-7.231386839294434,-6.37800358505249,0.13991115951538086
1788861430116197400,5.369197265625,-7.22689771118164,-6.107159522247314,-0.12210428466796874
1788861430126204200,5.3792041015625,-7.189039397430419,-5.857863274383544,-0.02259527816772461
1788861430136210400,5.38921044921875,-7.047482224273681,-5.813420906066894,0.17253215713500974
1788861430146217500,5.399217529296875,-7.102848137664795,-5.780350995635986,0.2985270195007324
1788861430156223200,5.40922314453125,-7.729680059814453,-5.587917037200928,0.5117606048583984
1788861430166230500,5.41923046875,-8.48445213317871,-5.086182151794433,0.8209118942260741
1788861430176236300,5.429236328125,-9.169493083190918,-4.5307273666381835,1.190666413116455
1788861430186243300,5.439243408203125,-9.624840311431884,-4.596268637084961,1.576282518005371
1788861430196249300,5.449249267578125,-9.586533084869384,-4.936843823242187,1.7287632362365721
1788861430206256400,5.45925634765625,-9.15482859802246,-5.066729263305664,1.6129437309265136
1788861430216262400,5.469262451171875,-8.252214572143554,-4.7584757995605464,1.2714707191467285
1788861430226269200,5.479269287109375,-7.471854468536376,-4.210951807403564,0.7760206130981445
1788861430236275500,5.489275390625,-7.317877374267578,-3.8187516479492185,0.1671452033996582
1788861430246282200,5.4992822265625,-7.690475007629394,-3.6860230934143066,-0.25139117431640623
1788861430256288300,5.509288330078125,-8.529193776702881,-3.662829264831543,-0.20545242996215818
1788861430266295600,5.519295654296875,-9.603142858886718,-3.895216463470459,0.088735099029541
1788861430276301300,5.52930126953125,-10.192864655303955,-4.238784401702881,0.3318962051391601
1788861430286308400,5.539308349609375,-9.886406842803954,-4.551526993560791,0.37828386230468747
1788861430296314000,5.549314208984375,-9.120860861968994,-4.693084166717529,0.4376899909973144
1788861430306321400,5.5593212890625,-8.5432597114563,-4.436156401062012,0.4321533996582031
1788861430316328200,5.569328125,-7.799860095977783,-4.043058415985107,0.012120645904541014
1788861430326334200,5.579334228515625,-5.933729539489746,-3.637540509796142,-0.6621463966369628
1788861430336341500,5.589341552734375,-4.968566995239257,-3.13475816116333,-0.985064345550537
1788861430346347300,5.59934716796875,-5.768080712127685,-2.8233623077392576,-0.8987234481811522
1788861430356354300,5.609354248046875,-7.5242276298522945,-2.8576293190002438,-0.6392518432617187
1788861430366360300,5.6193603515625,-9.014169250488282,-3.012803514099121,-0.618601853942871
1788861430376367400,5.629367431640625,-9.834931507110594,-3.0823849998474118,-1.0709563301086424
1788861430386373400,5.639373291015625,-10.043077413940429,-3.0199861190795896,-1.8174983352661132
1788861430396380400,5.64938037109375,-8.515127841949463,-2.776376100158691,-2.344372338104248
1788861430406386400,5.659386474609375,-6.0148331207275385,-2.035969236755371,-2.5302222419738767
1788861430416393200,5.669393310546875,-5.431994654083252,-1.0568903953552244,-2.491765377807617
1788861430426399200,5.679399169921875,-8.744073375701904,-0.8391676818847655,-1.933168202972412
1788861430436406300,5.68940625,-10.244489628601073,-1.4730325714111328,-0.9808744926452636
1788861430446412300,5.699412353515625,-7.745242370605468,-2.180219886779785,-0.2690484115600586
1788861430456419300,5.70941943359375,-6.351966641998291,-2.6102783599853514,-0.10489596023559569
1788861430466425300,5.71942529296875,-7.275081019592284,-2.7633576286315917,-0.263661457824707
1788861430476432400,5.729432373046875,-7.683142765045165,-2.9542952110290526,-0.51714755859375
1788861430486438400,5.7394384765625,-7.531410234832763,-2.7519851707458494,-1.5055039314270018
1788861430496445400,5.749445556640625,-8.190114966583252,-2.1739351074218747,-2.6397569679260253
1788861430506451500,5.759451416015625,-8.814103774261474,-1.830367169189453,-2.7742811737060546
1788861430516458200,5.769458251953125,-8.613739022827147,-1.627308940887451,-2.0400094520568848
1788861430526464500,5.779464599609375,-8.001122673034667,-1.4465467155456542,-1.2894272315979003
1788861430536471300,5.78947119140625,-7.608623238372802,-1.3403040168762206,-0.859967308807373
1788861430546477300,5.799477294921875,-7.323713240814208,-1.11719434967041,-0.6893804405212401
1788861430556484400,5.809484375,-7.1978680160522455,-0.8297405128479003,-0.5913678100585937
1788861430566490400,5.819490478515625,-6.848015298461914,-0.4821323593139648,-0.429011009979248
1788861430576497400,5.829497314453125,-6.889464914703368,-0.053719899749755856,-0.5520131202697753
1788861430586503200,5.839503173828125,-7.28435855102539,0.17956512451171874,-0.8828618621826171
1788861430596510500,5.849510498046875,-7.439832021331787,0.2587234169006348,-1.1068693550109863
1788861430606516500,5.8595166015625,-7.406762110900878,0.14918869094848633,-0.9766846397399902
1788861430616523300,5.869523193359375,-6.854000802612305,-0.296881005859375,-0.6833949363708496
1788861430626529500,5.879529541015625,-6.477213316345215,-0.9036614891052246,-0.7435492530822754
1788861430636536300,5.889536376953125,-6.669198361968994,-1.4037503608703612,-0.9632172554016113
1788861430646542300,5.899542236328125,-6.7465610031127925,-1.9891326667785643,-0.9259574920654297
1788861430656549400,5.90954931640625,-6.729502316284179,-2.6569652923583984,-0.8257002975463866
1788861430666555400,5.919555419921875,-6.9798460273742675,-3.1844378456115723,-0.8147767524719238
1788861430676562400,5.9295625,-7.569118910980224,-3.5134909362792968,-0.79801734085083
1788861430686568700,5.939568603515625,-7.78878691329956,-3.7720647155761715,-0.8246528343200683
1788861430696575700,5.94957568359375,-7.871386870574951,-3.9809588104248044,-0.757166275024414
1788861430706581500,5.95958154296875,-7.933037563323974,-4.36687419052124,-0.5288192916870117
1788861430716588800,5.9695888671875,-7.808389439392089,-4.837185179138183,-0.4563946914672851
1788861430726594600,5.979594482421875,-7.931690824890136,-5.234173741912842,-0.5354033462524413
1788861430736601600,5.9896015625,-8.26837543334961,-5.496039548492432,-0.4010287780761719
1788861430746608600,5.999608642578125,-8.566902452850341,-5.519831927490234,-0.11626841812133788
1788861430756614700,6.00961474609375,-8.910470391082763,-5.295674797058105,0.2889502128601074
1788861430766621700,6.01962158203125,-8.551789054870605,-5.1994578178405755,0.8297405128479003
1788861430776627500,6.02962744140625,-7.426663912200928,-5.364657732391357,1.1445780311584473
1788861430786634800,6.039634765625,-6.59512774810791,-5.691615896606445,1.0007762939453124
1788861430796640500,6.049640625,-6.578817249298095,-6.049549044799805,0.632667788696289
1788861430806647600,6.0596474609375,-6.96488226699829,-6.492476351928711,0.4447229583740234
1788861430816653800,6.06965380859375,-7.556399714660644,-7.072172428894042,0.4055179061889648
1788861430826660600,6.07966064453125,-7.989600577545166,-7.772476414489746,0.4300584732055664
1788861430836666600,6.08966650390625,-7.802403935241699,-8.527996675872803,0.6830956611633301
1788861430846673700,6.099673583984375,-7.617152581787109,-9.258527457427977,1.0998363876342774
1788861430856679700,6.1096796875,-7.804947774505615,-9.817274269866942,1.5056535690307615
1788861430866686500,6.1196865234375,-8.228721468353271,-10.200945085906982,1.703324843597412
1788861430876692500,6.1296923828125,-8.569895204925537,-10.442759453582763,1.5433622451782225
1788861430886699800,6.13969970703125,-8.769062855529784,-10.370634128570556,1.102529864501953
1788861430896705500,6.14970556640625,-8.807519719696044,-10.172962854003906,0.6795043586730957
1788861430906712600,6.159712646484375,-8.552537242889404,-9.865607215881347,0.4391863670349121
1788861430916718800,6.16971875,-8.129511737060547,-9.438990407562255,0.4730044654846191
1788861430926725600,6.1797255859375,-8.086715382385254,-8.949525805664061,0.6842927619934082
1788861430936731600,6.189731689453125,-8.48549959640503,-8.768314667510985,0.9373299499511718
1788861430946738700,6.19973876953125,-8.783428065490723,-9.043797496032715,1.2045827102661133
1788861430956744700,6.20974462890625,-8.477419165802,-9.484779514312743,1.3609540061950682
1788861430966751500,6.21975146484375,-8.137741805267334,-9.868001417541503,1.3385083656311034
1788861430976757500,6.229757568359375,-8.372373567962645,-10.091111084747315,0.9217676391601562
1788861430986764500,6.2397646484375,-8.684667247009276,-10.046369441223144,0.4129997863769531
1788861430996770600,6.2497705078125,-8.441506140899659,-9.970652813720703,0.2889502128601074
1788861431006777600,6.259777587890625,-8.074145823669433,-9.726144969177245,0.2995744827270508
1788861431016783600,6.26978369140625,-8.14013600692749,-9.366865082550047,0.2599205177307129
1788861431026790700,6.279790771484375,-8.410531156921387,-9.1554271484375,0.34925416717529295
1788861431036797400,6.28979736328125,-8.426243105316162,-9.222614432525635,0.548421817779541
1788861431046803700,6.2998037109375,-8.16542476196289,-9.421782083129882,0.6786065330505371
1788861431056810500,6.309810546875,-7.556399714660644,-9.419986431884766,0.7407061386108398
1788861431066816500,6.31981640625,-6.572382832336426,-9.228599936676025,0.7525275093078613
1788861431076823800,6.32982373046875,-5.8349687210083,-9.138069186401367,0.8714894042968749
1788861431086829600,6.33982958984375,-5.559635530090332,-9.054272128295898,1.154903025817871
1788861431096836600,6.349836669921875,-5.680393076324463,-8.755296195983886,1.5406687683105469
1788861431106843000,6.3598427734375,-6.060322952270507,-8.456170626068115,1.8586486763000487
1788861431116849700,6.369849609375,-6.81823741531372,-8.081029153442381,2.130540202331543
1788861431126855700,6.379855712890625,-7.6832924026489255,-7.589170349884033,2.1703438049316404
1788861431136862700,6.38986279296875,-7.918223440551757,-7.200561492919921,2.010381206512451
1788861431146868700,6.39986865234375,-7.905953157043457,-6.8673185493469235,1.8415899894714354
1788861431156875500,6.40987548828125,-7.79507169265747,-6.487089398193359,1.589001714324951
1788861431166881500,6.419881591796875,-7.596053679656982,-6.072742873382568,1.3398551040649413
1788861431176888800,6.429888916015625,-7.4500073783874505,-5.665130040740967,1.2596493484497069
1788861431186894600,6.43989453125,-7.411700151824951,-5.326200868225097,1.2304700157165527
1788861431196901600,6.449901611328125,-7.381622993469238,-5.092317293548584,1.0313023651123046
1788861431206907600,6.45990771484375,-7.474398307800293,-5.00552748336792,0.751480046081543
1788861431216914700,6.469914794921875,-7.401674432373047,-5.188683910369873,0.6602011077880859
1788861431226920700,6.479920654296875,-7.494150471496582,-5.486762017059326,0.778265177154541
1788861431236927700,6.489927734375,-7.676109797668457,-5.782595559692383,0.93852705078125
1788861431246933800,6.499933837890625,-8.020126648712157,-5.945101997375488,1.2255319747924804
1788861431256940500,6.5099404296875,-8.449287296295166,-5.910685348510742,1.5384242042541503
1788861431266947800,6.51994775390625,-8.7846251663208,-5.7317187744140625,1.5921441040039062
1788861431276953600,6.52995361328125,-8.767865754699706,-5.416881256103515,1.3311761230468748
1788861431286960600,6.539960693359375,-8.345438799285889,-5.073762230682373,0.9867103591918944
1788861431296966700,6.549966552734375,-8.107215734100341,-5.035754279327392,0.7691372833251953
1788861431306973700,6.5599736328125,-8.517821318817138,-4.9163434715270995,0.48826750106811523
1788861431316979700,6.569979736328125,-9.171139096832276,-4.555567208862304,0.05521627578735351
1788861431326986500,6.579986572265625,-9.746196408081055,-4.1475054634094235,-0.10100538253784179
1788861431336992800,6.58999267578125,-9.762955819702148,-4.00938995513916,0.027533319091796873
1788861431346999600,6.59999951171875,-9.081506172180175,-4.158129733276367,0.11192892761230468
1788861431357005600,6.610005615234375,-7.884854254913329,-4.22651411819458,0.06105214233398437
1788861431367012900,6.620012939453125,-6.6048541923522945,-4.084358394622803,0.12689268798828124
1788861431377018600,6.6300185546875,-6.603058541107178,-3.902847981262207,0.3205237472534179
1788861431387025700,6.640025634765625,-7.668328642272948,-3.8338650459289547,0.43185412445068355
1788861431397031400,6.650031494140625,-9.09781667098999,-3.884741831207275,0.4037222549438476
1788861431407038700,6.660038818359375,-10.17625488128662,-4.100070343017578,0.012569558715820313
1788861431417044700,6.670044677734375,-9.320627062988281,-4.342632898712158,-0.643591333770752
1788861431427051500,6.680051513671875,-7.828141603088379,-4.470872325134277,-1.1153986984252928
1788861431437057800,6.690057861328125,-7.568969273376465,-4.341735073089599,-1.2674305038452147
1788861431447064600,6.700064697265625,-7.656357633972168,-3.8175545471191406,-1.2012906829833985
1788861431457070600,6.710070556640625,-8.062025177764893,-3.259256647491455,-1.1840823585510254
1788861431467077600,6.72007763671875,-9.153631497192382,-2.876633294677734,-1.3485340850830076
1788861431477083600,6.730083740234375,-10.00491982498169,-2.6684873878479003,-1.543661520385742
1788861431487090700,6.740090576171875,-8.494926765441894,-2.2617723808288575,-1.751208876800537
1788861431497097700,6.75009765625,-6.197540634918212,-1.513733999633789,-2.216132911682129
1788861431507103700,6.760103759765625,-6.134543203735351,-0.8132803764343262,-2.1103391258239745
1788861431517110500,6.770110595703125,-7.630919241333007,-0.6581061813354492,-0.958279214477539
1788861431527116500,6.780116455078125,-7.249193714141845,-1.1125555839538575,-0.07900865478515624
1788861431537123600,6.79012353515625,-4.9166427467346185,-1.4983213264465332,-0.6338648895263671
1788861431547129600,6.800129638671875,-6.072144322967529,-1.3850456604003905,-2.0781670410156248
1788861431557136600,6.81013671875,-7.808239801788329,-1.8418892646789549,-3.2225954345703123
1788861431567142700,6.820142578125,-7.800009733581542,-2.2272060943603513,-3.6795886764526364
1788861431577149700,6.830149658203125,-8.042871564483642,-2.0130746833801267,-3.5428199066162107
1788861431587155500,6.840155517578125,-7.269394790649414,-1.5860089622497557,-2.801365579986572
1788861431597162800,6.850162841796875,-6.433519136047363,-1.1260229682922362,-1.7597382202148437
1788861431607168800,6.860168701171875,-6.44144992904663,-0.6738181297302246,-0.9059060531616211
1788861431617175600,6.870175537109375,-6.312611952209473,-0.2715922508239746,-0.8945335952758788
1788861431627181600,6.880181640625,-6.584802753448486,0.11851298217773437,-1.2355576942443847
1788861431637188600,6.890188720703125,-6.743268975830078,0.3763385734558105,-1.2559084083557128
1788861431647194600,6.900194580078125,-6.654982789611816,0.41270051116943357,-1.0791863983154297
1788861431657201400,6.910201416015625,-6.542455311584472,0.18210896377563476,-0.6961141326904297
1788861431667207700,6.920207763671875,-6.207117441558838,-0.17178396911621094,-0.32142157287597656
1788861431677214000,6.9302138671875,-6.031442894744873,-0.5728127471923827,-0.17477672119140625
1788861431687220200,6.94022021484375,-6.1839236129760735,-0.964713631439209,-0.30735563812255856
1788861431697227000,6.95022705078125,-6.42304450378418,-1.3970166687011718,-0.5832873794555664
1788861431707233000,6.96023291015625,-6.985382618713379,-1.9262848731994628,-0.7234978141784667
1788861431717240000,6.970239990234375,-7.409305950164795,-2.5583541114807127,-0.7559691741943358
1788861431727247000,6.9802470703125,-7.453449043273926,-3.163488581085205,-0.7410054138183594
1788861431737252900,6.9902529296875,-7.582436657714843,-3.4849101539611813,-0.6054337448120117
1788861431747260200,7.00026025390625,-8.023269038391113,-3.6571430358886716,-0.5327098693847656
1788861431757266000,7.010265869140625,-8.317157292175292,-3.941604120635986,-0.5741594856262207
1788861431767273000,7.02027294921875,-7.842506813049316,-4.471321237945556,-0.6527192276000976
1788861431777279000,7.030279052734375,-7.363666481018066,-5.110872356414794,-0.8321347145080565
1788861431787286000,7.0402861328125,-7.342866854095458,-5.746083984375,-0.8385691314697266
1788861431797292000,7.0502919921875,-7.130830369567871,-6.440701741027832,-0.5529109458923339
1788861431807298800,7.060298828125,-7.121702475738525,-7.049876425933838,-0.17687164764404295
1788861431817305000,7.07030517578125,-7.215375615692138,-7.50148271408081,0.29658173065185545
1788861431827311900,7.080311767578125,-7.577498616790771,-7.797765169525146,0.635211627960205
1788861431837318000,7.09031787109375,-8.043919027709961,-7.96745421218872,0.9292495193481445
1788861431847325200,7.1003251953125,-8.161683821868897,-8.058284237670899,1.3066355560302734
1788861431857331000,7.1103310546875,-8.132504489135743,-7.922712568664551,1.5529390518188475
1788861431867338000,7.120337890625,-8.2613424659729,-7.620594246673583,1.7655740867614744
1788861431877344300,7.13034423828125,-8.206126190185547,-7.5345526245117185,2.0970213790893553
1788861431887351000,7.14035107421875,-8.054244022369383,-7.869142306518555,2.4136545486450194
1788861431897357000,7.150357177734375,-8.213907345581054,-8.42773948135376,2.2480057212829587
1788861431907364000,7.160364013671875,-8.495974228668212,-9.03407105178833,1.665616167449951
1788861431917371100,7.17037109375,-8.906280538177489,-9.613318215942382,0.8864531646728515
1788861431927377000,7.180376953125,-9.137171360778808,-10.149469750213623,0.07541735229492187
1788861431937384200,7.19038427734375,-9.243264421844481,-10.64312420501709,-0.3917512466430664
1788861431947390000,7.200389892578125,-9.166350693511962,-11.082609847259521,-0.2742857276916504
1788861431957397000,7.21039697265625,-9.214534001922607,-11.454608930206298,0.35314474487304687
1788861431967403000,7.220403076171875,-9.629479077148437,-11.572523361968994,1.009305637359619
1788861431977410000,7.23041015625,-9.963619846343994,-11.456853494262695,1.5064017570495605
1788861431987416000,7.240416015625,-9.56977367324829,-11.093234117126464,1.9015946685791014
1788861431997422800,7.2504228515625,-8.58036983718872,-10.376918907928466,1.7947534194946289
1788861432007429000,7.26042919921875,-7.427861013031006,-9.580846855926513,1.2765583976745605
1788861432017436000,7.270435791015625,-6.490830338287354,-8.987084844207763,0.8032546569824218
1788861432027442000,7.28044189453125,-6.134543203735351,-8.62511148071289,0.6491279251098633
1788861432037449200,7.29044921875,-6.165218912506103,-8.49732096710205,0.6477811866760254
1788861432047455000,7.300455078125,-6.309768837738036,-8.582315126037598,0.6748655929565429
1788861432057462000,7.3104619140625,-6.52494771194458,-8.670750949859618,0.6688800888061524
1788861432067468000,7.320468017578125,-6.825270382690429,-8.77863966217041,0.5891232460021972
1788861432077475000,7.33047509765625,-7.2249524223327635,-8.793004872131347,0.4236240562438965
1788861432087481000,7.340481201171875,-7.414543266296386,-8.71444513015747,0.43948564224243164
1788861432097488000,7.35048779296875,-7.327005268096923,-8.560168760681151,0.6818985603332519
1788861432107495200,7.3604951171875,-7.2450038612365715,-8.423549628448486,0.9614216041564941
1788861432117501000,7.3705009765625,-7.442824773406982,-8.402450726318358,1.017685343170166
1788861432127508000,7.380508056640625,-7.552060224151611,-8.415918110656738,0.7966706024169922
1788861432137514200,7.39051416015625,-7.090128941345214,-8.427589843749999,0.6416460449218749
1788861432147521000,7.40052099609375,-6.552331393432617,-8.448539108276366,0.7621043159484863
1788861432157527000,7.410527099609375,-6.402095239257812,-8.293664188385009,1.1665747589111328
1788861432167534000,7.4205341796875,-6.571933919525146,-7.923909669494629,1.6039654747009275
1788861432177540000,7.4305400390625,-7.018003616333007,-7.528267845153808,2.005892078399658
1788861432187547000,7.440546875,-8.038980986785889,-7.1215528381347655,2.2225673286437986
1788861432197553000,7.450552978515625,-8.982894991302489,-6.8210805297851556,2.225111167907715
1788861432207560000,7.460559814453125,-9.35908392715454,-6.6814686454772945,2.3183353950500485
1788861432217566000,7.47056591796875,-9.386317971038817,-6.627898383331298,2.4076690444946287
1788861432227573000,7.480572998046875,-9.421183532714844,-6.578517974090576,2.2726959259033204
1788861432237579000,7.4905791015625,-9.416095854187011,-6.546944439697265,2.016665985870361
1788861432247586000,7.5005859375,-9.157671712493896,-6.4460886947631835,1.6234183631896972
1788861432257592000,7.510592041015625,-8.700528833007812,-6.293308701324462,1.4375684593200684
1788861432267599000,7.52059912109375,-8.33735836868286,-6.14771131286621,1.4570213478088379
1788861432277605000,7.530605224609375,-7.881412590026855,-6.083965693664551,1.220743571472168
1788861432287612000,7.54061181640625,-7.1878422966003415,-6.044760641479492,0.7894879974365234
1788861432297619200,7.550619140625,-6.4746694770812985,-5.877765075683594,0.546476528930664
1788861432307625000,7.560625,-6.496366929626465,-5.387701923370361,0.4173392768859863
1788861432317632000,7.570632080078125,-6.854748990631103,-5.0297687751770015,0.17193360671997068
1788861432327638000,7.580637939453125,-7.163750642395019,-4.71822328414917,0.09980828170776367
1788861432337645000,7.59064501953125,-7.66787972946167,-4.471470875549316,0.14993687896728514
1788861432347651000,7.600651123046875,-8.250568558502197,-4.565443290710449,0.18270751419067383
1788861432357657900,7.610657958984375,-8.541314422607421,-4.874893855285644,0.037409400939941405
1788861432367664000,7.6206640625,-8.09464617538452,-4.934000708770752,-0.3633201019287109
1788861432377671000,7.6306708984375,-7.594856578826904,-4.51381831741333,-0.6374561920166015
1788861432387677000,7.640677001953125,-8.074594736480712,-3.6272155151367187,-0.5099649536132812
1788861432397684200,7.650684326171875,-8.792855234527588,-2.679859845733642,-0.10998363876342773
1788861432407690000,7.66068994140625,-9.360879578399658,-2.2753894027709958,0.36915596847534177
1788861432417697000,7.670697021484375,-9.555408463287353,-2.6535236274719236,0.501136334991455
1788861432427702800,7.680702880859375,-8.936956246948242,-3.289633081054687,0.27353753967285155
1788861432437710000,7.6907099609375,-7.668179004669189,-3.623923487854004,-0.14380173721313474
1788861432447716000,7.700716064453125,-7.273584643554687,-3.67090969543457,-0.6274304725646972
1788861432457723000,7.710722900390625,-8.358756546020507,-3.499125726318359,-1.1496657096862792
1788861432467729200,7.720729248046875,-9.621548284149169,-3.3482910217285156,-1.4347253448486328
1788861432477736000,7.73073583984375,-9.637559507751464,-3.432686630249023,-1.5099930595397948
1788861432487743000,7.740742919921875,-8.52994196472168,-3.5224691925048828,-1.6124948181152343
1788861432497749000,7.7507490234375,-7.20759446029663,-3.4296938781738278,-1.6705542083740232
1788861432507756000,7.760756103515625,-5.862352402496337,-2.87289235458374,-1.9617489852905272
1788861432517762000,7.770761962890625,-5.915922664642333,-1.882141780090332,-2.2617723808288575
1788861432527769000,7.78076904296875,-6.631788961029052,-1.1308113716125487,-2.194734734344482
1788861432537775000,7.790775146484375,-6.066757369232177,-0.9404723396301269,-2.1217115837097165
1788861432547782000,7.800781982421875,-5.207538248443603,-0.8667010009765624,-2.016217073059082
1788861432557788000,7.810787841796875,-5.813271268463135,-0.6992565223693847,-2.1621137367248533
1788861432567795000,7.820794921875,-6.56310530090332,-0.718260498046875,-2.8037597816467286
1788861432577801000,7.830801025390625,-6.233752935028075,-0.8280944992065429,-3.1016882507324217
1788861432587808300,7.840808349609375,-6.478709692382812,-0.8945335952758788,-2.887556839752197
1788861432597814000,7.85081396484375,-6.5503861045837395,-0.7224503509521484,-2.6020482917785643
1788861432607821000,7.860821044921875,-6.830358061218261,-0.2397194412231445,-2.156577145385742
1788861432617826800,7.870826904296875,-6.921636999511718,-0.020649989318847654,-1.5506944877624511
1788861432627834000,7.880834228515625,-6.372766268920898,-0.09636661682128905,-0.7586626510620117
1788861432637840100,7.890840087890625,-6.134992116546631,-0.3124433166503906,-0.03007715835571289
1788861432647847000,7.900846923828125,-6.1367877677917475,-0.3586813362121582,0.014963760375976562
1788861432657854200,7.910854248046875,-6.316352892303467,-0.23403321228027343,-0.4572925170898437
1788861432667860000,7.92085986328125,-6.226570330047607,-0.30466216125488277,-0.8046013954162597
1788861432677867800,7.93086767578125,-5.664082577514648,-0.6001964286804199,-0.9760860893249511
1788861432687873500,7.94087353515625,-6.152350078582764,-0.984465795135498,-1.1667243965148926
1788861432697880600,7.950880615234375,-7.414692903900146,-1.5469535476684568,-1.143380930328369
1788861432707886600,7.960886474609375,-7.734618100738525,-2.2623709312438964,-1.0302549018859863
1788861432717893600,7.9708935546875,-7.5798928184509275,-2.7965771766662595,-0.8049006706237792
1788861432727899600,7.980899658203125,-7.161356440734862,-3.1102175941467283,-0.2855085479736328
1788861432737906700,7.99090673828125,-6.947374667358398,-3.375824340820312,0.21128829650878905
1788861432747912700,8.00091259765625,-7.313837158966064,-3.6828807037353513,0.32830490264892576
1788861432757919500,8.01091943359375,-7.749731498718261,-4.14361488571167,0.21443068618774414
1788861432767925500,8.020925537109376,-8.179191421508788,-4.6173675392150875,-0.1331774673461914
1788861432777932500,8.0309326171875,-8.358457270812988,-5.168482833862305,-0.4155436256408691
1788861432787938600,8.0409384765625,-7.8149734939575195,-5.82913285446167,-0.2832639839172363
1788861432797945600,8.050945556640626,-7.352144385528564,-6.559663636016845,-0.09172785110473632
1788861432807951600,8.06095166015625,-7.414543266296386,-7.360673728942871,-0.021098902130126954
1788861432817958700,8.070958740234374,-7.556399714660644,-8.28034644165039,0.08993219985961913
1788861432827965400,8.08096533203125,-7.662343138122558,-9.093028267669677,0.16789339141845702
1788861432837971700,8.0909716796875,-7.822006461334228,-9.619453357696532,0.27293898925781246
1788861432847978500,8.100978515625,-8.094496537780762,-9.783306533813477,0.503680174255371
1788861432857984500,8.110984619140625,-8.260594277954102,-9.633818567657471,0.838868406677246
1788861432867991800,8.12099169921875,-8.140435282135009,-9.356989000701903,1.232714579772949
1788861432877997600,8.13099755859375,-7.924657857513427,-9.10365253753662,1.544409708404541
1788861432888004600,8.141004638671875,-7.92256293106079,-8.783428065490723,1.4657003288269042
1788861432898010400,8.15101025390625,-8.198644309997558,-8.404096739959716,0.9498995086669921
1788861432908017700,8.161017578125,-8.37057791671753,-8.153603391265868,0.5339069702148437
1788861432918023700,8.171023681640625,-8.4023010887146,-8.009352741241454,0.43888709182739255
1788861432928030500,8.181030517578124,-8.448090195465088,-8.00007520980835,0.6685808135986328
1788861432938036700,8.19103662109375,-8.660276317596436,-8.217498648071288,1.0835258888244628
1788861432948043500,8.20104345703125,-9.181464091491698,-8.675838628387451,1.530343773651123
1788861432958049500,8.211049560546876,-9.402478832244872,-9.178770614624023,1.9240403091430662
1788861432968056600,8.221056640625,-9.188347421264648,-9.65865840988159,2.073528275299072
1788861432978062600,8.2310625,-8.629600608825683,-9.924115518951416,1.7592893074035643
1788861432988069600,8.241069580078126,-7.989450939941406,-10.057292986297607,1.3031938911437988
1788861432998076700,8.25107666015625,-7.462128024291991,-10.11909331665039,1.0184335311889647
1788861433008082700,8.261082763671874,-7.185148819732666,-10.070311457824706,0.8538321670532226
1788861433018089500,8.27108935546875,-7.312640058135986,-9.913042336273193,0.7713818473815918
1788861433028095500,8.281095458984375,-7.861660426330566,-9.497947623443602,0.6091746849060058
1788861433038102500,8.2911025390625,-8.263138117218016,-9.10440072555542,0.8370727554321289
1788861433048108500,8.301108642578125,-8.544905725097657,-8.865429472351074,1.1930606147766112
1788861433058115600,8.311115478515624,-8.571092305755615,-8.764424089813232,1.497872413635254
1788861433068121600,8.32112158203125,-8.220790675354003,-8.711602015686035,1.7236755577087401
1788861433078128600,8.331128662109375,-7.870189769744872,-8.684966522216797,1.7567454681396484
1788861433088134400,8.341134521484374,-7.803152123260498,-8.720430634307862,1.4291887535095213
1788861433098141700,8.3511416015625,-7.751676787567138,-8.782081327056884,0.872087954711914
1788861433108147700,8.361147705078125,-7.340323014831543,-8.841038542938232,0.48407764816284177
1788861433118154500,8.371154541015626,-6.603657091522217,-8.838345066070556,0.3603273498535156
1788861433128160800,8.381160888671875,-5.956923368072509,-8.732252005004883,0.30885201416015623
1788861433138167600,8.39116748046875,-5.710320597076415,-8.471134386444092,0.36691140441894526
1788861433148173600,8.401173583984376,-5.9376201171875,-8.162581647491455,0.7697358337402344
1788861433158180600,8.4111806640625,-6.252307997894286,-7.869441581726074,1.4597148246765135
1788861433168187600,8.421187744140624,-6.648249097442626,-7.630619966125487,1.9604022468566893
1788861433178193700,8.431193603515625,-7.095515895080566,-7.325059979248047,2.13862063293457
1788861433188200700,8.44120068359375,-7.64184278640747,-7.013514488220214,2.123357597351074
1788861433198206700,8.451206787109374,-8.138041080474853,-6.733542531585693,1.90892691116333
1788861433208213500,8.461213623046875,-8.508394149780273,-6.3842883644104,1.592293741607666
1788861433218219500,8.471219482421875,-8.706215061950683,-6.1170356040954585,1.3287819213867187
1788861433228226600,8.4812265625,-8.833855937957763,-6.079177290344238,1.1682207725524902
1788861433238232600,8.491232666015625,-9.203311181640624,-6.094889238739014,1.0058639724731444
1788861433248239600,8.501239501953124,-9.557653027343749,-6.088604459381103,0.9042600395202636
1788861433258245600,8.51124560546875,-9.431658164978026,-6.1465142120361325,0.7866448829650878
1788861433268252700,8.521252685546875,-8.698733181762694,-6.101772568511962,0.6025906303405761
1788861433278258700,8.5312587890625,-7.528716757965087,-5.954828441619873,0.28954876327514645
1788861433288265700,8.541265625,-6.57597413482666,-5.729025297546387,0.16175824966430663
1788861433298271700,8.551271728515625,-6.599467238616943,-5.31841971282959,0.4242226066589355
1788861433308278500,8.561278564453126,-7.785494886016846,-5.152621247863769,0.7154173835754394
1788861433318284500,8.571284423828125,-8.695740429687499,-5.2353708427429195,0.6949170318603515
1788861433328291600,8.58129150390625,-9.050231912994384,-5.268889665985107,0.35134909362792965
1788861433338298600,8.591298583984376,-9.14255831451416,-5.112368732452392,0.07287351303100585
1788861433348304400,8.601304443359375,-8.863633821105957,-4.867860887908935,-0.04668693237304687
1788861433358311700,8.611311767578124,-8.566004627227782,-4.603301604461669,0.02498947982788086
1788861433368317700,8.621317626953125,-8.25565623703003,-4.514117592620849,0.07841010437011718
1788861433378324500,8.631324462890625,-7.580341731262207,-4.650886362457275,0.06075286712646484
1788861433388330800,8.641330810546876,-6.957101111602783,-4.801571429443359,0.04129997863769531
1788861433398337500,8.651337646484375,-7.009474272918701,-4.759672900390624,-0.08768763580322265
1788861433408343600,8.661343505859374,-7.706336593627929,-4.3254245742797846,-0.22385785522460935
1788861433418350600,8.6713505859375,-8.58680425415039,-3.6195839973449706,-0.22969372177124023
1788861433428356600,8.681356689453125,-9.158868813323974,-2.928557543182373,-0.19901801300048827
1788861433438363600,8.69136376953125,-8.996661650848388,-2.5020903724670407,-0.42317514343261714
1788861433448369400,8.701369384765625,-8.468590547180176,-2.418442951965332,-1.050904891204834
1788861433458376700,8.711376708984375,-8.086565744781494,-2.5662849044799803,-1.9077298103332518
1788861433468382700,8.7213828125,-7.6231380859375,-2.6301801612854003,-2.4494179359436035
1788861433478389500,8.731389404296875,-7.461978386688232,-2.456001990509033,-2.634669289398193
1788861433488395800,8.741395751953124,-7.930942636871338,-2.165405764007568,-2.5457845527648924
1788861433498402600,8.751402587890626,-8.1081135597229,-1.7609353210449217,-2.3458687141418455
1788861433508408600,8.76140869140625,-7.041347082519531,-1.4947300239562988,-2.1034557960510254
1788861433518415600,8.77141552734375,-5.467758041381836,-1.2771569480895995,-2.011727944946289
1788861433528422700,8.781422607421876,-5.1876364471435545,-0.9560346504211426,-1.8273744171142576
1788861433538428700,8.7914287109375,-6.10326894454956,-0.7719803977966309,-1.2234370483398436
1788861433548435700,8.801435791015624,-5.788431426239013,-0.7442974411010742,-0.8189666053771972
1788861433558441700,8.811441650390625,-5.006724584197998,-0.3419219245910644,-1.248127252960205
1788861433568448500,8.821448486328125,-5.4227171226501465,0.14769231491088866,-2.12590143661499
1788861433578454500,8.83145458984375,-6.089352647399902,0.15083470458984374,-2.494159579467773
1788861433588461600,8.841461669921875,-6.133346102905273,-0.21951836471557615,-2.3329998802185057
1788861433598467600,8.851467529296874,-6.091597211456299,-0.3447650390625,-2.098368117523193
1788861433608474400,8.861474365234375,-6.338648895263671,-0.1541267318725586,-1.6891092712402342
1788861433618480600,8.871480712890625,-6.347477513885497,0.03755903854370117,-1.20024321975708
1788861433628487700,8.88148779296875,-5.868637181854248,0.22161329116821288,-0.9464578437805176
1788861433638493400,8.891493408203125,-5.914875201416015,0.20231004028320312,-0.8231564582824706
1788861433648500700,8.901500732421875,-6.317699630737304,-0.03696048812866211,-0.8423100715637206
1788861433658506800,8.9115068359375,-6.40314270248413,-0.3869628433227539,-0.8503905021667479
1788861433668513500,8.921513427734375,-6.534225243377685,-0.8577227447509765,-0.7504325828552245
1788861433678519300,8.931519287109374,-6.954257997131347,-1.416619194793701,-0.543932689666748
1788861433688526000,8.941526123046875,-7.314435709381103,-2.105700360107422,-0.3983353012084961
1788861433698533400,8.951533447265625,-7.351695472717284,-2.8661586624145508,-0.4574421546936035
1788861433708539100,8.9615390625,-7.372944012451171,-3.744980309295654,-0.5316624061584473
1788861433718546200,8.971546142578125,-7.601889546203613,-4.727201540374756,-0.36960488128662106
1788861433728552400,8.981552490234375,-7.683142765045165,-5.661239463043213,-0.30780455093383785
1788861433738559200,8.991559326171876,-7.662043862915039,-6.287772109985351,-0.616058014678955
1788861433748565200,9.001565185546875,-7.729530422210693,-6.53108285369873,-0.6938695686340332
1788861433758572300,9.011572265625,-7.668478279876709,-6.525396624755859,-0.3812766143798828
1788861433768578300,9.021578369140625,-7.521234877777099,-6.3709706176757805,-0.06359598159790039
1788861433778585000,9.031585205078125,-7.362170104980469,-6.272359436798095,0.31483751831054685
1788861433788591000,9.041591064453126,-7.248445526123047,-6.248567057800293,0.8038532073974609
1788861433798598400,9.051598388671875,-7.350199096679687,-6.383091263580322,1.1236287666320801
1788861433808604200,9.061604248046875,-7.564180870056152,-6.790404821014404,1.294664547729492
1788861433818611200,9.071611083984376,-7.566275796508789,-7.498639599609374,1.5081974082946776
1788861433828617200,9.0816171875,-7.51450118560791,-8.406341304016113,1.5870564254760742
1788861433838624300,9.091624267578124,-7.713369561004638,-9.265261149597167,1.5411176811218261
1788861433848630300,9.10163037109375,-7.966556386566162,-9.95942999343872,1.4850035797119139
1788861433858637300,9.11163720703125,-8.494627490234375,-10.378864196777343,1.2822446266174317
1788861433868643300,9.121643310546874,-9.026439533996582,-10.554089830780029,1.100584575653076
1788861433878650000,9.131650146484375,-9.387664709472656,-10.592397057342529,1.0122983894348143
1788861433888657400,9.141657470703125,-9.536254850006102,-10.639083989715575,1.0290578010559082
1788861433898663200,9.1516630859375,-9.537152675628661,-10.593294882965088,1.0474632263183594
1788861433908670200,9.161670166015625,-9.738714527893066,-10.382605136871337,0.7327753456115722
1788861433918676500,9.171676513671875,-10.217105947113037,-10.019135397338866,0.18734627990722655
1788861433928683300,9.181683349609376,-10.30479358291626,-9.742156192779541,0.020051438903808592
1788861433938689300,9.191689208984375,-9.46173532333374,-9.848548529052733,0.4129997863769531
1788861433948696300,9.2016962890625,-8.096890739440918,-10.257508100128174,1.171512799835205
1788861433958702300,9.211702392578125,-7.529315308380126,-10.746673426818846,1.7413327949523925
1788861433968709000,9.221709228515625,-7.812130379486083,-10.727220538330078,1.8676269325256347
1788861433978715100,9.231715087890626,-8.250867833709716,-10.228478404998778,1.641973426055908
1788861433988722400,9.241722412109375,-8.406790216827392,-9.608829087829589,1.1918635139465332
1788861433998728200,9.251728271484374,-8.041674463653564,-9.170091633605956,0.9403227020263671
1788861434008735200,9.2617353515625,-7.38072516784668,-8.842385281372069,0.9301473449707031
1788861434018741200,9.2717412109375,-6.839635592651367,-8.583362589263915,1.0109516510009764
1788861434028748300,9.281748291015624,-6.583306377410889,-8.358606908416748,1.0564414825439452
1788861434038754300,9.29175439453125,-6.645405982971191,-8.115595439910889,1.1082160934448242
1788861434048761300,9.30176123046875,-6.833650088500976,-7.949348062133788,1.2054805358886718
1788861434058768400,9.311768310546874,-7.057507943725586,-7.908496996307373,1.23211602935791
1788861434068774100,9.321774169921875,-7.042095270538329,-8.030601280975342,1.1761515655517578
1788861434078781400,9.331781494140625,-6.8022261917114255,-8.29291600036621,1.1553519386291504
1788861434088787200,9.341787109375,-6.6522893127441405,-8.362497486114501,1.0764929214477539
1788861434098794200,9.351794189453125,-6.648398735046387,-8.214805171203613,0.8924386688232422
1788861434108800300,9.36180029296875,-6.92672467803955,-7.977180656433105,0.7860463325500487
1788861434118807300,9.371807373046876,-7.28450818862915,-7.732972087097168,0.9530418983459472
1788861434128813300,9.381813232421875,-7.334487148284912,-7.662941688537598,1.3685855239868163
1788861434138820000,9.391820068359374,-7.378630241394043,-7.690624645233154,1.7685668388366698
1788861434148826400,9.401826416015625,-7.767089460754394,-7.6756608848571775,1.928679074859619
1788861434158833200,9.411833251953125,-8.394819208526611,-7.580790644073486,1.7102081733703611
1788861434168839200,9.421839111328126,-9.104849638366698,-7.462576937103271,1.5116390731811522
1788861434178846500,9.431846435546875,-9.76116016845703,-7.400178056335449,1.5426140571594238
1788861434188852200,9.441852294921874,-9.875632935333252,-7.315483172607421,1.467047067260742
1788861434198859300,9.451859375,-9.223961170959472,-7.154024198150634,1.1430816551208496
1788861434208865300,9.461865234375,-8.168716789245606,-7.012167749786377,0.7315782447814941
1788861434218872300,9.471872314453124,-7.163900279998779,-6.8122519111633295,0.39848493881225583
1788861434228879000,9.481879150390625,-6.729651953887939,-6.451475648498535,0.2614168937683105
1788861434238885000,9.491885009765625,-7.117811898040771,-6.0784291023254395,0.2768295669555664
1788861434248892400,9.501892333984374,-8.328380112457275,-5.876119062042236,0.5316624061584473
1788861434258898200,9.511898193359375,-9.606285248565673,-5.764639047241211,0.6706757400512695
1788861434268905200,9.5219052734375,-9.95987890625,-5.549011260223389,0.471807364654541
1788861434278911200,9.5319111328125,-9.341875602722167,-5.520580115509033,0.13811550827026367
1788861434288918300,9.541918212890625,-8.034491858673094,-5.344456655883789,-0.1566705711364746
1788861434298924300,9.55192431640625,-6.693439653778076,-4.8698061767578125,-0.316034619140625
1788861434308931300,9.561931396484376,-6.2027779510498045,-4.362684337615967,-0.2723404388427734
1788861434318937300,9.571937255859375,-6.405387266540527,-3.8832454551696776,-0.056712651824951166
1788861434328944000,9.581944091796874,-6.751648681640624,-3.510198908996582,0.2015618522644043
1788861434338950100,9.5919501953125,-6.794445036315918,-3.2899323562622067,0.2314893730163574
1788861434348957200,9.601957275390625,-6.8393363174438475,-3.31342546005249,-0.016609774017333982
1788861434358963200,9.611963134765626,-7.460631648254394,-3.3364696510314937,-0.39983167724609375
1788861434368970200,9.62197021484375,-8.330624676513672,-3.130867583465576,-0.8316858016967773
1788861434378976300,9.631976318359374,-8.858995055389403,-2.947561518859863,-1.0305541770935058
1788861434388983300,9.6419833984375,-8.630797709655761,-2.871545616149902,-1.0500070655822753
1788861434398989300,9.6519892578125,-8.027159616088866,-2.8884546653747556,-1.0854711776733397
1788861434408996400,9.661996337890624,-7.594407666015624,-2.7883471084594724,-1.4532804077148436
1788861434419003100,9.672003173828125,-7.671919944763183,-2.18979669342041,-1.8870798210144042
1788861434429009200,9.682009033203125,-8.207772203826904,-1.221342121887207,-1.7905635665893553
1788861434439016400,9.692016357421876,-8.730905266571044,-0.59376201171875,-1.5210662422180175
1788861434449022200,9.702022216796875,-7.6565072715759275,-0.20096330184936523,-1.6519991455078125
1788861434459029200,9.712029296875,-5.76508796005249,0.060902504730224606,-2.092232975769043
1788861434469035300,9.72203515625,-5.518036276245117,0.11537059249877929,-2.4200889656066895
1788861434479042300,9.732042236328125,-6.038625499725342,-0.3413233741760254,-2.1625626495361328
1788861434489048300,9.74204833984375,-5.843647702026367,-1.34718734664917,-1.9816507865905761
1788861434499055000,9.75205517578125,-5.786486137390137,-1.6838719551086425,-2.2655133209228513
1788861434509061400,9.762061279296875,-6.873902603912353,-1.3160627250671386,-2.43265852432251
1788861434519068200,9.772068115234376,-7.279121234893799,-1.0185831687927245,-2.1980267616271973
1788861434529074200,9.78207421875,-6.322338396453857,-0.8604162216186523,-1.910872200012207
1788861434539081200,9.792081298828125,-5.542427205657959,-0.7460930923461914,-1.6265607528686523
1788861434549087200,9.802087158203125,-5.722740518188476,-0.6702268272399902,-1.2424410240173338
1788861434559094300,9.81209423828125,-5.927295122528076,-0.48467619857788086,-1.0624269866943359
1788861434569100300,9.822100341796874,-5.725583632659911,-0.2549824768066406,-1.0601824226379395
1788861434579107300,9.832107421875,-5.584026459503174,-0.1466448516845703,-0.9886556480407714
1788861434589113300,9.84211328125,-5.626673176574707,-0.000748188018798828,-0.972943699645996
1788861434599120400,9.852120361328126,-6.172401517486572,0.18884265594482422,-1.0197802696228027
1788861434609127200,9.862127197265625,-7.152827097320556,0.1671452033996582,-0.7950245887756348
1788861434619133200,9.87213330078125,-7.434295429992676,-0.361374813079834,-0.1240495735168457
1788861434629140500,9.882140380859376,-6.820481979370117,-1.405845287322998,0.6429927833557129
1788861434639146200,9.892146240234375,-6.101922206115722,-2.6372131286621094,0.821061531829834
1788861434649153300,9.9021533203125,-5.417180531311035,-3.7708676147460936,0.2609679809570312
1788861434659159300,9.9121591796875,-5.371690699768066,-4.681113158416748,-0.6037877311706542
1788861434669166300,9.922166259765625,-6.2213330139160155,-5.412242490386962,-1.2403460975646972
1788861434679172900,9.9321728515625,-7.045237660217285,-5.928192948150635,-1.4281412902832031
1788861434689180000,9.942179931640625,-7.2994719490051265,-5.969792201995849,-1.1938088027954101
1788861434699186000,9.95218603515625,-7.267748777008056,-5.718401027679443,-0.646733723449707
1788861434709192700,9.962192626953126,-7.149086157226562,-5.479429774475097,0.03815758895874023
1788861434719199000,9.972198974609375,-7.151779634094238,-5.42630842514038,0.6024409927368164
1788861434729205800,9.982205810546875,-7.181407879638671,-5.636399620819091,1.018283893585205
1788861434739211800,9.992211669921875,-7.216123803710937,-6.223876853179931,1.294814185333252
1788861434749218800,10.00221875,-7.4494088279724116,-7.142651740264892,1.3123217849731446
1788861434759224800,10.012224853515624,-7.88440534210205,-8.21734901046753,1.2268787132263184
1788861434769232000,10.02223193359375,-8.263587030029296,-9.304017288970947,1.1623849060058593
1788861434779237600,10.032237548828125,-8.571241943359375,-10.360458771514892,1.067963578033447
1788861434789245000,10.042244873046876,-9.132981507873534,-11.245714835357665,0.8114847251892089
1788861434799251000,10.0522509765625,-10.145279897308349,-11.847557277679442,0.15741875915527342
1788861434809257700,10.0622578125,-11.089942089843749,-12.23826106109619,-0.5178957466125488
1788861434819264800,10.0722646484375,-11.515960347747802,-12.405406264495848,-0.7860463325500487
1788861434829270800,10.082270751953125,-11.435156041717528,-12.19411796798706,-0.5243301635742187
1788861434839277800,10.09227783203125,-10.915614281463622,-11.640608471679688,0.03980360260009765
1788861434849283800,10.102283935546875,-10.153061052703857,-10.957063897705078,0.5446808776855468
1788861434859291000,10.112290771484375,-9.412354914093017,-10.234613546752929,0.7594108390808105
1788861434869297000,10.122296875,-8.562562962341309,-9.549871871948241,0.9081506172180175
1788861434879304000,10.132303955078125,-7.229142275238036,-9.021800768280029,1.2069769119262694
1788861434889310000,10.14231005859375,-5.972186403656005,-8.742576999664307,1.3976152191162108
1788861434899316700,10.152316650390626,-5.448005877685547,-8.570643392944335,1.2972083869934081
1788861434909322800,10.16232275390625,-5.606322462463378,-8.446893094635008,1.253214931488037
1788861434919329800,10.172329833984374,-6.22477467880249,-8.430881871032714,1.4037503608703612
1788861434929335800,10.182335693359375,-7.117362985229492,-8.33690945587158,1.6289549545288085
1788861434939342800,10.1923427734375,-7.98645818786621,-8.356212706756592,1.9092261863708495
1788861434949348900,10.202348876953126,-8.653991538238525,-8.569895204925537,2.274341939544678
1788861434959356000,10.21235595703125,-9.305364027404785,-8.806172981262206,2.3048680107116697
1788861434969361700,10.222361572265624,-9.566780921173095,-8.933514582061767,1.929427262878418
1788861434979369000,10.232368896484376,-9.24446152267456,-8.978405863189696,1.3829507339477538
1788861434989375000,10.242375,-8.800935665130615,-9.062951109313964,0.8732850555419921
1788861434999381800,10.2523818359375,-8.493580027008056,-9.143306502532958,0.4906617027282715
1788861435009387800,10.2623876953125,-8.020874836730956,-9.394248764038085,0.2328361114501953
1788861435019394800,10.272394775390625,-7.3097969436645505,-9.580098667907714,-0.10624269866943359
1788861435029401900,10.28240185546875,-6.836642840576172,-9.441384609222412,-0.49844285812377925
1788861435039407600,10.29240771484375,-6.670994013214111,-9.125649265289306,-0.5032312614440918
1788861435049415000,10.302414794921875,-6.45476767578125,-8.82323166809082,-0.03860650177001953
1788861435059421000,10.3124208984375,-6.070049396514892,-8.56106658630371,0.6739677673339843
1788861435069427700,10.322427734375,-5.9111342613220215,-8.26792652053833,1.5155296508789062
1788861435079434000,10.33243408203125,-6.458209340667724,-7.871087595367431,2.1814169876098632
1788861435089440800,10.342440673828126,-7.3383777259826655,-7.359775903320312,2.347065814971924
1788861435099446800,10.35244677734375,-8.413224633789062,-6.857143192291259,2.2445640563964844
1788861435109453800,10.362453857421874,-9.497199435424804,-6.424840155029297,2.073677912902832
1788861435119459800,10.3724599609375,-10.333075090026854,-6.131251176452636,1.9381062438964842
1788861435129467000,10.382466796875,-10.564414825439453,-6.1355906669616695,1.8471265808105468
1788861435139473000,10.392472900390626,-9.884311916351317,-6.383839451599121,1.6585832000732421
1788861435149480000,10.40247998046875,-8.412326808166503,-6.6018614402771,1.3425485809326172
1788861435159485700,10.412485595703124,-7.094019519042968,-6.57552522201538,0.8496423141479492
1788861435169493000,10.422492919921876,-6.318896731567382,-6.269965235137939,0.3574842353820801
1788861435179499000,10.4324990234375,-6.171204416656494,-5.763292308807372,0.020051438903808592
1788861435189505800,10.442505859375,-6.236147136688232,-4.921131874847412,0.05357026214599609
1788861435199511800,10.45251171875,-6.820332341766357,-4.234744186401367,0.28700492401123046
1788861435209518800,10.462518798828125,-7.831134355163574,-4.150348577880859,0.3719990829467773
1788861435219524900,10.47252490234375,-8.630498434448242,-4.414907861328125,0.32665888900756834
1788861435229531600,10.48253173828125,-8.730007440948485,-4.723610237884521,0.053121349334716794
1788861435239539000,10.4925390625,-8.333467790985107,-4.731092118072509,-0.3892074073791504
1788861435249545000,10.502544921875,-7.5342533493041985,-4.370166217803955,-0.7083844161987304
1788861435259551700,10.5125517578125,-7.698555438232422,-3.8111201301574704,-0.5862801315307616
1788861435269558000,10.52255810546875,-8.787169005584717,-3.4687492927551267,-0.05850830307006836
1788861435279564800,10.532564697265625,-9.189245246887207,-3.1947628402709958,0.41958384094238277
1788861435289570800,10.54257080078125,-8.827571158599852,-2.864063735961914,0.5638344909667968
1788861435299577900,10.552577880859374,-8.1969982963562,-2.7078420776367187,0.32231939849853514
1788861435309584000,10.562583984375,-7.247996613311767,-2.760664151763916,-0.2258031440734863
1788861435319591000,10.5725908203125,-7.364564306640625,-2.9248166030883787,-0.8442553604125976
1788861435329596700,10.5825966796875,-8.827870433807373,-3.1253309921264645,-1.248875440979004
1788861435339604000,10.59260400390625,-10.157999093627929,-3.421314172363281,-1.5406687683105469
1788861435349609700,10.602609619140624,-9.962422745513916,-3.6605847007751464,-1.9298761756896972
1788861435359616800,10.61261669921875,-8.081178791046142,-3.427150038909912,-2.3198317710876464
1788861435369623000,10.622623046875,-6.327426074981689,-2.747047129821777,-2.3707085563659667
1788861435379629800,10.6326298828125,-5.9856537879943845,-1.84503165435791,-2.2457611572265623
1788861435389635800,10.6426357421875,-6.415412985992432,-1.296759474182129,-2.104503259277344
1788861435399643000,10.652642822265625,-6.378602135467529,-1.2255319747924804,-2.0302830078125
1788861435409649000,10.66264892578125,-5.38800119857788,-1.1246762298583983,-1.78757081451416
1788861435419655700,10.67265576171875,-5.083937587738037,-0.6762123313903808,-1.2493243537902832
1788861435429661700,10.68266162109375,-5.800851347351074,-0.0028431144714355467,-1.023371572113037
1788861435439669000,10.6926689453125,-6.389675318145752,0.4661211357116699,-1.7553987297058105
1788861435449674800,10.7026748046875,-6.6145806365966795,0.10878653793334961,-2.587533444213867
1788861435459681800,10.712681884765624,-6.351667366790771,-0.3694552436828613,-2.7008091102600096
1788861435469688000,10.72268798828125,-5.947196923828125,-0.3956418243408203,-2.311900978088379
1788861435479694800,10.73269482421875,-5.828235028839111,-0.28730419921875,-1.9611504348754882
1788861435489700900,10.742700927734376,-6.383540176391601,-0.2645592834472656,-1.470339094543457
1788861435499708000,10.7527080078125,-6.9713166839599605,-0.280271231842041,-0.9005190994262695
1788861435509715000,10.76271484375,-6.439504640197754,-0.48123453369140623,-0.3574842353820801
1788861435519720700,10.772720703125,-5.831676693725585,-0.8750807067871094,0.04115034103393554
1788861435529728000,10.78272802734375,-5.617994195556641,-1.2469301521301268,0.03890577697753906
1788861435539733800,10.792733642578124,-5.664681127929687,-1.4827590156555175,-0.43230303726196284
1788861435549740800,10.80274072265625,-6.311863764190673,-1.686116519165039,-1.135150862121582
1788861435559746800,10.812746826171875,-6.9044286750793455,-2.064699656677246,-1.6398784996032714
1788861435569753900,10.82275390625,-6.974907986450195,-2.532466806030273,-1.794603781890869
1788861435579759900,10.832759765625,-6.979397114562988,-2.952649197387695,-1.6780360885620116
1788861435589766700,10.8427666015625,-6.969221757507324,-3.360112392425537,-1.3657424095153807
1788861435599773000,10.85277294921875,-6.85684391708374,-3.7276223472595214,-0.9223661895751952
1788861435609779700,10.86277978515625,-6.992714861297607,-4.133589166259766,-0.40028059005737304
1788861435619785700,10.87278564453125,-7.147889056396484,-4.577264661407471,0.031872809600830075
1788861435629793000,10.88279296875,-6.956352923583984,-4.977994164276123,0.19856910018920898
1788861435639798800,10.892798828125,-6.79294866027832,-5.369895048522949,0.27727847976684566
1788861435649805800,10.902805908203124,-6.908019977569579,-5.686528218078613,0.2620154441833496
1788861435659811800,10.912811767578125,-7.311742232513427,-6.060921502685546,0.20515315475463866
1788861435669819000,10.92281884765625,-7.538742477416991,-6.644059244537353,0.2280477081298828
1788861435679824100,10.93282421875,-7.4568907081604,-7.389853061676025,0.37484219741821284
1788861435689831200,10.9428310546875,-7.394940740203857,-8.147917162322997,0.4745008415222168
1788861435699837200,10.952837158203126,-7.510161695098876,-8.793902697753905,0.5799953521728515
1788861435709844200,10.96284423828125,-7.799710458374023,-9.215731102752684,0.7387608497619629
1788861435719850200,10.972850341796875,-8.166322587585448,-9.465326625823973,0.946757118988037
1788861435729857300,10.982857177734376,-8.544456812286377,-9.574562076568602,1.0889128425598145
1788861435739863000,10.992863037109375,-8.891316777801514,-9.546579844665526,1.0293570762634277
1788861435749870300,11.002870361328124,-9.22515827178955,-9.500491462707519,0.7848492317199707
1788861435759876400,11.01287646484375,-9.732579386138916,-9.539397239685059,0.4848258361816406
1788861435769883100,11.022883056640625,-10.283395405578613,-9.751284086608885,0.26276363220214843
1788861435779889200,11.03288916015625,-10.674099188995362,-10.1123596244812,0.2973299186706543
1788861435789896200,11.042896240234375,-10.665120932769774,-10.487351459503174,0.5850830307006836
1788861435799903200,11.0529033203125,-10.375272894287109,-10.797550212097168,1.0290578010559082
1788861435809909000,11.062908935546876,-10.136451278686522,-10.933870069122314,1.4680945304870605
1788861435819916300,11.072916259765625,-9.771036250305174,-10.913519355010985,1.744175909423828
1788861435829922300,11.08292236328125,-8.825027319335938,-10.731260753631592,1.9072808975219726
1788861435839929000,11.09292919921875,-7.80195502243042,-10.32334864578247,1.8192939865112303
1788861435849935400,11.102935302734375,-7.547571096038818,-9.51231283340454,1.0571896705627442
1788861435859942100,11.112942138671874,-7.327903093719482,-8.91166749191284,0.7128735443115234
1788861435869948200,11.1229482421875,-6.9205895362854,-8.778938937377928,1.1739070014953612
1788861435879955200,11.132955078125,-6.538714371490478,-8.605359317016601,1.54500825881958
1788861435889961200,11.142961181640626,-6.6060512931823725,-8.390180442810058,1.363647483062744
1788861435899968300,11.15296826171875,-7.031770275878906,-8.33182177734375,0.773776049041748
1788861435909974300,11.162974365234374,-7.3460092437744136,-8.3119199760437,0.18989011917114257
1788861435919981300,11.172981201171876,-7.357980252075195,-8.31251852645874,-0.014664485168457031
1788861435929987000,11.182987060546875,-7.32296505279541,-8.296806578063965,0.025887305450439452
1788861435939994400,11.192994384765624,-7.29692810974121,-8.402450726318358,0.13407529296874998
1788861435950000400,11.20300048828125,-7.53978994064331,-8.578274910736084,0.28042086944580075
1788861435960007200,11.213007080078125,-8.119186742401123,-8.785822267150879,0.4709095390319824
1788861435970013200,11.22301318359375,-8.611494458770752,-8.989628683471679,0.7103297050476074
1788861435980020200,11.233020263671875,-8.735843307495117,-9.226953923034667,0.8898948295593261
1788861435990026200,11.243026123046874,-8.129661374664305,-9.356390450286865,1.012448027038574
1788861436000033000,11.253032958984376,-7.109731467437744,-9.09781667098999,1.176600478363037
1788861436010039300,11.263039306640625,-6.088903734588623,-8.40783768005371,1.2210428466796874
1788861436020046300,11.27304638671875,-5.662436563873291,-7.723993830871581,1.332373223876953
1788861436030052000,11.283052001953125,-6.350470265960693,-7.156119124603271,1.4661492416381836
1788861436040059400,11.293059326171875,-7.617900769805908,-6.720374422454833,1.4526818572998046
1788861436050065200,11.303065185546876,-8.30518628387451,-6.477213316345215,1.4446014266967773
1788861436060072200,11.313072265625,-8.406341304016113,-6.375010832977295,1.451185481262207
1788861436070078200,11.323078125,-8.833556662750244,-6.383091263580322,1.345092420196533
1788861436080085200,11.333085205078126,-9.182062641906738,-6.4992100440979,1.0390835205078124
1788861436090091300,11.34309130859375,-9.222913707733154,-6.60754766921997,0.5310638557434082
1788861436100098000,11.35309814453125,-8.850016799163818,-6.720075147247314,0.20380641632080077
1788861436110105300,11.363105224609376,-7.8782702003479,-6.6343328002929685,0.27578210372924805
1788861436120111000,11.373111083984375,-7.113173132324218,-6.363937650299072,0.4607341819763183
1788861436130118100,11.3831181640625,-7.027281147766113,-5.878363626098633,0.5995978782653808
1788861436140124400,11.39312451171875,-7.255628131103515,-5.128828868865966,0.7710825721740722
1788861436150131200,11.403131103515625,-7.73791012802124,-4.626645070648193,0.7345709968566894
1788861436160137200,11.41313720703125,-8.265382681274414,-4.53267265548706,0.49036242752075193
1788861436170144300,11.423144287109375,-8.531438340759276,-4.574571184539795,0.19782091217041015
1788861436180150300,11.433150390625,-8.328080837249756,-4.696076918792724,-0.0076315177917480465
1788861436190157000,11.443156982421876,-8.160636358642577,-4.708197564697265,-0.18166005096435545
1788861436200163000,11.4531630859375,-7.84639739074707,-4.574571184539795,-0.3989338516235351
1788861436210170400,11.46317041015625,-7.563283044433593,-4.256591276550293,-0.34267011260986324
1788861436220176100,11.473176025390625,-7.548319284057617,-3.697844464111328,-0.1375169578552246
1788861436230183200,11.48318310546875,-7.819462622070312,-3.135506349182129,0.05357026214599609
1788861436240189400,11.493189453125,-8.369380815887451,-2.804657607269287,0.2027589530944824
1788861436250196200,11.5031962890625,-9.112331518554686,-2.7364228599548337,0.05985504150390625
1788861436260202200,11.5132021484375,-9.834632231903075,-2.927210804748535,-0.5328595069885254
1788861436270209300,11.523209228515626,-9.696666361236572,-3.0303111137390135,-1.0743979949951172
1788861436280215300,11.53321533203125,-8.318204755401611,-2.8859108261108397,-1.4942811111450194
1788861436290222000,11.54322216796875,-7.011419561767577,-2.5668834548950192,-1.9997569366455077
1788861436300228000,11.55322802734375,-6.673837127685546,-2.058414877319336,-2.3123498908996583
1788861436310235100,11.563235107421875,-7.186345920562744,-1.6379332107543945,-2.2026655273437497
1788861436320241200,11.5732412109375,-7.289595867156982,-1.4534300453186035,-1.9017443061828612
1788861436330248200,11.583248291015625,-6.296600728607177,-1.4936825607299804,-1.7769465446472168
1788861436340254200,11.593254150390624,-5.493794984436035,-1.6534955215454101,-2.010530844116211
1788861436350261200,11.60326123046875,-5.826738652801513,-1.7676690132141113,-2.1999720504760742
1788861436360267300,11.613267333984375,-6.521954959869384,-1.8746598999023436,-1.8148048583984373
1788861436370274300,11.6232744140625,-5.9670987251281735,-1.7916110298156738,-1.2105682144165038
1788861436380280300,11.6332802734375,-5.003282919311523,-0.9638158058166504,-1.2261305252075194
1788861436390287000,11.643287109375,-5.441421823120117,0.014215572357177733,-2.112583689880371
1788861436400293000,11.653293212890626,-6.291213774871826,0.3757400230407715,-2.924666965484619
1788861436410300200,11.663300048828125,-6.893804405212402,0.6923731925964355,-2.893991256713867
1788861436420306200,11.67330615234375,-7.321019763946532,0.8303390632629394,-2.1347300552368162
1788861436430313200,11.683313232421876,-6.847566385650635,0.7992144416809082,-1.0675146652221679
1788861436440319200,11.6933193359375,-5.782146646881103,0.7110778930664062,-0.06778583450317383
1788861436450326300,11.703326171875,-5.342361729431152,0.4993406837463379,0.2524386375427246
1788861436460332000,11.71333203125,-5.436483782196045,0.1954267105102539,-0.10414777221679687
1788861436470339300,11.72333935546875,-5.456984133911132,-0.2715922508239746,-0.7110778930664062
1788861436480345300,11.733345458984376,-5.788431426239013,-0.821061531829834,-1.284489190673828
1788861436490352000,11.74335205078125,-6.581361088562011,-1.3156138122558594,-1.5460557220458984
1788861436500358100,11.753358154296874,-7.158812601470947,-1.898601916503906,-1.325938806915283
1788861436510365200,11.763365234375,-7.141903552246093,-2.5604490379333495,-0.8005611801147461
1788861436520371200,11.77337109375,-6.911611280059814,-3.2517747673034667,-0.3119944038391113
1788861436530378000,11.7833779296875,-6.580163987731933,-3.84329221496582,-0.12345102310180664
1788861436540384300,11.79338427734375,-6.663961045837402,-4.20721086730957,-0.17941548690795897
1788861436550391300,11.803391357421875,-7.217320904541015,-4.677372218322754,-0.13646949462890623
1788861436560397000,11.81339697265625,-7.436390356445312,-5.213673390197753,-0.13946224670410157
1788861436570404400,11.823404296875,-7.378480603790282,-5.647622441101074,-0.395192911529541
1788861436580410400,11.833410400390624,-7.430404852294921,-5.907094046020507,-0.47105917663574215
1788861436590417200,11.843417236328126,-7.578546080017089,-6.082469317626953,-0.34057518615722654
1788861436600423400,11.85342333984375,-7.647529015350341,-6.347926426696777,-0.18824410552978516
1788861436610430200,11.86343017578125,-7.743596356964111,-6.70989979019165,0.044891281127929686
1788861436620436200,11.873436279296875,-7.927650609588623,-7.24021545791626,0.38411972885131834
1788861436630443300,11.883443359375,-7.9469538604736325,-7.915529963684081,0.6238391700744629
1788861436640450300,11.8934501953125,-7.764096708679198,-8.68227304534912,0.6796539962768554
1788861436650456000,11.9034560546875,-7.64872611618042,-9.330952057647705,0.5689221694946289
1788861436660463400,11.91346337890625,-7.6653358901977535,-9.751134449005127,0.5042787246704101
1788861436670469400,11.923469482421876,-7.8547770965576165,-9.879523513031005,0.5481225425720214
1788861436680476200,11.93347607421875,-8.265382681274414,-9.748740247344971,0.5940612869262695
1788861436690482200,11.943482177734374,-8.776844010925293,-9.463680612182616,0.5155015449523925
1788861436700489000,11.953489013671875,-9.121908325195312,-9.255534705352783,0.5158008201599121
1788861436710495000,11.963494873046875,-9.346215093231201,-9.085696025085449,0.6826467483520507
1788861436720502000,11.973501953125,-9.453505255126952,-9.057564155578612,0.9961375282287597
1788861436730508000,11.983508056640625,-9.522488190460205,-9.198822053527831,1.3763666793823242
1788861436740515000,11.99351513671875,-9.937882178497313,-9.537751226043701,1.5873557006835937
1788861436750521000,12.00352099609375,-10.557980408477782,-10.019285034942627,1.4761749610900878
1788861436760528100,12.013528076171875,-10.69385135269165,-10.512340939331054,1.2834417274475096
1788861436770534100,12.0235341796875,-9.942820219421385,-10.758644435119628,1.0844237144470215
1788861436780541200,12.033541259765625,-8.835202676391601,-10.686070197296141,1.0550947441101073
1788861436790547200,12.043547119140625,-7.808389439392089,-10.318410604858398,1.0862193656921386
1788861436800554000,12.053553955078126,-7.2915411560058585,-9.90840357055664,1.1231798538208007
1788861436810560000,12.06356005859375,-7.117213347625732,-9.568875847625732,1.07245270614624
1788861436820567000,12.073567138671875,-7.038503968048095,-9.330802420043945,0.5987000526428222
1788861436830573000,12.083572998046876,-7.211036125183105,-9.288454978179931,0.07691372833251953
1788861436840580000,12.093580078125,-7.608623238372802,-9.283666574859618,-0.10938508834838867
1788861436850586000,12.103586181640624,-7.926603146362305,-9.102156161499023,-0.05686228942871093
1788861436860593200,12.11359326171875,-8.069058145141602,-8.75290199432373,0.27099370040893556
1788861436870599000,12.123598876953125,-8.084620455932617,-8.391377543640136,0.6919242797851562
1788861436880606200,12.133606201171874,-7.811980741882324,-8.13923818130493,1.0971429107666015
1788861436890612200,12.1436123046875,-7.300369774627685,-8.080729878234862,1.4296376663208008
1788861436900619000,12.153618896484375,-6.770503019714355,-8.15958889541626,1.5349825393676757
1788861436910625000,12.163625,-6.535871257019043,-8.10796392211914,1.3165116378784179
1788861436920632000,12.173632080078125,-6.386682566070556,-8.05708713684082,1.0550947441101073
1788861436930638000,12.18363818359375,-6.264129368591308,-8.138938906097412,0.9906009368896483
1788861436940644900,12.193644775390625,-6.5218053222656245,-8.182483448791503,1.313967798614502
1788861436950651100,12.203651123046875,-7.42486826095581,-8.15285520324707,1.7094599853515624
1788861436960658200,12.213658203125,-8.40813695526123,-8.164078023529052,1.8743606246948241
1788861436970664000,12.223663818359375,-9.182661192321778,-8.180687797546387,1.848323681640625
1788861436980671200,12.233671142578125,-9.715670336914062,-7.963264359283447,1.552639776611328
1788861436990677000,12.243677001953126,-9.73676923904419,-7.537994289398193,1.055244381713867
1788861437000684000,12.25368408203125,-9.08479819946289,-7.0741177177429195,0.7193079612731933
1788861437010690300,12.263690185546874,-7.89742381362915,-6.597372312164306,0.4343979637145996
1788861437020697000,12.273697021484375,-7.199962942504882,-6.149955876922607,0.05805939025878906
1788861437030703000,12.283703125,-7.357680976867675,-5.908590422058105,-0.29777883148193357
1788861437040710100,12.293710205078124,-7.313687521362304,-6.005705226898193,-0.2603694305419922
1788861437050716200,12.303716064453125,-6.468534335327148,-6.0996776420593255,-0.12315174789428711
1788861437060723000,12.313722900390625,-6.196193896484375,-5.983109948730468,-0.06628945846557617
1788861437070729000,12.32372900390625,-6.826317845916748,-5.742492681884765,0.07990648040771484
1788861437080736300,12.333736328125,-8.215553359222412,-5.223699109649658,0.3895066825866699
1788861437090742000,12.343741943359374,-9.814431155395507,-4.878485157775879,0.4951508308410644
1788861437100749000,12.3537490234375,-10.269179833221434,-4.873547116851807,0.4816834465026855
1788861437110755300,12.36375537109375,-9.489567917633057,-5.050568402099609,0.4659714981079101
1788861437120762000,12.37376220703125,-8.238447912597655,-5.094112944793701,0.4969464820861816
1788861437130768100,12.38376806640625,-7.02234310684204,-4.800823241424561,0.44068274307250976
1788861437140775200,12.393775146484375,-6.41616117401123,-4.285770609283447,0.25049334869384765
1788861437150781200,12.40378125,-6.339397083282471,-3.850624457550049,-0.03920505218505859
1788861437160788000,12.4137880859375,-7.036259403991699,-3.471143494415283,-0.4348468765258789
1788861437170794000,12.4237939453125,-8.05589003601074,-3.2062849357604977,-0.7727285858154297
1788861437180801300,12.43380126953125,-8.609399532318115,-3.2035914588928223,-0.7350199096679687
1788861437190807000,12.44380712890625,-8.584709327697754,-3.3654993461608886,-0.7643488800048828
1788861437200814000,12.45381396484375,-8.407538404846191,-3.51768078918457,-1.1858780097961426
1788861437210820000,12.463820068359375,-8.6061075050354,-3.371634487915039,-1.723226644897461
1788861437220827100,12.4738271484375,-8.529193776702881,-2.873640542602539,-2.145803237915039
1788861437230833200,12.483833251953126,-7.847145578765868,-2.173186919403076,-2.2450129692077634
1788861437240840200,12.493840087890625,-7.079355033874512,-1.5770307060241697,-1.9017443061828612
1788861437250846200,12.50384619140625,-6.945579016113281,-1.5264531959533691,-1.635539009094238
1788861437260853000,12.51385302734375,-6.435913337707519,-1.4130278923034667,-1.619677423095703
1788861437270859000,12.52385888671875,-5.572803639221191,-0.7875427085876464,-1.4850035797119139
1788861437280866000,12.533865966796874,-5.853523783874511,-0.20814590682983397,-1.426944189453125
1788861437290872000,12.5438720703125,-6.368576416015625,-0.05551555099487304,-1.623568000793457
1788861437300879000,12.553879150390625,-6.552929943847656,-0.23358429946899412,-1.7624316970825193
1788861437310885000,12.563885009765626,-6.487687948608398,-0.6596025573730468,-1.8381483245849608
1788861437320892200,12.57389208984375,-6.110750824737549,-1.3364134391784668,-1.7688661140441893
1788861437330898000,12.58389794921875,-6.228814894104003,-1.5141829124450683,-1.9017443061828612
1788861437340905200,12.5939052734375,-6.340294908905029,-0.7236474517822266,-2.376843698120117
1788861437350911200,12.6039111328125,-6.228066706085205,-0.011372457885742187,-2.5936685859680173
1788861437360918000,12.61391796875,-6.214000771331786,0.013467384338378905,-2.2608745552062985
1788861437370924000,12.623924072265625,-5.7611973823547356,-0.3564367721557617,-1.4327800559997559
1788861437380931000,12.63393115234375,-5.309740731811523,-0.4795885200500488,-0.9641150810241699
1788861437390937000,12.64393701171875,-5.407753362274169,-0.27249007644653317,-1.0583867713928221
1788861437400943900,12.65394384765625,-6.348824252319336,-0.0143652099609375,-1.286434479522705
1788861437410950100,12.6639501953125,-6.788758807373046,-0.010474632263183592,-1.1872247482299805
1788861437420957200,12.673957275390626,-6.451026735687256,-0.5755062240600586,-0.7731774986267089
1788861437430963000,12.683962890625,-6.2584431396484375,-1.442207225036621,-0.4520552009582519
1788861437440970200,12.69397021484375,-6.192153681182861,-2.1154268043518063,-0.4857236618041992
