time,seconds_elapsed,z,y,x
1788861596036832800,0.047832763671875,0.9612561844617128,0.4124000669181347,-1.14539826150015
1788861596046838800,0.0578388671875,0.677400079870224,0.31803456078618764,-1.1199851494327187
1788861596056845000,0.067844970703125,0.5064297652244567,0.4679357839182019,-0.9901309812903404
1788861596066851800,0.077851806640625,1.0122031123667954,0.3200657743528485,-0.37015075166635214
1788861596076857900,0.08785791015625,1.2605284693717955,0.08966010491997004,0.45811610843241213
1788861596086864000,0.09786376953125,1.3913666801154612,-0.2621124748170376,1.0084134377602487
1788861596096871000,0.107870849609375,1.7724720295816658,-0.7630319521874189,1.1329413693785666
1788861596106877000,0.117876953125,2.1200608938932417,-1.0191840572953224,0.8738824369132518
1788861596116882700,0.127882568359375,2.4210551802903413,-0.8876572797656058,0.43072234394177794
1788861596126888700,0.137888671875,2.8067326599776745,-0.8312512096717953,-0.1195332651361823
1788861596136896000,0.14789599609375,2.5249767425358294,-0.8335670853987336,-0.5919840422607958
1788861596146901800,0.15790185546875,1.3330723120570183,-0.8185577323153614,-0.7556675608992576
1788861596156907800,0.16790771484375,0.1163765546709299,-0.7398489372596144,-0.5600771477272734
1788861596166914800,0.177914794921875,-0.7929103731006384,-0.46540948031097645,-0.020211396972183136
1788861596176920800,0.1879208984375,-1.1188982309788464,-0.1696355589106679,0.38870687397848813
1788861596186926800,0.1979267578125,-0.9261509688109159,0.0663619391798973,0.3211016202066094
1788861596196932900,0.207932861328125,-0.9017395811319351,0.339130832567811,0.2767487568043172
1788861596206940000,0.21793994140625,-0.988164065131545,0.4962327808588743,0.04830603060801513
1788861596216946000,0.22794580078125,-0.8583511057823896,0.6596341215550899,-0.4129787435889244
1788861596226952000,0.237951904296875,-0.9535592002183199,0.612964140316844,-0.6650690060853958
1788861596236959000,0.247958984375,-1.1135685603886842,0.41606764951497316,-1.0474622034050525
1788861596246965000,0.257965087890625,-0.9938087930202484,0.7113117018222809,-1.7693610579542816
1788861596256971000,0.267970947265625,-0.5566887108653783,1.3127528698667883,-2.056789906466007
1788861596266977800,0.277977783203125,-0.5147989496409893,1.2624538844764233,-1.8551029665172099
1788861596276984000,0.287984130859375,-0.38286183774471283,0.7149746082440018,-0.939258652991429
1788861596286989800,0.29798974609375,-0.09706453595757483,0.04137129030823707,-0.05999094284325838
1788861596296995800,0.307995849609375,0.34554829839468,-0.2857198526367545,0.11096970892501995
1788861596307003000,0.3180029296875,0.6384440340101718,-0.31552433153092857,0.18286243075774983
1788861596317009000,0.3280087890625,0.6707523124188184,-0.20518822606801984,0.34812530927583574
1788861596327015000,0.338014892578125,0.06750935564935207,-0.06876607771217823,0.7777622691337018
1788861596337022000,0.34802197265625,-0.7622668130338192,0.08163549615740776,0.8824423215962945
1788861596347027700,0.35802783203125,-1.2803998755335808,0.2415548399567604,0.8168795699700713
1788861596357034000,0.368033935546875,-1.4977689532607792,0.2635959913730621,0.7573129169534891
1788861596367040000,0.3780400390625,-1.365327983495593,0.23498715200424192,0.4357182160003111
1788861596377046800,0.388046875,-1.0280512543618678,0.1365969204008579,0.0233445621650666
1788861596387052800,0.398052734375,-0.5054360780119895,0.11324643995165824,-0.5881034745004028
1788861596397059000,0.40805908203125,-0.18239654854536055,0.02972469165623188,-0.7251254153802991
1788861596407065900,0.41806591796875,-0.3335048093795776,-0.01557078635841608,-0.04191997369956225
1788861596417071900,0.42807177734375,-0.26579613176584244,0.01826338644325733,0.44895935383476315
1788861596427078000,0.438077880859375,-0.37683717062771316,-0.08163812650591135,0.9380186628676951
1788861596437084000,0.448083984375,-0.6243675778627396,0.16360300074815748,0.9230643279071896
1788861596447091000,0.458091064453125,-0.7362041510164737,0.29769699841737746,0.5813913731085136
1788861596457096700,0.4680966796875,-0.5507756874293088,0.33656302790641784,0.34727431846968826
1788861596467102700,0.478102783203125,-0.2402121931761503,0.4035203026309609,0.296039878860116
1788861596477110000,0.488110107421875,-0.12731412827074526,0.5042527134463191,0.2616677267242223
1788861596487115800,0.49811572265625,-0.015603227323293684,0.43351212079077955,0.37576413456872104
1788861596497121800,0.508121826171875,-0.17064181334376335,0.34911446644365784,0.6808344382330774
1788861596507128800,0.51812890625,-0.13026011859476566,0.4771905189976096,0.7625846468113362
1788861596517134800,0.528134765625,-0.2086766527056694,0.3548652850553393,0.9764064803857355
1788861596527140900,0.538140869140625,-0.6874047565340995,-0.09650047233402728,1.2787436327591537
1788861596537147000,0.54814697265625,-0.5973199964612722,-0.27381664887517687,1.1695130043201147
1788861596547154000,0.55815380859375,-0.2817524103105068,-0.1404994807973504,0.7035442096259444
1788861596557160000,0.568159912109375,-0.42510055853724477,-0.027597324238717556,0.1945029284625314
1788861596567166000,0.578166015625,-0.7646540004312992,0.13870967477113008,0.05476796576427295
1788861596577172700,0.5881728515625,-0.9664064068317413,0.09622720835059881,0.15189638813775963
1788861596587179000,0.598178955078125,-0.9586959785848855,-0.2363952652364969,0.4159418311782181
1788861596597185000,0.60818505859375,-0.5979758300215006,-0.2697697115719318,0.5911635196581483
1788861596607191800,0.61819189453125,0.14352701192498207,-0.19321634098440407,0.40002303509972986
1788861596617197800,0.62819775390625,0.7144096678376197,-0.4111670179918408,0.47169491725601254
1788861596627203800,0.638203857421875,1.0446639509886502,-0.6571513648286461,0.43435675492137665
1788861596637209900,0.6482099609375,0.7317080086410045,-0.46066696195900436,0.259167799667269
1788861596647217000,0.658216796875,-0.01146422782242298,-0.11834288630783557,0.2581264008555561
1788861596657222700,0.66822265625,-0.79587273003757,0.12161708567291497,0.28880357093103226
1788861596667229000,0.67822900390625,-1.2971031730532645,0.22370792535990475,0.2058077096732333
1788861596677236000,0.688236083984375,-1.2281669994711875,0.1459109844520688,-0.1562223889775574
1788861596687241700,0.69824169921875,-0.6689636754363775,-0.04365618637502193,-0.37557332470435645
1788861596697248000,0.708248046875,0.4328869746297598,-0.09886427885591983,-0.35459969292171295
1788861596707254000,0.71825390625,1.1117407604396343,0.12618249389231204,0.004524199426174163
1788861596717260800,0.7282607421875,1.2212941910922526,-0.01717676025032997,0.4621659683451056
1788861596727266800,0.738266845703125,0.9795359375178814,-0.28508418508172034,0.93683442151919
1788861596737273000,0.748273193359375,0.6850497178405522,-0.0925216318309307,0.9968095092061906
1788861596747280000,0.75827978515625,0.5349141014307737,0.4946434658408165,0.11678590265680104
1788861596757286000,0.768285888671875,-0.022380174112319944,0.9118664228707551,-0.8226864296179265
1788861596767292000,0.7782919921875,-0.49692894642949104,0.9211658738747238,-1.146339926264435
1788861596777299000,0.788298828125,-0.17820611111819742,0.7645192681357265,-0.8443081135131418
1788861596787305000,0.798304931640625,0.2466875266700983,0.4433788502886891,-0.25740776772480456
1788861596797310700,0.808310791015625,0.4923024556726217,0.3704989075168967,0.03844170312974602
1788861596807316700,0.818316650390625,0.6143436119765043,0.24884558148682115,0.03164232531320303
1788861596817324000,0.828323974609375,0.5962316167026758,0.16857552846372126,-0.4369537491446361
1788861596827329800,0.838329833984375,0.43588498740196224,0.09080226069241762,-0.7996808170836418
1788861596837336300,0.84833642578125,0.08681202201247215,0.04882423666268587,-0.8682906082555651
1788861596847343000,0.858343017578125,-0.4164414512634277,0.050470834825932974,-0.8301841649621725
1788861596857349000,0.86834912109375,-0.5402040245324373,0.29589257934391494,-0.763451346643269
1788861596867355100,0.878355224609375,-0.4658773900836706,0.4433186445340514,-0.6357583020575344
1788861596877362200,0.888362060546875,-0.4601946682721376,0.4011170408815145,-0.47897228784784673
1788861596887368200,0.8983681640625,-0.4523877939134836,0.34878567288070916,-0.31106859423108396
1788861596897374200,0.908374267578125,0.0056862289428710935,0.24754998871833084,-0.1336379609974101
1788861596907381200,0.91838134765625,0.6381120255768299,0.004179331511259079,0.14745266093611717
1788861596917387300,0.92838720703125,1.0984686064124107,-0.14608546423614024,0.37379619549661874
1788861596927393300,0.938393310546875,1.0530442413210868,-0.2051493553623557,0.41028219798132776
1788861596937399000,0.94839892578125,0.801577663680911,-0.312948051302135,0.263151973932609
1788861596947406300,0.95840625,0.8838269078224897,-0.5379258504673838,0.4801186083387583
1788861596957412400,0.968412353515625,0.8475158235132694,-0.7030617598712444,0.5030669377278536
1788861596967418000,0.978418212890625,0.13551847751438617,-0.8819134754166007,0.3663050360236317
1788861596977425200,0.988425048828125,-1.2233709973663092,-0.792884946398437,0.1438500333342701
1788861596987431200,0.99843115234375,-2.3165514342427254,-0.6143930040761828,0.220290810392797
1788861596997437200,1.008437255859375,-2.3741776937812564,-0.7150885900124907,0.6344781991191208
1788861597007444200,1.0184443359375,-0.550436080211401,-0.5598576962903141,-0.1667300467275083
1788861597017450000,1.028449951171875,-0.8922235647678375,-0.7108531443998217,-0.5449978346802294
1788861597027456300,1.038456298828125,-2.103197437375784,-1.1189283338561653,-0.12895385830178857
1788861597037462300,1.048462158203125,-2.7207296162605283,-1.4529764563322067,0.24952128879129884
1788861597047469000,1.058468994140625,-3.4404479119002818,-2.094086494681239,0.3968827643126249
1788861597057475000,1.06847509765625,-3.0496038432300088,-3.333086438333988,0.4404974496334791
1788861597067481300,1.0784814453125,-2.183956150698662,-4.394687203337252,0.4103454724758863
1788861597077488000,1.088488037109375,-2.2246429658740756,-4.868738255265355,0.22033172692507505
1788861597087494100,1.098494140625,-1.7223995464235544,-4.981357503229379,-0.8080237710803747
1788861597097500200,1.108500244140625,-1.139043193385005,-4.7060780883252615,-2.031562526229024
1788861597107507200,1.118507080078125,-0.6790496006429195,-4.501614669400453,-2.61867326336503
1788861597117513200,1.12851318359375,0.09408931953907013,-5.1897605996906755,-2.154346025332808
1788861597127519200,1.138519287109375,0.7253367200434208,-5.982777355775236,-1.9022353045701978
1788861597137526300,1.1485263671875,0.5269242717206478,-5.582133193102479,-1.8820026638805865
1788861597147532300,1.1585322265625,0.09486731817424297,-4.289788320492208,-1.414638834631443
1788861597157538000,1.1685380859375,-0.2490530867576599,-3.0398242074936626,-0.9980980146467685
1788861597167544000,1.1785439453125,-0.5105354469776153,-1.6438943111158906,-0.18121990598142146
1788861597177551400,1.18855126953125,-0.6766472156763076,-0.667980655748397,0.8200432946979999
1788861597187557000,1.19855712890625,-0.45142274827361106,-0.5211590592574328,1.2461843021988868
1788861597197563100,1.208563232421875,1.6332839236438272,-0.5580255489597097,1.3852894060283898
1788861597207570400,1.2185703125,3.223115951313078,-0.25864616867965085,1.1601152075082064
1788861597217576200,1.228576171875,3.692183954131603,0.42354361141882835,0.4736065230309963
1788861597227582200,1.238582275390625,3.5354143065348267,1.1439099226385354,0.41794308799803254
1788861597237589200,1.24858935546875,2.6936975246891377,2.1322752094306052,2.4111352593004702
1788861597247595300,1.25859521484375,1.5155997935056686,2.7592665599256754,5.143358913999796
1788861597257601300,1.268601318359375,0.14597791220843792,2.793188995532691,6.848366011595726
1788861597267608000,1.278608154296875,-0.6228276549443602,2.8147385640397666,7.399122409802675
1788861597277614000,1.288614013671875,-0.10601765774190425,2.7493913548603652,7.450801743635535
1788861597287620400,1.298620361328125,1.6792459027431905,2.5219100484415886,6.968450773134827
1788861597301379300,1.31237939453125,3.418938090881705,2.6042165757283566,5.982592646858095
1788861597312010200,1.32301025390625,2.9613357771903273,2.9720103159397837,4.079080746480822
1788861597322017300,1.333017333984375,2.251257270424813,2.8793244334578514,3.339471755456924
1788861597332023000,1.34302294921875,0.7393061356198042,2.3753753791332244,1.2629659256517887
1788861597342029000,1.353029052734375,1.0164578472018242,2.473700728806853,1.2708967186510562
1788861597352036400,1.363036376953125,0.6664355451982468,2.3673534007191654,0.6937070715487003
1788861597362042000,1.3730419921875,0.1889776439687237,1.8710320647940037,0.5651812294006348
1788861597372048100,1.383048095703125,-0.40170857703387736,1.2282307123571634,0.8714870662093162
1788861597382055200,1.39305517578125,-1.1288438709318638,1.2094646370887756,2.546601714366674
1788861597392061200,1.403061279296875,-2.408940964126587,2.6688021528854966,1.4178098658829927
1788861597402067200,1.413067138671875,-2.20932323166728,2.6677482599183917,1.4253192185997963
1788861597412074000,1.423073974609375,-2.030147398734093,2.648604875770211,1.4272972406744957
1788861597422080300,1.433080322265625,-1.4390391163945198,2.658247733384371,0.7196545827537775
1788861597432086300,1.443086181640625,-0.19294943367652595,2.2219074034303428,0.20160159975290298
1788861597442092300,1.45309228515625,0.43953357303738594,1.9431652808517217,1.1291045676946638
1788861597452099000,1.46309912109375,0.7711492076694965,1.799686199721694,2.21866681407392
1788861597462105300,1.473105224609375,1.5733319976367055,2.1546081834003328,2.63150410336554
1788861597472111000,1.483111083984375,1.6526244377993047,2.345709724187851,2.84491713694334
1788861597482118100,1.4931181640625,0.8352433480478823,1.4270134552970528,2.312213697299361
1788861597492124200,1.503124267578125,-0.7742202856779098,-0.04378565797358751,1.7072364640831947
1788861597502130200,1.513130126953125,-2.6241677691280842,-1.1232836064562202,1.6337690768122672
1788861597512137200,1.52313720703125,-3.552409864999354,-1.005342578947544,1.5454811370283363
1788861597522143200,1.533143310546875,-3.4337361393019554,-0.1464294553682208,0.3064852850288152
1788861597532149200,1.543149169921875,-2.277546142413467,0.7081678508386016,-0.36207507030367847
1788861597542156300,1.55315625,-1.695963374918699,1.42212305290699,0.6610206074774265
1788861597552162000,1.563162109375,-0.5395139964416623,1.67200586848706,1.0923743811905384
1788861597562168000,1.57316796875,-0.47924248309135437,1.5985080860778689,1.0765940437346697
1788861597572175400,1.58317529296875,-0.33525486791729925,1.2671356125518678,0.06666413699686527
1788861597582181000,1.59318115234375,0.04953881467282772,0.656694853232801,-0.13768763824701308
1788861597592187100,1.603187255859375,0.38028175812363624,0.5782999464318156,0.799649325966835
1788861597602194400,1.6131943359375,-0.08408961131125688,0.6358996102243661,1.8135200792849062
1788861597612200200,1.6232001953125,-0.8378317571058869,0.9863090849146247,1.4840104770213365
1788861597622206200,1.633206298828125,-1.995638687671721,1.1011205822259187,0.6448094773888587
1788861597632213000,1.643212890625,-1.819337533392012,0.7711796028077602,-1.7686884193897245
1788861597642219300,1.65321923828125,0.5242030300632119,0.6580044745266437,-2.647111422342062
1788861597652225300,1.663225341796875,2.850855587081611,0.13173662088811397,-1.2484224365144967
1788861597662231300,1.673231201171875,2.410691607186198,-0.1810351970642805,0.6149427469134331
1788861597672238000,1.683238037109375,1.5423241343021392,-0.14210603921115397,1.0116805497974157
1788861597682244400,1.693244384765625,0.6380982893124222,0.6523255521073937,0.3016869448363781
1788861597692250400,1.70325048828125,-0.24830899039208887,0.8459773618996143,0.02835515686869621
1788861597702257200,1.713257080078125,-0.00009703063368797301,0.20015812294632196,-0.03486848428547382
1788861597712263200,1.72326318359375,6.931544645541906,-2.353660390931368,2.138654535204172
1788861597722269200,1.733269287109375,11.660509103935956,-1.2264677943378686,-0.030372341910004614
1788861597732276200,1.743276123046875,4.629616487674415,0.9012406916990876,-1.7692969066768884
1788861597742282200,1.7532822265625,-3.9921898140132424,0.8855605997473001,-0.8869932628989219
1788861597752288000,1.7632880859375,-5.967788460958004,2.596073309022188,-1.1870230881780386
1788861597762295300,1.77329541015625,-4.460043764866889,4.493568725588918,-2.0581407365530726
1788861597772301300,1.78330126953125,-3.8514731833338733,2.575315475414693,-2.261258001565933
1788861597782307000,1.79330712890625,-3.4557007183507085,0.7866720632329582,-2.9928759938359257
1788861597792314400,1.803314453125,-2.322615556587279,0.8705462782278657,-3.2764608802706
1788861597802320100,1.813320068359375,-1.7263322096973657,1.2761141610383986,-3.7773283351927995
1788861597812326100,1.823326171875,-1.6883271809518337,2.9090821506008506,-5.477543522337078
1788861597822333200,1.833333251953125,-2.3362144583508373,4.369690124724805,-7.0255112154841415
1788861597832339000,1.8433388671875,-3.236878519205749,3.797812320294976,-6.768776926574111
1788861597842345000,1.853344970703125,-3.4843861300870773,3.5602635011091825,-6.582641776022315
1788861597852352000,1.86335205078125,-4.493163067397475,3.459101466704905,-7.083506308335066
1788861597862357800,1.873357666015625,-2.2995845173507927,1.438036953614652,-4.089281237977743
1788861597872364000,1.883364013671875,26.724745285618305,-13.174042028039693,14.218006306326389
1788861597882371000,1.89337109375,8.276866782841086,2.1264526407569644,5.439581748211383
1788861597892376800,1.903376953125,0.6751631145983934,3.0816841581016776,-0.5782306805878877
1788861597902382800,1.9133828125,1.4226993914902208,-1.5243325505375862,3.9031004947185512
1788861597912390000,1.923389892578125,-5.70354248124361,3.9678754569679495,-0.15245441474616528
1788861597922396000,1.93339599609375,-1.9627166612789033,-5.674307034409046,5.320394812294841
1788861597932402000,1.94340185546875,3.455513086824119,-5.071493116706609,4.139894988405704
1788861597942409000,1.953408935546875,2.4556857641667125,-3.103567488607764,-0.879510798189044
1788861597952415000,1.9634150390625,-0.3402650972947478,-3.338189314430952,-1.627247566089034
1788861597962421000,1.9734208984375,0.11713146469146013,-1.4730021762728691,-0.43066579144895073
1788861597972427800,1.983427734375,-0.725921826454997,-0.8629384335726499,-0.6338450157821178
1788861597982434000,1.99343408203125,-0.7564309464871883,-1.1432757163882254,-1.0980530113488436
1788861597992440000,2.003440185546875,-1.123697740215063,-2.8078046731233597,-0.7538572966068983
1788861598004323000,2.015322998046875,-1.1193477283120155,-2.816132356485724,-0.7586532987117767
1788861598014328800,2.025328857421875,-2.7044091805785895,-2.0036329012960192,0.9243243379056453
1788861598024336000,2.0353359375,-2.702235343670845,-1.290783906903863,1.4105021732181309
1788861598034342100,2.045342041015625,-2.794576942759752,-1.2935972107589244,1.3480664675712584
1788861598044348000,2.055347900390625,-1.4249696745097635,-1.6395160960316657,1.2290046193391084
1788861598054355000,2.06535498046875,0.17248364181816578,-3.088127342891693,-0.8312333817541598
1788861598064361000,2.07536083984375,-1.129178801974654,-6.0930748827934265,-2.9883360123187304
1788861598074367000,2.085366943359375,-2.7772581436902284,-7.5658648776203385,-4.811799977990985
1788861598084374000,2.0953740234375,0.24623247637897727,-8.143632032349705,-4.911177467066049
1788861598094379800,2.1053798828125,1.3979577489435673,-4.062145978292823,-2.617470317316055
1788861598104387000,2.115386962890625,2.963522473579645,2.7422113802284,-4.500770619791746
1788861598114393000,2.12539306640625,3.5192861785545944,7.767635404199361,-6.527402119359373
1788861598124398800,2.13539892578125,-1.6417033769428728,7.531796019279956,-0.8219348075330257
1788861598134406000,2.145406005859375,-3.6652062230959532,6.290659063598513,5.109342078107595
1788861598144412200,2.155412109375,-4.099996985520423,7.822527270337939,7.403596924868226
1788861598154418000,2.16541796875,-3.5286873363673683,10.156658200412988,5.114073198282719
1788861598164425000,2.175425048828125,-1.355185944187641,9.48460123513639,2.3824919331401584
1788861598174430700,2.1854306640625,-0.6515171583339572,7.6684087217718355,2.8047107987612483
1788861598184437000,2.19543701171875,-0.48742199015468357,5.1870583549946545,4.362130210864543
1788861598194444000,2.205444091796875,-1.1239137210533021,4.224591041177511,4.7469893599063155
1788861598204449800,2.21544970703125,-2.502339963313937,5.093900178825855,4.703695577102899
1788861598214455800,2.225455810546875,-1.7511162300810217,7.332925305795669,3.0927462348639962
1788861598224463000,2.235463134765625,-0.24139672678560017,4.911234165689349,1.1716098304688929
1788861598234468900,2.24546875,2.5058812891826032,2.329853398886323,0.10465046104192734
1788861598244475000,2.255474853515625,6.176313137972355,4.979219322156906,0.5809253264993429
1788861598254482000,2.26548193359375,8.319982870990037,3.341387818211317,-0.40130613371282814
1788861598264488000,2.275488037109375,5.491762017303705,5.411873657074571,2.070993496124446
1788861598274494000,2.285493896484375,7.31679133259654,5.566975371459126,1.0881707920208572
1788861598284500700,2.295500732421875,6.747712511235475,0.7830553340405225,-3.773717158958316
1788861598294507000,2.305507080078125,5.152646966826915,-3.833746972507238,-5.342682047426701
1788861598304513000,2.315512939453125,2.5068483806490898,-6.209597567936778,-5.407170009428262
1788861598314519800,2.325519775390625,-2.9747616604745386,-10.996984404683113,-6.100775374168157
1788861598324525800,2.33552587890625,-8.01784935142994,-17.247045500433444,-4.772762683588266
1788861598334532000,2.345531982421875,-3.6161540228962896,-16.194913113260267,-3.720244511967897
1788861598344539000,2.355538818359375,0.07125672548413277,-10.318057553637027,-2.6425305242925883
1788861598354545000,2.365544921875,1.2665885000631212,-5.425429888740181,-1.2815176275171338
1788861598364551000,2.375551025390625,0.21168431008905172,-4.969720841449499,0.18297054904103277
1788861598374558000,2.385557861328125,-1.4475593997195362,-5.051439339715242,1.504352277173847
1788861598384564000,2.39556396484375,-0.9416752856791019,-3.514320372840762,1.3717261601001023
1788861598394570000,2.405570068359375,0.9021823564633726,-1.4954033931732176,-0.19049948324114083
1788861598404577000,2.415576904296875,3.2193101292893287,-0.5598018744498491,-2.941509963735938
1788861598414583000,2.4255830078125,2.7019395755946634,10.01856724206209,-2.6655793914467094
1788861598424588800,2.4355888671875,-1.6484648339018224,30.78149320425987,1.562097340786457
1788861598434596000,2.44559619140625,4.471965673328936,18.769788151431083,1.0198106647610663
1788861598444602000,2.45560205078125,4.060827589170635,20.586631822180745,2.645123171134293
1788861598454608000,2.46560791015625,3.0021494336158034,16.937359958058593,0.6054214698523283
1788861598464615000,2.475614990234375,-1.1889891275539994,6.2709659366130825,-4.169518265514076
1788861598474621200,2.48562109375,-11.55167697329521,-5.299907904583216,-4.831833296716213
1788861598484628000,2.4956279296875,-7.802462387430667,-3.891711670219898,-2.7382310784205792
1788861598494634000,2.505634033203125,-2.7860864700511097,-4.286294340896606,-0.06721855600923299
1788861598504639700,2.5156396484375,0.885928264015913,-2.689933495980501,0.8639277368709445
1788861598514647000,2.52564697265625,-0.8854124234482645,-3.6737832050442694,3.331604383082688
1788861598524653000,2.535653076171875,-2.426497663605213,-2.796251597973704,7.4309022804230445
1788861598534658800,2.545658935546875,-1.970824272149801,-5.247199812224507,9.204802296981216
1788861598544666000,2.555666015625,-1.8323878613620996,-9.41971462920606,9.243556682789325
1788861598554672000,2.565672119140625,-2.2570161262124775,-12.433100911629198,7.909813339602946
1788861598564678000,2.575677978515625,-1.1023425252363086,-12.525962735199927,5.4230953083127735
1788861598574685000,2.585684814453125,-0.41484512198269363,-12.834054870903492,1.659066599676013
1788861598584691000,2.59569091796875,0.920828020222485,-12.310442500209808,-2.854343136936426
1788861598594697000,2.605697021484375,-2.074398043870926,-10.289191524636745,-6.665565558424592
1788861598604704000,2.6157041015625,-3.8454531923919912,-8.503710960400104,-5.906964866682887
1788861598614709800,2.625709716796875,-3.347950245466828,-6.707462333911657,-2.87019683188945
1788861598624716000,2.635716064453125,-1.7534779907763003,-5.489035807210207,-0.23910920037031172
1788861598634723000,2.64572314453125,-0.10507833106517792,-5.182264106455445,1.9823346772015094
1788861598644728800,2.655728759765625,0.48756022958159445,-5.2076382016867395,3.2745150068998337
1788861598654734800,2.66573486328125,-0.2843415500208735,-4.724270747619867,3.5778859593003984
1788861598664742000,2.675741943359375,-1.2987421724319457,-3.3483430441766977,1.5506056404352186
1788861598674748000,2.685747802734375,-1.1395604952573775,-3.5385979050070047,1.4516092596322296
1788861598684755000,2.6957548828125,-0.508413632518053,-2.5152222412407395,0.03588146072030067
1788861598694761000,2.705760986328125,0.6394464890509843,-1.397932029980421,-1.4372306056678295
1788861598704767000,2.71576708984375,1.6715508181959389,-0.8354314179658889,-2.826461442798376
1788861598714774000,2.72577392578125,1.9942554166197775,-0.9063064506560563,-3.388385716229677
1788861598724779800,2.73577978515625,2.101216492691636,-0.9279676628440618,-3.0548639557152986
1788861598734786000,2.7457861328125,2.6985937722980973,-0.602536854326725,-2.66121418197453
1788861598744792800,2.755792724609375,2.661992180609703,0.22020400889217853,-1.8256243585765362
1788861598754798800,2.765798828125,2.4052245739519593,0.7464134103417396,-1.0866408059746027
1788861598764804900,2.775804931640625,1.4163859705597162,2.881316484057903,-0.5549000738829374
1788861598774812000,2.78581201171875,1.3794710751384496,6.047386313807964,-1.3318506613075733
1788861598784818000,2.79581787109375,3.083770901247859,4.455929607546329,-2.9744466031759975
1788861598794824000,2.805823974609375,3.2079116601794957,3.438473689217865,-2.872342319485545
1788861598804831000,2.8158310546875,2.3887960017204284,1.2282824425444006,-2.331199552798271
1788861598814837000,2.8258369140625,1.8039748368263244,-0.8324404194563627,-2.3944413141310212
1788861598824843000,2.835843017578125,2.5662211915940043,-1.9865674924656747,-3.1840123136758804
1788861598834849800,2.845849853515625,2.4855267756789923,-1.6292247113808989,-3.731691788655519
1788861598844856300,2.855856201171875,2.21502991887629,-0.5455114832907915,-2.805169063922763
1788861598854863000,2.865863037109375,1.591765918341279,0.09550093990266323,-1.1764227837085723
1788861598864869400,2.875869384765625,2.056463743251562,0.7804632717207074,-0.807086782491207
1788861598874875400,2.88587548828125,3.4644781913071867,1.461282804645598,-2.000015879842639
1788861598884882200,2.895882080078125,2.612103237324953,1.4563582077249884,-2.912339398831129
1788861598894888200,2.90588818359375,1.299862700894475,0.7829489510565996,-3.238317319837212
1788861598904894500,2.91589453125,1.673044271624088,0.09309446328282356,-3.124106418767571
1788861598914901200,2.9259013671875,1.3581447939932345,-0.13215484630018473,-2.280228659495711
1788861598924907300,2.9359072265625,1.03580552175045,0.2875698644176125,-1.7501543993115425
1788861598934913300,2.945913330078125,1.4703659825503825,0.8845224888712168,-1.3900848236113785
1788861598944920300,2.95592041015625,2.3016128083080054,1.6193164808288216,-1.2745645935088394
1788861598954926300,2.96592626953125,2.2004203787654637,2.281299503597617,-1.3895295278161763
1788861598964932000,2.97593212890625,1.9091624734848736,2.522789461624622,-1.0231754650190472
1788861598974939400,2.985939453125,1.8406997626334427,2.729885274879634,-0.7507438407614827
1788861598984945400,2.9959453125,1.6800743163913487,3.1914228821933266,-0.8879603543654083
1788861598994951200,3.005951171875,1.2374123822003602,3.7304923497378826,-1.205439034834504
1788861599004958200,3.015958251953125,0.9422428564339875,4.09600090162158,-1.3263725221574305
1788861599014964200,3.025964111328125,0.48563832160830495,4.1909827860862015,-1.1611597481250762
1788861599024971300,3.03597119140625,0.43320027836263175,4.0833196992248295,-0.8456894848689437
1788861599034977300,3.045977294921875,0.24373159947395323,3.7549189349859953,-0.37035482287108895
1788861599044983000,3.055983154296875,-0.027926702323555944,3.176522834703326,0.043759354488551616
1788861599054990300,3.065990234375,0.11045476340651511,2.363809444501996,0.2000026401236653
1788861599064996400,3.075996337890625,-0.17189269018769263,1.4579361245661973,0.28644378299713136
1788861599075002000,3.086002197265625,-1.2436480617195367,0.43071196867823597,0.31449732657074925
1788861599085009400,3.096009521484375,-1.2537789951115845,-0.6296978329747915,0.26581571324914693
1788861599095015200,3.10601513671875,-0.39218379284143445,-1.0779144786834716,0.17356413053125141
1788861599105021200,3.116021240234375,-0.3570832533657551,-0.78669690541327,0.05213935256004333
1788861599115028200,3.1260283203125,-0.4113619560420513,-0.15151742615699768,-0.10807955870777368
1788861599125034200,3.1360341796875,-0.6885720467478037,0.6129536189228296,-0.32228432718515393
1788861599135040300,3.146040283203125,-0.8836392762959003,1.3229337798804044,-0.3812722304657101
1788861599145047300,3.15604736328125,-0.47993104987740515,1.831764176505804,-0.05902209781110286
1788861599155053000,3.166052978515625,-0.4214776918649673,2.1587398763775822,0.4905582423537969
1788861599165060400,3.176060302734375,-0.29828152030706406,2.1279759048014877,1.160595830632001
1788861599175066000,3.186066162109375,-0.08013561298847198,1.9184820904940365,1.8066811731755732
1788861599185072000,3.196072021484375,-0.43833997933864594,1.5268378113567829,2.3402304159939287
1788861599195079400,3.206079345703125,-0.8874792928501963,0.8321808917373418,2.8337326028451324
1788861599205085200,3.216085205078125,-0.9702867553964256,-0.13127835572659968,3.201324098482728
1788861599215091200,3.22609130859375,-1.0823390171274543,-1.2238351077467202,3.31961730042994
1788861599225098200,3.23609814453125,-1.442589502352476,-2.309015778040886,3.161050540283322
1788861599235104300,3.246104248046875,-2.025857008063793,-3.0691239517360924,2.7451170385420323
1788861599245110300,3.2561103515625,-2.1707845344364642,-3.632231881994009,2.2794866089567543
1788861599255117000,3.266116943359375,-2.280540794184804,-4.011239382398128,2.238455656518787
1788861599265123000,3.276123046875,-2.5374779121905564,-4.292098058739304,2.543969320036471
1788861599275129300,3.28612939453125,-2.8927970784932375,-4.471434635192155,2.611379599225521
1788861599285136100,3.29613623046875,-3.100365477696061,-4.457162364211678,2.3276526739716528
1788861599295142100,3.30614208984375,-2.906986055104434,-4.45020304659307,2.133948403339833
1788861599305149400,3.3161494140625,-3.118114484876394,-4.154532585567235,1.7957954758934676
1788861599315155200,3.3261552734375,-3.520313183514774,-3.742476217520237,1.8279171456888317
1788861599325161200,3.3361611328125,-3.112155284211039,-3.1835254069417713,2.1779402514100075
1788861599335168000,3.34616796875,-2.45153098257482,-2.5292361535459755,2.210245461078733
1788861599345174300,3.35617431640625,-2.149051718316972,-2.202917456278205,2.0897524109996852
1788861599355180300,3.36618017578125,-2.1629081019729375,-2.021892196086049,1.6655360879510641
1788861599365187000,3.37618701171875,-2.2519436452537773,-1.981033531475067,0.9925381885625422
1788861599375193300,3.386193359375,-1.751454960516095,-2.25083831436038,0.6353992594867944
1788861599385199400,3.396199462890625,-0.7382277657985686,-2.5276100136488675,0.6776086080543696
1788861599395206100,3.4062060546875,0.3682429452836513,-2.313491462150216,0.7990838010385632
1788861599405212200,3.416212158203125,1.073717611515522,-1.6767793664991855,0.9331626011386513
1788861599415219200,3.42621923828125,1.5383686746746301,-0.9958680636376142,0.9575618599884211
1788861599425225200,3.43622509765625,2.250454283478856,-0.2963631194651127,0.6072030925720929
1788861599435231200,3.446231201171875,2.641941033966839,0.4641992277383804,-0.21718904498517513
1788861599445238300,3.45623828125,2.5744512598007914,0.7481921104520559,-0.9760404966175555
1788861599455244300,3.466244384765625,2.2381161954313513,0.6397755748748779,-1.1577613378584384
1788861599465250300,3.476250244140625,1.2447510545253753,0.300030994322896,-0.5055789936140179
1788861599475257000,3.486257080078125,0.2709767492741346,-0.09226268863379955,0.9135784874856472
1788861599485263400,3.496263427734375,-0.3211398333251476,-0.4152548718273639,2.669427299046516
1788861599495269400,3.506269287109375,-0.6194792212992907,-0.6813368347972631,3.9981145278871058
1788861599505276200,3.516276123046875,-0.6759837833315133,-0.6115244629025459,4.4676521940439935
1788861599515282200,3.5262822265625,-0.729099871969223,-0.2598071204841137,4.202254998467862
1788861599525288400,3.536288330078125,-0.42639644356667994,-0.022473113092780113,3.319280031299591
1788861599535295200,3.546295166015625,0.6984995665222405,0.037325814309716224,2.119314167179167
1788861599545301200,3.55630126953125,1.5186106657594443,0.07449789936244487,0.8073618000403047
1788861599555308300,3.566308349609375,1.6063251895695925,0.1523433555871248,-0.21939415381401775
1788861599565314300,3.576314208984375,1.3575029889583587,0.12331482950150965,-0.7485539295017719
1788861599575320300,3.5863203125,1.0386194101274013,0.1564882003068924,-0.932948666127026
1788861599585327000,3.5963271484375,0.4102811750680208,0.20675942090749738,-0.789468123692274
1788861599595333400,3.60633349609375,-0.3631991058975458,0.1087602344483137,-0.4609542544677853
1788861599605339400,3.61633935546875,-0.8617863409280776,-0.05812251862287521,-0.3108352969318628
1788861599615346200,3.62634619140625,-0.9122995535910129,-0.24252865342497823,-0.08353110064566135
1788861599625352200,3.636352294921875,-0.5585211869895458,-0.454522467854619,0.47822833761274813
1788861599635359200,3.646359130859375,0.3353928150832653,-0.6240390765607357,1.062945165349543
1788861599645365200,3.656365234375,1.0712217030465603,-0.4440390677630901,1.184709842799604
1788861599655371300,3.666371337890625,1.4476415250450372,-0.01961363200843334,0.6430386683240532
1788861599665378300,3.67637841796875,1.251879298970103,0.48835576387345786,-0.2161824982911348
1788861599675384300,3.68638427734375,0.35331016456782816,0.9109984078645705,-0.7996838127583265
1788861599685390300,3.696390380859375,-0.6986316684693098,1.1173504170149564,-1.217891689172387
1788861599695397000,3.706397216796875,-0.5612912362247705,1.384519006177783,-1.9483172567874192
1788861599705403400,3.7164033203125,0.9829524679630994,1.5979448992371559,-2.128218189124763
1788861599715409200,3.7264091796875,1.4378314941704273,0.8076806567311287,-0.6166723471850156
1788861599725416200,3.736416259765625,0.5714513957113028,-0.7617723075151444,1.8067703127637504
1788861599735422200,3.746422119140625,-0.32511633574068544,-1.7440917382717132,2.511444476267695
1788861599745429200,3.75642919921875,0.11236907259523868,-0.5689782835960387,-0.908071414501965
1788861599755435300,3.766435302734375,2.6752608275055882,0.49095980889201163,-2.448856794929504
1788861599765441300,3.776441162109375,4.177589051505923,-0.13777970044463872,0.4196326485201716
1788861599775448300,3.7864482421875,1.68656250936687,-0.19867635995596647,1.530573198492825
1788861599785454300,3.796454345703125,1.3305389941871166,-0.21879384983330963,-0.8368474222436547
1788861599795460400,3.80646044921875,1.548825771281123,-0.5162660995841026,-2.7755492939457294
1788861599805467100,3.816467041015625,1.271630293622613,0.0930664062321186,-3.9414799097344275
1788861599815473400,3.826473388671875,0.4874690441668033,0.8371087035283445,-3.9455756546154617
1788861599825480200,3.836480224609375,2.2329238874852657,1.6456670198768377,-3.9911744994908567
1788861599835486200,3.846486328125,3.2678765917986627,2.153932476095855,-3.2291859188765284
1788861599845492000,3.856491943359375,3.0245898134827613,2.6999951635286212,-3.0639643770158287
1788861599855499000,3.8664990234375,2.354220947423577,3.3281320307970046,-2.9138340213030576
1788861599865505000,3.876505126953125,1.8922656992197036,3.3566043843045827,-1.7754495840877293
1788861599875511000,3.886510986328125,1.93003867277503,2.8378821237400174,-1.0369424168258905
1788861599885518000,3.89651806640625,2.123835151734948,2.610086636805534,-1.5162170486211777
1788861599895524000,3.906524169921875,1.5792968973904846,2.6438077046215533,-2.9264415739417076
1788861599905531000,3.91653076171875,1.3220757017463445,2.788200393465161,-3.7434851023018356
1788861599915537000,3.926536865234375,1.501887494495511,2.8998218625634906,-3.5355975541472433
1788861599925543200,3.936543212890625,1.6393156050235032,2.9729917281925675,-3.3173914410740135
1788861599935550000,3.946550048828125,1.1146639544099568,2.8918770410388706,-2.7763901286840436
1788861599945556000,3.956555908203125,0.7788830167919397,2.6870325138419866,-2.2278812171429396
1788861599955562000,3.96656201171875,0.27886253408789635,2.563707747468352,-1.9706167668789625
1788861599965569000,3.976569091796875,0.39127895295619963,2.4176433260202406,-1.3420797943770886
1788861599975575000,3.986574951171875,0.33414953702390193,2.257700016823411,-0.6418178943574429
1788861599985581800,3.996581787109375,0.7111608951747417,2.0769611723572012,-0.2357335864573717
1788861599995588000,4.006588134765625,0.7662672808468342,2.027100870645046,-0.23435089992731808
1788861600005594000,4.016593994140625,0.2286146943628788,1.93171741964221,-0.7873807960242033
1788861600015601000,4.026600830078125,-0.4906237088054418,1.5091063398331404,-0.9495403199657797
1788861600025607000,4.03660693359375,-0.6424509315639734,1.0230869099527597,-0.6373465941622853
1788861600035613200,4.04661328125,-0.9326356546550989,0.6907125659078359,-0.40384938845485446
1788861600045620000,4.056619873046875,-0.6738169606864451,0.27015198888778685,-0.23709552246034143
1788861600055626000,4.0666259765625,-0.1920329764187336,-0.00011982698738574981,-0.41968291740268465
1788861600065633000,4.076633056640625,-0.2377548631519079,0.027331659039855002,-0.5888894372463226
1788861600075639000,4.08663916015625,-0.6800503021180629,0.12721943572461605,-0.36571225776225325
1788861600085645000,4.09664501953125,-0.9447294125527143,0.2425339141219854,-0.2980091331064701
1788861600095652000,4.106652099609375,-1.0232277797281741,0.159881349876523,-0.053821314297616475
1788861600105658000,4.116658203125,-1.1937179096415638,-0.2369616669476032,0.50842853782624
1788861600115665000,4.126664794921875,-1.8771774356812239,-1.0095932221293449,1.3062383734062313
1788861600125671000,4.1366708984375,-2.609956872946024,-1.8321616513907908,1.8694421652540563
1788861600135677200,4.14667724609375,-3.130679075156152,-2.646450328084826,2.0907254938155413
1788861600145684000,4.15668408203125,-3.4065745761319994,-3.4205765057384965,2.0793582966268063
1788861600155690000,4.16668994140625,-4.25020858977586,-4.048369966396689,2.0248487078040838
1788861600165697000,4.176697021484375,-5.207053095275163,-4.591299031978846,2.0225956681802866
1788861600175703000,4.186703125,-5.169745401144027,-4.8855368298530575,2.2902099552839994
1788861600185709000,4.196708984375,-4.0904096574857824,-5.059025849321484,2.797317181378603
1788861600195715800,4.2067158203125,-4.107667081756889,-5.066034266778827,3.2448686411768195
1788861600205722000,4.21672216796875,-4.532487946569919,-4.769038110107183,3.0302155444100496
1788861600215728000,4.22672802734375,-4.235225832438469,-4.030846000143885,2.2359905815795065
1788861600225735000,4.23673486328125,-3.5527886351838704,-2.819037430277467,1.4331770924933254
1788861600235741000,4.246740966796875,-2.85114638672173,-1.421194247624278,0.9798201612867414
1788861600245748000,4.256748046875,-2.4412033575668928,-0.17563889097869395,0.9395932187080382
1788861600255754000,4.26675390625,-2.265411614114046,0.18053484632670877,1.365239282298833
1788861600265760000,4.276760009765625,-2.4597832626134157,-0.3344914823293686,1.7611255829200148
1788861600275767000,4.28676708984375,-2.8757039048731325,-1.347076872012019,1.8846293591223655
1788861600285773000,4.29677294921875,-3.3739255214616652,-2.6341718612700697,1.6885224112629889
1788861600295779800,4.30677978515625,-3.7335622587025163,-3.684230364778638,1.2674679132461548
1788861600305785900,4.316785888671875,-3.8636473129913207,-4.0252082865178584,1.1040569279387593
1788861600315792100,4.326792236328125,-3.4411700886949896,-3.7082442775726316,1.1939654546618461
1788861600325799000,4.336798828125,-2.277923597423732,-3.1523399950832127,1.0859157065704463
1788861600335805000,4.346804931640625,-0.9056836425825953,-2.342917463120818,0.3985819694459438
1788861600345811000,4.35681103515625,0.5623316851884126,-1.3986381324231625,-0.3196189073681831
1788861600355818000,4.36681787109375,1.945952865743637,-0.5401642770439387,-0.5251885339692235
1788861600365824000,4.376823974609375,3.5453400727435946,0.22198329352438448,-0.1387611126974225
1788861600375830800,4.386830810546875,4.074879787659645,0.9832119956821203,0.5369783404842019
1788861600385837000,4.396837158203125,3.2802222786307333,1.5138129100888966,1.1067945362091063
1788861600395843000,4.406843017578125,1.8468243829935789,1.611219975873828,1.5157397864982485
1788861600405849900,4.416849853515625,-0.04587064755409956,1.1633593039959669,2.2942656604155895
1788861600415855900,4.42685595703125,-2.089942819005251,0.29751345854401584,3.418011039164662
1788861600425863000,4.43686279296875,-2.6397557988822458,-0.7754699934780597,4.341879742257297
1788861600435869000,4.446868896484375,-1.7944740180313585,-1.6458178265243768,4.388986069086194
1788861600445875000,4.456875,-0.6388035149723291,-2.0670172859698535,3.697898240125179
1788861600455882000,4.466882080078125,0.33150282190740105,-1.9143436755150556,2.2980358266040684
1788861600465888000,4.476887939453125,0.9453490057557821,-1.3334563429385422,0.4974821963980794
1788861600475895000,4.48689501953125,1.6755565467059612,-0.5091472074896097,-1.238119653686881
1788861600485900800,4.49690087890625,2.415533201998472,0.4564151497334242,-2.411135551561415
1788861600495907000,4.506906982421875,2.6216215917766093,1.1620663415759802,-2.8107883651092647
1788861600505913900,4.516913818359375,1.8448785096228122,1.2095225047558544,-2.558111242635548
1788861600515920000,4.526919921875,0.879307384571433,0.7281389179825782,-1.8865327085256576
1788861600525927200,4.53692724609375,0.544156561550498,0.18976853861808776,-0.7852467066049575
1788861600535933000,4.546932861328125,0.6838239754378795,-0.12033142977654933,0.2811386623263359
1788861600545939000,4.55693896484375,0.6425456241101026,-0.19841770901978015,0.9070835725083947
1788861600555946000,4.566946044921875,0.030233810222148893,0.02898644050955772,0.8384007891654968
1788861600565952000,4.576951904296875,-0.32663258552253244,0.3459674005895853,-0.1557692383825779
1788861600575959000,4.586958984375,1.1847422837644814,0.5313841737389564,-1.051231054419279
1788861600585964800,4.59696484375,1.689288719460368,0.3881950154662132,-0.4142617691367864
1788861600595971000,4.60697119140625,0.8527081314593553,-0.06496873125582933,1.884605539855361
1788861600605978000,4.61697802734375,0.6914385420948267,-0.19633038135170935,3.369230349382758
1788861600615983900,4.62698388671875,2.272964221450686,0.7764289016380905,1.3609849858552217
1788861600625991200,4.6369912109375,5.765109002840519,1.1403379093706607,-1.112030391035974
1788861600635997200,4.6469970703125,3.914045082581043,0.48408700051307674,-1.2591393531009554
1788861600646003000,4.6570029296875,0.5862158341228961,0.2445832478672266,-1.6605843107625842
1788861600656010000,4.667010009765625,2.1641782680392265,0.39713878490030763,-3.4677369008421897
1788861600666016000,4.67701611328125,3.0777210996896027,0.5904641392171383,-4.4342190032586455
1788861600676023000,4.68702294921875,4.226326486667991,1.2657424046277999,-4.478952171215415
1788861600686029000,4.697029052734375,3.1384961786478756,2.0339649111956355,-3.941341378046572
1788861600696034800,4.707034912109375,2.1355448787510394,2.123482685035467,-3.514962177875638
1788861600706042000,4.7170419921875,2.8982424844175574,1.8675883540809153,-2.9069316945686934
1788861600716048100,4.727048095703125,2.82341374566555,2.2416990223541853,-2.4072967040508986
1788861600726055000,4.737054931640625,2.5833622960090636,3.2618180224120614,-2.844527553103864
1788861600736061200,4.747061279296875,3.1304116563916207,4.007997916258871,-3.3513603461712598
1788861600746067000,4.75706689453125,4.142964312848449,4.517924875949323,-3.6379151883274314
1788861600756074000,4.767073974609375,3.5131653575867414,4.5615036131739615,-2.7451819204717873
1788861600766080000,4.777080078125,2.981449175414443,4.375973735038936,-1.2794734083384274
1788861600776087000,4.787087158203125,2.376362052083015,3.8744209282010793,-0.11111702670753001
1788861600786093000,4.797093017578125,2.6605922506839037,2.8471260451644658,0.42127457050830125
1788861600796099000,4.80709912109375,3.195769971486926,1.7913965102821587,0.0431476523309946
1788861600806106000,4.817106201171875,2.2439836261600257,0.8465478552639484,-0.5825760163158178
1788861600816112000,4.827112060546875,2.2200392714709043,0.14498188690841196,-1.5955378380954264
1788861600826119000,4.837118896484375,1.867588938602805,0.03478314408957958,-3.0159114169865844
1788861600836125000,4.847125,0.5397212094515562,0.3458656937807798,-4.000463136839866
1788861600846132200,4.85713232421875,-0.31972529035210606,0.9820160638958215,-4.2087361771807075
1788861600856138200,4.86713818359375,-1.0227589931726455,1.4158429497241973,-3.1317282919481393
1788861600866144300,4.877144287109375,-0.5142395621925592,1.3504501478374002,-1.4580734872102736
1788861600876151000,4.887151123046875,-0.060300447183847423,0.8627858733594417,-0.30341069988906383
1788861600886157300,4.8971572265625,-0.1904284638315439,-0.04440671248137951,0.37261107736527915
1788861600896164000,4.9071640625,-0.29456396108865734,-1.1240788484871387,0.5708060835450888
1788861600906170000,4.917170166015625,0.019584405913949013,-2.1249510040223596,0.6907736484453082
1788861600916176100,4.927176025390625,-0.17721242390573025,-2.8276486067563296,0.7155237665593623
1788861600926183200,4.93718310546875,-0.49522389607727524,-2.9450246938586235,0.6726824036985636
1788861600936189200,4.947189208984375,-0.4938491005927324,-2.601691148903966,0.8195596028342843
1788861600946196000,4.957196044921875,-1.0383733264118433,-2.076552007034421,1.1242115349560975
1788861600956202200,4.9672021484375,-1.6221569649517535,-1.550233884513378,1.504140534119308
1788861600966208300,4.977208251953125,-2.0946669249176977,-1.195118131828308,2.1226889043092725
1788861600976215000,4.987215087890625,-2.4107243404120204,-1.2992337553411721,3.0408973896831273
1788861600986221300,4.99722119140625,-2.9839015370026227,-1.8676520669668912,4.027179294329882
1788861600996228000,5.00722802734375,-3.550307047501206,-2.691289002242684,4.750286063364148
1788861601006234000,5.017234130859375,-3.7066257364600896,-3.453261800765991,4.941646255087853
1788861601016241400,5.027241455078125,-3.977986516615748,-3.973123294493556,4.708296933418512
1788861601026247200,5.0372470703125,-4.713567567297816,-4.323244307631254,4.021255457238853
1788861601036253200,5.047253173828125,-5.272202736055851,-4.569138638097048,3.1395816357970237
1788861601046260200,5.05726025390625,-4.801036591914296,-4.5061032129913565,2.4195327930286523
1788861601056266200,5.067266357421875,-3.650280456642806,-4.096808710873127,1.53196260702461
1788861601066273300,5.077273193359375,-2.974877103547752,-3.4239147102504965,0.6324303266786039
1788861601076279000,5.087279052734375,-2.9962600833162663,-2.776568407860398,0.44200390867367384
1788861601086285000,5.09728515625,-2.8222569768458605,-2.4309020360440012,0.7811226124122739
1788861601096292400,5.107292236328125,-2.137991102859378,-2.0681407370418308,0.9220787509359418
1788861601106298000,5.117298095703125,-1.395442551252246,-1.5399509754300116,0.7693108863264322
1788861601116305200,5.12730517578125,-0.8330950839728116,-0.9985609559834003,0.6438011771291494
1788861601126311400,5.1373115234375,-0.6443512122273445,-0.5052601369231939,0.9733303608760238
1788861601136318200,5.147318115234375,-1.0684966619968415,-0.43963586436808105,1.9841218528792262
1788861601146324200,5.15732421875,-1.7812331359252334,-0.8744909242004155,3.060548138831556
1788861601156330000,5.167330078125,-1.9058388820201158,-1.2412725647598504,3.483339251382649
1788861601166337300,5.177337158203125,-1.2323258727163076,-1.4336708673596381,3.328802477404475
1788861601176343300,5.18734326171875,-0.06993629053533076,-1.548977162450552,2.614717803737521
1788861601186350000,5.19735009765625,1.3955308140575884,-1.5142624074220656,1.7554639038965105
1788861601196356400,5.2073564453125,2.1800170576840636,-1.3153408405333757,1.2340154332384465
1788861601206363100,5.217363037109375,1.7384230449855327,-1.2086731944501399,1.0015653984963893
1788861601216369200,5.227369140625,0.6296691914021968,-1.277055241280794,0.9275298559486865
1788861601226375200,5.237375244140625,-0.19032208084762095,-1.379331958928704,0.8191016299337148
1788861601236382200,5.24738232421875,-0.370628963637352,-1.42603934956789,0.7042705511391163
1788861601246388200,5.25738818359375,-0.13537293156385422,-1.4127601812779902,0.5079673500552773
1788861601256395000,5.26739501953125,0.26242344046235083,-1.2127917356848716,0.14525924254506825
1788861601266401300,5.2774013671875,0.1817325316786766,-1.137021332168579,-0.08095160554647446
1788861601276407300,5.2874072265625,-0.23116788597702978,-1.3126146304398774,-0.27769612065702676
1788861601286414000,5.2974140625,-0.35984628833830357,-1.2528297315627335,-0.4540247474655509
1788861601296420000,5.307420166015625,0.24960487542152404,-1.0533172130435704,-0.4440890443846583
1788861601306427100,5.31742724609375,1.2515507976680993,-0.8080331234306096,-0.3248264128834009
1788861601316433200,5.32743310546875,2.0023253258287905,-0.6290659648120402,-0.3188277569904923
1788861601326440200,5.337440185546875,2.37862824344933,-0.508646856752038,-0.3749216923952102
1788861601336446200,5.3474462890625,2.2450690833091733,-0.36733868992030616,-0.5008703775316476
1788861601346452200,5.3574521484375,1.5595575931757688,-0.15100363141596315,-0.8231415529742836
1788861601356459300,5.367459228515625,0.9276900149464606,0.02970540243387222,-1.4270181314721702
1788861601366465000,5.377465087890625,2.2176175972819325,0.19045242922902106,-2.2608917986020445
1788861601376472300,5.387472412109375,2.3767794007122514,0.0006651859104633331,-2.2344921597152947
1788861601386478000,5.39747802734375,2.204709600391984,-0.8057301071852445,-0.4692307921648025
1788861601396485000,5.407485107421875,0.6330892289787531,-1.9258049807280302,1.6647648113176226
1788861601406491400,5.417491455078125,-0.1963712978839874,-2.3998642159625887,1.729580397838354
1788861601416497200,5.4274970703125,1.6395669494360685,-1.8584779959082602,-0.7943325148582459
1788861601426504200,5.437504150390625,2.74799288623929,-0.5688432590395212,-2.5847970049872995
1788861601436510200,5.44751025390625,2.848873181092739,0.6096306119799614,-1.7722943349272011
1788861601446517200,5.457517333984375,3.252154706531763,1.5589090661391616,-0.8165048914387821
1788861601456523300,5.467523193359375,3.1609266216427088,2.3001851135924456,-1.8252777370959519
1788861601466530000,5.477530029296875,2.9723581064641476,2.467936173930764,-3.7921433347478506
1788861601476536300,5.487536376953125,3.4012621489375827,2.266481873694062,-5.030452665787935
1788861601486542300,5.497542236328125,3.232306681245565,2.527241180336475,-5.239765278309584
1788861601496549000,5.507549072265625,3.176394824409485,2.6643036724224687,-5.023174199217558
1788861601506555100,5.51755517578125,3.654085401883721,2.714288185036182,-4.584562709461152
1788861601516562200,5.527562255859375,3.660854165366292,2.9788655886620283,-4.42976173158884
1788861601526568200,5.537568115234375,3.3206010507702826,3.495601059323549,-4.671084516355395
1788861601536575000,5.547574951171875,3.1644027733206745,3.87223656989932,-4.047326010301709
1788861601546581200,5.557581298828125,2.997916326090693,3.8306931378945706,-2.4979846907138823
1788861601556587300,5.567587158203125,2.7654934716165065,3.5661885072439907,-1.0049152934461831
1788861601566594000,5.577593994140625,2.7887849153548476,3.197313693797588,-0.3368456442400813
1788861601576600300,5.587600341796875,3.3448774138927457,2.802662049537897,-0.523037201154232
1788861601586607000,5.597607177734375,3.318469883960485,2.4241338570833206,-1.4637170460551976
1788861601596613000,5.607613037109375,2.65875217577517,2.0661872648864983,-2.247964512489736
1788861601606620400,5.617620361328125,2.001861799970269,1.8572078298419712,-2.4005267715245484
1788861601616626200,5.627626220703125,1.709845185276866,1.5230746594309805,-1.7440391313016415
1788861601626632200,5.637632080078125,2.2944009772330523,1.0870002869367599,-1.294664839990437
1788861601636639200,5.64763916015625,2.74793735665977,0.8021563403517007,-1.433581435510516
1788861601646645200,5.657645263671875,2.5235721364349124,0.32561376386880875,-1.2618030193522571
1788861601656652300,5.66765234375,1.8859136998444794,-0.33456279399991035,-0.8040659733653068
1788861601666658000,5.677657958984375,1.509418474522233,-1.085728367304802,-0.5186953725576401
1788861601676665300,5.687665283203125,1.2185375858604908,-1.7407903586387634,-0.4309641898736357
1788861601686671400,5.69767138671875,0.7635480850160121,-2.2796587506532666,-0.30023440794050693
1788861601696678100,5.70767822265625,-0.07948854725658894,-2.7472756778806446,0.073675184802711
1788861601706684200,5.71768408203125,-0.717665454763174,-3.2849756106376646,0.6843716724485158
1788861601716690200,5.727690185546875,-0.5368132130503654,-3.641504152730107,1.318228963190317
1788861601726697200,5.737697265625,-0.5617430716454982,-3.7242408881276843,1.9001637589931486
1788861601736703200,5.747703125,-1.295179511514306,-3.670407591131329,2.3783701770350336
1788861601746710300,5.757710205078125,-2.218131392022967,-3.544831830960512,2.5083161151140927
1788861601756716300,5.76771630859375,-2.8406214855760332,-3.372055928197503,2.300669682238996
1788861601766723000,5.77772314453125,-3.324318609988689,-3.155821407458186,2.0612496623538434
1788861601776729000,5.78772900390625,-3.8801252773225303,-2.8824720838338136,1.8944995957516133
1788861601786735400,5.7977353515625,-4.1652696681588885,-2.7227789500057695,1.802897855244577
1788861601796742100,5.8077421875,-4.011391065828502,-2.7794284734666346,2.1389576098039744
1788861601806748200,5.817748046875,-3.5543005010515447,-2.879056137910485,2.7569179509729147
1788861601816755200,5.827755126953125,-3.3657328626558183,-2.9845664306521416,3.4497289504647255
1788861601826761200,5.83776123046875,-3.3907360787481067,-2.9962808338433504,3.8554333191365
1788861601836768300,5.847768310546875,-3.144441058526933,-2.6719898430109024,3.6171503404572602
1788861601846774300,5.857774169921875,-2.3817685873016714,-2.075003608548641,2.6924747048959135
1788861601856781300,5.86778125,-1.736456713348627,-1.5754460671812296,1.561290846709162
1788861601866787300,5.877787353515625,-1.8831480345234273,-1.538769656690955,0.6606266397237778
1788861601876793300,5.88779345703125,-1.818104776726663,-1.5835551393568514,0.6104669166736304
1788861601886800400,5.89780029296875,-1.8642904815793035,-1.9381255331188438,1.1349096007116137
1788861601896806100,5.90780615234375,-1.8720418263584375,-2.1129443398863077,1.4233011567756533
1788861601906813400,5.9178134765625,-1.677440460756421,-2.0100427683383226,1.4027153187341987
1788861601916819500,5.9278193359375,-1.5607067632108926,-1.9266969611316918,1.1819725267902017
1788861601926826200,5.937826171875,-1.7324276039630173,-1.849158963420987,0.8368404079809785
1788861601936832500,5.94783251953125,-1.8800363322436808,-1.8650854313492773,0.7158683422133326
1788861601946839300,5.95783935546875,-1.6830121234089135,-1.9135393733948467,0.6817331406384706
1788861601956845300,5.96784521484375,-1.0408549140945076,-1.7840514082163572,0.6778603908583521
1788861601966851300,5.977851318359375,-0.3697179862722754,-1.5141811588793992,0.9076745241388678
1788861601976858400,5.9878583984375,0.09822422738671302,-1.3689713084340094,1.439911515314877
1788861601986864400,5.997864501953125,0.4663730646461248,-1.3938549897998571,1.863416913615167
1788861601996871200,6.00787109375,1.0187351444840431,-1.586319927895069,1.9642925322934983
1788861602006877400,6.01787744140625,1.586390655043721,-1.831056905019283,1.8120596513435243
1788861602016884200,6.02788427734375,1.2929238415420055,-2.028015647402406,1.704701100386679
1788861602026890200,6.03789013671875,-0.0643663814485073,-2.15639477455616,1.7834449667558072
1788861602036897500,6.0478974609375,-1.4064409151285886,-2.0841484535127877,1.510874810810387
1788861602046903300,6.0579033203125,-1.8275760771661995,-2.0062311010956764,0.8196274073734879
1788861602056909300,6.067909423828125,-1.335180097991228,-1.9256646954745054,-0.039108898334205146
1788861602066916400,6.077916259765625,-0.6546352903544902,-1.7228490437567232,-0.4675666583448648
1788861602076922400,6.08792236328125,0.2944219222694635,-1.4453618896752596,-0.68693772354424
1788861602086929400,6.097929443359375,1.3998527689099312,-1.0446060833215713,-1.146040504926443
1788861602096935200,6.10793505859375,2.217351055300236,-0.6500923862278462,-1.7050860080510377
1788861602106942500,6.1179423828125,2.56335761885643,-0.40163434275388715,-2.0808304150059818
1788861602116948500,6.127948486328125,2.0538772338896987,-0.24433248797655105,-2.0639786489263177
1788861602126955300,6.137955322265625,1.026913190242648,-0.24450959810912606,-1.692552689692378
1788861602136961300,6.147961181640625,0.14819441921412943,-0.3128694331079721,-1.1711328606069087
1788861602146968300,6.15796826171875,0.13641279600560666,-0.44056057799756526,-1.0032920761585236
1788861602156974300,6.167974365234375,1.2560428483903407,-0.5302291584849357,-0.7662982605069876
1788861602166980400,6.17798046875,1.8679723849624394,-0.9371846962615847,-0.1019593222618103
1788861602176987400,6.1879873046875,1.9138117605954408,-1.2486384173527358,0.3735696932643652
1788861602186993400,6.197993408203125,2.4644126759797333,-1.1335036794364453,-0.48567280839979643
1788861602197000200,6.208000244140625,2.9583634833812713,-0.4623845795318484,-2.0351082360118626
1788861602207006200,6.218006103515625,2.519751701363921,0.3940001946136355,-2.5088462764680384
1788861602217013200,6.22801318359375,2.498667412281036,0.9492030508354306,-2.1413415823310613
1788861602227019300,6.238019287109375,2.6274884379833936,1.5301643254309891,-1.9317799634844064
1788861602237026300,6.2480263671875,2.4993349362790585,2.016034409968555,-2.311989825415611
1788861602247032300,6.2580322265625,3.0381004524409767,2.2871783325031396,-2.778610142821073
1788861602257038300,6.268038330078125,3.295064458453655,2.0680182797059414,-3.1018735441714522
1788861602267045400,6.27804541015625,2.7711335233300924,1.8141893568485974,-3.644842357242107
1788861602277051100,6.288051025390625,2.6070348480194805,1.8839514598608016,-4.570330478230119
1788861602287058400,6.298058349609375,3.3510610709637403,2.2668711652725935,-5.1066211287111045
1788861602297064200,6.308064208984375,3.7493069403231143,2.8185148677080867,-5.290827357026934
1788861602307071200,6.3180712890625,3.281460880514979,3.0313723132297397,-5.304053333824872
1788861602317077500,6.328077392578125,3.0783015299260614,2.814178592069447,-4.422252378872036
1788861602327084300,6.338084228515625,2.9476801768034693,2.377651507371664,-3.4861107619225975
1788861602337090300,6.34809033203125,2.5007816279560324,2.074640035933256,-2.7528017478257416
1788861602347097300,6.358097412109375,2.872679588615894,2.026004015319049,-2.3601439077317714
1788861602357103400,6.368103271484375,3.465127010604739,2.3294027325093745,-2.3310762186795473
1788861602367109400,6.378109375,3.498493273633718,2.940385343620181,-1.9590718750357627
1788861602377116200,6.3881162109375,3.40632177041471,3.1513755339652296,-1.875781889669597
1788861602387122400,6.398122314453125,2.8247271663516758,3.3651603234648704,-1.3372659643545746
1788861602397129200,6.408129150390625,2.161943056333065,3.247991741633415,-0.7042045001655817
1788861602407135200,6.41813525390625,1.8376415441066025,2.59961258906424,-0.18065321200937032
1788861602417142300,6.428142333984375,1.7109896791368722,1.6178116292238234,-0.3702855570271611
1788861602427148300,6.438148193359375,1.0196838235110044,0.4199789777398109,-0.9898600553944706
1788861602437155300,6.4481552734375,0.98496556135118,-0.8203449079930781,-1.443005097416043
1788861602447161300,6.458161376953125,1.1077291867107153,-1.9471417832672595,-1.5646943715423345
1788861602457168400,6.46816845703125,0.7786024462848902,-2.738218511199951,-1.523629662965238
1788861602467174400,6.47817431640625,0.6398346115857363,-3.1785347590476274,-1.4270008880764244
1788861602477181400,6.488181396484375,0.739099872457981,-3.3829239436924454,-0.9449149982526898
1788861602487187500,6.4981875,0.46172611562311644,-3.3492706804156303,0.186508075517416
1788861602497193200,6.508193115234375,-0.12235329099297523,-3.2848896859198806,1.5535305879712105
1788861602507200300,6.5182001953125,-0.7429775906741619,-2.9970746145695446,2.627088040488958
1788861602517206500,6.52820654296875,-1.2156614459022879,-2.623468096426129,3.326324104592204
1788861602527213300,6.53821337890625,-1.838470688407123,-2.2984826935887335,3.709364221513271
1788861602537219300,6.54821923828125,-2.758996218551695,-2.2005501426249743,3.780016843624413
1788861602547226400,6.558226318359375,-3.6479046674221753,-2.334183537045121,3.551558508867025
1788861602557232400,6.568232421875,-4.1840450957775115,-2.6690152111142873,3.271914469012618
1788861602567239200,6.5782392578125,-4.37296461635083,-3.1853245653182265,3.1894331696808336
1788861602577245200,6.5882451171875,-4.097743361374736,-3.6334412577837703,3.3039959529280662
1788861602587252500,6.59825244140625,-3.856800515836477,-3.8288784896880386,3.3350907638937235
1788861602597258200,6.60825830078125,-3.8887610037207603,-3.560665944430232,2.9373227411791683
1788861602607265300,6.618265380859375,-3.7245781572580334,-2.948302692615986,2.193667543504387
1788861602617271300,6.628271240234375,-3.2469425248414274,-2.349959782847762,1.4374226211085914
1788861602627277300,6.63827734375,-2.5158599546223877,-2.061661311894655,0.8900254702016711
1788861602637284400,6.648284423828125,-1.9861516051411627,-1.9922171887904405,0.3620632337354123
1788861602647290000,6.6582900390625,-2.136170024912059,-1.9708049829274414,0.07181976619437337
1788861602657297400,6.66829736328125,-2.63488030180037,-1.895456019693613,0.18504940114170312
1788861602667303400,6.678303466796875,-2.7438725914388895,-1.72481362182796,0.6963935341536999
1788861602677310200,6.688310302734375,-2.4887492448568342,-1.5844804375082253,1.2502972904756664
1788861602687316500,6.69831640625,-2.323793660455942,-1.6751164017230271,1.5569509178087115
1788861602697323300,6.7083232421875,-2.236789038480818,-1.9553250897228716,1.6093123886868357
1788861602707329300,6.718329345703125,-2.2459008579581976,-2.183485610577464,1.536227863253653
1788861602717336300,6.72833642578125,-2.085289147980511,-2.4696289493232966,1.4477335872426629
1788861602727342300,6.73834228515625,-1.412476980422437,-2.558784904113412,1.4166077966168522
1788861602737349400,6.748349365234375,-0.0017529811471700667,-2.2669062365859745,1.264681205137074
1788861602747355100,6.758355224609375,1.2026274845451115,-1.6122580867499112,0.7436570973709226
1788861602757362400,6.768362548828125,1.7698054407209156,-1.0029565605938433,0.14460107089728116
1788861602767368200,6.7783681640625,1.9064502919167279,-0.6013485213249922,-0.025406536196172235
1788861602777374200,6.788374267578125,1.2813389099493622,-0.2995341507166624,0.4583510862320661
1788861602787381500,6.798381591796875,0.736319301828742,-0.30201895326972006,1.4024366479232906
1788861602797387300,6.80838720703125,0.08720306715667248,-0.5034837749004364,2.5221827279031275
1788861602807394300,6.818394287109375,-0.9579875380545854,-0.8908587061554193,3.468484212078154
1788861602817400300,6.828400390625,-1.7527952692091464,-1.3201485330760478,3.6976924884200093
1788861602827407400,6.838407470703125,-1.6322387985050677,-1.6323311529636382,2.804647085875273
1788861602837413400,6.848413330078125,-1.325146195232868,-1.8479507566750049,1.1435717767253517
1788861602847420000,6.858419921875,-0.7214081484228372,-2.003637577471137,-0.5292623592793941
1788861602857426000,6.868426025390625,0.26134324401021003,-2.0584207225382327,-1.8261589038446544
1788861602867433000,6.878432861328125,1.1816092464357615,-2.0507482882142067,-2.663765035501122
1788861602877439000,6.88843896484375,1.8771867880314588,-1.889687373164296,-2.9237349453315136
1788861602887446000,6.898446044921875,2.345112927338481,-1.4014467601031064,-2.489042382584512
1788861602897451800,6.90845166015625,2.4393097989052532,-0.6632441287457943,-1.553693669578433
1788861602907459000,6.918458984375,2.217106140628457,-0.26220775188505646,-0.6255833833932877
1788861602917465000,6.928465087890625,1.6859639589518307,-0.18691957892775535,0.11637129397392272
1788861602927470800,6.938470947265625,1.377504743501544,-0.36072891639173027,0.31959552649259565
1788861602937478100,6.94847802734375,1.1112164443045853,-0.5634522136509418,0.17700725672245024
1788861602947484000,6.95848388671875,0.9133943630903959,-0.692702278420329,-0.212998607558012
1788861602957491000,6.968490966796875,1.0305290426522493,-0.5980658463925123,-0.8954027793258428
1788861602967497000,6.9784970703125,1.6141507686287164,-0.46290246592611073,-1.526011297404766
1788861602977504000,6.98850390625,2.1123604025185108,-0.43619361495971676,-1.8048171328693627
1788861602987510000,6.998510009765625,2.335289452460408,-0.2906689994767308,-1.5920926660776138
1788861602997516800,7.008516845703125,2.5961095493793485,-0.1370119309425354,-1.5689596277713775
1788861603007523000,7.018523193359375,2.410410452157259,0.0998854385972023,-2.3914894785881042
1788861603017529900,7.02852978515625,3.0032740537315603,0.4314189479038119,-3.655184887558222
1788861603027536000,7.038535888671875,3.8119852225542066,0.9866226809084415,-4.302442342621088
1788861603037543200,7.048543212890625,4.493761033290625,1.8416089864328502,-4.008789651158452
1788861603047549000,7.058548828125,3.9220612157762047,2.583229609540105,-3.2022008813172578
1788861603057556000,7.068555908203125,3.2108214101463552,2.835892118966579,-3.182319538283348
1788861603067562000,7.07856201171875,3.348876712661981,2.873233423106372,-3.9361026006102557
1788861603077569000,7.088569091796875,3.4898131235718726,3.3057728994727134,-4.865528645569086
1788861603087575000,7.098574951171875,2.950429767772555,3.3671313312768936,-4.967888949847221
1788861603097582000,7.10858203125,2.5873271079868077,2.905394109737873,-4.517340646320581
1788861603107588000,7.118588134765625,2.8109692746341226,2.750257031778991,-4.084947008165717
1788861603117595000,7.128594970703125,3.1527041522204873,2.981122719939053,-3.3725714765042065
1788861603127601000,7.138600830078125,3.1929280260592696,3.0222283450484273,-2.682379135078192
1788861603137607200,7.148607177734375,3.300040493300557,2.930700108169019,-2.1427415122568605
1788861603147614000,7.158614013671875,3.603741700568795,2.594883806976676,-1.695391127988696
1788861603157620000,7.168619873046875,3.6885032197922465,1.77285606046319,-1.424644680339098
1788861603167627000,7.178626953125,3.4041520251601933,1.09356505227983,-1.7283827124863862
1788861603177633000,7.188633056640625,2.6094629519492387,0.9927835416257381,-2.3183263349607586
1788861603187640000,7.19864013671875,1.290983228868246,0.9519266305804253,-2.2582322240039705
1788861603197645800,7.208645751953125,0.6392074195981026,0.9431804295450449,-1.5241493029251694
1788861603207653000,7.218653076171875,0.8571709560871124,0.9336310954332351,-0.40402357597798105
1788861603217659000,7.228658935546875,1.0241209291756153,0.906745426595211,0.44474400116205215
1788861603227666000,7.238666015625,1.1241899076461792,0.6387041462510824,0.8304033606708049
1788861603237672200,7.248672119140625,1.1705161900132894,-0.12206395265758037,0.6382268841281533
1788861603247679000,7.258678955078125,0.6011252339631319,-1.1244254699677227,-0.019624737924337388
1788861603257685000,7.26868505859375,-0.48044659818410873,-2.3519594322323796,-0.5053399241611362
1788861603267692000,7.278692138671875,-1.1733896996229887,-3.6039217333108184,-0.43646161824613805
1788861603277698000,7.288697998046875,-1.2803688958734274,-4.29098629810512,0.06366612422466278
1788861603287704800,7.298704833984375,-1.239189913266897,-4.299336193299293,0.6013423838451505
1788861603297710800,7.3087109375,-1.5268921718925237,-4.006847284919023,1.1044646319568157
1788861603307718100,7.31871826171875,-2.272619938057661,-3.4095570990741253,1.5645307054132223
1788861603317724000,7.328723876953125,-3.144863960114121,-2.603181679722667,2.1235326616570354
1788861603327731000,7.33873095703125,-3.8394606739789245,-1.9898340930461882,2.8311165751278398
1788861603337737000,7.348737060546875,-4.26947443125993,-1.8644418727487324,3.545704229880869
1788861603347744000,7.358743896484375,-4.137280714254081,-2.3275340160280464,3.9248651672810313
1788861603357750000,7.36875,-3.7796447954416275,-3.0696576202213763,4.019900827759504
1788861603367757000,7.378757080078125,-3.688202191019058,-3.6128380302160976,4.000208869817853
1788861603377763000,7.38876318359375,-3.8688346525013446,-3.863158360430598,3.9437949086785316
1788861603387769900,7.398769775390625,-3.95961265553534,-3.6701445562809702,3.7558568003579973
1788861603397776000,7.40877587890625,-2.9543077782496807,-3.0317244876682756,3.499812247277796
1788861603407782100,7.4187822265625,-1.4432751465290783,-2.191216497090459,2.962351676234603
1788861603417789000,7.428788818359375,-0.7051485030174255,-1.3411065654307603,2.131885917852074
1788861603427795000,7.438794921875,-0.9072492844641208,-0.6508388206809759,1.3353916949152946
1788861603437802000,7.448802001953125,-1.3068848546162246,-0.432082672509551,0.9766910694807768
1788861603447808000,7.45880810546875,-1.599289299583435,-0.7050684235185384,0.8437591013282537
1788861603457815000,7.46881494140625,-1.8125708157360552,-1.1937421672999857,0.7903586427912116
1788861603467820800,7.47882080078125,-2.026435976995528,-1.649342493519187,1.0594511857539415
1788861603477828000,7.488828125,-2.3317878740802405,-1.934331986054778,1.4845476526379584
1788861603487833900,7.498833740234375,-2.5943098064810037,-2.2228835549861192,1.9532643578007816
1788861603497841000,7.5088408203125,-2.557051504449546,-2.4197324072539805,2.13233643809855
1788861603507847200,7.51884716796875,-2.2196242609292267,-2.493981300291419,1.9952926507130264
1788861603517854000,7.52885400390625,-1.4440695117771625,-2.543499072176218,1.6745061608701943
1788861603527860000,7.53885986328125,-0.40453503263145685,-2.618237210035324,1.2437491840064525
1788861603537867000,7.548866943359375,0.967746131002903,-2.6525761174887417,0.8676733531400561
1788861603547873000,7.558873046875,1.9336992411091922,-2.5265619659006595,0.6234188988357782
1788861603557879800,7.5688798828125,2.4999516068726777,-2.293015660354495,0.6598012948155403
1788861603567885800,7.5788857421875,2.762448697093129,-1.871252137285471,0.8092585735723375
1788861603577893000,7.58889306640625,1.935699182754755,-1.443913444432616,0.8556561676099896
1788861603587899000,7.59889892578125,0.5655161604434251,-1.0496300489634274,0.522509377887845
1788861603597906000,7.608906005859375,-0.5555056385606527,-0.5829208842307328,0.08716595001667737
1788861603607912000,7.618911865234375,-1.1311720216184853,-0.17697978419363497,-0.1006321653112769
1788861603617919000,7.6289189453125,-1.5560551380127667,-0.09095920481979847,0.0015308628290891647
1788861603627925000,7.638925048828125,-1.3055413310527801,-0.524320226702094,0.11827946568280458
1788861603637932000,7.64893212890625,-0.1855710869282484,-1.2727964147925377,0.06729775872528553
1788861603647938000,7.65893798828125,1.287147011706233,-1.760815494057536,-0.2862719335615635
1788861603657944800,7.66894482421875,1.9033324521571398,-1.8535890548229217,-0.8597311619639396
1788861603667951000,7.678951171875,1.646000197353959,-1.6467460472851991,-1.5239835909694432
1788861603677958000,7.6889580078125,1.2995523197710512,-1.4833201566696166,-1.6966957808464764
1788861603687964000,7.6989638671875,1.1305559355467558,-1.4834773930579424,-1.4181325219660996
1788861603697971200,7.70897119140625,1.081651327124238,-1.6813059040129184,-0.9765677353620529
1788861603707977000,7.71897705078125,0.9443097258359193,-1.832510026437044,-0.8156383377373218
1788861603717984000,7.72898388671875,1.2970733624368904,-1.4821516974121332,-1.0648147586137056
1788861603727990000,7.738989990234375,2.262408340644836,-0.839830821968615,-1.4050690422534942
1788861603737997000,7.7489970703125,2.9377608403354882,-0.41256724017858504,-1.4720798007309437
1788861603748003000,7.759003173828125,2.8791584292411803,-0.15589666415452957,-1.4348650455802678
1788861603758009900,7.769009765625,2.2633733862847087,0.0911821999207139,-1.6730974631160496
1788861603768016100,7.77901611328125,2.1613211250424382,0.4708125083982944,-2.219370578429103
1788861603778023000,7.78902294921875,2.4231004223823547,0.9764759654253721,-2.9066636912822723
1788861603788029000,7.79902880859375,2.138178734385967,1.1920233806833624,-3.3531530748069285
1788861603798036200,7.8090361328125,2.0521932263255116,1.0360822928652167,-3.5209009202748534
1788861603808042000,7.8190419921875,2.9934248598903417,0.9864078691139817,-3.5538410668462515
1788861603818049000,7.829049072265625,3.608499124228954,1.0765525426805018,-3.6434108631342648
1788861603828054800,7.8390546875,3.366954805666208,1.3665221617162226,-3.838120949807763
1788861603838062000,7.84906201171875,3.43679523461163,2.163791022287309,-4.118863306292892
1788861603848068000,7.859068115234375,3.6130361831367015,3.375285703898966,-4.172429476785659
1788861603858075000,7.869074951171875,3.42297538357377,3.913348040227592,-3.8621681803494687
1788861603868081200,7.8790810546875,3.1729765403985977,3.318267054864764,-3.391750224226713
1788861603878088000,7.889087890625,3.1763153294324873,2.97626972694993,-3.3648487732976675
1788861603888094000,7.899093994140625,3.1865134828418493,3.210471281534433,-3.4772511636406183
1788861603898101000,7.90910107421875,2.9311382073253394,3.4884327751293775,-3.4394881269574165
1788861603908107000,7.91910693359375,2.7284692706018685,3.5020147257581353,-2.984669891026616
1788861603918113000,7.929113037109375,2.8182091627597807,3.113746645055711,-2.187071944631636
1788861603928119800,7.939119873046875,2.963001664575934,2.5835288847476243,-1.908527682712674
1788861603938126000,7.9491259765625,2.837967756196856,2.125569428181648,-2.16691324596107
1788861603948132900,7.9591328125,2.6930922522723675,1.6096289072901009,-2.4942279685288664
1788861603958139000,7.969138916015625,2.7207705327928067,0.9999661466062069,-2.717161402384937
1788861603968146200,7.979146240234375,2.623707165879011,0.36377953613400454,-2.642243524044752
1788861603978152000,7.98915185546875,2.4754063636809587,-0.3406424061745405,-2.195865491940081
1788861603988159000,7.999158935546875,2.060786282625794,-1.0579735144168139,-1.5398820018470287
1788861603998165000,8.0091650390625,1.7844991519838571,-1.640112308359146,-1.01499245082438
1788861604008172000,8.019172119140626,1.6574913131833076,-1.8553174860507249,-0.8454150518417358
1788861604018178000,8.029177978515625,1.0716834753394127,-1.990887986013293,-0.40197336544990536
1788861604028184800,8.039184814453124,0.26657120779156684,-2.0438795714884996,0.5904372512102126
1788861604038191000,8.049191162109375,-0.1345282974332571,-2.156826736232638,1.7772484502032397
1788861604048198000,8.059197998046875,-0.17819325163662433,-2.624015208914876,2.829837056711316
1788861604058204000,8.069203857421876,-0.26901158668100833,-3.4311119282782077,3.5896792729467153
1788861604068211200,8.079211181640625,-0.7058136889278889,-4.188920592859387,3.6613361036643384
1788861604078217000,8.089217041015624,-1.378733408513665,-4.537547568047047,3.07275587849766
1788861604088224000,8.09922412109375,-2.3610370571792125,-4.368255415746569,2.1149322988331316
1788861604098229800,8.109229736328125,-3.49380833068788,-3.8241508766442536,1.3097688856199383
1788861604108237000,8.119237060546874,-4.259382953095436,-3.12765154402852,1.154220304250717
1788861604118243000,8.1292431640625,-4.142770543842017,-2.6590982127338645,1.6277672060489654
1788861604128249900,8.139249755859375,-3.2919004414647817,-2.69972599119842,2.6432246440365907
1788861604138256100,8.149256103515626,-2.754218628886342,-2.8051240557372568,3.667322776858508
1788861604148263000,8.159262939453125,-2.7483506136357785,-2.6848019783109427,4.239469753618538
1788861604158269000,8.16926904296875,-2.7072698307067156,-2.3444459878623483,4.306581342121959
1788861604168276000,8.17927587890625,-2.52712018430531,-1.930918962740898,3.798649355641007
1788861604178282000,8.189281982421875,-2.3287702798247336,-1.6477794819861649,2.905953789447248
1788861604188289000,8.1992890625,-2.1778359142526984,-1.4896534513443707,1.7103249316178262
1788861604198294800,8.209294677734375,-2.049163649371266,-1.4450281276762484,0.7540238853454589
1788861604208302000,8.219302001953125,-1.74862938170135,-1.7252940988212824,0.8161343045607209
1788861604218308000,8.22930810546875,-1.4997487289011477,-1.9071657467097043,1.516009251089394
1788861604228315000,8.23931494140625,-1.6397896522760391,-1.5951520536482333,1.8897858651027082
1788861604238322000,8.249322021484375,-1.5147890616446733,-1.1712941886484622,2.0107824807897208
1788861604248328000,8.259327880859376,-1.1535405052930117,-0.8980237754791974,2.006705148348212
1788861604258334000,8.269333984375,-1.0591817211627959,-0.8697013518363237,2.0254744384869934
1788861604268341000,8.279341064453124,-1.1594617120355366,-1.225135668951273,2.162388754273951
1788861604278348000,8.28934814453125,-1.3213053018957375,-1.7490964146912098,2.1500208556100726
1788861604288353800,8.299353759765625,-1.3382523450434207,-2.648925778287649,1.8703315153092144
1788861604298359800,8.30935986328125,-1.2862754895687103,-2.738037893936038,1.7265768321081996
1788861604308367000,8.3193671875,-0.5216957234174013,-2.8048727113246916,1.2497855415612458
1788861604318374000,8.329373779296875,0.22759207331687212,-2.4789573341608047,0.5943272443860769
1788861604328380000,8.3393798828125,1.044959134542942,-1.9714432808309792,0.2859574607849121
1788861604338387000,8.349386962890625,1.3570453083187342,-1.4346628010064362,0.4400768861338496
1788861604348393000,8.35939306640625,0.951958779284358,-1.080196452140808,0.6758385296419263
1788861604358400000,8.36939990234375,0.4101490731209516,-1.181908521643281,0.7942410371825098
1788861604368406000,8.379406005859375,0.01954875007867813,-1.7139818466901777,0.6983423301339149
1788861604378413000,8.3894130859375,-0.5890151094526053,-2.1965631188154218,0.48449938070625065
1788861604389045000,8.400044921875,-0.3487643378317356,-2.580492878052592,0.36365240262299775
1788861604399051000,8.410051025390626,0.3523141392678022,-2.6550030523747203,0.1794920592755079
1788861604409058000,8.42005810546875,1.0059341150999068,-2.4273177478164434,-0.30369770013689995
1788861604419064000,8.43006396484375,1.2933715853095054,-1.8650345779448747,-0.7626511361762881
1788861604429070800,8.44007080078125,1.196050444242358,-1.1921160274028777,-0.7488391761839389
1788861604439076900,8.450076904296875,1.3368968387812374,-1.376795718449354,-0.8049506472453475
1788861604449084200,8.460084228515624,0.7899369102478027,-0.5589958187639713,0.15600333939939737
1788861604459090000,8.47008984375,1.2988842112511396,-0.6910732159137726,0.22306348997652528
1788861604469097000,8.480096923828125,1.875382953479886,-0.7483563611030578,-0.2045148568511009
1788861604479103000,8.49010302734375,1.981324623376131,-0.6928612683743238,-1.0802870530337094
1788861604489110000,8.500110107421875,2.1197914293020963,-0.8911001136958598,-1.0961007082372902
1788861604499116000,8.510115966796874,1.8889345089703797,-0.23787819727063178,-2.4145775087088346
1788861604509123000,8.520123046875,1.8237907134085893,-0.39160190130025146,-2.178211469566822
1788861604519129000,8.530129150390625,1.7516443456083535,-0.8740732833102345,-1.8432348340690135
1788861604529135900,8.540135986328124,2.316119472566247,-1.3044418453782796,-2.012170428016782
1788861604539142000,8.550141845703125,2.4093816936314103,-1.4674401582315564,-2.0123428619742394
1788861604549149000,8.56014892578125,3.6950884434014557,0.12740765177309513,-3.2433962305366992
1788861604559156000,8.570156005859374,3.2878438595503567,1.5294266588062047,-3.750235745605826
1788861604569162000,8.580161865234375,2.4808196209013462,2.572201727308333,-3.9690789875388144
1788861604579169000,8.5901689453125,1.8009294777810572,2.9874069147750735,-3.752710611286759
1788861604589175000,8.600175048828126,1.8386381539285181,2.9084070278182623,-3.7512218340337276
1788861604599181800,8.610181884765625,2.274018114417791,1.7774819666981696,-2.8070798659801484
1788861604609188000,8.62018798828125,3.3393244559407234,1.2629472209513186,-2.590093650090694
1788861604619195000,8.63019482421875,3.798649940162897,1.780635170032084,-3.169488113760948
1788861604629201000,8.640200927734375,3.5334658028155563,2.7066879391655325,-3.673562255769968
1788861604639208200,8.650208251953124,3.506030098879337,2.7616102004423735,-3.67693436255157
1788861604649214000,8.6602138671875,3.305137524178624,2.3807640864342448,-3.17867855143249
1788861604659221000,8.670220947265625,3.5345465837895866,2.2651497483074663,-3.1689556143194437
1788861604669227000,8.68022705078125,3.4754578504830596,2.3791464221045375,-3.1719436902195213
1788861604679234000,8.690234130859375,3.822949099639058,2.6540409293442964,-2.9994810911893843
1788861604689240000,8.700239990234374,3.741784143602848,2.8116555033326147,-2.9920465572744606
1788861604699246800,8.710246826171876,2.951529837968945,2.8499782197251915,-2.596297180905938
1788861604709253000,8.720253173828125,2.286846031808853,2.7407261101067064,-2.2532553123742343
1788861604719260000,8.730260009765624,2.0848978105753657,2.219899570739269,-1.6761638649493455
1788861604729266000,8.740265869140625,2.4900673417180776,1.4857412463366984,-1.302665483355522
1788861604739273000,8.75027294921875,2.3480846366256474,1.7203998970389365,-1.257905427391827
1788861604749279000,8.760279052734376,2.2917338038504123,0.08884791175425052,-1.6549536113992331
1788861604759286000,8.7702861328125,2.0505320151150226,-0.5902496196836233,-1.7889307046905158
1788861604769291800,8.780291748046874,2.250453114435077,-1.244098728096485,-1.6972624748185277
1788861604779299000,8.790299072265626,2.2663182075649497,-1.8033511519700287,-1.5617358139976858
1788861604789305000,8.80030517578125,2.1080489690601825,-1.563383873465657,-1.4413316112458705
1788861604799312000,8.810311767578124,0.869467543080449,-2.5703485006570816,-0.8895657437354326
1788861604809318100,8.820318115234375,0.6848018805593252,-2.930346180164814,-0.42661213214397425
1788861604819325000,8.830324951171875,0.4726227726906538,-3.223506119674444,-0.06319675314724445
1788861604829331000,8.8403310546875,-0.13656827882826328,-3.459842932721972,0.10484247648268938
1788861604839338000,8.850337890625,-0.31149229953587054,-3.2595968392312527,0.253086872318387
1788861604849344300,8.86034423828125,-1.6996663210898637,-3.375682886523008,0.6326993528783321
1788861604859351300,8.870351318359376,-2.8864257898956533,-3.2541187000811096,1.5533601998403668
1788861604869357300,8.880357421875,-3.842755916132033,-3.5816578790545464,2.7085917269602415
1788861604879364400,8.8903642578125,-4.013731199213862,-4.1955683603107925,3.7183027302503584
1788861604889370400,8.900370361328125,-4.139001254436374,-4.071515864184499,3.871976165397465
1788861604899377400,8.91037744140625,-3.3130309077769518,-4.3060418284177775,3.9309921257287264
1788861604909383400,8.920383544921876,-3.2598335705965757,-3.455578261014819,3.3870939228534698
1788861604919390500,8.930390380859375,-3.3414784191042184,-3.3939462729662653,3.456641214071214
1788861604929396500,8.940396484375,-3.772073483404517,-1.6704425646930932,2.200156759393215
1788861604939403300,8.9504033203125,-3.8108299150392413,-1.6410703397363424,2.2377520382940768
1788861604949409300,8.9604091796875,-2.7662042502343653,-1.4701409416228532,2.229189084871113
1788861604959416300,8.970416259765624,-1.9505103829175232,-1.4045482332497834,2.005754131233692
1788861604969422300,8.98042236328125,-1.6552254140779374,-1.2468594249814748,2.101658098979294
1788861604979429000,8.99042919921875,-2.0968013065978885,-1.1083838512271642,2.4516318126007914
1788861604989436400,9.0004365234375,-2.064279969960451,-1.1286235061794518,2.4331705654978752
1788861604999442400,9.0104423828125,-2.409645897525549,-1.313346451845765,1.7504791012212633
1788861605009449500,9.020449462890625,-2.1422791554421186,-1.4085966318577527,1.433074362771213
1788861605019455500,9.03045556640625,-1.939571055752039,-1.5402987659543752,1.3819707829996943
1788861605029462300,9.040462158203125,-1.692198177166283,-1.5949743589937686,1.2199337163940072
1788861605039468300,9.05046826171875,-1.6282120272070169,-1.65629304330945,1.1323925033241509
1788861605049475300,9.060475341796876,-1.2427315313965082,-1.4927093317836522,0.5136649771749973
1788861605059481300,9.0704814453125,-1.069230529229343,-1.5903414384961128,0.7430576701730489
1788861605069488400,9.08048828125,-1.1167734939098357,-1.8216040170192718,1.154254206520319
1788861605079494400,9.090494384765625,-1.2574041998714207,-2.166161550810933,1.2530252541348337
1788861605089501400,9.10050146484375,-1.2174418995782732,-2.245215213781595,1.1160884342551232
1788861605099507500,9.110507568359376,-0.4075882827222347,-2.432859599852562,0.29499475372135636
1788861605109514500,9.120514404296875,0.19898352620899676,-2.3384797729343174,-0.018766367529332636
1788861605119520500,9.1305205078125,0.680404522383213,-2.061930776485801,-0.2679474645808339
1788861605129527300,9.14052734375,0.680678663149476,-1.534282282143831,-0.3605333938196301
1788861605139533300,9.150533203125,0.7340221308022737,-1.6439830123126506,-0.501815257166326
1788861605149540400,9.160540283203124,-0.23173136507868766,-0.5452770900130272,0.6090636257469654
1788861605159546400,9.17054638671875,-1.0413789379686116,-0.34085751022994515,1.406671216753125
1788861605169553200,9.18055322265625,-0.9708721540689468,-0.4714098897695541,1.2742512897759675
1788861605179559400,9.190559326171876,-2.136808030554652,-1.4109405646353959,1.6661898756846785
1788861605189566500,9.20056640625,-2.031903302490711,-1.5674065531104802,1.5500652499482035
1788861605199572200,9.210572265625,0.8158557798802852,-2.781858330962062,0.6415969450831412
1788861605209579500,9.22057958984375,1.4426391867130994,-2.714818930912018,-0.04400514594316482
1788861605219585500,9.23058544921875,1.2651198888152837,-2.369436052212119,-0.4949848266243934
1788861605229592300,9.24059228515625,1.4462345808565615,-1.912643885859847,-0.6776911717712879
1788861605239598300,9.250598388671875,1.5979250254929065,-2.096152779561281,-0.7257312723189592
1788861605249605400,9.26060546875,1.5636013156086206,-1.135287055721879,-0.2888531822264194
1788861605259611400,9.270611328125,1.6602783135533332,-0.6904746654987335,-0.46614334754347797
1788861605269618200,9.2806181640625,1.4213251805275677,-0.02370703880190849,-0.8457236793994903
1788861605279625500,9.29062548828125,0.8664490720421075,0.5533300480872392,-1.0558090298593044
1788861605289631500,9.300631591796876,1.0190917028367519,0.3651888184100389,-1.0515776758998632
1788861605299638300,9.31063818359375,0.7929249861478805,0.054641106247901916,-1.201895663139224
1788861605309644500,9.32064453125,1.6382447609215973,-0.5096119023919106,-1.461719150236249
1788861605319651300,9.3306513671875,2.4294021528750656,-0.68245239482373,-2.0492244396477934
1788861605329657300,9.3406572265625,2.438957916727662,-0.5687088190048932,-2.631743757340312
1788861605339664400,9.350664306640626,2.552445764219761,-0.7378922502338886,-2.612470317071676
1788861605349670400,9.36067041015625,1.7249761189132928,-0.06530424682050943,-2.4193963071674105
1788861605359677400,9.370677490234375,1.879006404674053,0.13860387630909682,-2.3973732759296893
1788861605369683200,9.38068310546875,2.412380875447392,0.3503054297938943,-3.0246973655104634
1788861605379690500,9.3906904296875,2.7767595465183255,0.8635545196443796,-3.702687812489271
1788861605389696300,9.4006962890625,2.8185844258129595,0.77388418559134,-3.7026264376908538
1788861605399703300,9.410703369140625,3.6067788763076063,2.2456302243232726,-4.072141887128353
1788861605409709600,9.42070947265625,3.8768168834269043,2.6485543146267534,-4.0864141581088305
1788861605419716400,9.43071630859375,3.8769770424246786,2.6480820209398863,-4.086487223345041
1788861605429722400,9.440722412109375,3.5722079136639833,3.2727246163517236,-3.970614526543021
1788861605439729400,9.4507294921875,3.5333652650505303,3.3288223511487245,-3.9899014108151194
1788861605449735400,9.4607353515625,3.383865023934841,3.98104181253314,-4.7371331518024204
1788861605459742200,9.4707421875,3.055829001355171,3.586957154506445,-4.249856415337324
1788861605469748200,9.480748291015624,2.7669495156437156,2.896940169647336,-3.5682016006320714
1788861605479755500,9.490755615234375,2.5035201130092144,2.3815967378661034,-2.8586463870882985
1788861605489761300,9.50076123046875,2.4161013572752474,2.5468852074831725,-2.8521020800113677
1788861605499768300,9.510768310546876,3.2404251057714224,2.097443403893709,-1.6998229729562997
1788861605509774300,9.5207744140625,3.3159722219258545,2.0151561658293007,-1.479037364783883
1788861605519781400,9.530781494140625,3.200413413378596,1.9396786077797412,-1.5353180549323557
1788861605529787400,9.540787353515626,2.869465887266397,1.8511168194904923,-1.5160235718756914
1788861605539794400,9.55079443359375,2.7636095575660464,2.070188317221403,-1.440482300940156
1788861605549801500,9.560801513671874,2.249436046347022,1.144364096146822,-0.9871908361852169
1788861605559807200,9.57080712890625,1.7102017436295747,0.5669149213254452,-0.8858370786011218
1788861605569814500,9.580814453125,1.5136223559528588,-0.142253338727355,-1.0187187778711317
1788861605579820300,9.5908203125,1.526183146840334,-0.7731336594849825,-1.2066405195787548
1788861605589827300,9.600827392578125,1.3817887044310568,-0.5363292289257049,-1.0813199032127856
1788861605599833300,9.610833251953125,0.8599351601034403,-1.99988319337368,-0.8768471319377422
1788861605609840400,9.62084033203125,0.45137423295676704,-2.781219448536634,-0.3393114498317241
1788861605619846400,9.630846435546875,0.1498036079764366,-3.650643152475357,0.171815533298254
1788861605629853200,9.640853271484374,-0.23651509222388267,-4.543831762883067,0.5237126161977649
1788861605639859500,9.650859375,-0.39717677882313723,-4.3428462492018935,0.6811234843075274
1788861605649866200,9.6608662109375,-1.218572657173872,-5.303522587949037,0.41774172020703554
1788861605659872300,9.670872314453124,-1.7513690357983112,-4.9152737964689726,0.5635051128819585
1788861605669879600,9.680879638671875,-1.9088404019236564,-4.7529286868274205,0.712829412908852
1788861605679885300,9.69088525390625,-3.100974549505114,-2.653901228612661,1.4120648924902082
1788861605689892400,9.700892333984376,-3.254155817221105,-2.5202742639333007,1.53725895986706
1788861605699898400,9.7108984375,-3.3909698875039815,-0.9837731366962194,2.7974855236828327
1788861605709905400,9.720905517578124,-3.025567718604207,-1.180580487909913,3.877081087321043
1788861605719911400,9.730911376953125,-2.9267057778358456,-1.9071131397396326,4.9399745224833485
1788861605729918500,9.74091845703125,-2.9973028703674673,-2.6742607105523346,5.21543397012949
1788861605739924500,9.750924560546874,-3.0440003241345286,-2.6320564765512944,5.281998153883219
1788861605749931300,9.76093115234375,-2.7784286487743257,-2.731855405908823,3.2534351017311214
1788861605759937300,9.770937255859375,-2.455780456712842,-2.1622253804057836,1.707858979895711
1788861605769944300,9.7809443359375,-1.9933552529096603,-1.7209440869182346,0.29885230593234297
1788861605779951400,9.790951416015625,-1.5055933632761238,-1.5286124198138713,-0.6473387036055326
1788861605789957400,9.800957275390624,-1.5039274758905172,-1.5396113682121038,-0.6815244663238526
1788861605799964400,9.81096435546875,-1.2458695371612907,-1.548128436666727,0.3214192347884178
1788861605809970400,9.820970458984375,-1.5133400318801402,-1.4917653289318085,1.12197836907655
1788861605819977200,9.830977294921874,-1.6427186914652585,-1.2886159152150154,1.560129840105772
1788861605829983500,9.8409833984375,-1.6401409499317408,-1.2393652698338031,1.9760975363776088
1788861605839990000,9.850989990234375,-1.5939020535871387,-1.2897440424621105,1.8934338662162422
1788861605849995800,9.860995849609376,-2.2833725104793903,-1.6803116322785614,2.6088234850019214
1788861605860003000,9.871003173828125,-2.4110414435371754,-2.259046170735359,2.618765033301711
1788861605870008800,9.8810087890625,-2.2785946285530922,-2.754960387164354,2.3416540190562602
1788861605880016000,9.891015869140626,-2.188743384975195,-3.037933863702416,1.8775804635241626
1788861605890022100,9.901022216796875,-2.142662601801753,-3.121607587689161,1.7362638211250303
1788861605900029000,9.91102880859375,-0.845328834863007,-2.1973060461372134,-0.2528592010423541
1788861605910035000,9.921034912109375,0.10475275237262248,-1.3499725934535265,-0.9824000947773456
1788861605920042000,9.9310419921875,0.14657909297198057,-1.4496797528743743,-1.1365002309039234
1788861605930048000,9.941048095703126,2.1840289236739276,-0.06528817246854304,-0.2864297544717789
1788861605940054800,9.9510546875,2.099021612995863,-0.0016518588602542877,0.408561219407618
1788861605950060800,9.961060791015624,1.7066171631410716,-0.2641232301175594,1.0363751383319497
1788861605960068000,9.971068115234376,0.8779203141272067,-0.4184983837932348,1.533226927872002
1788861605970073900,9.981073974609375,-0.7234253334641456,-0.4261246408879757,1.7209353190898895
1788861605980081000,9.991080810546874,-2.5450106457829476,-0.461133994948864,1.4098723508819937
1788861605990087000,10.0010869140625,-3.3717490542054174,-0.7445183903753757,0.6506105648830532
1788861606000094000,10.011093994140625,-2.467341130647063,-1.1556295865267514,-0.09389934992492198
1788861606010100700,10.021100830078124,-0.5553010558992624,-1.433338858926296,-0.35892800444960593
1788861606020107000,10.03110693359375,0.589216769504547,-1.5366706385850906,-0.25836978115737436
1788861606030114000,10.041114013671875,0.723456313124299,-1.5359475850075481,0.03526712821424007
1788861606040119800,10.051119873046876,0.7261275781601667,-1.6272376292169093,0.30405718109905716
1788861606050127000,10.061127197265625,1.0516980874091386,-1.8232126212596893,0.46750937519967556
1788861606060132900,10.0711328125,1.3479010478764772,-2.0490479140371085,0.4146194965332746
1788861606070140000,10.081139892578125,1.1093693551331758,-2.0812334428489208,0.08604220668375491
1788861606080146000,10.09114599609375,0.6772849290579557,-1.8512977290153503,-0.3482704168349504
1788861606090153000,10.101153076171874,0.9177017048954963,-1.419012227410078,-0.7782330284506082
1788861606100159000,10.111158935546875,1.362332893332839,-0.9198755418032407,-1.0060393290400504
1788861606110165800,10.121165771484375,1.789820054745674,-0.5673290550842881,-1.1355208644777535
1788861606120172000,10.131172119140626,1.9155267478197813,-0.2801610494658351,-1.1896160272806882
1788861606130178800,10.1411787109375,1.6927321379125118,0.0752656688645482,-1.0916472359597682
1788861606140184800,10.151184814453124,1.2653595427900552,0.40179128688126803,-0.97636782887578
1788861606150192000,10.161192138671876,0.8353186052411794,0.6565113133594394,-1.1396405747562646
1788861606160198000,10.171197998046875,1.4969763415783643,0.8713762993112206,-1.7310042931616305
1788861606170205000,10.181204833984374,1.579967928519845,0.7247638885915278,-1.7248913632392882
1788861606180211000,10.1912109375,3.9184301657974716,1.809798136152327,-4.136151125702262
1788861606190218000,10.201218017578125,3.895372530815005,2.1402064408212897,-5.059677006706595
1788861606200224800,10.211224853515626,2.924672810703516,2.1606696753963828,-4.925925538864732
1788861606210231000,10.22123095703125,2.4750644183754917,2.074890211302042,-4.360450294953584
1788861606220238000,10.231238037109375,2.6963538844168187,2.1513936052680016,-3.9011218881219625
1788861606230243800,10.241243896484375,2.9380174454450607,2.38924023835659,-3.9244004723787307
1788861606240251100,10.251251220703125,3.6684547034978863,2.535447283145785,-4.341643887674809
1788861606250257000,10.2612568359375,3.845757728296518,2.7724551273226736,-4.639920731806755
1788861606260264000,10.271263916015625,3.3480934533298012,3.214410374549031,-4.736719310304522
1788861606270270000,10.28127001953125,3.205708012655377,3.2288840133205055,-4.359932993081212
1788861606280277000,10.291277099609376,3.2368338032811876,2.922527907629311,-3.6778959010601042
1788861606290283000,10.301282958984375,2.6494600312948227,2.8134204671785232,-3.0665836196035143
1788861606300289800,10.311289794921874,2.1533687047332526,2.7582588441878557,-2.499249596083164
1788861606310296000,10.321296142578126,2.6489497436851264,2.4077260353788734,-1.8164783445686101
1788861606320302800,10.331302734375,2.832239441677928,1.8844146934583783,-1.5554992576956748
1788861606330308900,10.341308837890624,2.1887252647966147,1.2739327253460884,-1.6957126150280237
1788861606340316200,10.351316162109375,1.9707500378698108,0.7807505642294883,-1.8202473417133092
1788861606350322000,10.361322021484375,2.07151810452044,0.47820086508393284,-1.7097078226327895
1788861606360329000,10.371328857421876,2.278409042853117,0.4000719157427549,-1.463074656498432
1788861606370335000,10.3813349609375,2.1764257551938293,0.5897720652997493,-1.3645488158166408
1788861606380342000,10.391342041015625,1.7958184183776378,0.6509720916718245,-1.2693629332125187
1788861606390348000,10.40134814453125,1.6661562656760214,0.4799287117898464,-1.1468766634896397
1788861606400354800,10.411354736328125,1.2307540933549403,0.07401040810644627,-0.9250424230471253
1788861606410362000,10.421362060546874,0.948954336771369,-0.5948673426121472,-0.6483762299597263
1788861606420368000,10.431367919921875,0.7903086661696433,-0.3626888182878494,-0.5086874810233711
1788861606430375000,10.441375,0.7108452533543109,-2.5188538757413625,-0.30121085175722834
1788861606440381000,10.451380859375,0.3738718910813331,-3.3426568152338265,0.06638999623060227
1788861606450388000,10.461387939453125,-0.3333084100246429,-3.740304718700051,0.6115259242072701
1788861606460394000,10.47139404296875,-1.1966887421458958,-3.9131273832142353,1.355683956837654
1788861606470401000,10.481401123046876,-1.7729799791038034,-3.9054076026171445,2.194089714439213
1788861606480407000,10.491406982421875,-2.164083283232152,-3.8176235207021234,2.7512816986516118
1788861606490413800,10.501413818359374,-2.8073323794364926,-3.6433278610259294,2.6944775691509246
1788861606500419800,10.511419921875,-3.5030344241946936,-3.3475165302246808,2.1377359590545297
1788861606510427000,10.521427001953125,-3.9203178792402147,-3.0861797159552573,1.5168594381779432
1788861606520433000,10.531432861328126,-3.7088214929386973,-3.0220412980437277,1.3515633697763085
1788861606530440000,10.54143994140625,-3.3075627054989334,-3.017124884429574,1.5855132876873015
1788861606540446000,10.551446044921875,-3.0715842043697834,-2.9259137506753206,1.7979294191822408
1788861606550453000,10.561452880859376,-3.018264702114463,-2.675077287632227,1.914117173282802
1788861606560459000,10.571458984375,-3.5103900476545093,-2.486086163127422,2.4466037553057074
1788861606570466000,10.581466064453124,-3.9937706534639,-2.5505256098121403,3.397533776064217
1788861606580472000,10.59147216796875,-3.406828843154013,-2.6620301745325325,3.687693364714086
1788861606590478800,10.601478759765625,-2.2121157849952575,-2.3998732760518786,3.0238290582433343
1788861606600486100,10.611486083984374,-1.8493626692995428,-1.5760434485524892,2.1003551996871828
1788861606610492000,10.621491943359375,-1.9774606414243578,-0.779869105219841,1.2187135269492864
1788861606620499000,10.6314990234375,-1.844373190449178,-0.6372042630821466,0.8357496901348233
1788861606630505000,10.6415048828125,-1.9642185902744531,-0.9844757320076226,0.9464768407419324
1788861606640512000,10.651511962890625,-2.279562596802413,-1.5863099910229443,1.1803209601908922
1788861606650518000,10.66151806640625,-2.2926906661838293,-2.187864848574996,1.3398159410983324
1788861606660524800,10.67152490234375,-2.131736134117842,-2.4378935023665425,1.354906542724371
1788861606670531000,10.681531005859375,-2.067521728360653,-2.509643564325571,1.2446689291998743
1788861606680537900,10.691537841796874,-1.3226000178813933,-1.8661036684811114,1.0641726613178848
1788861606690543900,10.7015439453125,-0.8033557792693377,-1.4746686481803655,0.7510162279620766
1788861606700551000,10.711551025390625,-0.5535130034387111,-1.2687678899288177,0.5815981111943721
1788861606710557000,10.721556884765626,-0.22783786477148532,-1.176003681513667,0.6237576292708515
1788861606720564000,10.73156396484375,0.22806085987240074,-1.1242127039998768,0.7802806086301803
1788861606730569700,10.74156982421875,0.42810996948629615,-1.1329483836412428,0.791661542083323
1788861606740577000,10.751576904296876,0.5205591206029058,-1.2290870369255542,0.7796525398597121
1788861606750583000,10.7615830078125,0.5974813245028257,-1.3290811965942382,1.0685732343643903
1788861606760589800,10.77158984375,0.10890110422372817,-1.377635091882944,1.5221186738803982
1788861606770596900,10.781596923828126,-0.7765837999388575,-1.4136246891528368,1.8211980665668843
1788861606780603000,10.791602783203125,-1.590555373507738,-1.5263970818519592,1.7717402081757783
1788861606790610000,10.80160986328125,-1.5366075102210044,-1.7490093209296464,1.4119421428933738
1788861606800616000,10.811615966796875,-0.6820896989911794,-1.9167174189090728,0.9323740811094641
1788861606810623000,10.821623046875,0.32608664207756516,-1.7942483925819397,0.5992892507076263
1788861606820629000,10.83162890625,0.9735159465759992,-1.3766408201485871,0.4413683872491121
1788861606830636000,10.841635986328125,0.8093073811501265,-0.9710743986427783,0.33502281272709367
1788861606840642800,10.851642822265624,0.3111298959642648,-0.701954675412178,0.1362754333615303
1788861606850649900,10.86164990234375,0.23739129053652286,-0.7450017899781465,-0.1583697762697935
1788861606860655900,10.87165576171875,0.5503355424463748,-0.8243032902300357,-0.4416419434934854
1788861606870662700,10.88166259765625,0.8441255965530872,-0.9088596422702073,-0.4739572361648082
1788861606880668700,10.891668701171875,0.9356085329860448,-0.8548305304408073,-0.41682840475440025
1788861606890675700,10.90167578125,0.9275368702113628,-0.7359054603308439,-0.5454156217008829
1788861606900681700,10.911681640625,1.179948035225272,-0.5750824456900357,-0.8155190952718258
1788861606910688500,10.9216884765625,1.4989794980943203,-0.43121524202525613,-1.1621452520310878
1788861606920694800,10.93169482421875,1.551601081213355,-0.5793915410608053,-1.6030167956739663
1788861606930701800,10.941701904296876,1.3858277506887913,-0.8335735151395202,-1.8732786746770143
1788861606940708600,10.95170849609375,1.665554792651534,-1.0030573906198144,-2.088553410473466
1788861606950715000,10.96171484375,2.1509277413219214,-0.951734907400608,-2.224845794969797
1788861606960721700,10.9717216796875,2.465319853952527,-0.6429322853401302,-2.5000597434222698
1788861606970727700,10.981727783203125,2.8956016145199537,0.10156097059398889,-3.173124424436688
1788861606980734700,10.991734619140624,2.911490673047304,1.2812129454821348,-3.72592781830132
1788861606990740700,11.00174072265625,2.625114694589376,2.538815590535104,-3.8078415468782185
1788861607000747800,11.011747802734375,2.591858906197548,3.389226550967991,-3.4454297919660806
1788861607010753500,11.02175341796875,1.8986551079958676,3.17943346145302,-2.8146324733167885
1788861607020760800,11.0317607421875,2.7763462895423174,2.4989202179983256,-2.525993810623884
1788861607030766800,11.041766845703124,4.343142601799965,2.158041664980352,-3.2560826936304568
1788861607040773600,11.051773681640626,4.176359801971912,2.5683640488415955,-4.5723494168370955
1788861607050780000,11.06177978515625,3.1958453748106956,2.9434917852029203,-5.022434194505214
1788861607060786700,11.07178662109375,2.610415138107538,2.566391579724848,-4.385845432972908
1788861607070792700,11.081792724609375,2.3779817622393367,2.132856078058481,-3.816033621162176
1788861607080799700,11.0917998046875,2.7061148154526946,2.0474480776250363,-3.546844339826703
1788861607090805800,11.1018056640625,3.225557791507244,2.27828190934211,-3.4318624543845653
1788861607100812800,11.111812744140625,3.2478906193464994,2.50577549072057,-3.2109804001003504
1788861607110818600,11.121818603515624,2.8672072946846483,2.4653733377054334,-2.7164263661086556
1788861607120825900,11.131825927734376,2.582083946636319,2.2057544332697985,-2.0779232953876257
1788861607130832600,11.14183251953125,2.4842817440539595,2.0010829245522617,-1.6001421170204877
1788861607140838700,11.151838623046874,2.6165438501209017,1.8714771782130002,-1.3440735985428094
1788861607150845700,11.161845703125,2.800858214986324,1.562056131993234,-1.3115332649439573
1788861607160851700,11.171851806640625,2.6679408598810435,1.1223673683941364,-1.6124036327004432
1788861607170858500,11.1818583984375,2.170945277956128,0.6617670419305562,-1.970231566953659
1788861607180864800,11.19186474609375,2.004219761273265,0.2504676297307014,-2.1208593507945537
1788861607190871800,11.201871826171875,1.5591285541087387,-0.14906535682976246,-1.8391688998043536
1788861607200877600,11.211877685546876,1.1930793194770812,-0.5964765313744544,-1.40316554671973
1788861607210884900,11.221884765625,1.2774620685160158,-1.1129542278826237,-0.9434005020365118
1788861607220891000,11.231890869140624,1.374414376270771,-1.7239958757042884,-0.45696109317839145
1788861607230897700,11.241897705078125,1.4625982711583374,-2.1575345922410487,-0.15366320601403713
1788861607240904000,11.251904052734375,1.2291747152090071,-2.284548276260495,0.09400631743073463
1788861607250910700,11.26191064453125,0.7046732867211103,-2.383942131948471,0.4860992171183228
1788861607260916700,11.271916748046875,0.16468904241919516,-2.512078682518005,0.9693713941171764
1788861607270923800,11.281923828125,-0.5299748914629221,-2.758147785028815,1.358533501049876
1788861607280929800,11.2919296875,-1.3903478584617375,-3.1960669086068867,1.4810893288776277
1788861607290936800,11.301936767578125,-2.3724837493449447,-3.622098610514402,1.418107387524843
1788861607300944000,11.31194384765625,-3.847822844132781,-3.882790697139501,1.4010562994807958
1788861607310950000,11.321949951171876,-5.28149137340486,-4.162769668036699,2.0556050805956123
1788861607320956700,11.331956787109375,-5.487661011725664,-4.4042216321408745,3.0492841097563503
1788861607330962700,11.341962646484374,-4.658280856622755,-4.369831871283054,3.8233766774013636
1788861607340969700,11.3519697265625,-3.5338591860473154,-4.188707826891541,4.571315105353295
1788861607350975700,11.361975830078125,-2.6750428008407354,-3.7520664681643243,4.6781467098265885
1788861607360982800,11.371982666015626,-2.198312592831254,-2.8830086749285457,3.8473464587926864
1788861607370988800,11.38198876953125,-1.7159890948593615,-1.8214795138567685,2.7066096132323145
1788861607380995800,11.391995849609375,-1.4076777634471653,-0.9007073154747486,1.8688781016305087
1788861607391001600,11.402001708984375,-1.312259241130948,-0.1759416733175516,1.4156158629700542
1788861607401009000,11.4120087890625,-1.0696785652577876,0.15780571264624596,1.0088736756831407
1788861607411015000,11.422014892578124,-0.6592176497086882,-0.039322541084885594,0.7927908383741974
1788861607421021700,11.432021728515625,-0.7436798937246203,-0.7256143679410219,1.1008581318974495
1788861607431027700,11.44202783203125,-1.3893097475856542,-1.4416490066319703,1.629144339621067
1788861607441034800,11.45203466796875,-2.2806939389199017,-1.8542033873289823,1.9101643440037965
1788861607451041800,11.462041748046875,-2.803390948334336,-1.9272493343174457,1.8369746046304702
1788861607461047600,11.472047607421874,-2.551733232036233,-1.759250728958845,1.5680626789316534
1788861607471054800,11.482054931640626,-1.9834370854854582,-1.5325129343837498,1.2140659934043883
1788861607481060900,11.492060791015625,-1.5964683969438076,-1.4400994391024111,0.9712930098295212
1788861607491067600,11.502067626953124,-1.5146584210023284,-1.652143522414565,0.9732634331196546
1788861607501074000,11.512073974609375,-1.9082324991583823,-2.2978929110020396,1.1185407958433031
1788861607511080700,11.522080810546875,-1.683149193792045,-2.993534750005603,1.2240095875307917
1788861607521086700,11.532086669921876,-0.5814744848147034,-3.1784190237134693,1.1317007216677069
1788861607531093800,11.54209375,0.78425360391438,-2.7021441582560537,0.8683817936703562
1788861607541099800,11.552099853515625,1.9322256614252924,-1.6975217102766036,0.406433267468214
1788861607551106800,11.56210693359375,2.371189617881179,-0.4185767097264528,-0.023007073839008806
1788861607561112600,11.572112548828125,1.3070002976894377,0.44591889016032216,-0.06455781236737966
1788861607571119900,11.582119873046874,-0.3960515741854906,0.5067793093144893,0.34050036735534667
1788861607581125600,11.592125732421875,-1.6003595591634512,0.012344517788290977,0.8563993871927261
1788861607591132700,11.602132568359375,-2.0333330430328846,-0.8541109839946031,1.1990239070951938
1788861607601139000,11.612138916015626,-1.8765502436935901,-1.8373773402124642,1.3037260983243584
1788861607611145700,11.622145751953125,-1.1964911737471817,-2.56326467987597,0.8898457297205924
1788861607621152500,11.632152587890625,-0.20886136162281035,-2.8190912062913176,0.24471476529240607
1788861607631158800,11.64215869140625,0.5042816472798586,-2.6295547228634355,-0.34258301884829995
1788861607641165800,11.652165771484375,0.5209066188663244,-2.158593161383271,-0.9096154290735721
1788861607651171600,11.662171630859374,0.6458820750564337,-1.5924270125985145,-1.316520990228653
1788861607661179000,11.672178955078126,1.035481112101674,-0.9010790713965893,-1.4681582433730362
1788861607671185000,11.682184814453125,1.3659838170558214,-0.23613164586424826,-1.2190472889482975
1788861607681191700,11.692191650390624,1.2382424032837152,0.23406243837475776,-0.8374737374484539
1788861607691197700,11.70219775390625,0.5576110864073037,0.5094172566026449,-0.5145031815648079
1788861607701204700,11.712204833984375,0.26338147183954713,0.6355494816124438,-0.4388005825877189
1788861607711210800,11.722210693359376,0.6713929484099149,0.8256342465728521,-0.5925502978414297
1788861607721217500,11.732217529296875,1.8260989903509617,0.8984890549033879,-0.766450236198306
1788861607731223800,11.742223876953124,2.3314146568536755,0.6843687498390674,-0.6250538065612316
1788861607741230800,11.75223095703125,2.2732857084900138,0.3972171108335256,-0.4169511543512344
1788861607751236600,11.762236572265625,2.120030498754978,-0.05199176078289747,-0.5922592059403657
1788861607761244000,11.772243896484374,1.8478437891691921,-0.48589960289299483,-1.1366378858089445
1788861607771249700,11.782249755859375,1.487334653007984,-0.7415852595329284,-1.6705729130744933
1788861607781256700,11.792256591796875,1.5213661019474267,-0.8518006612256169,-1.9778847120553253
1788861607791263700,11.802263671875,1.8472750493705272,-0.6339516910269856,-2.252111987558007
1788861607801269800,11.812269775390625,2.0005279210180045,-0.16955752523839474,-2.8832646955162287
1788861607811276800,11.82227685546875,2.263587321296334,0.2804205771848559,-3.310775237804651
1788861607821282600,11.832282470703126,2.96798880533874,0.6853741274893284,-3.276637990403175
1788861607831289900,11.842289794921875,3.513305642840266,1.622543918442726,-3.2868010724991557
1788861607841295000,11.852295166015624,3.3535990650087593,2.7396760165318845,-3.413962056034803
1788861607851302100,11.86230224609375,2.663997090691328,3.719614981892705,-3.7959091170221564
1788861607861308200,11.87230810546875,2.042026052576303,4.134828060404956,-3.5731004785895344
1788861607871315000,11.88231494140625,2.1004840867638586,3.623963235342502,-3.09259075204134
1788861607881321000,11.892321044921875,2.6362708793759344,2.7977576186224815,-3.0220658479630944
1788861607891328000,11.902327880859374,3.5444372786849736,2.408830781750381,-3.524659980547428
1788861607901334000,11.912333984375,3.5232395923554893,2.5362229436933994,-3.8778672692626714
1788861607911341300,11.92234130859375,2.335892094528675,2.2564719363331793,-3.0538673458933827
1788861607921347000,11.93234716796875,1.4027034821659325,1.0816986733973026,-1.2560492781311272
1788861607931354000,11.94235400390625,2.1321891385823486,-0.38877953735589976,-0.2652484347552061
1788861607941359900,11.95235986328125,3.7050697391897436,-0.45894934438616036,-1.1738058792084456
1788861607951367200,11.9623671875,4.159674040108919,0.5416165216788649,-2.837511244601011
1788861607961374000,11.9723740234375,3.18188640756309,1.783684328469634,-3.732951433327794
1788861607971380000,11.9823798828125,1.8623621438652276,2.7603976097822187,-3.427377417925
1788861607981387300,11.99238720703125,0.9043295976251363,3.1318384743243453,-2.066169144707918
1788861607991393000,12.00239306640625,1.3276204763919115,2.671213013419509,-0.6299228739023208
1788861608001400000,12.012400146484374,1.2121674663066864,2.8775369655191896,-0.5410188480466603
1788861608011406000,12.022406005859375,3.0428759962797165,0.9800035550296307,-1.0579700072854756
1788861608021413000,12.0324130859375,2.2615315578103066,0.12048165190219878,-1.5608298050686715
1788861608031419100,12.042419189453126,1.5806068109452724,-0.6795517049461602,-1.42990917673856
1788861608041426200,12.05242626953125,1.2248287949591874,-1.4682809929698706,-0.8289441017732023
1788861608051432200,12.06243212890625,0.7706698997199535,-2.3464351158529517,-0.2506745504796505
1788861608061439000,12.07243896484375,0.6410860729515552,-3.2336955052554606,-0.050588031464815136
1788861608071445000,12.082445068359375,0.7777741787672042,-3.9063042591959234,-0.034253274996578695
1788861608081452000,12.0924521484375,0.7487520824223757,-4.2363802631706,0.07364040575027465
1788861608091458000,12.1024580078125,0.29666064110696316,-4.172909369257092,0.40689065584689377
1788861608101465000,12.112465087890625,-0.6365212492540478,-3.735944769924879,0.972223860938847
1788861608111471000,12.12247119140625,-2.0511232590064403,-3.3541491001069543,1.7503016988277433
1788861608121478100,12.13247802734375,-3.5588968889310952,-3.2719770128548142,2.6057556218639015
1788861608131485000,12.14248486328125,-4.785319967344403,-3.614958091109991,3.3751614929974076
1788861608141491200,12.1524912109375,-5.270497101181745,-4.170055148869753,3.724993167799711
1788861608151498000,12.162498046875,-4.9407384925931686,-4.58203903620243,3.6595381143316623
1788861608161504000,12.17250390625,-4.64835888980627,-4.648648812663555,3.3405613042593
1788861608171511300,12.18251123046875,-4.325120038375259,-4.396242908346653,3.1326664495810865
1788861608181517000,12.19251708984375,-3.679658819079399,-3.776985805365443,3.12116159748733
1788861608191524000,12.202524169921874,-3.2006402078717944,-2.9211399604022503,3.031870033618808
1788861608201529900,12.21252978515625,-2.9378368281811476,-2.0444407125025985,2.6840359623745083
1788861608211537200,12.222537109375,-2.5540052686214447,-1.1929746900588274,1.8551915215834973
1788861608221543200,12.232543212890626,-1.8648183048456906,-0.6024404082149267,0.9749342889413237
1788861608231550000,12.242550048828125,-1.1708242330491543,-0.4640039974272251,0.6033782735869289
1788861608241556200,12.25255615234375,-0.6483011188969016,-0.42818975672423837,0.45340690782815213
1788861608251563000,12.26256298828125,-0.5951952593922615,-0.4677513672620058,0.4061266857370734
1788861608261569000,12.272569091796875,-0.6031126083880662,-0.1597030707001686,0.6439981610059737
1788861608271576000,12.282576171875,-0.8723287777304649,-0.1640425612092018,1.141081421214342
1788861608281582000,12.29258203125,-1.3180460078388452,-0.4880319387465715,1.8534695200964808
1788861608291589000,12.302589111328125,-1.8546388561367988,-1.1126619669377804,2.504725104884803
1788861608301596200,12.31259619140625,-1.79614984228909,-1.171117078515887,2.42688607840091
1788861608311602200,12.322602294921875,-2.3113439287275073,-2.393638181054592,2.2969813491150735
1788861608321609000,12.33260888671875,-2.0323831949621436,-2.4231150354295967,1.3451122939407825
1788861608331615000,12.342614990234376,-1.2188760240346193,-2.009136759409308,0.25141075579971073
1788861608341622000,12.3526220703125,-0.5778893198043108,-1.3719687366843223,-0.37173487905263897
1788861608351628000,12.3626279296875,-0.528671407648921,-1.4763690223574637,-0.5306883004292845
1788861608361635000,12.372635009765625,-0.7173100654542446,-1.136506368383765,-0.17647388049811125
1788861608371641000,12.38264111328125,-0.9976441333994269,-1.7377935149103403,0.035249884818494316
1788861608381648100,12.392648193359374,-0.42496670302450656,-2.1658219435930253,0.39604660574942824
1788861608391654000,12.40265380859375,0.4265960577920079,-1.8426602490514516,0.7392538939759135
1788861608401661200,12.4126611328125,0.5053402164220809,-1.9747253712415693,0.609515753428638
1788861608411667200,12.422667236328126,-0.4407236596047878,-0.6032464639008045,0.5691594853818416
1788861608421674000,12.432674072265625,-0.8171358828186989,-0.47147827883064747,0.7680497803494334
1788861608431680000,12.442679931640624,-0.7356500242650509,-0.5994435644865036,1.2147054603517056
1788861608441687000,12.45268701171875,-0.5622288093358278,-0.990237948796153,1.6880308283537626
1788861608451694000,12.462694091796875,-0.45208910322785373,-1.151941253402829,1.5943477515280247
1788861608461699800,12.472699951171874,0.24178631062507627,-1.7909265546828508,1.2871569485783576
1788861608471707100,12.48270703125,1.300218674725294,-1.8311948521852492,0.6223252583801746
1788861608481713200,12.492713134765625,1.9506255337297915,-1.767663752517104,0.10591945806443691
1788861608491720000,12.502719970703126,1.9897049137085676,-1.5073533586859702,-0.24469781415760516
1788861608501726200,12.512726318359375,2.129241979214549,-1.6833499770611524,-0.2775567121863365
1788861608511733000,12.52273291015625,1.662266857022047,-0.9943974065631628,-0.7755874823778868
1788861608521739000,12.532739013671875,1.7968571137756109,-0.7407856335878372,-1.1363187368571757
1788861608531746000,12.54274609375,1.7031237680673599,-0.40122517743110653,-1.5151578949570654
1788861608541752000,12.552751953125,1.506404679659009,0.08055939135849476,-1.858060647279024
1788861608551759000,12.562759033203125,1.6628882037907837,-0.107834644035995,-1.829995997789502
1788861608561764900,12.572764892578125,1.8405963022589682,0.5289397031962871,-2.244010514166951
1788861608571772200,12.582772216796876,1.2218904034197329,0.39449353108853097,-2.2973300164222716
1788861608581778200,12.592778076171875,1.1447259151965379,0.3483084107577801,-2.5332512344062326
1788861608591785000,12.602784912109374,1.3606868796914815,0.5160208926513791,-2.884983189871907
1788861608601791200,12.612791259765626,1.4371142858117818,0.3653182900086045,-2.8906039523631333
1788861608611798000,12.622798095703125,2.482612349537015,1.345756729324162,-3.5093227106839415
1788861608621804000,12.632803955078124,2.85370191642344,1.7291487284228204,-3.6619291011214252
1788861608631811000,12.64281103515625,2.58760241779685,1.7637793122991918,-3.6356238625198602
