time,seconds_elapsed,z,y,x
1788862270940402000,0.04540185546875,0.34996089339256287,-1.9411802291870117,1.0757521390914917
1788862270950409000,0.055408935546875,0.08074058592319489,-2.4583399295806885,0.9104804396629333
1788862270960415000,0.0654150390625,-0.18566180765628815,-2.792647361755371,0.7678859829902649
1788862270970421000,0.0754208984375,-0.4315358102321625,-2.9775733947753906,0.6893313527107239
1788862270980428000,0.085427978515625,-0.6483898162841797,-3.11842679977417,0.62282395362854
1788862270990434000,0.09543408203125,-0.835598349571228,-3.1259377002716064,0.5169329047203064
1788862271000439800,0.105439697265625,-1.0069501399993896,-2.897036075592041,0.41589364409446716
1788862271010447000,0.115447021484375,-1.1596732139587402,-2.4642555713653564,0.3144325315952301
1788862271020452900,0.125452880859375,-1.2753417491912842,-1.9363399744033813,0.19328826665878296
1788862271030459000,0.135458984375,-1.3390675783157349,-1.3274688720703125,0.06410007923841476
1788862271040466200,0.145466064453125,-1.2393156290054321,-0.5548011660575867,-0.11296125501394272
1788862271050472000,0.155471923828125,-0.834096372127533,0.24776291847229004,-0.37561655044555664
1788862271060478000,0.16547802734375,-0.18939568102359772,0.9441510438919067,-0.662432849407196
1788862271070485000,0.175485107421875,0.5847488045692444,1.423902988433838,-0.9026010632514954
1788862271080491000,0.185490966796875,1.1242812871932983,1.6581711769104004,-1.0783519744873047
1788862271090498000,0.195498046875,1.295554757118225,1.7035436630249023,-1.2122606039047241
1788862271100503800,0.20550390625,1.3956059217453003,1.299930214881897,-1.2635078430175781
1788862271110509800,0.215509765625,1.5570943355560303,0.7228378653526306,-1.0967345237731934
1788862271120517000,0.22551708984375,1.6961952447891235,0.18804794549942017,-0.7666109204292297
1788862271130523000,0.23552294921875,1.7646251916885376,-0.12754704058170319,-0.4278319478034973
1788862271140529000,0.24552880859375,1.731959342956543,-0.21242012083530426,-0.13696497678756714
1788862271150536000,0.255535888671875,1.6837478876113892,-0.11875547468662262,0.04306485876441002
1788862271160542000,0.2655419921875,1.6862035989761353,-0.03869659826159477,0.10793732851743698
1788862271170548000,0.2755478515625,1.7246214151382446,-0.0877607986330986,0.09325403720140457
1788862271180554800,0.2855546875,1.8085675239562988,-0.22175534069538116,0.07087389379739761
1788862271190561000,0.29556103515625,1.9228835105895996,-0.36546558141708374,0.05002802237868309
1788862271200568000,0.305568115234375,2.051143169403076,-0.5642058253288269,0.05888436734676361
1788862271210573800,0.31557373046875,2.0774214267730713,-0.718727707862854,0.07603573799133301
1788862271220579800,0.325579833984375,1.885926604270935,-0.9599161148071289,0.22856375575065613
1788862271230587000,0.3355869140625,1.6091463565826416,-1.5671157836914062,0.4967556297779083
1788862271240593000,0.345593017578125,1.3349446058273315,-2.264302968978882,0.7278364896774292
1788862271250599000,0.355598876953125,1.121046781539917,-2.899538516998291,0.9196628928184509
1788862271260606000,0.36560595703125,0.989472508430481,-3.3558688163757324,1.128574252128601
1788862271270612000,0.375612060546875,0.9842709302902222,-3.955036163330078,1.3188594579696655
1788862271280618000,0.385617919921875,1.128861665725708,-4.41925048828125,1.4834023714065552
1788862271290624800,0.395624755859375,1.1601861715316772,-4.485970973968506,1.5261681079864502
1788862271300631000,0.405631103515625,1.083165168762207,-3.9698352813720703,1.4072285890579224
1788862271310637000,0.415636962890625,1.0422767400741577,-3.248867988586426,1.2835052013397217
1788862271320643800,0.425643798828125,1.1183602809906006,-2.2159247398376465,1.1860934495925903
1788862271330650000,0.435650146484375,1.25556480884552,-1.0530154705047607,1.1532843112945557
1788862271340657000,0.445656982421875,1.406868577003479,-0.006540686823427677,1.0492959022521973
1788862271350663000,0.455662841796875,1.6880333423614502,0.19145071506500244,0.6824675798416138
1788862271360669000,0.4656689453125,2.2833380699157715,-0.6376866698265076,0.5795907378196716
1788862271370676000,0.475676025390625,2.8055615425109863,-1.1904302835464478,0.6869922280311584
1788862271380682000,0.485681884765625,3.2377779483795166,-1.1029633283615112,0.7943778038024902
1788862271390688000,0.49568798828125,3.6467905044555664,-0.7913202047348022,0.9249355792999268
1788862271400695000,0.505695068359375,4.062682628631592,-0.7295559644699097,1.1706063747406006
1788862271410701000,0.515701171875,4.423503875732422,-1.1814531087875366,1.544236183166504
1788862271420707000,0.52570703125,4.7519755363464355,-2.206798553466797,2.0757627487182617
1788862271430713900,0.5357138671875,5.072183609008789,-3.7909326553344727,2.776993989944458
1788862271440720100,0.54572021484375,5.227930545806885,-5.511728286743164,3.391050100326538
1788862271450727000,0.555726806640625,5.098694801330566,-6.5821146965026855,3.705397844314575
1788862271460733000,0.56573291015625,4.9372992515563965,-6.927328109741211,3.7534396648406982
1788862271470739000,0.575739013671875,5.142065048217773,-7.035189628601074,3.7278287410736084
1788862271480746000,0.58574609375,5.577202320098877,-6.530060291290283,3.6155991554260254
1788862271490752000,0.595751953125,6.008290767669678,-5.4499311447143555,3.450416326522827
1788862271500758000,0.605758056640625,6.408088684082031,-4.665900230407715,3.3273701667785645
1788862271510765000,0.61576513671875,6.74567174911499,-4.381862640380859,3.325594663619995
1788862271520771000,0.62577099609375,7.132263660430908,-4.053160190582275,3.3902816772460938
1788862271530777000,0.635777099609375,7.599889278411865,-3.5830581188201904,3.411576271057129
1788862271540783900,0.645783935546875,7.85709285736084,-2.877380847930908,3.229417324066162
1788862271550790100,0.6557900390625,7.566802978515625,-2.194943428039551,2.7997584342956543
1788862271560797000,0.665796875,6.696043491363525,-1.7137678861618042,2.1551260948181152
1788862271570803000,0.675802978515625,5.579618453979492,-1.2615227699279785,1.4510254859924316
1788862271580809000,0.68580908203125,4.723000526428223,-0.840515673160553,0.8518813848495483
1788862271590816000,0.69581591796875,4.463890552520752,-0.5752134323120117,0.5484713912010193
1788862271600822000,0.705822021484375,4.626639366149902,-0.4740716516971588,0.5888728499412537
1788862271610828000,0.715828125,4.708401203155518,-0.5812767148017883,0.8762627243995667
1788862271620835000,0.7258349609375,4.4795355796813965,-0.849608302116394,1.4469174146652222
1788862271630841000,0.735841064453125,3.939483642578125,-1.131147027015686,2.073850393295288
1788862271640846800,0.745846923828125,3.2226319313049316,-1.451671838760376,2.718973159790039
1788862271650854000,0.75585400390625,2.4670114517211914,-1.5855997800827026,3.0258264541625977
1788862271660860200,0.765860107421875,1.6324036121368408,-1.8129894733428955,2.673379898071289
1788862271670867000,0.775866943359375,1.142483115196228,-1.2640222311019897,1.9862263202667236
1788862271680873000,0.785873046875,0.9846224784851074,-0.019799549132585526,1.1593289375305176
1788862271690879000,0.79587890625,1.0473713874816895,1.7713483572006226,0.1672094166278839
1788862271700886000,0.805885986328125,0.9318304061889648,3.0365445613861084,-0.9549561142921448
1788862271710892000,0.81589208984375,0.6690616607666016,3.4290034770965576,-1.3750803470611572
1788862271720897800,0.825897705078125,0.5519662499427795,3.2335383892059326,-0.9538793563842773
1788862271730905000,0.835905029296875,0.26144111156463623,2.1940207481384277,-0.17298783361911774
1788862271740911000,0.8459111328125,0.19256487488746643,2.2488248348236084,0.952070415019989
1788862271750916900,0.855916748046875,0.322273850440979,1.3171192407608032,1.4490171670913696
1788862271760924000,0.865923828125,0.18959516286849976,0.06263229995965958,2.05202317237854
1788862271770930200,0.87593017578125,-0.6582067608833313,-0.7650685906410217,3.1416540145874023
1788862271780937000,0.88593701171875,-0.3232268989086151,0.6647557020187378,3.299588441848755
1788862271790943000,0.89594287109375,-0.10062525421380997,-0.28632834553718567,2.0768134593963623
1788862271800948700,0.90594873046875,-0.2881370782852173,0.12280403077602386,1.6784110069274902
1788862271810956000,0.9159560546875,-0.11336022615432739,1.1041160821914673,1.609580636024475
1788862271820962000,0.925962158203125,0.0911010205745697,0.3494027554988861,1.0185134410858154
1788862271830967800,0.9359677734375,0.08096061646938324,-0.48913824558258057,0.6460072994232178
1788862271840975000,0.94597509765625,0.25397634506225586,-0.7622616291046143,0.36694392561912537
1788862271850981000,0.955981201171875,0.40143337845802307,-0.6472192406654358,0.33413955569267273
1788862271860987000,0.96598681640625,0.5769327878952026,-0.20580267906188965,1.0975233316421509
1788862271870994200,0.975994140625,0.5819910764694214,-0.8734993934631348,1.249001145362854
1788862271881000000,0.986,0.580450177192688,-1.1348114013671875,1.208809733390808
1788862271891007000,0.996007080078125,0.5912696719169617,-1.0990890264511108,1.050313115119934
1788862271901013000,1.006012939453125,0.3610689640045166,-1.089589238166809,0.2730712294578552
1788862271911019000,1.01601904296875,0.1670592874288559,-0.7306152582168579,-0.5963030457496643
1788862271921026000,1.026026123046875,0.09100712835788727,-0.14200237393379211,-1.1784588098526
1788862271931032000,1.036031982421875,0.1512933224439621,0.277434766292572,-1.3211811780929565
1788862271941037800,1.046037841796875,0.14271900057792664,0.48742368817329407,-1.213083267211914
1788862271951045000,1.056045166015625,0.08425994217395782,0.3962690234184265,-1.1049174070358276
1788862271961051000,1.06605078125,-0.02217480167746544,0.1048295795917511,-0.8972282409667969
1788862271971058000,1.076057861328125,-0.18905065953731537,-0.10973364859819412,-0.5517263412475586
1788862271981064200,1.086064208984375,-0.17308101058006287,-0.27530476450920105,-0.26589298248291016
1788862271991070000,1.096070068359375,0.00908484123647213,-0.44284021854400635,-0.1014227420091629
1788862272001077000,1.106076904296875,-0.0066168904304504395,-0.5547822117805481,-0.12157940864562988
1788862272011083000,1.1160830078125,-0.0641007125377655,-0.4357309639453888,-0.3803963363170624
1788862272021089000,1.126089111328125,-0.008678996935486794,-0.11681103706359863,-0.7559553384780884
1788862272031096000,1.136095947265625,0.13988661766052246,0.09192682057619095,-1.102652668952942
1788862272041101800,1.146101806640625,0.22828438878059387,0.17026714980602264,-1.3210481405258179
1788862272051107800,1.15610791015625,0.12468021363019943,0.14672771096229553,-1.3229767084121704
1788862272061115100,1.166115234375,0.011284152045845985,-0.09368301928043365,-1.5252562761306763
1788862272071121000,1.176120849609375,-0.028956498950719833,-0.5662391781806946,-1.5746535062789917
1788862272081128000,1.1861279296875,-0.07876400649547577,-1.0780584812164307,-1.3316134214401245
1788862272091134000,1.196134033203125,-0.009966844692826271,-1.293459415435791,-1.0157780647277832
1788862272101140000,1.206139892578125,0.1506502628326416,-1.1259346008300781,-0.6948010325431824
1788862272111147000,1.21614697265625,0.37764236330986023,-0.8264026045799255,-0.6440330743789673
1788862272121152800,1.22615283203125,0.5806111693382263,-0.6052899360656738,-0.8668762445449829
1788862272131159000,1.236158935546875,0.9324313998222351,-0.357912540435791,-1.2927039861679077
1788862272141166000,1.246166015625,1.3369938135147095,-0.33018290996551514,-1.5325342416763306
1788862272151171800,1.256171875,1.3783143758773804,-0.23985329270362854,-1.6471832990646362
1788862272161179100,1.26617919921875,1.8355677127838135,-0.09789503365755081,-1.6140738725662231
1788862272171185000,1.276184814453125,2.3902735710144043,-0.581611156463623,-1.5144628286361694
1788862272181191000,1.28619091796875,2.1533586978912354,-0.42219406366348267,-1.5128194093704224
1788862272191198000,1.296197998046875,2.50628924369812,-0.5415558815002441,-1.6393342018127441
1788862272201204000,1.306203857421875,3.203360080718994,-0.6772034764289856,-1.6256721019744873
1788862272211210000,1.3162099609375,4.285872936248779,-0.9502811431884766,-1.3209697008132935
1788862272221217000,1.326217041015625,4.513088226318359,-0.6430745720863342,-1.130244255065918
1788862272231222800,1.336222900390625,4.120251178741455,0.8673756122589111,-1.2259647846221924
1788862272241230000,1.34622998046875,3.4723427295684814,1.6609067916870117,-1.1136624813079834
1788862272251235800,1.35623583984375,3.133258104324341,1.7068862915039062,-1.0435421466827393
1788862272261241900,1.366241943359375,2.7031846046447754,1.5526399612426758,-0.8918168544769287
1788862272271249200,1.376249267578125,2.1203033924102783,1.2168598175048828,-0.7246648073196411
1788862272281255000,1.3862548828125,1.664386510848999,0.8558962941169739,-0.5237948298454285
1788862272291261000,1.396260986328125,1.3591372966766357,0.6196891665458679,-0.3659742474555969
1788862272301268000,1.40626806640625,1.0959477424621582,0.46149495244026184,-0.35512852668762207
1788862272311274000,1.41627392578125,0.9669771194458008,0.2951584458351135,-0.4219171702861786
1788862272321280000,1.426280029296875,1.0590667724609375,0.22885477542877197,-0.49222302436828613
1788862272331286800,1.436286865234375,1.3382624387741089,0.2704557478427887,-0.5889561772346497
1788862272341292800,1.446292724609375,1.6396733522415161,0.47043758630752563,-0.6695247888565063
1788862272351300000,1.456300048828125,1.7660422325134277,0.685684323310852,-0.7545092701911926
1788862272361305900,1.466305908203125,1.5938915014266968,1.0109386444091797,-0.6195471882820129
1788862272371311900,1.476311767578125,1.5865604877471924,1.0018452405929565,-0.21562641859054565
1788862272381319200,1.486319091796875,1.8161752223968506,0.894507884979248,0.26237717270851135
1788862272391325000,1.496324951171875,2.297264337539673,0.4972742795944214,0.5527700781822205
1788862272401332000,1.50633203125,2.8451833724975586,0.0564311146736145,0.7191172242164612
1788862272411338000,1.516337890625,3.2192094326019287,-0.5269668102264404,0.8757304549217224
1788862272421344000,1.526343994140625,3.3546884059906006,-1.2985036373138428,0.9765164852142334
1788862272431351000,1.53635107421875,3.1758241653442383,-2.1960697174072266,0.9848689436912537
1788862272441356800,1.546356689453125,2.8055994510650635,-3.0648393630981445,1.1104202270507812
1788862272451363000,1.556363037109375,2.3264248371124268,-3.6720635890960693,1.3894191980361938
1788862272461370000,1.5663701171875,1.5110830068588257,-4.201458930969238,1.6596430540084839
1788862272471376000,1.5763759765625,0.4885112941265106,-3.8242785930633545,1.8533704280853271
1788862272481382000,1.5863818359375,-0.2319890856742859,-1.249588966369629,1.2196446657180786
1788862272491388700,1.596388671875,-0.5827819108963013,1.0521814823150635,-0.17542825639247894
1788862272501394700,1.606394775390625,-0.9168826341629028,1.073652982711792,-0.5811062455177307
1788862272511402000,1.616402099609375,-1.1565076112747192,0.38619375228881836,-0.24305659532546997
1788862272521407700,1.62640771484375,-1.0248420238494873,-0.1388963907957077,0.3693724274635315
1788862272531413800,1.636413818359375,-0.4561372399330139,-0.5613804459571838,0.6530095934867859
1788862272541421000,1.646421142578125,-0.27472245693206787,-1.4009586572647095,0.12078914046287537
1788862272551426800,1.6564267578125,-0.3089447319507599,-1.833199381828308,-0.35398221015930176
1788862272561433900,1.666433837890625,-0.35206371545791626,-1.7474985122680664,-0.408915251493454
1788862272571439600,1.676439697265625,-0.4188880920410156,-1.1189712285995483,0.03280137479305267
1788862272581446000,1.68644580078125,-0.5059510469436646,0.09706110507249832,0.6660603284835815
1788862272591453000,1.696452880859375,-0.43090957403182983,1.3946510553359985,1.2653427124023438
1788862272601458700,1.706458740234375,-0.05697350949048996,2.2291553020477295,1.6707171201705933
1788862272611464700,1.716464599609375,0.5387137532234192,2.519474744796753,1.6997520923614502
1788862272621472000,1.726471923828125,1.3238862752914429,1.5308828353881836,1.2712433338165283
1788862272631477800,1.736477783203125,1.7608845233917236,-0.40139955282211304,0.13442882895469666
1788862272641484800,1.74648486328125,1.4104583263397217,-1.062807559967041,-0.6488355994224548
1788862272651490800,1.75649072265625,0.7946557998657227,-0.5132030844688416,-0.5841323733329773
1788862272661496800,1.766496826171875,0.23475763201713562,0.0899946466088295,-0.307685911655426
1788862272671504000,1.77650390625,-0.08845838904380798,0.3466450870037079,-0.1134118065237999
1788862272681509600,1.786509521484375,-0.25732144713401794,0.3519333302974701,-0.053270697593688965
1788862272691516000,1.796515869140625,-0.1907975971698761,0.27607402205467224,-0.07478278875350952
1788862272701523000,1.80652294921875,-0.006829097867012024,0.17923615872859955,-0.09473945200443268
1788862272711528700,1.81652880859375,0.10220272839069366,0.11175909638404846,-0.08781041204929352
1788862272721536000,1.826535888671875,0.12888947129249573,0.056730736047029495,-0.09980501979589462
1788862272731541800,1.836541748046875,0.07782774418592453,0.026449576020240784,-0.12295883148908615
1788862272741547800,1.8465478515625,0.006346900947391987,0.01752159744501114,-0.11750787496566772
1788862272751555000,1.85655517578125,-0.043535083532333374,0.08588778972625732,-0.10619642585515976
1788862272761560800,1.866560791015625,-0.04592340439558029,0.19161821901798248,-0.10632132738828659
1788862272771566800,1.87656689453125,-0.0201962199062109,0.24671828746795654,-0.11764807254076004
1788862272781574000,1.886573974609375,0.014350838959217072,0.21604639291763306,-0.12100312113761902
1788862272791580000,1.896579833984375,0.03857351839542389,0.15659043192863464,-0.0965014174580574
1788862272801587000,1.9065869140625,0.04978542774915695,0.08177772164344788,-0.08939743787050247
1788862272811592700,1.9165927734375,0.04590464010834694,0.02026725560426712,-0.10669207572937012
1788862272821598700,1.9265986328125,0.03538781777024269,-0.04485049098730087,-0.07044298946857452
1788862272831606000,1.93660595703125,0.02773972973227501,-0.0359627865254879,-0.06929491460323334
1788862272841611800,1.94661181640625,0.01492326706647873,0.0012602133210748434,-0.10717092454433441
1788862272851617800,1.95661767578125,0.003336986992508173,0.027360346168279648,-0.12375858426094055
1788862272861624800,1.966624755859375,-0.00837106816470623,0.07504983246326447,-0.12756557762622833
1788862272871630800,1.976630859375,-0.013553782366216183,0.11238731443881989,-0.12339653074741364
1788862272881638000,1.986637939453125,-0.014505595900118351,0.1327218860387802,-0.1198129802942276
1788862272891643600,1.9966435546875,-0.016513051465153694,0.12898972630500793,-0.1172562688589096
1788862272901650000,2.00664990234375,-0.011832545511424541,0.10832864791154861,-0.12117697298526764
1788862272911657000,2.016656982421875,0.003369697369635105,0.07572625577449799,-0.13330744206905365
1788862272921662700,2.026662841796875,0.02388136461377144,0.026860177516937256,-0.1553293913602829
1788862272931668700,2.036668701171875,0.04895678907632828,-0.023209601640701294,-0.18032735586166382
1788862272941675800,2.04667578125,0.07274919748306274,-0.12426883727312088,-0.21375828981399536
1788862272951681800,2.056681884765625,0.07554201781749725,-0.2921348214149475,-0.24519991874694824
1788862272961688800,2.066688720703125,0.039685748517513275,-0.42154955863952637,-0.24352025985717773
1788862272971694800,2.07669482421875,-0.01702914386987686,-0.38870126008987427,-0.20229922235012054
1788862272981700900,2.086700927734375,-0.06016089767217636,-0.18971066176891327,-0.14697284996509552
1788862272991708000,2.0967080078125,-0.09350414574146271,-0.008540919981896877,-0.11249889433383942
1788862273001713700,2.106713623046875,-0.11121070384979248,0.06906545907258987,-0.09566212445497513
1788862273011721000,2.116720947265625,-0.11671167612075806,0.0857773870229721,-0.06345455348491669
1788862273021726700,2.126726806640625,-0.11462109535932541,0.08212725818157196,0.0003268179716542363
1788862273031732700,2.136732666015625,-0.10293930768966675,0.04030932858586311,0.06043621525168419
1788862273041740000,2.146739990234375,-0.07994983345270157,-0.00037365383468568325,0.08155028522014618
1788862273051745800,2.156745849609375,-0.044933874160051346,-0.03298555314540863,0.06050872057676315
1788862273061751800,2.166751708984375,-0.0014268755912780762,-0.06585562229156494,0.023154957219958305
1788862273071758800,2.1767587890625,0.043412353843450546,-0.08770923316478729,-0.020390156656503677
1788862273081764900,2.186764892578125,0.0845523327589035,-0.08984562009572983,-0.05559581145644188
1788862273091772000,2.19677197265625,0.11126644164323807,-0.05057497322559357,-0.08271487802267075
1788862273101777700,2.206777587890625,0.13441570103168488,0.058958977460861206,-0.10954249650239944
1788862273111783700,2.21678369140625,0.1678992658853531,0.16755101084709167,-0.15109121799468994
1788862273121791000,2.226791015625,0.20157760381698608,0.26021039485931396,-0.1970784217119217
1788862273131796700,2.236796630859375,0.22486020624637604,0.3228267431259155,-0.2256944477558136
1788862273141802800,2.246802734375,0.23687613010406494,0.3310958743095398,-0.2346051186323166
1788862273151810000,2.25681005859375,0.2464386224746704,0.28455060720443726,-0.2391365021467209
1788862273161815800,2.26681591796875,0.2543085515499115,0.20913442969322205,-0.24501276016235352
1788862273171822800,2.27682275390625,0.2614814341068268,0.14038144052028656,-0.2578243315219879
1788862273181828900,2.286828857421875,0.29356133937835693,0.05784954875707626,-0.2833525836467743
1788862273191835000,2.2968349609375,0.2806348502635956,0.024983448907732964,-0.32579484581947327
1788862273201842000,2.306842041015625,0.26445481181144714,0.009074789471924305,-0.36189398169517517
1788862273211847700,2.31684765625,0.26847681403160095,0.014094071462750435,-0.3815024495124817
1788862273221853700,2.326853759765625,0.2792801856994629,0.01749253086745739,-0.3813572824001312
1788862273231861000,2.336861083984375,0.30027639865875244,-0.0027354906778782606,-0.34823399782180786
1788862273241866800,2.34686669921875,0.3204607665538788,-0.06461137533187866,-0.2836906909942627
1788862273251873800,2.356873779296875,0.3211956024169922,-0.14735449850559235,-0.19981589913368225
1788862273261879800,2.3668798828125,0.30128127336502075,-0.21007433533668518,-0.11573563516139984
1788862273271885800,2.3768857421875,0.26761797070503235,-0.25942462682724,-0.05999652296304703
1788862273281892900,2.386892822265625,0.23989498615264893,-0.3195505440235138,-0.04215787351131439
1788862273291899000,2.39689892578125,0.21836170554161072,-0.3946707248687744,-0.04071428254246712
1788862273301905000,2.40690478515625,0.21770256757736206,-0.4873817563056946,-0.03993823751807213
1788862273311912000,2.416911865234375,0.2462395876646042,-0.5860902667045593,-0.03686457872390747
1788862273321917700,2.426917724609375,0.2954297661781311,-0.6801297068595886,-0.023589517921209335
1788862273331925000,2.436925048828125,0.3502562940120697,-0.7333478927612305,-0.02409331314265728
1788862273341930800,2.4469306640625,0.39526745676994324,-0.7254473567008972,-0.036400310695171356
1788862273351936800,2.456936767578125,0.43106207251548767,-0.6636459827423096,-0.059738148003816605
1788862273361944000,2.466944091796875,0.46155980229377747,-0.5746104121208191,-0.06927014142274857
1788862273371949800,2.47694970703125,0.48109740018844604,-0.49019405245780945,-0.05580677092075348
1788862273381955800,2.486955810546875,0.499634325504303,-0.4679524004459381,-0.035142771899700165
1788862273391963000,2.496962890625,0.5093071460723877,-0.6706303954124451,-0.0012908608186990023
1788862273401969000,2.506968994140625,0.49544355273246765,-0.898675799369812,0.0166066475212574
1788862273411976000,2.516975830078125,0.4545954763889313,-0.7687346339225769,0.01811911165714264
1788862273421981700,2.526981689453125,0.39916205406188965,-0.5311993360519409,-0.0282643660902977
1788862273431987700,2.53698779296875,0.3328914940357208,-0.3644380271434784,-0.16066965460777283
1788862273441995000,2.5469951171875,0.3051895797252655,-0.30707621574401855,-0.31055235862731934
1788862273452000800,2.557000732421875,0.3309130072593689,-0.26274174451828003,-0.40280991792678833
1788862273462007800,2.5670078125,0.37717556953430176,-0.177386075258255,-0.4257280230522156
1788862273472013800,2.577013916015625,0.4319702386856079,-0.10877823829650879,-0.41028252243995667
1788862273482020400,2.587020263671875,0.49607333540916443,-0.09485975652933121,-0.38416171073913574
1788862273492027600,2.597027587890625,0.5654049515724182,-0.07343258708715439,-0.3706645667552948
1788862273502033400,2.607033447265625,0.6295772790908813,-0.004678559955209494,-0.40885934233665466
1788862273512039400,2.617039306640625,0.6784605383872986,0.03723647817969322,-0.4786098897457123
1788862273522046500,2.62704638671875,0.7364471554756165,0.1193222925066948,-0.5555320382118225
1788862273532052500,2.637052490234375,0.8349252343177795,0.3621779680252075,-0.6499821543693542
1788862273542059500,2.6470595703125,0.968252420425415,0.7647757530212402,-0.778653085231781
1788862273552065300,2.657065185546875,1.1245605945587158,1.135677695274353,-0.8921995162963867
1788862273562071600,2.667071533203125,1.2323435544967651,1.3736947774887085,-0.9169647693634033
1788862273572078600,2.67707861328125,1.2171739339828491,1.5169163942337036,-0.8049587607383728
1788862273582084400,2.68708447265625,1.0274897813796997,1.6715846061706543,-0.5893199443817139
1788862273592090400,2.69709033203125,0.710959255695343,1.6767656803131104,-0.37197375297546387
1788862273602097400,2.707097412109375,0.563170313835144,1.3654640913009644,-0.1590164601802826
1788862273612103400,2.717103515625,0.8009518980979919,1.013498067855835,0.07892262935638428
1788862273622110500,2.7271103515625,1.2302500009536743,0.7105437517166138,0.3608453869819641
1788862273632116500,2.737116455078125,1.666222333908081,0.3733189105987549,0.7333085536956787
1788862273642122500,2.74712255859375,1.9971096515655518,0.045248351991176605,1.1602998971939087
1788862273652129500,2.757129638671875,2.13362455368042,-0.06579567492008209,1.5040169954299927
1788862273662135300,2.76713525390625,2.0469589233398438,0.08133970946073532,1.695283055305481
1788862273672142600,2.777142578125,1.721993327140808,0.2949524223804474,1.7303786277770996
1788862273682148400,2.7871484375,1.3713746070861816,0.3820692300796509,1.6998803615570068
1788862273692154400,2.797154296875,1.213755488395691,0.335063099861145,1.594379186630249
1788862273702161700,2.80716162109375,1.219793438911438,0.33260899782180786,1.325657606124878
1788862273712167400,2.81716748046875,1.2545936107635498,0.44566553831100464,0.8502093553543091
1788862273722173400,2.82717333984375,1.2789703607559204,0.6527222990989685,0.37076470255851746
1788862273732180500,2.837180419921875,1.3208115100860596,0.8910550475120544,0.0037830141372978687
1788862273742186500,2.8471865234375,1.3999189138412476,1.1610231399536133,-0.2649291455745697
1788862273752193500,2.857193603515625,1.5885157585144043,1.544532299041748,-0.3388301432132721
1788862273762199300,2.86719921875,1.7897306680679321,1.857145071029663,-0.14211280643939972
1788862273772205600,2.87720556640625,1.9674303531646729,1.7575122117996216,0.21098001301288605
1788862273782212600,2.887212646484375,2.108025312423706,1.0424138307571411,0.5006182193756104
1788862273792218400,2.89721826171875,2.200810670852661,-0.1419050395488739,0.6310828328132629
1788862273802225700,2.9072255859375,2.2498927116394043,-1.299230694770813,0.5794529318809509
1788862273812231400,2.9172314453125,2.2916922569274902,-1.684079647064209,0.3860730826854706
1788862273822237400,2.927237548828125,2.3027753829956055,-0.8081504106521606,0.2892235219478607
1788862273832244500,2.937244384765625,2.2709343433380127,0.49610498547554016,0.4229269027709961
1788862273842250500,2.94725048828125,2.1715636253356934,1.0533300638198853,0.5891345739364624
1788862273852256500,2.957256591796875,2.121183156967163,0.9822176694869995,0.6679801940917969
1788862273862263600,2.967263671875,2.186408758163452,0.7965463399887085,0.6110236644744873
1788862273872269300,2.977269287109375,2.4167325496673584,0.6042999029159546,0.49945104122161865
1788862273882276600,2.987276611328125,2.774170160293579,0.3421734869480133,0.34140682220458984
1788862273892282400,2.997282470703125,3.1314430236816406,-0.22010551393032074,0.12252194434404373
1788862273902288400,3.007288330078125,3.489596128463745,-0.7765634059906006,-0.14983074367046356
1788862273912295700,3.017295654296875,3.705204725265503,-1.1160051822662354,-0.409896582365036
1788862273922301400,3.027301513671875,3.7209296226501465,-1.0201870203018188,-0.5388655066490173
1788862273932308500,3.03730859375,3.6138439178466797,-0.49730706214904785,-0.5475894212722778
1788862273942314500,3.047314453125,3.476004123687744,0.04957732558250427,-0.5942530632019043
1788862273952320500,3.057320556640625,3.319953441619873,0.25714248418807983,-0.7850048542022705
1788862273962327600,3.06732763671875,3.177325963973999,-0.022067299112677574,-0.9384825825691223
1788862273972333300,3.077333251953125,3.0031909942626953,-0.6192981600761414,-0.9875696897506714
1788862273982340600,3.087340576171875,2.897942543029785,-1.2306188344955444,-0.9486142992973328
1788862273992346600,3.0973466796875,2.9630625247955322,-1.6437067985534668,-0.8527229428291321
1788862274002352400,3.107352294921875,3.1795318126678467,-1.9614479541778564,-0.8205357193946838
1788862274012359400,3.117359375,3.3859381675720215,-2.086359977722168,-0.8277013897895813
1788862274022365700,3.12736572265625,3.4644548892974854,-1.6654765605926514,-0.889225423336029
1788862274032371500,3.137371337890625,3.4254472255706787,-0.9463316798210144,-1.0095516443252563
1788862274042378500,3.14737841796875,3.2992141246795654,-0.3410963714122772,-1.127720594406128
1788862274052384300,3.15738427734375,3.0751848220825195,-0.1528777778148651,-1.3075270652770996
1788862274062391600,3.1673916015625,2.8031883239746094,-0.1592443287372589,-1.4613707065582275
1788862274072397600,3.1773974609375,2.5956146717071533,-0.2014741152524948,-1.5787650346755981
1788862274082403300,3.1874033203125,2.524561643600464,-0.33179083466529846,-1.6768250465393066
1788862274092410600,3.19741064453125,2.5760347843170166,-0.5129852890968323,-1.7235854864120483
1788862274102416600,3.207416748046875,2.602989912033081,-0.6615119576454163,-1.780247688293457
1788862274112423400,3.21742333984375,2.598562002182007,-0.5849648714065552,-1.8470209836959839
1788862274122429400,3.227429443359375,2.5845534801483154,-0.334618479013443,-2.018508195877075
1788862274132435500,3.237435546875,2.551598072052002,-0.2022409737110138,-2.1715633869171143
1788862274142442500,3.2474423828125,2.3886780738830566,-0.25244635343551636,-2.233046531677246
1788862274152448500,3.257448486328125,2.1852545738220215,-0.20080764591693878,-2.3914618492126465
1788862274162454300,3.267454345703125,1.997101902961731,-0.0967629998922348,-2.519209384918213
1788862274172461600,3.277461669921875,1.8191170692443848,-0.09494869410991669,-2.62282395362854
1788862274182467600,3.287467529296875,1.6499722003936768,-0.19005949795246124,-2.7465715408325195
1788862274192474400,3.297474365234375,1.5285611152648926,-0.314662367105484,-2.8497767448425293
1788862274202480600,3.307480712890625,1.5160661935806274,-0.3402785062789917,-2.8963072299957275
1788862274212486400,3.317486328125,1.4857755899429321,-0.4727282226085663,-2.8596389293670654
1788862274222493400,3.327493408203125,1.4919277429580688,-0.5926759243011475,-2.8383538722991943
1788862274232499500,3.33749951171875,1.4746392965316772,-0.51344895362854,-2.7909324169158936
1788862274242506500,3.347506591796875,1.4085068702697754,-0.28270816802978516,-2.793351650238037
1788862274252512500,3.357512451171875,1.2651824951171875,-0.07052748650312424,-2.852738618850708
1788862274262518500,3.3675185546875,1.1096419095993042,-0.0036363364197313786,-2.8813657760620117
1788862274272525600,3.377525634765625,0.9570044279098511,0.005793687887489796,-2.841026544570923
1788862274282531600,3.387531494140625,0.7942368388175964,-0.04949380084872246,-2.801959991455078
1788862274292538400,3.397538330078125,0.6324120759963989,-0.12460537254810333,-2.7699825763702393
1788862274302544400,3.40754443359375,0.4748205840587616,-0.19322837889194489,-2.742567777633667
1788862274312550700,3.417550537109375,0.31115037202835083,-0.2151818722486496,-2.6842894554138184
1788862274322557400,3.427557373046875,0.1715429574251175,-0.16021236777305603,-2.6548540592193604
1788862274332563500,3.4375634765625,0.05075886845588684,-0.15933506190776825,-2.617030143737793
1788862274342569500,3.447569580078125,-0.00854306947439909,-0.17880970239639282,-2.5433995723724365
1788862274352576500,3.457576416015625,-0.05332549661397934,-0.08410319685935974,-2.48270583152771
1788862274362582500,3.46758251953125,-0.09869537502527237,0.05364960804581642,-2.437005043029785
1788862274372589600,3.477589599609375,-0.14237606525421143,0.14224763214588165,-2.41392183303833
1788862274382595600,3.487595703125,-0.19288291037082672,0.17258796095848083,-2.4061007499694824
1788862274392601600,3.4976015625,-0.2622981071472168,0.18910549581050873,-2.3757433891296387
1788862274402608400,3.5076083984375,-0.35143595933914185,0.2107364982366562,-2.352837562561035
1788862274412614700,3.51761474609375,-0.42081671953201294,0.20487670600414276,-2.374983549118042
1788862274422621400,3.527621337890625,-0.45708712935447693,0.13687928020954132,-2.384631395339966
1788862274432627500,3.53762744140625,-0.48150596022605896,0.10299582779407501,-2.3333382606506348
1788862274442633500,3.547633544921875,-0.5167723298072815,0.14481890201568604,-2.2715678215026855
1788862274452640500,3.557640625,-0.545382022857666,0.2131388634443283,-2.2625632286071777
1788862274462646500,3.567646484375,-0.5764038562774658,0.23810119926929474,-2.2747111320495605
1788862274472653300,3.5776533203125,-0.6167402863502502,0.2621059715747833,-2.3074309825897217
1788862274482658800,3.587658935546875,-0.6468678712844849,0.30431094765663147,-2.3823444843292236
1788862274492664800,3.597664794921875,-0.7006794810295105,0.3297449052333832,-2.4422051906585693
1788862274502672000,3.607671875,-0.7664100527763367,0.22278782725334167,-2.451016664505005
1788862274512678000,3.617677978515625,-0.7487310171127319,0.3511742651462555,-2.379479169845581
1788862274522685000,3.627684814453125,-0.7843281626701355,0.37797126173973083,-2.264380693435669
1788862274532690700,3.637690673828125,-0.8324863314628601,0.30074575543403625,-2.2415733337402344
1788862274542697000,3.647697021484375,-0.8835513591766357,0.2876531183719635,-2.290708065032959
1788862274552703700,3.657703857421875,-0.9724739789962769,0.32013535499572754,-2.4150195121765137
1788862274562709800,3.667709716796875,-1.0464507341384888,0.36013126373291016,-2.518630027770996
1788862274572715800,3.6777158203125,-1.1482963562011719,0.7637714743614197,-2.5522868633270264
1788862274582722800,3.687722900390625,-1.2463041543960571,1.0698490142822266,-2.5461490154266357
1788862274592728800,3.697728759765625,-1.345803141593933,1.0110087394714355,-2.4780924320220947
1788862274602735900,3.70773583984375,-1.322640299797058,1.1538567543029785,-2.3382279872894287
1788862274612742000,3.717741943359375,-1.1951171159744263,1.1736747026443481,-2.149606466293335
1788862274622748000,3.727747802734375,-1.0913255214691162,1.1167550086975098,-2.021770477294922
1788862274632754700,3.737754638671875,-1.0216313600540161,1.0974705219268799,-1.987675666809082
1788862274642760700,3.7477607421875,-0.9614077210426331,1.2271409034729004,-1.9562631845474243
1788862274652768000,3.75776806640625,-0.9805490970611572,1.4043855667114258,-1.8996288776397705
1788862274662773800,3.767773681640625,-1.0579010248184204,1.688202142715454,-1.8413336277008057
1788862274672779800,3.77777978515625,-1.0156663656234741,1.8744657039642334,-1.8000086545944214
1788862274682786800,3.787786865234375,-0.8890455365180969,1.8916513919830322,-1.6502453088760376
1788862274692792800,3.797792724609375,-0.7796716094017029,1.8540395498275757,-1.5408871173858643
1788862274702800000,3.8077998046875,-0.7670156955718994,1.8061641454696655,-1.5866458415985107
1788862274712805600,3.8178056640625,-0.8563429117202759,1.8126391172409058,-1.657657504081726
1788862274722812000,3.82781201171875,-0.9772040843963623,1.9872362613677979,-1.6435558795928955
1788862274732819000,3.83781884765625,-1.0749579668045044,2.112109661102295,-1.603712558746338
1788862274742824700,3.84782470703125,-1.142510175704956,2.1398913860321045,-1.6332396268844604
1788862274752832000,3.85783203125,-1.239877462387085,2.207073211669922,-1.646377682685852
1788862274762837800,3.867837646484375,-1.3914566040039062,2.0826845169067383,-1.6009232997894287
1788862274772843800,3.87784375,-1.5914899110794067,1.8174211978912354,-1.4522839784622192
1788862274782850800,3.887850830078125,-1.781175136566162,1.6011755466461182,-1.2825372219085693
1788862274792856800,3.89785693359375,-1.8935245275497437,1.4330358505249023,-1.1997078657150269
1788862274802863900,3.90786376953125,-1.9442044496536255,1.3882620334625244,-1.1105142831802368
1788862274812870000,3.917869873046875,-2.007560968399048,1.418367862701416,-1.0877373218536377
1788862274822875600,3.927875732421875,-2.105363368988037,1.5717214345932007,-1.1318917274475098
1788862274832883000,3.937883056640625,-2.190810441970825,1.7661232948303223,-1.1593546867370605
1788862274842889000,3.947888916015625,-2.1917991638183594,1.8402726650238037,-1.2043653726577759
1788862274852895700,3.957895751953125,-2.077122926712036,1.8126838207244873,-1.2267104387283325
1788862274862902000,3.967902099609375,-1.9630378484725952,1.6303571462631226,-1.2825231552124023
1788862274872907800,3.97790771484375,-1.8427132368087769,1.4816327095031738,-1.3141981363296509
1788862274882914800,3.987914794921875,-1.6901023387908936,1.442039966583252,-1.228571891784668
1788862274892920800,3.9979208984375,-1.5431103706359863,1.5516456365585327,-1.0343126058578491
1788862274902928000,4.007927978515625,-1.40946626663208,1.725486397743225,-0.8279925584793091
1788862274912934000,4.017933837890625,-1.3132452964782715,1.8948919773101807,-0.7243137359619141
1788862274922940000,4.02793994140625,-1.2094662189483643,1.997032880783081,-0.7247779369354248
1788862274932947000,4.037947021484375,-1.0457947254180908,1.8762972354888916,-0.7306756377220154
1788862274942953000,4.047952880859375,-0.8786142468452454,1.703762173652649,-0.6704192161560059
1788862274952959700,4.057959716796875,-0.7461984157562256,1.466164231300354,-0.5473554134368896
1788862274962966000,4.067966064453125,-0.6849544644355774,1.3742969036102295,-0.4625137746334076
1788862274972972000,4.077971923828125,-0.6918708086013794,1.312620997428894,-0.4115903675556183
1788862274982978800,4.087978759765625,-0.6999337673187256,1.5010713338851929,-0.36490195989608765
1788862274992984800,4.09798486328125,-0.6955310106277466,1.603043556213379,-0.3380378484725952
1788862275002991900,4.107991943359375,-0.6777142286300659,1.6432349681854248,-0.28508859872817993
1788862275012998000,4.117997802734375,-0.7211077809333801,1.7111585140228271,-0.24926556646823883
1788862275023004000,4.12800390625,-0.8219808340072632,1.7083585262298584,-0.27919337153434753
1788862275033011000,4.138010986328125,-0.8838751912117004,1.7259228229522705,-0.4035854637622833
1788862275043017000,4.148016845703125,-0.9178547263145447,1.7677720785140991,-0.5221683382987976
1788862275053023700,4.158023681640625,-0.9816551804542542,1.8156352043151855,-0.5761440396308899
1788862275063029800,4.16802978515625,-1.0417166948318481,1.846466064453125,-0.5118188261985779
1788862275073036000,4.1780361328125,-1.0722275972366333,1.7528975009918213,-0.4019688367843628
1788862275083042800,4.188042724609375,-1.1107641458511353,1.730969786643982,-0.3584141731262207
1788862275093048800,4.198048828125,-1.204435110092163,1.7441835403442383,-0.3656585216522217
1788862275103056000,4.208055908203125,-1.2229623794555664,1.8069610595703125,-0.3940768241882324
1788862275113062000,4.218061767578125,-1.2354698181152344,1.9428722858428955,-0.36988604068756104
1788862275123068000,4.22806787109375,-1.2652844190597534,2.005795955657959,-0.25957629084587097
1788862275133074700,4.23807470703125,-1.301053762435913,2.129715919494629,-0.05872385576367378
1788862275143081000,4.2480810546875,-1.3435519933700562,2.1559743881225586,0.12020035833120346
1788862275153087700,4.258087646484375,-1.3498204946517944,1.8859919309616089,0.13281038403511047
1788862275163093800,4.26809375,-1.31920325756073,1.3843759298324585,0.13203594088554382
1788862275173099800,4.278099853515625,-1.2481138706207275,0.8513643145561218,0.15438637137413025
1788862275183106800,4.28810693359375,-1.1534640789031982,0.4740191698074341,0.1167476549744606
1788862275193112800,4.29811279296875,-1.0782173871994019,0.3572736084461212,0.058729156851768494
1788862275203119900,4.308119873046875,-1.0626795291900635,0.4070456922054291,0.035976704210042953
1788862275213126000,4.3181259765625,-1.0435540676116943,0.5334008932113647,0.08597627282142639
1788862275223132000,4.3281318359375,-0.9793177247047424,0.5137643218040466,0.16885145008563995
1788862275233138700,4.338138671875,-0.8669394254684448,0.4784279763698578,0.19142445921897888
1788862275243144700,4.348144775390625,-0.7048157453536987,0.42378389835357666,0.140553817152977
1788862275253152000,4.358152099609375,-0.5044170022010803,0.4556269943714142,0.08176901191473007
1788862275263157800,4.36815771484375,-0.38251110911369324,0.46781203150749207,0.06990435719490051
1788862275273163800,4.378163818359375,-0.3261151611804962,0.41160064935684204,0.11205267906188965
1788862275283170800,4.3881708984375,-0.25606390833854675,0.2491033673286438,0.17606203258037567
1788862275293176800,4.3981767578125,-0.19193953275680542,0.18220645189285278,0.2558300495147705
1788862275303184000,4.408183837890625,-0.17386387288570404,0.36263030767440796,0.3748808205127716
1788862275313189600,4.418189697265625,-0.21238158643245697,0.6190516948699951,0.4617951512336731
1788862275323196000,4.42819580078125,-0.23454362154006958,0.6388162970542908,0.41541406512260437
1788862275333203000,4.438202880859375,-0.16137298941612244,0.4269891083240509,0.29686108231544495
1788862275343208700,4.448208740234375,-0.03959489241242409,0.21951021254062653,0.16683250665664673
1788862275353216000,4.458216064453125,0.03781300038099289,0.04530429467558861,0.041314370930194855
1788862275363221800,4.4682216796875,0.06953364610671997,0.10634980350732803,-0.013085218146443367
1788862275373228800,4.478228759765625,0.08481646329164505,0.11111416667699814,0.055663738399744034
1788862275383234800,4.48823486328125,0.11638211458921432,0.10261441767215729,0.1414276510477066
1788862275393240800,4.49824072265625,0.1262112706899643,0.17936253547668457,0.23391465842723846
1788862275403247900,4.508247802734375,0.09501047432422638,0.3962937891483307,0.298675537109375
1788862275413254000,4.51825390625,0.09364191442728043,0.5535938739776611,0.2866109609603882
1788862275423261000,4.528260986328125,0.11403533816337585,0.4534415006637573,0.23774808645248413
1788862275433267000,4.538266845703125,0.16438129544258118,0.2555275857448578,0.13269774615764618
1788862275443272700,4.548272705078125,0.23495399951934814,0.1560918092727661,-0.01271617878228426
1788862275453279700,4.55827978515625,0.2780841886997223,0.25673213601112366,-0.08998026698827744
1788862275463286000,4.5682861328125,0.23753038048744202,0.25815531611442566,-0.047852255403995514
1788862275473292800,4.578292724609375,0.14097267389297485,0.30660727620124817,0.02733437716960907
1788862275483298600,4.588298583984375,0.03716079145669937,0.1763658970594406,0.08422376215457916
1788862275493304600,4.5983046875,-0.008226471953094006,-0.022494714707136154,0.11415647715330124
1788862275503311400,4.608311279296875,-0.009492006152868271,-0.137090265750885,0.09499742835760117
1788862275513317600,4.618317626953125,-0.015657642856240273,-0.12325455993413925,0.04743095487356186
1788862275523324400,4.628324462890625,-0.052561864256858826,-0.11158085614442825,0.00004346668720245361
1788862275533330400,4.638330322265625,-0.1024155542254448,-0.13980403542518616,-0.04221582040190697
1788862275543337500,4.64833740234375,-0.14008063077926636,-0.07854387164115906,-0.08218400925397873
1788862275553343500,4.658343505859375,-0.15645045042037964,0.08192199468612671,-0.11823738366365433
1788862275563349500,4.668349609375,-0.20752614736557007,0.16429781913757324,-0.15747933089733124
1788862275573356300,4.678356201171875,-0.2735915184020996,0.08435213565826416,-0.17905880510807037
1788862275583362600,4.688362548828125,-0.3085036873817444,-0.026472382247447968,-0.16725674271583557
1788862275593369600,4.69836962890625,-0.2907111942768097,-0.11996713280677795,-0.1674685925245285
1788862275603375400,4.708375244140625,-0.2270675152540207,-0.25056400895118713,-0.166982039809227
1788862275613381400,4.71838134765625,-0.1731940060853958,-0.36384591460227966,-0.17834627628326416
1788862275623388400,4.728388427734375,-0.16028860211372375,-0.3824768662452698,-0.1958317905664444
1788862275633394400,4.73839453125,-0.17575699090957642,-0.3031125068664551,-0.20737224817276
1788862275643401500,4.7484013671875,-0.18209558725357056,-0.20322373509407043,-0.19996465742588043
1788862275653407500,4.758407470703125,-0.1913752555847168,-0.14784175157546997,-0.17969699203968048
1788862275663413500,4.76841357421875,-0.21674293279647827,-0.11489685624837875,-0.15146136283874512
1788862275673420500,4.778420654296875,-0.2396189421415329,-0.0685194656252861,-0.10691172629594803
1788862275683426300,4.78842626953125,-0.2520442008972168,-0.1633024364709854,-0.0995321050286293
1788862275693433600,4.79843359375,-0.24838726222515106,-0.27822092175483704,-0.1820780336856842
1788862275703439400,4.808439453125,-0.2583746314048767,-0.23332001268863678,-0.28924816846847534
1788862275713446400,4.8184462890625,-0.2949348986148834,-0.13525880873203278,-0.3716527819633484
1788862275723452700,4.82845263671875,-0.3054777979850769,-0.04365060478448868,-0.430372029542923
1788862275733458400,4.83845849609375,-0.29208904504776,-0.024969063699245453,-0.43831223249435425
1788862275743465500,4.848465576171875,-0.28229525685310364,0.014060094952583313,-0.4132191240787506
1788862275753471500,4.858471435546875,-0.2855028212070465,0.0224190354347229,-0.3751727044582367
1788862275763478500,4.868478515625,-0.28976017236709595,0.00392684293910861,-0.36112135648727417
1788862275773484500,4.878484619140625,-0.2943657636642456,0.010433739051222801,-0.37125271558761597
1788862275783490300,4.888490234375,-0.2863970696926117,0.011098731309175491,-0.372107595205307
1788862275793497600,4.89849755859375,-0.2800712585449219,-0.06066098064184189,-0.3689326047897339
1788862275803503600,4.908503662109375,-0.25212085247039795,-0.15837475657463074,-0.39083391427993774
1788862275813510400,4.918510498046875,-0.21298174560070038,-0.1869712769985199,-0.4358624517917633
1788862275823516400,4.928516357421875,-0.19370977580547333,-0.20093902945518494,-0.4879549443721771
1788862275833523500,4.9385234375,-0.18165996670722961,-0.25615665316581726,-0.5200825929641724
1788862275843529500,4.948529541015625,-0.17256394028663635,-0.3122801184654236,-0.5345706939697266
1788862275853535500,4.958535400390625,-0.20124275982379913,-0.38019484281539917,-0.5512445569038391
1788862275863542500,4.96854248046875,-0.21831494569778442,-0.4763738512992859,-0.529364824295044
1788862275873548500,4.978548583984375,-0.2243529111146927,-0.6034712791442871,-0.4933411777019501
1788862275883555300,4.988555419921875,-0.1278303563594818,-0.48971542716026306,-0.46632954478263855
1788862275893561300,4.998561279296875,-0.04227559268474579,-0.5342786312103271,-0.4818311631679535
1788862275903568400,5.008568359375,0.034578707069158554,-0.5778972506523132,-0.5125033259391785
1788862275913574400,5.018574462890625,0.09972483664751053,-0.6490809917449951,-0.5310835838317871
1788862275923580400,5.028580322265625,0.1457085758447647,-0.714465320110321,-0.5327240824699402
1788862275933587500,5.03858740234375,0.17371684312820435,-0.7665166258811951,-0.5580673813819885
1788862275943593500,5.048593505859375,0.18932537734508514,-0.8040131330490112,-0.6021608114242554
1788862275953600500,5.0586005859375,0.2320682257413864,-0.6863242983818054,-0.6569762825965881
1788862275963606300,5.068606201171875,0.3293910622596741,-0.3523588478565216,-0.6811748147010803
1788862275973612500,5.078612548828125,0.37680956721305847,-0.2312622219324112,-0.652875542640686
1788862275983619300,5.088619384765625,0.3554810881614685,-0.3593546748161316,-0.5823819637298584
1788862275993625300,5.098625244140625,0.37568584084510803,-0.42033708095550537,-0.5766065716743469
1788862276003632600,5.108632568359375,0.42303258180618286,-0.43619513511657715,-0.662889838218689
1788862276013638400,5.118638427734375,0.4382674992084503,-0.38697218894958496,-0.7153915762901306
1788862276023645400,5.1286455078125,0.44978567957878113,-0.17348040640354156,-0.7416777610778809
1788862276033651700,5.138651611328125,0.3978637754917145,-0.0541902557015419,-0.8004994988441467
1788862276043657500,5.148657470703125,0.36741504073143005,-0.10041527450084686,-0.8232541084289551
1788862276053664500,5.15866455078125,0.3890598714351654,-0.2941732704639435,-0.841705858707428
1788862276063670300,5.168670166015625,0.4368036687374115,-0.3821566700935364,-0.8759660720825195
1788862276073677600,5.178677490234375,0.44352108240127563,-0.20491661131381989,-0.8685494661331177
1788862276083683600,5.18868359375,0.3633793890476227,-0.1195995956659317,-0.830411434173584
1788862276093690400,5.1986904296875,0.2966151535511017,-0.12562133371829987,-0.7741955518722534
1788862276103696600,5.208696533203125,0.2874823808670044,-0.18933239579200745,-0.784766674041748
1788862276113702700,5.21870263671875,0.30640414357185364,-0.2017969936132431,-0.8126408457756042
1788862276123709400,5.22870947265625,0.30033454298973083,-0.1785193681716919,-0.8112360239028931
1788862276133715500,5.238715576171875,0.30129286646842957,-0.1911773830652237,-0.7626035809516907
1788862276143722500,5.248722412109375,0.330208420753479,-0.256963849067688,-0.6887394785881042
1788862276153728500,5.258728515625,0.3621416985988617,-0.30008465051651,-0.6263487935066223
1788862276163735300,5.2687353515625,0.3583965003490448,-0.26979678869247437,-0.6064041256904602
1788862276173741600,5.278741455078125,0.342871755361557,-0.1649724841117859,-0.5752038955688477
1788862276183747600,5.28874755859375,0.34420040249824524,-0.13666760921478271,-0.5531347990036011
1788862276193754400,5.29875439453125,0.32461363077163696,-0.1869184523820877,-0.5597007870674133
1788862276203760400,5.308760498046875,0.28927376866340637,-0.226907417178154,-0.5310574173927307
1788862276213767400,5.318767333984375,0.23319977521896362,-0.1866457313299179,-0.4347667098045349
1788862276223773400,5.3287734375,0.19309070706367493,-0.1316509246826172,-0.35731321573257446
1788862276233779500,5.338779541015625,0.17548252642154694,-0.1362651288509369,-0.32789623737335205
1788862276243786500,5.348786376953125,0.1679479032754898,-0.13619668781757355,-0.2918072044849396
1788862276253792500,5.35879248046875,0.21780315041542053,-0.039238426834344864,-0.24899834394454956
1788862276263799600,5.368799560546875,0.2281218320131302,-0.02441953495144844,-0.1862872838973999
1788862276273805300,5.378805419921875,0.17706896364688873,-0.025058720260858536,-0.042034123092889786
1788862276283812600,5.3888125,0.18227864801883698,0.10007096827030182,0.04051854461431503
1788862276293818400,5.398818359375,0.19767604768276215,0.1259034276008606,0.05348937585949898
1788862276303824400,5.408824462890625,0.21316446363925934,0.04191318899393082,0.02528943121433258
1788862276313831700,5.418831787109375,0.21824036538600922,-0.052319563925266266,0.009987559169530869
1788862276323837400,5.42883740234375,0.20875605940818787,0.08071545511484146,0.023439185693860054
1788862276333844500,5.438844482421875,0.2009652853012085,0.32279619574546814,0.040413688868284225
1788862276343850500,5.4488505859375,0.16931948065757751,0.4005439877510071,0.04002220556139946
1788862276353857500,5.458857421875,0.10437547415494919,0.3532923758029938,0.048256948590278625
1788862276363863600,5.468863525390625,0.04547301307320595,0.3155476450920105,0.11625011265277863
1788862276373869300,5.478869384765625,0.035893090069293976,0.417773574590683,0.20250748097896576
1788862276383876600,5.488876708984375,0.04735000804066658,0.5192466974258423,0.22756969928741455
1788862276393882600,5.498882568359375,0.033215586096048355,0.47332310676574707,0.1941377818584442
1788862276403889400,5.508889404296875,-0.009612570516765118,0.3870526850223541,0.17002950608730316
1788862276413895400,5.5188955078125,-0.0339120551943779,0.4213061034679413,0.20029984414577484
1788862276423902500,5.52890234375,-0.02164713479578495,0.5152978897094727,0.2958385944366455
1788862276433908500,5.538908447265625,-0.06978730112314224,0.44784629344940186,0.39149224758148193
1788862276443914500,5.54891455078125,-0.1760072112083435,0.3876953125,0.4679819643497467
1788862276453921500,5.558921630859375,-0.2241373211145401,0.4328750669956207,0.5472944378852844
1788862276463927600,5.568927490234375,-0.26673510670661926,0.5248270630836487,0.6002391576766968
1788862276473934300,5.578934326171875,-0.33343297243118286,0.5814771056175232,0.5902996063232422
1788862276483940600,5.588940673828125,-0.42456579208374023,0.5551594495773315,0.5669194459915161
1788862276493947600,5.59894775390625,-0.5176352262496948,0.5144384503364563,0.5974852442741394
1788862276503953700,5.60895361328125,-0.5819082260131836,0.5760810375213623,0.6567515134811401
1788862276513959700,5.618959716796875,-0.6281651854515076,0.6738918423652649,0.6999335885047913
1788862276523966500,5.628966552734375,-0.6639865636825562,0.686570405960083,0.7292160987854004
1788862276533972700,5.63897265625,-0.6852637529373169,0.6215603947639465,0.7293959259986877
1788862276543979500,5.6489794921875,-0.697955846786499,0.4962248206138611,0.7194743156433105
1788862276553985500,5.658985595703125,-0.7050160765647888,0.4061366617679596,0.7288246750831604
1788862276563992800,5.668992919921875,-0.728684663772583,0.41439563035964966,0.7836785912513733
1788862276573998600,5.67899853515625,-0.7741615772247314,0.46057143807411194,0.878094494342804
1788862276584004600,5.689004638671875,-0.8277925848960876,0.5057163238525391,0.9769590497016907
1788862276594011600,5.69901171875,-0.8671256303787231,0.5176796913146973,1.0398236513137817
1788862276604017700,5.709017578125,-0.8673900365829468,0.49115246534347534,1.0648351907730103
1788862276614024700,5.719024658203125,-0.8293960690498352,0.48519366979599,1.1280205249786377
1788862276624030500,5.729030517578125,-0.7714046239852905,0.601891815662384,1.247009515762329
1788862276634037800,5.739037841796875,-0.71352219581604,0.8300905227661133,1.3769053220748901
1788862276644043800,5.749043701171875,-0.6657988429069519,0.9121893644332886,1.4346956014633179
1788862276654050600,5.759050537109375,-0.6339280605316162,0.7640228867530823,1.43013334274292
1788862276664056600,5.769056640625,-0.5353833436965942,0.5512895584106445,1.435194969177246
1788862276674062800,5.779062744140625,-0.4128425121307373,0.4434201419353485,1.4872677326202393
1788862276684069600,5.789069580078125,-0.36578524112701416,0.4973587393760681,1.5604839324951172
1788862276694075600,5.79907568359375,-0.3938443064689636,0.583065927028656,1.6027051210403442
1788862276704082700,5.809082763671875,-0.4373747408390045,0.584193766117096,1.648600697517395
1788862276714088700,5.819088623046875,-0.46008965373039246,0.5181615352630615,1.7032064199447632
1788862276724095500,5.829095458984375,-0.44786518812179565,0.4947142004966736,1.7653627395629883
1788862276734101500,5.8391015625,-0.44340085983276367,0.5765020847320557,1.8032310009002686
1788862276744107800,5.849107666015625,-0.482827365398407,0.6914837956428528,1.8372819423675537
1788862276754114600,5.859114501953125,-0.5363279581069946,0.7891528010368347,1.936184048652649
1788862276764120600,5.86912060546875,-0.5060926079750061,0.7965851426124573,2.0498576164245605
1788862276774127600,5.879127685546875,-0.45080330967903137,0.7150487899780273,2.058788537979126
1788862276784133600,5.889133544921875,-0.3987813889980316,0.567052960395813,1.9607181549072266
1788862276794140700,5.899140625,-0.25997838377952576,0.5119147896766663,1.8912842273712158
1788862276804146400,5.909146484375,-0.07860541343688965,0.4422896206378937,1.8594205379486084
1788862276814153700,5.91915380859375,0.0255424827337265,0.5713779330253601,1.8318473100662231
1788862276824159700,5.92915966796875,-0.003281442914158106,0.562052845954895,1.720670461654663
1788862276834165500,5.93916552734375,-0.004391105379909277,0.016300812363624573,1.606424331665039
1788862276844172800,5.9491728515625,0.11622799187898636,-0.4105932414531708,1.5992069244384766
1788862276854178600,5.959178466796875,0.3175314664840698,-0.3340294659137726,1.6008893251419067
1788862276864185600,5.969185546875,0.36413997411727905,0.057962287217378616,1.4904307126998901
1788862276874191600,5.979191650390625,0.2799215316772461,0.06539078801870346,1.3266741037368774
1788862276884198700,5.98919873046875,0.3127883970737457,-0.20962879061698914,1.302959680557251
1788862276894204700,5.99920458984375,0.40982943773269653,-0.48781618475914,1.36785888671875
1788862276904210700,6.009210693359375,0.4666264057159424,-0.7276530265808105,1.3752825260162354
1788862276914217700,6.0192177734375,0.4958794414997101,-0.7991108894348145,1.3217579126358032
1788862276924223700,6.0292236328125,0.4500560462474823,-0.7731804847717285,1.26228928565979
1788862276934230500,6.03923046875,0.3194766342639923,-0.8399941325187683,1.2708418369293213
1788862276944236800,6.04923681640625,0.16452540457248688,-1.0470117330551147,1.3645586967468262
1788862276954243600,6.05924365234375,0.05557269975543022,-1.233174443244934,1.4434608221054077
1788862276964249600,6.06924951171875,0.0642668604850769,-1.261492371559143,1.4128608703613281
1788862276974256600,6.079256591796875,0.06343287229537964,-1.1306158304214478,1.346268653869629
1788862276984262700,6.0892626953125,-0.02441389299929142,-0.8421273231506348,1.3470282554626465
1788862276994268700,6.0992685546875,-0.18489225208759308,-0.5540300607681274,1.4012664556503296
1788862277004275500,6.109275390625,-0.31116655468940735,-0.38739100098609924,1.405408263206482
1788862277014281700,6.11928173828125,-0.32319992780685425,-0.4850112199783325,1.3296189308166504
1788862277024288800,6.129288818359375,-0.256613165140152,-0.7563948035240173,1.1931880712509155
1788862277034294500,6.13929443359375,-0.14361439645290375,-0.9977524280548096,1.0258055925369263
1788862277044301800,6.1493017578125,-0.027021732181310654,-1.0998539924621582,0.889401912689209
1788862277054307600,6.1593076171875,0.08727488666772842,-0.7371025681495667,0.7605777382850647
1788862277064314600,6.169314697265625,0.205705925822258,-0.3098207414150238,0.6413426995277405
1788862277074320600,6.179320556640625,0.29033514857292175,-0.19361378252506256,0.5241517424583435
1788862277084326700,6.18932666015625,0.36446690559387207,-0.15416491031646729,0.3729470372200012
1788862277094333700,6.199333740234375,0.4257740080356598,-0.08417867124080658,0.2024233639240265
1788862277104339700,6.209339599609375,0.46927034854888916,0.2217133343219757,0.03918357193470001
1788862277114346800,6.2193466796875,0.46387216448783875,0.6327086687088013,-0.10935414582490921
1788862277124352800,6.229352783203125,0.4584939181804657,0.8890725374221802,-0.2214929312467575
1788862277134359600,6.239359619140625,0.44951382279396057,0.8558109998703003,-0.30873048305511475
1788862277144365600,6.249365478515625,0.44608286023139954,0.7874758839607239,-0.42273321747779846
1788862277154372600,6.25937255859375,0.40373721718788147,0.6082667112350464,-0.5182433128356934
1788862277164378600,6.269378662109375,0.31194445490837097,0.4144868552684784,-0.5917372107505798
1788862277174384600,6.279384521484375,0.26370111107826233,0.4471907615661621,-0.6944575905799866
1788862277184391700,6.2893916015625,0.23901891708374023,0.6911270022392273,-0.8366573452949524
1788862277194397700,6.299397705078125,0.13530264794826508,0.8952955007553101,-0.9997783899307251
1788862277204404500,6.309404541015625,-0.042825277894735336,0.645446240901947,-1.0893926620483398
1788862277214410500,6.319410400390625,-0.18597939610481262,0.2378031611442566,-1.0324722528457642
1788862277224417800,6.329417724609375,-0.26344409584999084,-0.02791479602456093,-0.7886037826538086
1788862277234423600,6.339423583984375,-0.26366060972213745,-0.10369881242513657,-0.4806297719478607
1788862277244430600,6.3494306640625,-0.22805467247962952,-0.11613177508115768,-0.36830827593803406
1788862277254436600,6.3594365234375,-0.2048095017671585,-0.3889795243740082,-0.4957364499568939
1788862277264442600,6.369442626953125,-0.18254122138023376,-0.391790509223938,-0.6221910715103149
1788862277274449700,6.37944970703125,-0.13804911077022552,0.038457028567790985,-0.7780663967132568
1788862277284455400,6.389455322265625,-0.1190427765250206,0.7471598982810974,-1.0712569952011108
1788862277294462700,6.399462646484375,-0.1855493038892746,1.1021478176116943,-1.3764103651046753
1788862277304468700,6.40946875,-0.32257211208343506,1.00617253780365,-1.515106439590454
1788862277314475500,6.4194755859375,-0.41235727071762085,0.7572566270828247,-1.4714076519012451
1788862277324481800,6.429481689453125,-0.5171723961830139,0.17254874110221863,-1.322195291519165
1788862277334488600,6.439488525390625,-0.5450689792633057,-0.6424546837806702,-1.0872982740402222
1788862277344494600,6.44949462890625,-0.41558152437210083,-1.321216106414795,-0.8429226875305176
1788862277354500600,6.45950048828125,-0.23899640142917633,-1.719054937362671,-0.6492219567298889
1788862277364507600,6.469507568359375,-0.12230066955089569,-1.894700288772583,-0.524520754814148
1788862277374513700,6.479513671875,-0.1583637148141861,-1.9623825550079346,-0.41278406977653503
1788862277384520400,6.4895205078125,-0.3608286678791046,-1.8112308979034424,-0.41263118386268616
1788862277394526700,6.499526611328125,-0.6280897855758667,-1.2013741731643677,-0.5649879574775696
1788862277404533500,6.509533447265625,-0.7946449518203735,-0.3134725093841553,-0.6872991919517517
1788862277414539500,6.51953955078125,-0.8191803693771362,0.20688572525978088,-0.6466073393821716
1788862277424546800,6.529546875,-0.8076800107955933,-0.00883963331580162,-0.4207286834716797
1788862277434552600,6.539552490234375,-0.7976069450378418,-0.4140869677066803,-0.13734111189842224
1788862277444558600,6.54955859375,-0.8028267621994019,-0.4968915581703186,0.08774446696043015
1788862277454565600,6.559565673828125,-0.8814637064933777,-0.5247260928153992,0.22007174789905548
1788862277464571600,6.569571533203125,-0.9223951697349548,-0.516290009021759,0.2129019945859909
1788862277474578700,6.57957861328125,-0.9088786840438843,-0.7738412618637085,0.12388129532337189
1788862277484584700,6.589584716796875,-0.8585973978042603,-1.1710954904556274,0.0004110238514840603
1788862277494591700,6.599591796875,-0.7749885320663452,-1.3779046535491943,-0.1683540642261505
1788862277504597800,6.60959765625,-0.7127771377563477,-1.3098663091659546,-0.34528622031211853
1788862277514604800,6.619604736328125,-0.6745132207870483,-1.1201255321502686,-0.49872922897338867
1788862277524610800,6.62961083984375,-0.6292243003845215,-0.9207554459571838,-0.6308955550193787
1788862277534616800,6.639616943359375,-0.5433615446090698,-0.8216659426689148,-0.7401922345161438
1788862277544623600,6.64962353515625,-0.46425238251686096,-0.834191620349884,-0.8002614378929138
1788862277554630000,6.6596298828125,-0.4258354604244232,-0.8199524283409119,-0.7994810342788696
1788862277564636700,6.66963671875,-0.4253464937210083,-0.8367271423339844,-0.7844855785369873
1788862277574642700,6.679642578125,-0.4495472311973572,-0.8955819606781006,-0.7853800058364868
1788862277584649700,6.689649658203125,-0.4837326407432556,-0.8840400576591492,-0.7963365316390991
1788862277594655700,6.69965576171875,-0.5209908485412598,-0.7960814833641052,-0.8091110587120056
1788862277604662800,6.709662841796875,-0.5895470380783081,-0.755014955997467,-0.820889949798584
1788862277614668500,6.71966845703125,-0.6767460703849792,-0.8872313499450684,-0.8374952673912048
1788862277624674800,6.7296748046875,-0.6923159956932068,-1.0117943286895752,-0.7975190877914429
1788862277634681600,6.739681640625,-0.6501287817955017,-1.0115841627120972,-0.7224379777908325
1788862277644687600,6.7496875,-0.5730774402618408,-0.9267768263816833,-0.7448921203613281
1788862277654695000,6.75969482421875,-0.4713785946369171,-0.7600463032722473,-0.8529326319694519
1788862277664700700,6.76970068359375,-0.36316394805908203,-0.6357304453849792,-0.9785685539245605
1788862277674707700,6.779707763671875,-0.24185913801193237,-0.6993400454521179,-1.0802183151245117
1788862277684713700,6.789713623046875,-0.09223475307226181,-0.8240694999694824,-1.1580853462219238
1788862277694720800,6.799720703125,0.05964813381433487,-0.8765337467193604,-1.1726536750793457
1788862277704726800,6.809726806640625,0.16696526110172272,-0.9139482378959656,-1.079990267753601
1788862277714733800,6.81973388671875,0.20479105412960052,-0.9650635719299316,-0.9102489352226257
1788862277724739800,6.82973974609375,0.191400945186615,-0.9713824391365051,-0.7579148411750793
1788862277734745900,6.839745849609375,0.18091174960136414,-1.0882569551467896,-0.6891888976097107
1788862277744752600,6.849752685546875,0.20122581720352173,-1.2928513288497925,-0.7246227860450745
1788862277754759000,6.859759033203125,0.22826477885246277,-1.47202467918396,-0.8288618326187134
1788862277764765700,6.869765625,0.2487516701221466,-1.594407081604004,-0.9295561909675598
1788862277774771700,6.879771728515625,0.24530643224716187,-1.5147870779037476,-0.9691534042358398
1788862277784778800,6.88977880859375,0.18828469514846802,-1.3271719217300415,-0.9561066031455994
1788862277794784800,6.89978466796875,0.08882051706314087,-1.324939489364624,-0.8953653573989868
1788862277804791800,6.909791748046875,0.010943558067083359,-1.4161772727966309,-0.818244993686676
1788862277814797600,6.919797607421875,-0.03165882080793381,-1.4773420095443726,-0.787904679775238
1788862277824803800,6.929803955078125,-0.03544077277183533,-1.6887431144714355,-0.8609421253204346
1788862277834810600,6.939810546875,-0.009072941727936268,-1.9787319898605347,-0.9829124212265015
1788862277844816600,6.949816650390625,0.010246161371469498,-2.118267059326172,-1.0643023252487183
1788862277854824000,6.959823974609375,-0.010881761088967323,-2.0173232555389404,-1.1498850584030151
1788862277864829700,6.96982958984375,-0.06008339673280716,-2.0572824478149414,-1.2605884075164795
1788862277874836700,6.979836669921875,-0.15165242552757263,-2.1981475353240967,-1.3530699014663696
1788862277884842800,6.9898427734375,-0.29681307077407837,-2.0672860145568848,-1.4622666835784912
1788862277894849800,6.999849853515625,-0.4050995111465454,-1.779632806777954,-1.6446579694747925
1788862277904855800,7.009855712890625,-0.4716798663139343,-1.618308424949646,-1.9028205871582031
1788862277914861600,7.019861572265625,-0.593967854976654,-1.5148850679397583,-2.0615029335021973
1788862277924868900,7.029868896484375,-0.7361359000205994,-1.4684216976165771,-2.1453237533569336
1788862277934875000,7.039875,-0.8476566076278687,-1.3421870470046997,-2.2349371910095215
1788862277944881700,7.049881591796875,-0.8352686166763306,-1.056069254875183,-2.2206828594207764
1788862277954887700,7.0598876953125,-0.7158600091934204,-0.8702789545059204,-2.1421165466308594
1788862277964894700,7.069894775390625,-0.6404872536659241,-0.6209183931350708,-2.2052624225616455
1788862277974900700,7.079900634765625,-0.6157546043395996,-0.7422354817390442,-2.3761730194091797
1788862277984907500,7.089907470703125,-0.5791239142417908,-0.8299914002418518,-2.407494068145752
1788862277994913800,7.099913818359375,-0.594045102596283,-0.6314544677734375,-2.347299814224243
1788862278004920800,7.1099208984375,-0.639388918876648,0.018434852361679077,-2.24747371673584
1788862278014926600,7.119926513671875,-0.602832019329071,0.8714114427566528,-2.2098228931427
1788862278024932600,7.1299326171875,-0.5219965577125549,0.9117822647094727,-2.175748348236084
1788862278034939600,7.139939697265625,-0.6054067015647888,0.3702845573425293,-2.0293445587158203
1788862278044945700,7.149945556640625,-0.8268973231315613,-0.011976277455687523,-1.7567343711853027
1788862278054952700,7.15995263671875,-1.1436474323272705,-0.07957679778337479,-1.490561842918396
1788862278064958700,7.169958740234375,-1.2824934720993042,0.26965445280075073,-1.298607587814331
1788862278074965800,7.1799658203125,-1.0420883893966675,1.370025396347046,-1.1377348899841309
1788862278084971800,7.1899716796875,-0.6525099873542786,2.248244285583496,-1.0852959156036377
1788862278094978800,7.199978759765625,-0.4270685017108917,2.209059476852417,-1.050647497177124
1788862278104984800,7.20998486328125,-0.5471379160881042,1.4606389999389648,-0.7675297260284424
1788862278114990600,7.219990478515625,-0.799212634563446,0.8652120232582092,-0.3569302558898926
1788862278124997600,7.22999755859375,-0.9996604919433594,0.6952338814735413,0.020647112280130386
1788862278135004000,7.24000390625,-1.1730756759643555,0.8652150630950928,0.2554813027381897
1788862278145010700,7.2500107421875,-1.247252106666565,1.3576629161834717,0.3609597980976105
1788862278155016700,7.2600166015625,-1.2406408786773682,1.5394631624221802,0.4202238917350769
1788862278165023700,7.270023681640625,-1.221222996711731,1.2813680171966553,0.6528797745704651
1788862278175029800,7.28002978515625,-1.2583649158477783,0.9487650394439697,1.0722682476043701
1788862278185036500,7.29003662109375,-1.3663417100906372,1.1868952512741089,1.6146541833877563
1788862278195042600,7.30004248046875,-1.4492133855819702,2.044100761413574,2.155785322189331
1788862278205049900,7.3100498046875,-1.3465538024902344,2.594900131225586,2.2506680488586426
1788862278215055600,7.3200556640625,-1.0179451704025269,2.518298625946045,2.138486862182617
1788862278225061600,7.3300615234375,-0.5231543779373169,1.8219822645187378,2.166181802749634
1788862278235068700,7.340068603515625,-0.0944870114326477,1.4122581481933594,2.3215644359588623
1788862278245074700,7.35007470703125,0.07109049707651138,1.647128939628601,2.485215425491333
1788862278255081700,7.360081787109375,0.06348273903131485,1.5215976238250732,2.26608943939209
1788862278265087500,7.37008740234375,0.14952068030834198,0.8444518446922302,1.7771636247634888
1788862278275094800,7.3800947265625,0.19522276520729065,0.177330881357193,1.4449597597122192
1788862278285100800,7.390100830078125,0.0984908938407898,0.04261328652501106,1.556606650352478
1788862278295107800,7.40010791015625,0.025102932006120682,0.11138859391212463,1.857682228088379
1788862278305113900,7.41011376953125,0.008708512410521507,0.38684919476509094,2.1202261447906494
1788862278315120600,7.42012060546875,0.031336210668087006,0.5759187340736389,2.3224165439605713
1788862278325126700,7.430126708984375,0.09731335937976837,0.5293890237808228,2.4006993770599365
1788862278335133000,7.4401328125,0.1550859659910202,0.39168062806129456,2.3365416526794434
1788862278345139700,7.4501396484375,0.18204088509082794,0.11814627796411514,2.2125754356384277
1788862278355145700,7.460145751953125,0.17446506023406982,-0.25219839811325073,2.178107500076294
1788862278365152800,7.47015283203125,0.14281418919563293,-0.3504439890384674,2.2789466381073
1788862278375158800,7.48015869140625,0.05724108964204788,-0.45810553431510925,2.3769001960754395
1788862278385165600,7.49016552734375,-0.018929846584796906,-0.5335597991943359,2.4916958808898926
1788862278395171600,7.500171630859375,-0.01485220156610012,-0.3983340859413147,2.5617740154266357
1788862278405179000,7.510178955078125,0.0006780214607715607,-0.28425517678260803,2.515130043029785
1788862278415184600,7.5201845703125,-0.030991002917289734,-0.26094555854797363,2.4354870319366455
1788862278425191700,7.530191650390625,-0.09319285303354263,-0.23237809538841248,2.3537967205047607
1788862278435198000,7.540197998046875,-0.1327895075082779,-0.17932918667793274,2.269501209259033
1788862278445203700,7.55020361328125,-0.10541540384292603,0.026606934145092964,2.17386531829834
1788862278455210800,7.560210693359375,-0.05016782507300377,0.2383767068386078,2.0224571228027344
1788862278465216500,7.570216552734375,-0.037984661757946014,0.1912241131067276,1.8075227737426758
1788862278475223800,7.580223876953125,-0.004805088508874178,0.21400655806064606,1.627179741859436
1788862278485229600,7.5902294921875,0.08913552016019821,0.260914146900177,1.556434988975525
1788862278495236400,7.600236328125,0.15905475616455078,0.32967567443847656,1.5570011138916016
1788862278505242600,7.61024267578125,0.18428075313568115,0.44520118832588196,1.5092746019363403
1788862278515249400,7.62024951171875,0.16221047937870026,0.41915225982666016,1.3620967864990234
1788862278525255400,7.63025537109375,0.10027175396680832,0.3476181626319885,1.1400187015533447
1788862278535262500,7.640262451171875,-0.006118482444435358,0.2736571133136749,0.8713718056678772
1788862278545268500,7.6502685546875,-0.09283500164747238,0.21525584161281586,0.6163405776023865
1788862278555274500,7.6602744140625,-0.11837448924779892,0.2675830125808716,0.4041158854961395
1788862278565281300,7.67028125,-0.14543087780475616,0.2743231952190399,0.23777644336223602
1788862278575287600,7.68028759765625,-0.20379266142845154,0.22453361749649048,0.0904763787984848
1788862278585294600,7.690294677734375,-0.27609241008758545,0.21993592381477356,-0.04972226917743683
1788862278595300400,7.70030029296875,-0.2782526910305023,0.2295946627855301,-0.15369513630867004
1788862278605307600,7.7103076171875,-0.21580183506011963,0.1026841253042221,-0.266862690448761
1788862278615313400,7.7203134765625,-0.17506664991378784,-0.1438642144203186,-0.45062217116355896
1788862278625320400,7.730320556640625,-0.1759670525789261,-0.3036440312862396,-0.6389052867889404
1788862278635326500,7.740326416015625,-0.15349367260932922,-0.27993786334991455,-0.7766100764274597
1788862278645333500,7.75033349609375,-0.16554369032382965,-0.42646524310112,-0.8903555274009705
1788862278655339500,7.760339599609375,-0.24890218675136566,-0.5640774369239807,-0.9979979991912842
1788862278665345500,7.770345458984375,-0.3433898091316223,-0.5095998048782349,-1.088626503944397
1788862278675352600,7.7803525390625,-0.3629626929759979,-0.2164245992898941,-1.1337624788284302
1788862278685358600,7.790358642578125,-0.3495672643184662,-0.046807873994112015,-1.1469107866287231
1788862278695365400,7.800365478515625,-0.4465251564979553,-0.3365585207939148,-1.1421505212783813
1788862278705371400,7.810371337890625,-0.5377954244613647,-0.6422856450080872,-1.0852246284484863
1788862278715378400,7.82037841796875,-0.4729577898979187,-0.6560145020484924,-0.9809755682945251
1788862278725384400,7.830384521484375,-0.38091760873794556,-0.6230823993682861,-0.8265865445137024
1788862278735391500,7.8403916015625,-0.42765122652053833,-0.6992981433868408,-0.655013918876648
1788862278745397500,7.8503974609375,-0.5467914938926697,-0.7037357687950134,-0.5882452726364136
1788862278755404500,7.860404541015625,-0.6027724146842957,-0.48615893721580505,-0.6317184567451477
1788862278765410300,7.870410400390625,-0.6469175219535828,-0.2197275161743164,-0.6748552918434143
1788862278775416300,7.880416259765625,-0.7156595587730408,0.02562357857823372,-0.7532930970191956
1788862278785423600,7.890423583984375,-0.7124214172363281,0.13331808149814606,-0.8803772926330566
1788862278795429400,7.900429443359375,-0.6489701271057129,-0.034999772906303406,-1.0344154834747314
1788862278805436400,7.9104365234375,-0.581943690776825,-0.36609408259391785,-1.1287877559661865
1788862278815442700,7.920442626953125,-0.4934649169445038,-0.5801437497138977,-1.1366889476776123
1788862278825449500,7.930449462890625,-0.41697147488594055,-0.6013651490211487,-1.103466272354126
1788862278835455500,7.94045556640625,-0.3989994525909424,-0.4492214620113373,-1.067248821258545
1788862278845462500,7.950462646484375,-0.42270398139953613,-0.32927295565605164,-0.9870943427085876
1788862278855468500,7.960468505859375,-0.4706530272960663,-0.41626638174057007,-0.9324048161506653
1788862278865475300,7.970475341796875,-0.5010572671890259,-0.5680589079856873,-0.9983510971069336
1788862278875481300,7.9804814453125,-0.5000085830688477,-0.7077158689498901,-1.1246178150177002
1788862278885487600,7.990487548828125,-0.4781035780906677,-0.8341704607009888,-1.1779334545135498
1788862278895494400,8.000494384765625,-0.44510573148727417,-0.6031199097633362,-1.2076818943023682
1788862278905500400,8.01050048828125,-0.4105280339717865,-0.42488014698028564,-1.2461057901382446
1788862278915507500,8.020507568359376,-0.41247886419296265,-0.7114892601966858,-1.294793725013733
1788862278925513500,8.030513427734375,-0.41166794300079346,-1.088260293006897,-1.3171701431274414
1788862278935520500,8.0405205078125,-0.3471296429634094,-1.0036401748657227,-1.3203227519989014
1788862278945526300,8.0505263671875,-0.293780654668808,-0.6002943515777588,-1.3185904026031494
1788862278955533600,8.060533447265625,-0.29675647616386414,-0.45681995153427124,-1.2943118810653687
1788862278965539300,8.070539306640624,-0.30762138962745667,-0.6465696096420288,-1.2353336811065674
1788862278975546400,8.08054638671875,-0.2639000713825226,-0.8990834355354309,-1.1990814208984375
1788862278985552600,8.090552734375,-0.18793101608753204,-1.0213781595230103,-1.2453213930130005
1788862278995559400,8.100559326171876,-0.1493450105190277,-0.9385104179382324,-1.3221758604049683
1788862279005565400,8.1105654296875,-0.14282505214214325,-0.8463243246078491,-1.3815726041793823
1788862279015571500,8.120571533203124,-0.10794784128665924,-0.8248456716537476,-1.450905442237854
1788862279025578500,8.13057861328125,-0.057850852608680725,-0.813676655292511,-1.5160197019577026
1788862279035584500,8.14058447265625,-0.0302998386323452,-0.9192931056022644,-1.5199062824249268
1788862279045591300,8.15059130859375,-0.004054388031363487,-1.1090760231018066,-1.4500137567520142
1788862279055597600,8.16059765625,0.044869277626276016,-1.1128249168395996,-1.3768192529678345
1788862279065604400,8.170604248046875,0.05705989524722099,-1.0953209400177002,-1.3268373012542725
1788862279075610400,8.1806103515625,0.07902645319700241,-1.2545424699783325,-1.3107107877731323
1788862279085617700,8.19061767578125,0.1497400403022766,-1.3899391889572144,-1.3169130086898804
1788862279095623400,8.20062353515625,0.19305165112018585,-1.4058480262756348,-1.349691390991211
1788862279105630500,8.21063037109375,0.1733597069978714,-1.316901683807373,-1.365679383277893
1788862279115636500,8.220636474609375,0.13863910734653473,-1.3274725675582886,-1.3068227767944336
1788862279125642500,8.230642578125,0.16296495497226715,-1.418540120124817,-1.2355151176452637
1788862279135649500,8.2406494140625,0.1820942461490631,-1.2831875085830688,-1.2430928945541382
1788862279145655300,8.2506552734375,0.11604465544223785,-1.0439128875732422,-1.3199586868286133
1788862279155662600,8.26066259765625,0.0577685721218586,-0.9663297533988953,-1.3842856884002686
1788862279165668600,8.270668701171875,0.0817231684923172,-0.9849252700805664,-1.345871925354004
1788862279175675400,8.28067529296875,0.16396930813789368,-1.041573405265808,-1.3259904384613037
1788862279185681700,8.290681640625,0.21476218104362488,-0.9555785655975342,-1.4068338871002197
1788862279195688400,8.3006884765625,0.1897263079881668,-0.6703815460205078,-1.500100016593933
1788862279205694500,8.310694580078126,0.15786637365818024,-0.24550053477287292,-1.5515278577804565
1788862279215701500,8.320701416015625,0.1904657930135727,-0.017338991165161133,-1.5262551307678223
1788862279225707500,8.33070751953125,0.2081768810749054,0.07165932655334473,-1.383044719696045
1788862279235713500,8.340713623046875,0.1997067779302597,0.2715603709220886,-1.134060263633728
1788862279245720300,8.35072021484375,0.15278108417987823,0.23154103755950928,-1.0024199485778809
1788862279255726600,8.3607265625,0.09272928535938263,0.012619756162166595,-1.0059113502502441
1788862279265733400,8.3707333984375,0.049566905945539474,-0.07552234828472137,-0.9204931259155273
1788862279275739400,8.380739501953125,-0.0073334346525371075,-0.0006089573726058006,-0.7937882542610168
1788862279285746700,8.39074658203125,-0.11405641585588455,0.12924917042255402,-0.7774007320404053
1788862279295752400,8.40075244140625,-0.321382075548172,0.16130007803440094,-0.7362948656082153
1788862279305759500,8.410759521484374,-0.45877721905708313,0.12194707244634628,-0.614823579788208
1788862279315765500,8.420765625,-0.475879430770874,-0.05971788242459297,-0.523697018623352
1788862279325772500,8.4307724609375,-0.47943979501724243,-0.07284354418516159,-0.42999717593193054
1788862279335778600,8.440778564453124,-0.5068214535713196,0.0822204053401947,-0.3544381558895111
1788862279345785300,8.450785400390625,-0.5492972731590271,0.01197313517332077,-0.2976747453212738
1788862279355791600,8.46079150390625,-0.5645643472671509,0.04908526688814163,-0.15511302649974823
1788862279365797600,8.470797607421876,-0.4984777271747589,0.2975214421749115,0.027591541409492493
1788862279375804400,8.480804443359375,-0.45800891518592834,0.47462359070777893,0.1273481845855713
1788862279385810400,8.490810546875,-0.5035795569419861,0.6120493412017822,0.25026291608810425
1788862279395817500,8.5008173828125,-0.5315420031547546,0.7120188474655151,0.4544822871685028
1788862279405823500,8.510823486328125,-0.48122134804725647,0.5832651257514954,0.6581347584724426
1788862279415830300,8.520830322265626,-0.4901392459869385,0.46594884991645813,0.8124373555183411
1788862279425836500,8.53083642578125,-0.572417676448822,0.502224862575531,0.9438683390617371
1788862279435843600,8.540843505859375,-0.6472519040107727,0.5983872413635254,1.0625255107879639
1788862279445849300,8.550849365234376,-0.7050305008888245,0.788644015789032,1.1568536758422852
1788862279455856600,8.560856689453125,-0.75179123878479,0.725376307964325,1.1894171237945557
1788862279465862400,8.5708623046875,-0.777947187423706,0.6127816438674927,1.2563825845718384
1788862279475869400,8.580869384765625,-0.7447063326835632,0.7176021337509155,1.4142963886260986
1788862279485875500,8.59087548828125,-0.7304573655128479,0.934689998626709,1.5851585865020752
1788862279495881500,8.600881591796876,-0.7807392477989197,1.0212959051132202,1.7013581991195679
1788862279505888500,8.610888427734375,-0.8438540101051331,0.8789598941802979,1.772546410560608
1788862279515894500,8.62089453125,-0.849816620349884,0.7607959508895874,1.863612413406372
1788862279525901600,8.630901611328126,-0.8057554364204407,0.7364336252212524,1.9566624164581299
1788862279535907600,8.640907470703125,-0.758892834186554,0.7096558213233948,2.0193090438842773
1788862279545914400,8.650914306640624,-0.7169483304023743,0.8113025426864624,2.037625312805176
1788862279555920400,8.66092041015625,-0.6667584180831909,0.8789225816726685,2.011475086212158
1788862279565927400,8.670927490234375,-0.5927870273590088,0.7802290320396423,1.9668800830841064
1788862279575933400,8.680933349609376,-0.5015109181404114,0.6572390198707581,1.991923213005066
1788862279585940500,8.6909404296875,-0.3931306004524231,0.6262840032577515,2.1072824001312256
1788862279595946500,8.700946533203124,-0.29822275042533875,0.43654173612594604,2.224515914916992
1788862279605952500,8.710952392578125,-0.22908470034599304,0.13705143332481384,2.301445245742798
1788862279615959300,8.720959228515625,-0.178859680891037,-0.05804085731506348,2.3588786125183105
1788862279625965300,8.73096533203125,-0.14817926287651062,-0.14415843784809113,2.414400100708008
1788862279635972600,8.74097265625,-0.14480020105838776,-0.22845818102359772,2.423245429992676
1788862279645978400,8.750978271484374,-0.20156894624233246,-0.2023802399635315,2.368835687637329
1788862279655985400,8.7609853515625,-0.28631922602653503,-0.048348069190979004,2.2890586853027344
1788862279665991400,8.770991455078125,-0.37633246183395386,0.17829281091690063,2.1920509338378906
1788862279675998500,8.78099853515625,-0.4233783185482025,0.31102901697158813,2.1031556129455566
1788862279686004500,8.79100439453125,-0.3867308497428894,0.31473079323768616,2.0778465270996094
1788862279696011500,8.801011474609375,-0.26929429173469543,0.36580172181129456,2.1330628395080566
1788862279706017500,8.811017578125,-0.10336682200431824,0.35929641127586365,2.1844167709350586
1788862279716024300,8.8210244140625,0.026332460343837738,0.34807685017585754,2.1414682865142822
1788862279726030600,8.831030517578125,0.06313042342662811,0.44142037630081177,2.0200796127319336
1788862279736036600,8.84103662109375,0.05022280290722847,0.4870605766773224,1.8720279932022095
1788862279746043400,8.85104345703125,0.06477031856775284,0.42404088377952576,1.6913617849349976
1788862279756049400,8.86104931640625,0.12302401661872864,0.286155104637146,1.5221372842788696
1788862279766056400,8.871056396484375,0.21898221969604492,0.2244400531053543,1.4420692920684814
1788862279776062500,8.8810625,0.3277190327644348,0.11575251817703247,1.4077765941619873
1788862279786069500,8.891069580078126,0.4019605219364166,-0.07697459310293198,1.3087573051452637
1788862279796075500,8.901075439453125,0.38253214955329895,-0.11250819265842438,1.1494179964065552
1788862279806082600,8.91108251953125,0.2886013984680176,-0.014916651882231236,0.9769380688667297
1788862279816088300,8.92108837890625,0.19378946721553802,-0.07431565225124359,0.8353641629219055
1788862279826095600,8.931095703125,0.12211129069328308,-0.24667170643806458,0.6847211122512817
1788862279836101600,8.9411015625,0.019267737865447998,-0.3515203595161438,0.5605789422988892
1788862279846108400,8.9511083984375,-0.09881545603275299,-0.14510031044483185,0.4957915246486664
1788862279856114400,8.961114501953125,-0.16458185017108917,-0.097474604845047,0.4947444796562195
1788862279866120700,8.97112060546875,-0.179090216755867,-0.28904083371162415,0.49161526560783386
1788862279876127500,8.98112744140625,-0.1617034524679184,-0.23488374054431915,0.4624735414981842
1788862279886133500,8.991133544921874,-0.13937684893608093,-0.2636914551258087,0.36763572692871094
1788862279896140500,9.001140625,-0.20322082936763763,-0.5529220104217529,0.18434754014015198
1788862279906146600,9.011146484375,-0.298470675945282,-0.6757997274398804,-0.07048261910676956
1788862279916153300,9.0211533203125,-0.3005695343017578,-0.28111639618873596,-0.3364339768886566
1788862279926159400,9.031159423828125,-0.2522382140159607,0.014765082858502865,-0.5416023135185242
1788862279936166400,9.04116650390625,-0.2544254958629608,0.012659022584557533,-0.7106819152832031
1788862279946172400,9.05117236328125,-0.31672748923301697,-0.10170377790927887,-0.798769474029541
1788862279956179500,9.061179443359375,-0.341671884059906,-0.19398300349712372,-0.8111470937728882
1788862279966185500,9.071185546875,-0.34301596879959106,-0.3713758885860443,-0.8164166808128357
1788862279976191500,9.08119140625,-0.36932477355003357,-0.5808686017990112,-0.8007201552391052
1788862279986198500,9.091198486328125,-0.38004347681999207,-0.7291715741157532,-0.7836671471595764
1788862279996204300,9.101204345703126,-0.3968367576599121,-1.129502534866333,-0.8213886618614197
1788862280006211600,9.111211669921875,-0.4781649112701416,-1.473422646522522,-0.9225205779075623
1788862280016217300,9.12121728515625,-0.5790177583694458,-1.2847671508789062,-1.0627061128616333
1788862280026224400,9.131224365234376,-0.571308970451355,-0.5987206697463989,-1.1607035398483276
1788862280036230700,9.141230712890625,-0.5694298148155212,-0.2144698202610016,-1.2405632734298706
1788862280046237400,9.151237548828124,-0.6852783560752869,-0.11454987525939941,-1.2972774505615234
1788862280056243500,9.161243408203125,-0.7872645854949951,-0.029373040422797203,-1.244089126586914
1788862280066250500,9.17125048828125,-0.8145822286605835,-0.006901552435010672,-1.1484345197677612
1788862280076256500,9.181256591796876,-0.8529024124145508,-0.07954807579517365,-1.0728641748428345
1788862280086263300,9.19126318359375,-0.9267516136169434,-0.24466592073440552,-1.0404561758041382
1788862280096269300,9.201269287109374,-0.9605374336242676,-0.4301941394805908,-1.0973762273788452
1788862280106275600,9.211275634765625,-0.912614107131958,-0.7515138983726501,-1.190788745880127
1788862280116282400,9.221282470703125,-0.8477587699890137,-0.8119202256202698,-1.300398588180542
1788862280126288400,9.231288330078126,-0.8217370510101318,-0.696997880935669,-1.4142961502075195
1788862280136295700,9.241295654296875,-0.7854584455490112,-0.6131901144981384,-1.5009015798568726
1788862280146301400,9.251301513671875,-0.7541249990463257,-0.47358375787734985,-1.528167486190796
1788862280156308500,9.26130859375,-0.7153750061988831,-0.3004247844219208,-1.485974669456482
1788862280166314200,9.271314208984375,-0.7277240753173828,-0.37098228931427,-1.4118293523788452
1788862280176321500,9.281321533203124,-0.783132016658783,-0.7428043484687805,-1.3110960721969604
1788862280186327600,9.29132763671875,-0.7669416069984436,-0.8533350825309753,-1.2707310914993286
1788862280196334300,9.301334228515625,-0.6724593639373779,-0.7294393181800842,-1.3077549934387207
1788862280206340600,9.311340576171874,-0.6077778339385986,-0.6352987289428711,-1.355568289756775
1788862280216347400,9.321347412109375,-0.5850607752799988,-0.7281859517097473,-1.3464514017105103
1788862280226353400,9.331353515625,-0.5414584279060364,-0.9867000579833984,-1.3181486129760742
1788862280236359400,9.341359375,-0.4889022409915924,-1.278193473815918,-1.3323544263839722
1788862280246366500,9.351366455078125,-0.4511018693447113,-1.3861137628555298,-1.3837459087371826
1788862280256372500,9.36137255859375,-0.4484272301197052,-1.3324793577194214,-1.4162691831588745
1788862280266379300,9.371379150390625,-0.4871341586112976,-1.4006415605545044,-1.4242488145828247
1788862280276385500,9.381385498046875,-0.5323229432106018,-1.6213021278381348,-1.4217499494552612
1788862280286392600,9.391392578125,-0.5394932627677917,-1.7618306875228882,-1.4351168870925903
1788862280296398300,9.4013984375,-0.5018224716186523,-1.7675151824951172,-1.457387924194336
1788862280306405600,9.411405517578125,-0.42035210132598877,-1.4658315181732178,-1.4371737241744995
1788862280316411400,9.421411376953126,-0.3464612662792206,-1.1046429872512817,-1.387488603591919
1788862280326418400,9.43141845703125,-0.29766255617141724,-0.9949595928192139,-1.4153863191604614
1788862280336424700,9.4414248046875,-0.23810869455337524,-1.0038868188858032,-1.4942117929458618
1788862280346430500,9.451430419921875,-0.16418813169002533,-1.2424367666244507,-1.5062264204025269
1788862280356437500,9.4614375,-0.09928495436906815,-1.4308607578277588,-1.5322682857513428
1788862280366443500,9.471443603515626,-0.07043386250734329,-1.2858002185821533,-1.5152184963226318
1788862280376450600,9.481450439453125,-0.09782680124044418,-1.0344436168670654,-1.4156544208526611
1788862280386456600,9.49145654296875,-0.16974225640296936,-0.9105608463287354,-1.3226840496063232
1788862280396463400,9.50146337890625,-0.23768573999404907,-0.7864768505096436,-1.3128529787063599
1788862280406469600,9.5114697265625,-0.24957913160324097,-0.6821001172065735,-1.368335247039795
1788862280416476400,9.521476318359374,-0.2254466712474823,-0.6901633739471436,-1.4564670324325562
1788862280426482400,9.531482421875,-0.18587049841880798,-0.6281790733337402,-1.398114800453186
1788862280436489500,9.541489501953125,-0.17110899090766907,-0.47339075803756714,-1.2461103200912476
1788862280446495500,9.55149560546875,-0.19695283472537994,-0.21852676570415497,-1.1636053323745728
1788862280456502500,9.56150244140625,-0.20565636456012726,0.17683733999729156,-1.113042950630188
1788862280466508300,9.57150830078125,-0.13866853713989258,0.2130909562110901,-1.1046968698501587
1788862280476514600,9.5815146484375,-0.08718595653772354,-0.03425746038556099,-1.0344818830490112
1788862280486521600,9.591521484375,-0.13314679265022278,-0.17288456857204437,-0.8155244588851929
1788862280496527600,9.601527587890626,-0.18982338905334473,0.14223098754882812,-0.6875327229499817
1788862280506535000,9.611534912109375,-0.18930886685848236,0.26639285683631897,-0.7255376577377319
1788862280516540700,9.621540771484375,-0.17153841257095337,0.08062480390071869,-0.7302150726318359
1788862280526547700,9.631547607421876,-0.1515125036239624,0.008239023387432098,-0.6335852146148682
1788862280536554000,9.641553955078125,-0.08156449347734451,0.19161351025104523,-0.5802013278007507
1788862280546560800,9.651560791015624,-0.03272930532693863,0.43240776658058167,-0.5382525324821472
1788862280556566800,9.66156689453125,0.060307517647743225,0.5750923752784729,-0.42698046565055847
1788862280566573800,9.67157373046875,0.12246543169021606,0.4472300112247467,-0.3220402002334595
1788862280576579800,9.681579833984374,0.14884985983371735,0.47241154313087463,-0.27100053429603577
1788862280586585900,9.6915859375,0.14755156636238098,0.44196709990501404,-0.18803854286670685
1788862280596592600,9.701592529296875,0.17886300384998322,0.40294188261032104,-0.05344881862401962
1788862280606599000,9.711598876953126,0.20217019319534302,0.27514106035232544,0.05062485486268997
1788862280616605700,9.721605712890625,0.1951727420091629,0.22277507185935974,0.10446571558713913
1788862280626611700,9.73161181640625,0.21736352145671844,0.3144919276237488,0.2041289210319519
1788862280636618800,9.74161865234375,0.32002151012420654,0.40707162022590637,0.3646683096885681
1788862280646624800,9.751624755859375,0.44582363963127136,0.5698266625404358,0.5166666507720947
1788862280656631800,9.7616318359375,0.48159265518188477,0.45779216289520264,0.5788397192955017
1788862280666637600,9.771637451171875,0.48665425181388855,0.43256163597106934,0.611920177936554
1788862280676644900,9.781644775390625,0.5011616945266724,0.6907894015312195,0.7255141735076904
1788862280686651000,9.79165087890625,0.5310066938400269,1.0415852069854736,0.9004899859428406
1788862280696657700,9.80165771484375,0.5734890699386597,1.3994290828704834,1.0802059173583984
1788862280706664000,9.811663818359374,0.586176335811615,1.3574901819229126,1.219090223312378
1788862280716669700,9.821669677734375,0.5406713485717773,0.9959774613380432,1.3979014158248901
1788862280726676700,9.8316767578125,0.5309521555900574,0.8088169097900391,1.7395777702331543
1788862280736682800,9.841682861328126,0.6004816293716431,0.9084040522575378,2.1181223392486572
1788862280746689800,9.851689697265625,0.6531105041503906,0.8865368366241455,2.355135202407837
1788862280756695800,9.86169580078125,0.6405792832374573,0.6414737701416016,2.449876070022583
1788862280766702600,9.87170263671875,0.6078527569770813,0.4082370400428772,2.4168829917907715
1788862280776708900,9.881708984375,0.5600224733352661,0.3260106146335602,2.2678310871124268
1788862280786715600,9.891715576171874,0.4544030725955963,0.3134053647518158,2.080780029296875
1788862280796721700,9.9017216796875,0.3280111253261566,0.28224003314971924,2.0156924724578857
1788862280806729000,9.91172900390625,0.2644987404346466,0.4676873981952667,2.1420094966888428
1788862280816734700,9.921734619140626,0.2665656805038452,0.5260449647903442,2.3348915576934814
1788862280826740700,9.93174072265625,0.2678799629211426,-0.011886673048138618,2.4386062622070312
1788862280836747500,9.94174755859375,0.23506402969360352,-0.42857903242111206,2.5139639377593994
1788862280846753800,9.95175390625,0.24005693197250366,0.037101857364177704,2.5820631980895996
1788862280856760800,9.9617607421875,0.34083038568496704,0.8014538288116455,2.519166946411133
1788862280866766600,9.9717666015625,0.4457477331161499,1.082182765007019,2.3206217288970947
1788862280876774000,9.98177392578125,0.45382997393608093,1.0002235174179077,2.1344261169433594
1788862280886780000,9.99177978515625,0.42039239406585693,0.6947802305221558,2.0451273918151855
1788862280896786700,10.00178662109375,0.38026678562164307,0.27605530619621277,2.084937572479248
1788862280906793000,10.01179296875,0.3133887052536011,0.15310010313987732,2.2268424034118652
1788862280916799700,10.0217998046875,0.24059173464775085,0.4267159402370453,2.3313286304473877
1788862280926805800,10.0318056640625,0.16833990812301636,0.4677184820175171,2.278761625289917
1788862280936812800,10.041812744140625,0.07751630246639252,0.46458423137664795,2.078638792037964
1788862280946818800,10.05181884765625,0.05760304629802704,0.6898945569992065,1.8861980438232422
1788862280956824800,10.061824951171875,0.14523211121559143,1.0001429319381714,1.791003942489624
1788862280966831600,10.07183154296875,0.3101060390472412,1.1465667486190796,1.8144978284835815
1788862280976838000,10.081837890625,0.44992053508758545,0.8755272626876831,1.9076346158981323
1788862280986844700,10.0918447265625,0.4715781509876251,0.13777706027030945,1.9538710117340088
1788862280996850700,10.1018505859375,0.3445541560649872,-0.5542011260986328,1.938435673713684
1788862281006858000,10.11185791015625,0.23241403698921204,-0.6735701560974121,1.879044771194458
1788862281016863700,10.12186376953125,0.13505589962005615,-0.4983026087284088,1.7156068086624146
1788862281026870800,10.131870849609374,-0.002077459590509534,-0.22453126311302185,1.4347658157348633
1788862281036876800,10.141876708984375,-0.1187814250588417,0.20654840767383575,1.0843007564544678
1788862281046883800,10.1518837890625,-0.2126685082912445,0.3665125072002411,0.7580667734146118
1788862281056889900,10.161889892578126,-0.2608575224876404,0.14086183905601501,0.5268713235855103
1788862281066895600,10.1718955078125,-0.18650203943252563,0.12171797454357147,0.41199561953544617
1788862281076903000,10.18190283203125,0.003329414175823331,0.5936612486839294,0.3779976963996887
1788862281086909000,10.191908935546875,0.07223924249410629,0.8106436133384705,0.31232762336730957
1788862281096915700,10.201915771484375,-0.1060866191983223,0.36602747440338135,0.12155294418334961
1788862281106921700,10.211921630859376,-0.26447707414627075,-0.281035453081131,-0.1376381516456604
1788862281116928800,10.2219287109375,-0.2112206220626831,-0.46100088953971863,-0.2990831732749939
1788862281126934800,10.231934814453124,-0.003494319273158908,0.050857063382864,-0.2791518270969391
1788862281136941600,10.241941650390626,0.09754027426242828,0.09926585853099823,-0.3325551450252533
1788862281146947800,10.25194775390625,0.011027215048670769,-0.47053849697113037,-0.4594670236110687
1788862281156955000,10.261954833984374,-0.08533512055873871,-0.7645655274391174,-0.6275902390480042
1788862281166960600,10.271960693359375,-0.12134025990962982,-0.5819214582443237,-0.7623152732849121
1788862281176966700,10.281966552734374,-0.19691701233386993,-0.4326072633266449,-0.8661592602729797
1788862281186973700,10.2919736328125,-0.3608705401420593,-0.47458401322364807,-0.9598474502563477
1788862281196979700,10.301979736328125,-0.5176591873168945,-0.6566601395606995,-1.0747268199920654
1788862281206986800,10.31198681640625,-0.5690587759017944,-0.8447485566139221,-1.199117660522461
1788862281216992800,10.32199267578125,-0.5419061183929443,-0.7338736057281494,-1.2463328838348389
1788862281226999800,10.331999755859375,-0.4939868152141571,-0.1173933893442154,-1.125281810760498
1788862281237005800,10.342005859375,-0.5006213188171387,0.3321918547153473,-0.9035598039627075
1788862281247012900,10.352012939453125,-0.5644972324371338,-0.07403316348791122,-0.7346128821372986
1788862281257019000,10.362018798828124,-0.5444795489311218,-0.7900667786598206,-0.7266061305999756
1788862281267025700,10.372025634765626,-0.47353827953338623,-1.0089306831359863,-0.7940608263015747
1788862281277031700,10.38203173828125,-0.4379288852214813,-0.8147682547569275,-0.7948000431060791
1788862281287038700,10.392038818359374,-0.45405781269073486,-0.5892738699913025,-0.823419451713562
1788862281297044700,10.402044677734375,-0.5001030564308167,-0.2567034363746643,-0.9805960059165955
1788862281307050800,10.41205078125,-0.6090290546417236,-0.20044094324111938,-1.2135190963745117
1788862281317057800,10.422057861328126,-0.7162424325942993,-0.2314632385969162,-1.4572439193725586
1788862281327063800,10.432063720703125,-0.6967760920524597,0.37033846974372864,-1.603667140007019
1788862281337070600,10.442070556640624,-0.5696313977241516,1.2937591075897217,-1.5711610317230225
1788862281347076600,10.45207666015625,-0.5449331998825073,1.3351411819458008,-1.4667028188705444
1788862281357084000,10.462083984375,-0.6680032014846802,0.12735238671302795,-1.4262384176254272
1788862281367089700,10.472089599609374,-0.582982063293457,-0.8477581739425659,-1.4290701150894165
1788862281377096700,10.4820966796875,-0.4555360972881317,-0.9568649530410767,-1.367539405822754
1788862281387102700,10.492102783203125,-0.50278639793396,-0.7777585983276367,-1.3399455547332764
1788862281397109800,10.50210986328125,-0.5894757509231567,-0.4437299966812134,-1.4168243408203125
1788862281407115800,10.51211572265625,-0.5744113326072693,-0.4467620253562927,-1.5217310190200806
1788862281417121500,10.52212158203125,-0.5262838006019592,-0.8715503215789795,-1.48861825466156
1788862281427128800,10.53212890625,-0.4529600441455841,-0.7304003834724426,-1.3820092678070068
1788862281437134800,10.542134765625,-0.3619568943977356,-0.43431225419044495,-1.2965284585952759
1788862281447141600,10.5521416015625,-0.3213227689266205,-0.6868441700935364,-1.244520902633667
1788862281457148000,10.56214794921875,-0.293436199426651,-0.7777120471000671,-1.2485668659210205
1788862281467154700,10.57215478515625,-0.3055330812931061,-0.7188961505889893,-1.2782284021377563
1788862281477160700,10.58216064453125,-0.35774675011634827,-0.9709871411323547,-1.2505993843078613
1788862281487167700,10.592167724609375,-0.35999923944473267,-1.1636687517166138,-1.255575180053711
1788862281497173800,10.602173828125,-0.2761840224266052,-0.9809240102767944,-1.361513376235962
1788862281507180800,10.612180908203126,-0.1588379442691803,-0.77892005443573,-1.4480056762695312
1788862281517186600,10.6221865234375,-0.05646143853664398,-0.717739462852478,-1.4364397525787354
1788862281527193900,10.63219384765625,0.007172401063144207,-0.606795072555542,-1.436315655708313
1788862281537199600,10.64219970703125,0.05334271863102913,-0.5475558042526245,-1.4698786735534668
1788862281547205600,10.65220556640625,0.1171208992600441,-0.6051703691482544,-1.504840612411499
1788862281557213000,10.662212890625,0.1919199526309967,-0.6753144860267639,-1.5688594579696655
1788862281567218700,10.67221875,0.3551405668258667,-0.627484142780304,-1.6754028797149658
1788862281577225700,10.682225830078124,0.5092777609825134,-0.7178640961647034,-1.8078696727752686
1788862281587231700,10.692231689453125,0.5343900322914124,-0.8471845388412476,-1.8515950441360474
1788862281597238800,10.70223876953125,0.4823035001754761,-0.5386480093002319,-1.7969918251037598
1788862281607244800,10.712244873046876,0.4515208303928375,-0.44818711280822754,-1.7145968675613403
1788862281617251600,10.72225146484375,0.4766271114349365,-0.4236491322517395,-1.6102036237716675
1788862281627257900,10.7322578125,0.4949035942554474,-0.09600787609815598,-1.522355318069458
1788862281637264000,10.742263916015625,0.4987523555755615,0.28250330686569214,-1.4894686937332153
1788862281647270700,10.752270751953125,0.5393854975700378,0.344160795211792,-1.4625513553619385
1788862281657276700,10.762276611328126,0.6204910278320312,0.3098275363445282,-1.3536635637283325
1788862281667283700,10.77228369140625,0.6544995903968811,0.09820692241191864,-1.203817367553711
1788862281677289700,10.782289794921875,0.5814453959465027,-0.0789148360490799,-1.0983903408050537
1788862281687296500,10.792296630859376,0.465425044298172,-0.17325465381145477,-0.9923262596130371
1788862281697302800,10.802302734375,0.387147456407547,-0.24949930608272552,-0.9172012805938721
1788862281707309800,10.812309814453124,0.32509100437164307,-0.3592950403690338,-0.8541762232780457
1788862281717315600,10.822315673828125,0.23525340855121613,-0.2026667594909668,-0.7116709351539612
1788862281727323000,10.832322998046875,0.21495532989501953,0.053559690713882446,-0.65309739112854
1788862281737328600,10.84232861328125,0.17438407242298126,-0.05641753971576691,-0.6358079314231873
1788862281747334700,10.852334716796875,0.07196689397096634,-0.1336076706647873,-0.4178394079208374
1788862281757341700,10.862341796875,0.026553895324468613,-0.08361789584159851,-0.1608130931854248
1788862281767347700,10.87234765625,0.026386382058262825,-0.00333743286319077,-0.022767338901758194
1788862281777354800,10.882354736328125,-0.05149969831109047,0.14423757791519165,0.092074915766716
1788862281787360800,10.89236083984375,-0.06851170212030411,0.25934311747550964,0.06380864977836609
1788862281797367800,10.902367919921875,-0.11448132991790771,0.12719711661338806,-0.017539184540510178
1788862281807373800,10.912373779296875,-0.19248345494270325,-0.06303141266107559,0.0628906711935997
1788862281817380600,10.922380615234376,-0.18480458855628967,0.049075279384851456,0.2379724681377411
1788862281827386600,10.93238671875,-0.11697334796190262,0.3981131613254547,0.34084904193878174
1788862281837393700,10.9423935546875,-0.08813845366239548,0.4515440762042999,0.31627973914146423
1788862281847399700,10.952399658203126,-0.09776365011930466,0.39450502395629883,0.3491780459880829
1788862281857405700,10.96240576171875,-0.09581326693296432,0.4355776309967041,0.5125022530555725
1788862281867412700,10.972412841796874,-0.10920550674200058,0.2347870171070099,0.6418959498405457
1788862281877418800,10.982418701171875,-0.1340574473142624,0.11506737023591995,0.7265233993530273
1788862281887425500,10.992425537109375,-0.08899649977684021,0.6088871955871582,0.8327065706253052
1788862281897431600,11.002431640625,0.023710446432232857,1.0242758989334106,0.8712291717529297
1788862281907438800,11.01243896484375,0.09578251093626022,1.0662182569503784,0.8488066792488098
1788862281917444600,11.022444580078124,0.07235369086265564,1.1248564720153809,0.9400323629379272
1788862281927451600,11.03245166015625,0.059919923543930054,1.1507081985473633,1.1387012004852295
1788862281937458000,11.0424580078125,0.04899924248456955,1.056718349456787,1.394599199295044
1788862281947464700,11.052464599609374,0.02661883644759655,1.1102218627929688,1.6361629962921143
1788862281957470700,11.062470703125,0.043703097850084305,1.143629789352417,1.736100673675537
1788862281967476500,11.0724765625,0.08657839149236679,1.004483699798584,1.7626794576644897
1788862281977483800,11.08248388671875,0.13452622294425964,0.9617854356765747,1.8021377325057983
1788862281987489800,11.09248974609375,0.152974471449852,1.0842087268829346,1.8101197481155396
1788862281997496600,11.10249658203125,0.15446266531944275,1.143231987953186,1.8375426530838013
1788862282007502800,11.1125029296875,0.15429063141345978,1.1570937633514404,1.9065907001495361
1788862282017509600,11.122509521484375,0.18878352642059326,1.1919437646865845,1.9849958419799805
1788862282027515600,11.132515625,0.2590845823287964,1.0788904428482056,2.12553071975708
1788862282037522700,11.142522705078125,0.34227633476257324,0.9110186100006104,2.294825553894043
1788862282047528700,11.15252880859375,0.4384540021419525,0.4881504774093628,2.389187812805176
1788862282057535700,11.16253564453125,0.5683400630950928,0.14126230776309967,2.4875588417053223
1788862282067541800,11.172541748046875,0.7100287675857544,0.2867044508457184,2.592237710952759
1788862282077547800,11.1825478515625,0.7564950585365295,0.3774239420890808,2.488170862197876
1788862282087554800,11.192554931640625,0.7327252626419067,0.19150017201900482,2.2355265617370605
1788862282097560600,11.202560546875,0.6937656402587891,0.30019229650497437,2.008533239364624
1788862282107567900,11.21256787109375,0.6787315607070923,0.371613472700119,1.8654354810714722
1788862282117573600,11.22257373046875,0.6740888357162476,0.009347110986709595,1.8545923233032227
1788862282127580700,11.23258056640625,0.6522216200828552,-0.06580622494220734,1.9873607158660889
1788862282137587000,11.2425869140625,0.6550421714782715,0.28391900658607483,2.158114194869995
1788862282147593700,11.25259375,0.7060244083404541,0.4152708947658539,2.1936323642730713
1788862282157599700,11.262599853515624,0.7584572434425354,0.31082263588905334,2.0901920795440674
1788862282167606800,11.272606689453125,0.8021607995033264,0.36292073130607605,1.9579027891159058
1788862282177612800,11.28261279296875,0.8589867353439331,0.41422557830810547,1.8404738903045654
1788862282187618800,11.292618896484376,0.9072278141975403,0.4559653103351593,1.7721052169799805
1788862282197625600,11.30262548828125,0.9008911848068237,0.5692594051361084,1.7725577354431152
1788862282207632000,11.3126318359375,0.7886045575141907,0.5735092759132385,1.8345446586608887
1788862282217638700,11.322638671875,0.6123305559158325,0.4992396831512451,1.8745335340499878
1788862282227644700,11.332644775390625,0.46212905645370483,0.3301750123500824,1.8333650827407837
1788862282237651700,11.342651611328124,0.40651342272758484,0.16042126715183258,1.7460073232650757
1788862282247657700,11.35265771484375,0.41306719183921814,0.036379747092723846,1.6146717071533203
1788862282257664800,11.362664794921875,0.3490925431251526,-0.057605236768722534,1.4182137250900269
1788862282267670500,11.37267041015625,0.19932380318641663,0.03104819729924202,1.177523136138916
1788862282277676800,11.3826767578125,0.08217234909534454,0.27634260058403015,0.9563777446746826
1788862282287683800,11.392683837890624,0.07411734759807587,0.42287957668304443,0.7559687495231628
1788862282297689600,11.402689697265625,0.1513988971710205,0.5504748225212097,0.5775488018989563
1788862282307697000,11.41269677734375,0.23144899308681488,0.5953136682510376,0.44878682494163513
1788862282317702700,11.42270263671875,0.1731775552034378,-0.1285247802734375,0.33733269572257996
1788862282327709700,11.432709716796875,0.036937158554792404,-1.0205777883529663,0.201289102435112
1788862282337715700,11.4427158203125,-0.06854483485221863,-0.9210332632064819,-0.011751588433980942
1788862282347722800,11.45272265625,-0.1312124878168106,-0.4143354594707489,-0.2604394257068634
1788862282357728800,11.462728759765625,-0.16694030165672302,-0.04476170986890793,-0.525424599647522
1788862282367735600,11.472735595703124,-0.1764131635427475,0.42205795645713806,-0.7412117719650269
1788862282377741800,11.482741943359375,-0.22858288884162903,0.28690704703330994,-0.8033251762390137
1788862282387747800,11.492747802734375,-0.3330528438091278,-0.32479894161224365,-0.7348489165306091
1788862282397754600,11.502754638671876,-0.2754398584365845,-0.23163831233978271,-0.6454044580459595
1788862282407760600,11.5127607421875,-0.14749068021774292,0.06592918932437897,-0.5480680465698242
1788862282417767700,11.522767578125,-0.14241664111614227,-0.03878781199455261,-0.48926740884780884
1788862282427773700,11.532773681640625,-0.18554334342479706,-0.29246774315834045,-0.5952931642532349
1788862282437780700,11.54278076171875,-0.2529197335243225,-0.7687612771987915,-0.8024365305900574
1788862282447786800,11.552786865234374,-0.36210721731185913,-1.2485219240188599,-1.018964171409607
1788862282457793800,11.562793701171875,-0.3233049809932709,-0.6188653707504272,-1.1876986026763916
1788862282467799600,11.572799560546875,-0.21278780698776245,0.23856060206890106,-1.258205533027649
1788862282477806800,11.582806884765626,-0.2620444595813751,0.17285583913326263,-1.2894216775894165
1788862282487812900,11.592812744140625,-0.2983689308166504,-0.18695905804634094,-1.3001869916915894
1788862282497819100,11.602819091796874,-0.17991693317890167,-0.35761576890945435,-1.2197126150131226
1788862282507826200,11.612826171875,-0.10011584311723709,-0.45283764600753784,-1.0990819931030273
1788862282517832000,11.62283203125,-0.15719948709011078,-0.3949012756347656,-1.0556308031082153
1788862282527839200,11.632839111328124,-0.2573215663433075,-0.31709781289100647,-1.0626863241195679
1788862282537845200,11.64284521484375,-0.2982995808124542,-0.3443816602230072,-1.1109907627105713
1788862282547852000,11.65285205078125,-0.28039437532424927,-0.4433242380619049,-1.2221935987472534
1788862282557858000,11.662858154296876,-0.22492435574531555,-0.4156590700149536,-1.4144748449325562
1788862282567865000,11.672864990234375,-0.16841182112693787,-0.3507857918739319,-1.5895174741744995
1788862282577871000,11.68287109375,-0.16561488807201385,-0.4257745146751404,-1.6220827102661133
1788862282587877000,11.692877197265625,-0.19984929263591766,-0.48088541626930237,-1.527955412864685
1788862282597884200,11.70288427734375,-0.22625625133514404,-0.5084418654441833,-1.3750063180923462
1788862282607890200,11.71289013671875,-0.2556183934211731,-0.5415159463882446,-1.264847755432129
1788862282617897000,11.72289697265625,-0.28660088777542114,-0.681780219078064,-1.2696316242218018
1788862282627903000,11.732903076171874,-0.27663108706474304,-0.8553951978683472,-1.375400424003601
1788862282637910000,11.742909912109376,-0.22493593394756317,-0.9474241733551025,-1.5524969100952148
1788862282647916000,11.752916015625,-0.2038106769323349,-1.1126189231872559,-1.678713321685791
1788862282657923000,11.762923095703124,-0.22014212608337402,-1.0167148113250732,-1.7060896158218384
1788862282667929000,11.77292919921875,-0.2492331564426422,-0.6290575861930847,-1.6277217864990234
1788862282677936000,11.78293603515625,-0.24867461621761322,-0.46843016147613525,-1.5030103921890259
1788862282687942100,11.792942138671876,-0.21958890557289124,-0.4198530316352844,-1.4239270687103271
1788862282697948000,11.802947998046875,-0.2248491793870926,-0.2773943543434143,-1.3769522905349731
1788862282707955200,11.812955078125,-0.2468130737543106,-0.24250160157680511,-1.3507821559906006
1788862282717961000,11.8229609375,-0.19017724692821503,-0.502979576587677,-1.3594783544540405
1788862282727968300,11.83296826171875,-0.10531137138605118,-0.6286709308624268,-1.3623571395874023
1788862282737974300,11.842974365234374,-0.05017119273543358,-0.6044545769691467,-1.3614585399627686
1788862282747981000,11.85298095703125,-0.018121112138032913,-0.5388105511665344,-1.3623000383377075
1788862282757987000,11.862987060546875,-0.04097369685769081,-0.37206152081489563,-1.3100866079330444
1788862282767994000,11.872994140625,-0.08510014414787292,-0.4651115834712982,-1.2212198972702026
1788862282778000100,11.883000244140625,-0.10577940940856934,-0.6808454394340515,-1.2065635919570923
1788862282788006100,11.893006103515624,-0.053762808442115784,-0.5919541716575623,-1.2289373874664307
1788862282798013200,11.90301318359375,0.0556613951921463,-0.7363389730453491,-1.2187087535858154
1788862282808019200,11.913019287109375,0.17741285264492035,-1.2313976287841797,-1.2760796546936035
1788862282818026000,11.92302587890625,0.2577288746833801,-1.4742016792297363,-1.3301548957824707
1788862282828032000,11.933031982421875,0.21847893297672272,-1.1607625484466553,-1.249086618423462
1788862282838039000,11.9430390625,0.10598476976156235,-0.8492288589477539,-1.139916181564331
1788862282848045000,11.953045166015626,-0.036380622535943985,-0.9777383208274841,-1.0949896574020386
1788862282858052000,11.963052001953125,-0.2080145925283432,-0.9137143492698669,-0.9915834069252014
1788862282868058000,11.97305810546875,-0.32925260066986084,-0.5386145114898682,-1.032649278640747
1788862282878064000,11.983064208984375,-0.37071290612220764,-0.3823607861995697,-1.0591692924499512
1788862282888071200,11.9930712890625,-0.3582988381385803,-0.14200010895729065,-0.9603979587554932
1788862282898077000,12.003076904296876,-0.3259504735469818,-0.08048511296510696,-0.9305384159088135
1788862282908084200,12.013084228515625,-0.31088098883628845,0.026727620512247086,-0.945823609828949
1788862282918090000,12.023090087890624,-0.2450777143239975,0.03221346437931061,-0.9315186738967896
1788862282928097000,12.033096923828126,-0.21463245153427124,-0.15403470396995544,-0.9477101564407349
1788862282938103300,12.043103271484375,-0.25196516513824463,-0.245243638753891,-1.0487293004989624
1788862282948110000,12.053110107421874,-0.29512596130371094,0.06274188309907913,-1.060917854309082
1788862282958116000,12.0631162109375,-0.28540754318237305,0.2103845328092575,-1.0330919027328491
1788862282968122000,12.0731220703125,-0.22450532019138336,0.2635659873485565,-0.9762200713157654
1788862282978129200,12.083129150390626,-0.19651786983013153,0.2961735427379608,-0.8271623253822327
1788862282988135200,12.09313525390625,-0.18983200192451477,-0.0008946196176111698,-0.635794997215271
1788862282998142000,12.103141845703124,-0.09694947302341461,-0.17239704728126526,-0.5177522301673889
1788862283008148200,12.113148193359375,-0.048544660210609436,-0.016410119831562042,-0.3553622364997864
1788862283018155000,12.123155029296875,-0.04376445710659027,0.16755768656730652,-0.22393940389156342
1788862283028161000,12.1331611328125,-0.020789898931980133,0.008935023099184036,-0.24428647756576538
1788862283038168000,12.14316796875,0.01736106164753437,-0.022746987640857697,-0.22179771959781647
1788862283048174000,12.153174072265625,0.03794702887535095,0.17257536947727203,-0.02782558649778366
1788862283058181000,12.16318115234375,0.06263712048530579,0.2446354627609253,0.11614342778921127
1788862283068187000,12.173186767578125,0.06517378240823746,0.07950988411903381,0.27362731099128723
1788862283078193200,12.183193115234374,0.024797089397907257,0.16321447491645813,0.5228569507598877
1788862283088200200,12.1932001953125,0.08663569390773773,0.3174176514148712,0.6938832998275757
1788862283098206000,12.2032060546875,0.22397799789905548,0.19378907978534698,0.7288633584976196
1788862283108213200,12.213213134765626,0.2849976718425751,0.1639166623353958,0.7175518870353699
1788862283118219300,12.22321923828125,0.23119866847991943,0.19052106142044067,0.7701006531715393
1788862283128226000,12.23322607421875,0.11569364368915558,0.05584660544991493,0.8516037464141846
1788862283138232000,12.243232177734376,-0.006353592500090599,0.28576216101646423,1.041081190109253
1788862283148238000,12.253238037109375,-0.032389454543590546,0.7507609724998474,1.3085979223251343
1788862283158245000,12.2632451171875,0.06269274652004242,0.801093339920044,1.3791695833206177
1788862283168251100,12.273251220703125,0.11471626162528992,0.4002596437931061,1.3973019123077393
1788862283178258200,12.283258056640625,0.0844687670469284,0.045079462230205536,1.6159147024154663
1788862283188264200,12.29326416015625,0.026793483644723892,0.12183868885040283,1.9002341032028198
1788862283198271000,12.30327099609375,0.01020092237740755,0.40415191650390625,1.997283697128296
1788862283208277000,12.313277099609374,0.07480228692293167,0.5353203415870667,1.9240100383758545
1788862283218284000,12.323283935546876,0.1671566516160965,0.420992910861969,1.824556589126587
1788862283228290000,12.3332900390625,0.1763397604227066,0.21111851930618286,1.7705169916152954
1788862283238297000,12.343297119140624,0.0893523097038269,0.007101015653461218,1.828872561454773
1788862283248303000,12.35330322265625,-0.012169788591563702,0.020418420433998108,1.977389931678772
1788862283258309000,12.36330908203125,-0.052322644740343094,0.45252904295921326,2.166088104248047
1788862283268316000,12.37331591796875,-0.02769159898161888,0.7447896599769592,2.1882214546203613
1788862283278322000,12.383322021484375,0.013196105137467384,0.5754647254943848,2.049644947052002
1788862283288329200,12.3933291015625,0.008835977874696255,0.4390861690044403,2.007084369659424
1788862283298335000,12.4033349609375,0.004201924428343773,0.5746051669120789,2.145192861557007
1788862283308342000,12.413342041015625,-0.004330045077949762,0.8676713705062866,2.3539421558380127
1788862283318348300,12.423348388671876,-0.040650539100170135,1.2052971124649048,2.5395584106445312
1788862283328355000,12.43335498046875,-0.11026103794574738,1.1538887023925781,2.627631425857544
1788862283338361000,12.443361083984374,-0.23704735934734344,0.5893411636352539,2.6339685916900635
1788862283348367000,12.4533671875,-0.3414563238620758,0.10737424343824387,2.649625778198242
1788862283358374100,12.4633740234375,-0.3338293135166168,0.1295197606086731,2.7180371284484863
1788862283368380200,12.473380126953124,-0.2440110445022583,0.5412471294403076,2.753174304962158
