time,seconds_elapsed,z,y,x
1788862270932897000,0.03789697265625,0.5167443156242371,-1.4533442258834839,1.1507753133773804
1788862270942903000,0.047903076171875,0.2825044095516205,-2.0819830894470215,1.0390594005584717
1788862270952909800,0.057909912109375,0.010075537487864494,-2.558499336242676,0.8666892647743225
1788862270962915800,0.067915771484375,-0.251045286655426,-2.846318006515503,0.7402003407478333
1788862270972922000,0.077922119140625,-0.4909806549549103,-3.0144646167755127,0.6724425554275513
1788862270982929000,0.087928955078125,-0.6994960308074951,-3.1366682052612305,0.5988644957542419
1788862270992935000,0.097934814453125,-0.8825159072875977,-3.088942050933838,0.4869230389595032
1788862271002941000,0.10794091796875,-1.0496330261230469,-2.802189826965332,0.389461487531662
1788862271012948000,0.117947998046875,-1.194512128829956,-2.33760929107666,0.28377845883369446
1788862271022954000,0.1279541015625,-1.2979443073272705,-1.787551760673523,0.1592698097229004
1788862271032960800,0.137960693359375,-1.3506983518600464,-1.1692461967468262,0.031691085547208786
1788862271042967000,0.147967041015625,-1.1437115669250488,-0.3415043354034424,-0.17872340977191925
1788862271052973000,0.15797314453125,-0.7123135328292847,0.4359280467033386,-0.4470837712287903
1788862271062979800,0.167979736328125,0.005100485868752003,1.1014573574066162,-0.7326033711433411
1788862271072985900,0.17798583984375,0.7530918717384338,1.495021104812622,-0.9547030329704285
1788862271082992000,0.1879921875,1.1921464204788208,1.7035274505615234,-1.114487648010254
1788862271092999000,0.1979990234375,1.3144431114196777,1.6404813528060913,-1.2416919469833374
1788862271103005000,0.2080048828125,1.4269614219665527,1.1633318662643433,-1.2451250553131104
1788862271113011000,0.218010986328125,1.5993472337722778,0.5766302943229675,-1.0248552560806274
1788862271123018000,0.22801806640625,1.7226932048797607,0.08731706440448761,-0.6831165552139282
1788862271133024000,0.23802392578125,1.7613494396209717,-0.1705927699804306,-0.3496648073196411
1788862271143030800,0.24803076171875,1.7137129306793213,-0.19725900888442993,-0.08067646622657776
1788862271153037000,0.258037109375,1.6795704364776611,-0.08924838900566101,0.06692683696746826
1788862271163043000,0.26804296875,1.690124273300171,-0.036322321742773056,0.10830463469028473
1788862271173049900,0.2780498046875,1.7375801801681519,-0.11017497628927231,0.08402326703071594
1788862271183056000,0.288055908203125,1.8318132162094116,-0.25278139114379883,0.06259360909461975
1788862271193062100,0.298062255859375,1.9533727169036865,-0.40570035576820374,0.04843970388174057
1788862271203069000,0.30806884765625,2.0738091468811035,-0.6126905679702759,0.059596750885248184
1788862271213075000,0.318074951171875,2.044919490814209,-0.7474451661109924,0.09421305358409882
1788862271223081000,0.3280810546875,1.8178445100784302,-1.0850882530212402,0.2889263331890106
1788862271233088000,0.338087890625,1.5379997491836548,-1.7394177913665771,0.5587234497070312
1788862271243094000,0.348093994140625,1.2718253135681152,-2.43123459815979,0.7744097113609314
1788862271253100000,0.35810009765625,1.080202579498291,-3.0305495262145996,0.9674012660980225
1788862271263107000,0.368107177734375,0.9572940468788147,-3.4838666915893555,1.1736234426498413
1788862271273113000,0.378113037109375,1.030375361442566,-4.1076202392578125,1.3664625883102417
1788862271283119900,0.388119873046875,1.1451081037521362,-4.499612808227539,1.5115063190460205
1788862271293126000,0.3981259765625,1.1444447040557861,-4.388871669769287,1.5020917654037476
1788862271303132200,0.408132080078125,1.0580118894577026,-3.7930908203125,1.3710893392562866
1788862271313139000,0.418138916015625,1.0536102056503296,-3.019404172897339,1.2544224262237549
1788862271323145000,0.42814501953125,1.1445826292037964,-1.9210458993911743,1.1689088344573975
1788862271333151000,0.43815087890625,1.2933967113494873,-0.7698527574539185,1.145052433013916
1788862271343158000,0.448157958984375,1.4426548480987549,0.1907806098461151,0.9739792346954346
1788862271353164000,0.4581640625,1.8200674057006836,0.008595618419349194,0.6097448468208313
1788862271363169800,0.468169677734375,2.4225924015045166,-0.818230152130127,0.5977289080619812
1788862271373177000,0.478177001953125,2.916329860687256,-1.221997857093811,0.714890718460083
1788862271383183000,0.48818310546875,3.3370704650878906,-1.0271058082580566,0.8182581067085266
1788862271393190000,0.49818994140625,3.750272035598755,-0.7252700924873352,0.9735888242721558
1788862271403196000,0.50819580078125,4.158154487609863,-0.7905852198600769,1.2529211044311523
1788862271413202000,0.518201904296875,4.5006208419799805,-1.3803856372833252,1.6560698747634888
1788862271423209000,0.528208984375,4.838352203369141,-2.5615968704223633,2.2407712936401367
1788862271433215000,0.538215087890625,5.127767562866211,-4.238151550292969,2.9439048767089844
1788862271443221000,0.548220947265625,5.223441123962402,-5.861959457397461,3.50123929977417
1788862271453228000,0.55822802734375,5.029544830322266,-6.692912578582764,3.730168581008911
1788862271463234000,0.568234130859375,4.952460289001465,-6.997650623321533,3.7515299320220947
1788862271473239800,0.57823974609375,5.237168788909912,-6.972723960876465,3.70650053024292
1788862271483247000,0.5882470703125,5.686208248138428,-6.290300369262695,3.5743768215179443
1788862271493253000,0.598253173828125,6.109093189239502,-5.192118167877197,3.4092211723327637
1788862271503260000,0.608260009765625,6.497581481933594,-4.558737277984619,3.3115146160125732
1788862271513266200,0.61826611328125,6.82139778137207,-4.311751365661621,3.337674617767334
1788862271523272000,0.62827197265625,7.256730079650879,-3.9507997035980225,3.404792308807373
1788862271533279000,0.638279052734375,7.6953911781311035,-3.4257242679595947,3.388042449951172
1788862271543285000,0.648284912109375,7.843312740325928,-2.68967342376709,3.1409525871276855
1788862271553291000,0.658291015625,7.388195991516113,-2.0555315017700195,2.65303897857666
1788862271563298000,0.668298095703125,6.424019813537598,-1.6079732179641724,1.9742511510849
1788862271573304000,0.678303955078125,5.320550441741943,-1.1406878232955933,1.281799077987671
1788862271583309800,0.688309814453125,4.59382963180542,-0.7548069357872009,0.7387957572937012
1788862271593317000,0.698317138671875,4.483562469482422,-0.531312882900238,0.5276651382446289
1788862271603323000,0.708322998046875,4.6666436195373535,-0.47394174337387085,0.6357402205467224
1788862271613330000,0.718329833984375,4.680613040924072,-0.6371985673904419,0.9969607591629028
1788862271623336200,0.728336181640625,4.3679280281066895,-0.9125776886940002,1.598958134651184
1788862271633342000,0.738342041015625,3.7666778564453125,-1.2179120779037476,2.239445209503174
1788862271643349000,0.748348876953125,3.0370726585388184,-1.4955263137817383,2.8415486812591553
1788862271653355000,0.75835498046875,2.244929313659668,-1.6476221084594727,2.994812488555908
1788862271663361000,0.768361083984375,1.487485408782959,-1.7676630020141602,2.5231564044952393
1788862271673368000,0.7783681640625,1.0694833993911743,-0.9855943918228149,1.7892959117889404
1788862271683373800,0.788373779296875,0.9766144752502441,0.3792850077152252,0.9305406808853149
1788862271693379800,0.7983798828125,1.0572466850280762,2.217621326446533,-0.12202604115009308
1788862271703387100,0.80838720703125,0.8473914861679077,3.1468982696533203,-1.1741927862167358
1788862271713393000,0.818392822265625,0.6359308958053589,3.4885969161987305,-1.311608910560608
1788862271723400000,0.82839990234375,0.48948925733566284,3.016021966934204,-0.7964097857475281
1788862271733406000,0.838406005859375,0.1879163682460785,2.07023286819458,0.11013609170913696
1788862271743412000,0.848411865234375,0.24161767959594727,2.1526038646698,1.1255559921264648
1788862271753419000,0.8584189453125,0.32085153460502625,1.063969612121582,1.5468240976333618
1788862271763424800,0.8684248046875,0.028978388756513596,-0.3178916871547699,2.323990821838379
1788862271773431000,0.87843115234375,-0.7399457097053528,-0.34276559948921204,3.320077896118164
1788862271783438000,0.88843798828125,-0.1665668785572052,0.5570076107978821,3.0656187534332275
1788862271793443800,0.89844384765625,-0.14831329882144928,-0.3603568375110626,1.8525997400283813
1788862271803451100,0.908451171875,-0.29512912034988403,0.5327973365783691,1.7468712329864502
1788862271813457000,0.918456787109375,-0.033966220915317535,1.0809906721115112,1.476562261581421
1788862271823463000,0.928462890625,0.093855120241642,0.03387434408068657,0.8761032819747925
1788862271833470000,0.938469970703125,0.11119309812784195,-0.5540544390678406,0.5887719392776489
1788862271843476000,0.94847607421875,0.292256623506546,-0.836236834526062,0.27444300055503845
1788862271853482000,0.95848193359375,0.44401979446411133,-0.4767305850982666,0.4935407340526581
1788862271863489000,0.968489013671875,0.589444637298584,-0.31282368302345276,1.2011114358901978
1788862271873494800,0.978494873046875,0.5704549551010132,-1.0106810331344604,1.2324124574661255
1788862271883501000,0.9885009765625,0.5916880965232849,-1.1131360530853271,1.2011998891830444
1788862271893507800,0.9985078125,0.5483363270759583,-1.1102406978607178,0.899666965007782
1788862271903513900,1.008513916015625,0.29927778244018555,-1.043568730354309,0.036676522344350815
1788862271913519900,1.018519775390625,0.13361452519893646,-0.5758752822875977,-0.7767777442932129
1788862271923527000,1.02852685546875,0.09870926290750504,-0.016635170206427574,-1.2570860385894775
1788862271933533000,1.038532958984375,0.15653368830680847,0.35925057530403137,-1.3083652257919312
1788862271943540000,1.0485400390625,0.1282714158296585,0.48613476753234863,-1.1911016702651978
1788862271953546000,1.0585458984375,0.06669460982084274,0.3412446677684784,-1.0702484846115112
1788862271963552000,1.068552001953125,-0.07106778770685196,0.03645255044102669,-0.8208991885185242
1788862271973558800,1.078558837890625,-0.20603466033935547,-0.14373533427715302,-0.4693736135959625
1788862271983565000,1.08856494140625,-0.13763509690761566,-0.32055991888046265,-0.21479566395282745
1788862271993571000,1.098571044921875,0.03393533080816269,-0.4890120327472687,-0.09113790094852448
1788862272003577900,1.108577880859375,-0.0356978103518486,-0.547902524471283,-0.1621827781200409
1788862272013584000,1.118583984375,-0.05625182017683983,-0.35791951417922974,-0.4698159694671631
1788862272023591200,1.128591064453125,0.011987420730292797,-0.0449024923145771,-0.8479605913162231
1788862272033597000,1.138596923828125,0.1819053590297699,0.12287931889295578,-1.1731677055358887
1788862272043603000,1.14860302734375,0.21310748159885406,0.1826113611459732,-1.3354929685592651
1788862272053610000,1.15860986328125,0.09511719644069672,0.08717724680900574,-1.360675573348999
1788862272063616000,1.168615966796875,-0.015733689069747925,-0.17994526028633118,-1.5868154764175415
1788862272073622000,1.1786220703125,-0.05178649723529816,-0.7237816452980042,-1.5508100986480713
1788862272083628800,1.18862890625,-0.07402069866657257,-1.1742982864379883,-1.2711092233657837
1788862272093635000,1.198635009765625,0.02244911715388298,-1.3045214414596558,-0.9430687427520752
1788862272103642000,1.20864208984375,0.1875552535057068,-1.036320447921753,-0.6490954160690308
1788862272113647900,1.21864794921875,0.4335985779762268,-0.7621724605560303,-0.6837682127952576
1788862272123654000,1.22865380859375,0.6374262571334839,-0.5488128066062927,-0.9712622761726379
1788862272133661000,1.238660888671875,1.0366601943969727,-0.3091224133968353,-1.3831331729888916
1788862272143667000,1.2486669921875,1.3280556201934814,-0.2899404764175415,-1.5483479499816895
1788862272153673000,1.2586728515625,1.4656935930252075,-0.19689415395259857,-1.662318229675293
1788862272163680000,1.268679931640625,2.058777332305908,-0.2196870893239975,-1.6016221046447754
1788862272173686000,1.27868603515625,2.313707113265991,-0.5860709547996521,-1.5107194185256958
1788862272183692000,1.288692138671875,2.1602275371551514,-0.39163699746131897,-1.5405470132827759
1788862272193698800,1.29869873046875,2.6533355712890625,-0.5724685788154602,-1.659935474395752
1788862272203705000,1.308705078125,3.491915702819824,-0.7115851640701294,-1.573323369026184
1788862272213712000,1.3187119140625,4.396064758300781,-1.0159929990768433,-1.2404687404632568
1788862272223718000,1.3287177734375,4.469540119171143,-0.29244518280029297,-1.1521687507629395
1788862272233724000,1.338723876953125,3.9482483863830566,1.173282504081726,-1.2083946466445923
1788862272243731000,1.34873095703125,3.365023374557495,1.7487183809280396,-1.090512752532959
1788862272253737000,1.358737060546875,3.029956340789795,1.6507688760757446,-1.0088616609573364
1788862272263743000,1.368742919921875,2.575505495071411,1.4847666025161743,-0.8556142449378967
1788862272273750000,1.37875,1.9548454284667969,1.1145195960998535,-0.674400269985199
1788862272283756000,1.388756103515625,1.604189157485962,0.7948140501976013,-0.4764254093170166
1788862272293762800,1.3987626953125,1.2790364027023315,0.5835212469100952,-0.3487183153629303
1788862272303768800,1.408768798828125,1.0439175367355347,0.4145071804523468,-0.38066452741622925
1788862272313775000,1.418775146484375,0.9544742703437805,0.28325462341308594,-0.4332619607448578
1788862272323782000,1.428781982421875,1.116051435470581,0.21164967119693756,-0.5187089443206787
1788862272333788000,1.438787841796875,1.4138919115066528,0.32384172081947327,-0.6116556525230408
1788862272343794000,1.4487939453125,1.6912044286727905,0.5240325927734375,-0.6974685788154602
1788862272353801000,1.458801025390625,1.7261438369750977,0.7357041239738464,-0.7506769299507141
1788862272363807000,1.468806884765625,1.568160891532898,1.0582925081253052,-0.5400667190551758
1788862272373813800,1.478813720703125,1.623367428779602,0.9947388768196106,-0.10324649512767792
1788862272383820000,1.488820068359375,1.9067364931106567,0.8135437965393066,0.3616844415664673
1788862272393826000,1.498825927734375,2.440478563308716,0.40254825353622437,0.5878757834434509
1788862272403832800,1.508832763671875,2.949712038040161,-0.08764755725860596,0.7671176791191101
1788862272413838800,1.5188388671875,3.276442050933838,-0.6917158961296082,0.9128677248954773
1788862272423845000,1.52884521484375,3.338214874267578,-1.5203195810317993,0.9729824066162109
1788862272433852000,1.538851806640625,3.0901284217834473,-2.4198310375213623,0.9996710419654846
1788862272443858000,1.54885791015625,2.7039554119110107,-3.2452306747436523,1.1701804399490356
1788862272453865000,1.558864990234375,2.15511417388916,-3.804067850112915,1.4597800970077515
1788862272463871000,1.56887109375,1.255406379699707,-4.282023906707764,1.7172390222549438
1788862272473877000,1.578876953125,0.2613333463668823,-3.3594658374786377,1.8296116590499878
1788862272483883800,1.5888837890625,-0.33977675437927246,-0.48625245690345764,0.8562502264976501
1788862272493889800,1.598889892578125,-0.6648144721984863,1.2431612014770508,-0.39397820830345154
1788862272503895800,1.608895751953125,-0.9992217421531677,0.916332483291626,-0.5423601865768433
1788862272513902800,1.61890283203125,-1.1753510236740112,0.21653470396995544,-0.10392586886882782
1788862272523908900,1.628908935546875,-0.9035032391548157,-0.22558997571468353,0.5002034306526184
1788862272533915600,1.63891552734375,-0.3614857792854309,-0.738288164138794,0.5884265303611755
1788862272543922000,1.648921875,-0.27854692935943604,-1.555832028388977,-0.04075515270233154
1788862272553928000,1.658927978515625,-0.3203444480895996,-1.8726330995559692,-0.4114653170108795
1788862272563934700,1.668934814453125,-0.3694337010383606,-1.6296191215515137,-0.3431738615036011
1788862272573940700,1.678940673828125,-0.45663198828697205,-0.8341861963272095,0.14515691995620728
1788862272583947000,1.688947021484375,-0.5132327079772949,0.4446413815021515,0.8131546974182129
1788862272593953800,1.698953857421875,-0.3648919463157654,1.6639139652252197,1.40221107006073
1788862272603959800,1.708959716796875,0.06787758320569992,2.3420488834381104,1.7036302089691162
1788862272613966800,1.718966796875,0.7483757138252258,2.463571548461914,1.6551061868667603
1788862272623972900,1.728972900390625,1.4671202898025513,1.0610190629959106,1.0300259590148926
1788862272633979000,1.738978759765625,1.7506129741668701,-0.7249864935874939,-0.14860625565052032
1788862272643985700,1.748985595703125,1.2606827020645142,-0.983887791633606,-0.6951316595077515
1788862272653992000,1.758991943359375,0.6359162330627441,-0.33881187438964844,-0.5170205235481262
1788862272663998700,1.768998779296875,0.13015587627887726,0.19249407947063446,-0.2513350248336792
1788862272674004700,1.779004638671875,-0.14930400252342224,0.36778467893600464,-0.08599160611629486
1788862272684010800,1.7890107421875,-0.26417651772499084,0.3394755423069,-0.058035340160131454
1788862272694017800,1.799017822265625,-0.14811410009860992,0.2539651691913605,-0.08327624946832657
1788862272704023800,1.80902392578125,0.025166872888803482,0.16525420546531677,-0.09576540440320969
1788862272714029800,1.81902978515625,0.11528664827346802,0.09794280678033829,-0.09042630344629288
1788862272724036900,1.829036865234375,0.11921427398920059,0.050034403800964355,-0.10855923593044281
1788862272734043000,1.83904296875,0.058461446315050125,0.0238222423940897,-0.1253611147403717
1788862272744049700,1.849049560546875,-0.01309050153940916,0.028329642489552498,-0.1132194995880127
1788862272754055700,1.8590556640625,-0.04986982047557831,0.1161271408200264,-0.10584067553281784
1788862272764062000,1.86906201171875,-0.044259872287511826,0.21497727930545807,-0.1086961179971695
1788862272774068700,1.87906884765625,-0.01426468975841999,0.24710220098495483,-0.12446842342615128
1788862272784074800,1.88907470703125,0.021452294662594795,0.20500054955482483,-0.11735539138317108
1788862272794080800,1.899080810546875,0.038988146930933,0.14150653779506683,-0.09167718887329102
1788862272804087800,1.909087890625,0.049258358776569366,0.06540590524673462,-0.09781524538993835
1788862272814093800,1.91909375,0.03989788144826889,0.006531136110424995,-0.10586171597242355
1788862272824100600,1.9291005859375,0.033247701823711395,-0.051603540778160095,-0.061401043087244034
1788862272834107000,1.93910693359375,0.02184351347386837,-0.021436316892504692,-0.08188527822494507
1788862272844113000,1.94911279296875,0.010696053504943848,0.008238755166530609,-0.11463923007249832
1788862272854119700,1.95911962890625,-0.0015342470724135637,0.041197769343853,-0.12785197794437408
1788862272864126000,1.9691259765625,-0.011712316423654556,0.08880709856748581,-0.13044722378253937
1788862272874132000,1.979132080078125,-0.016861537471413612,0.12204761058092117,-0.12488600611686707
1788862272884138800,1.989138671875,-0.01660347729921341,0.13680098950862885,-0.1210116446018219
1788862272894144800,1.999144775390625,-0.01732812449336052,0.12805570662021637,-0.11962946504354477
1788862272904151800,2.00915185546875,-0.011107245460152626,0.10342279821634293,-0.12628549337387085
1788862272914157800,2.01915771484375,0.005204082932323217,0.06670472770929337,-0.14015311002731323
1788862272924163800,2.029163818359375,0.027596473693847656,0.018138524144887924,-0.16239184141159058
1788862272934171000,2.0391708984375,0.0538102351129055,-0.038290396332740784,-0.19014091789722443
1788862272944177000,2.049177001953125,0.07388993352651596,-0.1608828902244568,-0.22304852306842804
1788862272954183000,2.059182861328125,0.06840355694293976,-0.32961997389793396,-0.252428263425827
1788862272964189700,2.069189697265625,0.024235298857092857,-0.43031010031700134,-0.23881523311138153
1788862272974196000,2.079196044921875,-0.032761141657829285,-0.34792840480804443,-0.19127674400806427
1788862272984202800,2.08920263671875,-0.07207552343606949,-0.13397671282291412,-0.13843031227588654
1788862272994208800,2.099208740234375,-0.10043765604496002,0.022711437195539474,-0.10773738473653793
1788862273004214800,2.10921484375,-0.11655937135219574,0.08030815422534943,-0.09276695549488068
1788862273014221800,2.119221923828125,-0.11864249408245087,0.09119649231433868,-0.05339265242218971
1788862273024227800,2.129227783203125,-0.11371511220932007,0.07517518103122711,0.014127270318567753
1788862273034233900,2.13923388671875,-0.10167016834020615,0.032581377774477005,0.06854178011417389
1788862273044241000,2.149240966796875,-0.07397888600826263,-0.006675745826214552,0.07764073461294174
1788862273054247000,2.159246826171875,-0.03611113131046295,-0.03924061357975006,0.049963563680648804
1788862273064253700,2.169253662109375,0.007180680986493826,-0.07048188894987106,0.009579923003911972
1788862273074259700,2.179259765625,0.05348985642194748,-0.08796234428882599,-0.03266127407550812
1788862273084266000,2.189265869140625,0.09068462997674942,-0.08450476080179214,-0.064761683344841
1788862273094272800,2.199272705078125,0.11349034309387207,-0.02376178838312626,-0.09187905490398407
1788862273104278800,2.20927880859375,0.13980317115783691,0.08919619023799896,-0.1215922087430954
1788862273114284800,2.219284912109375,0.17383117973804474,0.1941433697938919,-0.16476976871490479
1788862273124291800,2.229291748046875,0.20675024390220642,0.2814851999282837,-0.20758488774299622
1788862273134297900,2.2392978515625,0.22616629302501678,0.3339340388774872,-0.23041243851184845
1788862273144304600,2.2493046875,0.23765011131763458,0.326816201210022,-0.23824664950370789
1788862273154311000,2.259310791015625,0.24639593064785004,0.2689845860004425,-0.24109624326229095
1788862273164317000,2.26931689453125,0.2536192238330841,0.19356361031532288,-0.24960343539714813
1788862273174323700,2.27932373046875,0.27246853709220886,0.11719000339508057,-0.2615317404270172
1788862273184329700,2.289329833984375,0.28950265049934387,0.05036357045173645,-0.2952830493450165
1788862273194336000,2.2993359375,0.2729471027851105,0.021108480170369148,-0.3385215997695923
1788862273204342800,2.3093427734375,0.2620675563812256,0.01167343370616436,-0.3703828454017639
1788862273214348800,2.319348876953125,0.26909616589546204,0.018070613965392113,-0.38619378209114075
1788862273224355800,2.32935595703125,0.283477783203125,0.017845043912529945,-0.3794594407081604
1788862273234361900,2.33936181640625,0.3047471046447754,-0.011041466146707535,-0.33660945296287537
1788862273244368000,2.349367919921875,0.321546345949173,-0.08254867047071457,-0.2655209004878998
1788862273254374700,2.359374755859375,0.31538885831832886,-0.1641138345003128,-0.18040120601654053
1788862273264381000,2.369380859375,0.2905668616294861,-0.2209097445011139,-0.10197590291500092
1788862273274387700,2.3793876953125,0.2593120038509369,-0.27059340476989746,-0.05522330850362778
1788862273284393700,2.389393798828125,0.2324867695569992,-0.3332943320274353,-0.04238234460353851
1788862273294399700,2.399399658203125,0.2152334749698639,-0.4141138195991516,-0.04268514737486839
1788862273304406800,2.40940673828125,0.22031772136688232,-0.5099024176597595,-0.03994395211338997
1788862273314412800,2.419412841796875,0.25335797667503357,-0.6084577441215515,-0.03524986654520035
1788862273324418800,2.429418701171875,0.3075072169303894,-0.6963409781455994,-0.024700818583369255
1788862273334425900,2.43942578125,0.3606064021587372,-0.7346817255020142,-0.02907080017030239
1788862273344431900,2.449431884765625,0.4023711383342743,-0.712346613407135,-0.044024717062711716
1788862273354438700,2.459438720703125,0.4363054037094116,-0.6410084962844849,-0.06627968698740005
1788862273364444700,2.469444580078125,0.4656422734260559,-0.5488402247428894,-0.06913166493177414
1788862273374451000,2.479450927734375,0.4834478795528412,-0.4708407521247864,-0.05319291353225708
1788862273384457700,2.489457763671875,0.5004463195800781,-0.49118465185165405,-0.03132915869355202
1788862273394463700,2.499463623046875,0.5054072737693787,-0.744479238986969,0.0032871398143470287
1788862273404470000,2.509469970703125,0.4842692017555237,-0.895413339138031,0.016235163435339928
1788862273414476800,2.519476806640625,0.43745216727256775,-0.7023400068283081,0.01218449417501688
1788862273424482800,2.52948291015625,0.3824975788593292,-0.47704723477363586,-0.058281682431697845
1788862273434489900,2.53948974609375,0.31788370013237,-0.34057462215423584,-0.2032386064529419
1788862273444496000,2.549495849609375,0.3061865568161011,-0.29682233929634094,-0.34270381927490234
1788862273454502000,2.559501953125,0.33970484137535095,-0.24269573390483856,-0.4160648584365845
1788862273464508700,2.5695087890625,0.38790830969810486,-0.1524348109960556,-0.42575716972351074
1788862273474515000,2.579514892578125,0.44551780819892883,-0.09931140393018723,-0.4063531160354614
1788862273484521500,2.589521484375,0.5119208097457886,-0.09097837656736374,-0.38004374504089355
1788862273494528500,2.599528564453125,0.5815238356590271,-0.055640626698732376,-0.3764713704586029
1788862273504534500,2.609534423828125,0.6388550400733948,0.014680142514407635,-0.4283241927623749
1788862273514541300,2.619541259765625,0.687924325466156,0.04891534522175789,-0.4966600835323334
1788862273524547600,2.629547607421875,0.7570703625679016,0.16238199174404144,-0.5782572031021118
1788862273534553600,2.6395537109375,0.8633813858032227,0.4569281339645386,-0.6810272932052612
1788862273544560400,2.649560302734375,1.0063464641571045,0.8693154454231262,-0.8130817413330078
1788862273554566400,2.65956640625,1.157881498336792,1.2142027616500854,-0.9119305610656738
1788862273564573400,2.669573486328125,1.2415369749069214,1.4141135215759277,-0.9039021730422974
1788862273574579500,2.679579345703125,1.1844781637191772,1.557238221168518,-0.7597745656967163
1788862273584585500,2.68958544921875,0.951750636100769,1.7020128965377808,-0.5336548686027527
1788862273594592500,2.699592529296875,0.6370031237602234,1.6277762651443481,-0.32370322942733765
1788862273604598500,2.7095986328125,0.5895993709564209,1.2719768285751343,-0.10421987622976303
1788862273614604500,2.7196044921875,0.8956972360610962,0.9381006360054016,0.1420876383781433
1788862273624611300,2.729611328125,1.341763973236084,0.6335164904594421,0.44331884384155273
1788862273634617600,2.73961767578125,1.7616366147994995,0.2868860960006714,0.8386802673339844
1788862273644624400,2.749624267578125,2.0494651794433594,-0.006140716839581728,1.2582812309265137
1788862273654630400,2.75963037109375,2.1320676803588867,-0.045279331505298615,1.5656780004501343
1788862273664636400,2.769636474609375,1.9819854497909546,0.14018160104751587,1.7131779193878174
1788862273674643500,2.7796435546875,1.6237783432006836,0.3351351320743561,1.7257435321807861
1788862273684649500,2.7896494140625,1.309709072113037,0.3812522888183594,1.6810303926467896
1788862273694656300,2.79965625,1.203458309173584,0.3224446177482605,1.5445181131362915
1788862273704662500,2.80966259765625,1.2280727624893188,0.35627448558807373,1.218933343887329
1788862273714668500,2.81966845703125,1.257656216621399,0.48882347345352173,0.7177101969718933
1788862273724675300,2.82967529296875,1.2838537693023682,0.7192436456680298,0.26694542169570923
1788862273734681300,2.839681396484375,1.332668662071228,0.9495042562484741,-0.07719837874174118
1788862273744687600,2.8496875,1.4371346235275269,1.2519350051879883,-0.3085961937904358
1788862273754694400,2.8596943359375,1.63973069190979,1.642728328704834,-0.3151789903640747
1788862273764700400,2.869700439453125,1.8334369659423828,1.8884251117706299,-0.06174219399690628
1788862273774707500,2.87970751953125,2.004880905151367,1.6382791996002197,0.2936941981315613
1788862273784713500,2.88971337890625,2.1386301517486572,0.7792872786521912,0.5494822859764099
1788862273794719500,2.899719482421875,2.2132036685943604,-0.4584575891494751,0.6345295310020447
1788862273804726300,2.909726318359375,2.259220838546753,-1.50211763381958,0.5355702042579651
1788862273814732500,2.919732666015625,2.29710054397583,-1.5726791620254517,0.3406081795692444
1788862273824739600,2.929739501953125,2.298427104949951,-0.460445374250412,0.3025563955307007
1788862273834745300,2.939745361328125,2.250033378601074,0.7291231751441956,0.46841755509376526
1788862273844751400,2.94975146484375,2.148043394088745,1.072874903678894,0.6176150441169739
1788862273854758400,2.95975830078125,2.123764753341675,0.9354044198989868,0.662669837474823
1788862273864764400,2.969764404296875,2.226731061935425,0.749187171459198,0.581160306930542
1788862273874770400,2.9797705078125,2.4998347759246826,0.5653773546218872,0.4676271080970764
1788862273884777500,2.989777587890625,2.859060764312744,0.22446666657924652,0.28913912177085876
1788862273894783500,2.999783447265625,3.2201712131500244,-0.36456066370010376,0.05607765167951584
1788862273904790500,3.00979052734375,3.559802770614624,-0.8936420679092407,-0.22389008104801178
1788862273914796500,3.019796630859375,3.72580623626709,-1.1387873888015747,-0.45987147092819214
1788862273924802600,3.029802490234375,3.6969211101531982,-0.9152195453643799,-0.5494138598442078
1788862273934809300,3.039809326171875,3.58119535446167,-0.33953067660331726,-0.5511664748191833
1788862273944815400,3.0498154296875,3.4361722469329834,0.1469407081604004,-0.6314464211463928
1788862273954822700,3.05982275390625,3.278310775756836,0.2339288741350174,-0.8395774960517883
1788862273964828400,3.069828369140625,3.1348273754119873,-0.14440777897834778,-0.9602543711662292
1788862273974834400,3.07983447265625,2.9644036293029785,-0.7865326404571533,-0.9858963489532471
1788862273984841500,3.089841552734375,2.892821788787842,-1.3399686813354492,-0.9288501143455505
1788862273994847500,3.099847412109375,3.00947904586792,-1.7334494590759277,-0.8382882475852966
1788862274004853500,3.109853515625,3.236453056335449,-2.0197842121124268,-0.8277245759963989
1788862274014860300,3.1198603515625,3.4139559268951416,-2.0347912311553955,-0.8332024216651917
1788862274024866600,3.129866455078125,3.4585306644439697,-1.4952914714813232,-0.9266282320022583
1788862274034873600,3.13987353515625,3.4047932624816895,-0.7642438411712646,-1.038053035736084
1788862274044879400,3.14987939453125,3.242915153503418,-0.25407302379608154,-1.1675910949707031
1788862274054885400,3.159885498046875,3.006441116333008,-0.1504688709974289,-1.3573514223098755
1788862274064892400,3.169892333984375,2.7380118370056152,-0.15573926270008087,-1.4875727891921997
1788862274074898400,3.1798984375,2.5567800998687744,-0.22205889225006104,-1.611720085144043
1788862274084905500,3.189905517578125,2.5299532413482666,-0.3746021091938019,-1.6935062408447266
1788862274094911500,3.199911376953125,2.592038154602051,-0.5545950531959534,-1.7369102239608765
1788862274104917500,3.20991748046875,2.5930893421173096,-0.6757550239562988,-1.7956563234329224
1788862274114924500,3.219924560546875,2.5954723358154297,-0.5179515480995178,-1.8797706365585327
1788862274124930300,3.229930419921875,2.5755231380462646,-0.277948796749115,-2.071319103240967
1788862274134937600,3.2399375,2.5237157344818115,-0.21216098964214325,-2.1868436336517334
1788862274144943400,3.249943359375,2.3375132083892822,-0.24805720150470734,-2.2640347480773926
1788862274154949400,3.259949462890625,2.1367056369781494,-0.1745840609073639,-2.437324285507202
1788862274164956700,3.269956787109375,1.9486032724380493,-0.08290074020624161,-2.5383827686309814
1788862274174962400,3.27996240234375,1.771762728691101,-0.10169360786676407,-2.66040301322937
1788862274184968400,3.289968505859375,1.611968755722046,-0.23212777078151703,-2.7765815258026123
1788862274194975500,3.2999755859375,1.5117428302764893,-0.3134140968322754,-2.877718687057495
1788862274204981500,3.3099814453125,1.5150026082992554,-0.3625513017177582,-2.8870606422424316
1788862274214988500,3.319988525390625,1.4809374809265137,-0.5114662051200867,-2.855618715286255
1788862274224994300,3.329994384765625,1.4877290725708008,-0.5929983258247375,-2.831926107406616
1788862274235000300,3.340000244140625,1.4635614156723022,-0.4644467830657959,-2.7832131385803223
1788862274245007600,3.350007568359375,1.3746566772460938,-0.21486356854438782,-2.8114230632781982
1788862274255013400,3.360013427734375,1.227156400680542,-0.03975726664066315,-2.867086887359619
1788862274265020400,3.3700205078125,1.0644534826278687,0.003909253980964422,-2.8763043880462646
1788862274275026400,3.3800263671875,0.9156943559646606,-0.002283926820382476,-2.8334858417510986
1788862274285032400,3.390032470703125,0.7555081844329834,-0.06209959089756012,-2.7926268577575684
1788862274295039500,3.40003955078125,0.587351381778717,-0.14133769273757935,-2.769766092300415
1788862274305045200,3.410045166015625,0.4346020519733429,-0.2022383213043213,-2.7297861576080322
1788862274315051500,3.420051513671875,0.2705063223838806,-0.20748740434646606,-2.6733274459838867
1788862274325058600,3.43005859375,0.13662947714328766,-0.14473587274551392,-2.650942325592041
1788862274335064300,3.440064208984375,0.028003139421343803,-0.16936665773391724,-2.6017982959747314
1788862274345071600,3.450071533203125,-0.019363578408956528,-0.16465365886688232,-2.5289413928985596
1788862274355077600,3.46007763671875,-0.06857453286647797,-0.04722610116004944,-2.4697959423065186
1788862274365083400,3.47008349609375,-0.11113450676202774,0.08294282108545303,-2.4315342903137207
1788862274375090400,3.48009033203125,-0.1568569839000702,0.15651610493659973,-2.4139084815979004
1788862274385096400,3.490096435546875,-0.2100570946931839,0.1781921088695526,-2.4015371799468994
1788862274395103500,3.500103515625,-0.28569406270980835,0.1961575299501419,-2.3695297241210938
1788862274405109500,3.510109619140625,-0.37484097480773926,0.22019308805465698,-2.357133150100708
1788862274415115300,3.520115234375,-0.43605905771255493,0.1931534856557846,-2.3836610317230225
1788862274425122600,3.53012255859375,-0.4645064175128937,0.12344470620155334,-2.3786513805389404
1788862274435128600,3.540128662109375,-0.4929404556751251,0.11154144257307053,-2.31622314453125
1788862274445135400,3.55013525390625,-0.5265095829963684,0.16363953053951263,-2.2656679153442383
1788862274455141600,3.5601416015625,-0.5519382953643799,0.22783581912517548,-2.270486831665039
1788862274465147400,3.5701474609375,-0.5885250568389893,0.24343235790729523,-2.27994441986084
1788862274475154400,3.580154541015625,-0.6281086802482605,0.27372848987579346,-2.327214479446411
1788862274485160000,3.590159912109375,-0.6594471335411072,0.31232672929763794,-2.400421142578125
1788862274495166700,3.600166748046875,-0.7204828262329102,0.3379969596862793,-2.454054355621338
1788862274505172700,3.6101728515625,-0.7653586864471436,0.2299319952726364,-2.441556692123413
1788862274515179000,3.620178955078125,-0.7545209527015686,0.37543967366218567,-2.347341299057007
1788862274525185800,3.630185791015625,-0.800073504447937,0.3661726713180542,-2.2530875205993652
1788862274535191800,3.64019189453125,-0.8451057076454163,0.2859683632850647,-2.248087167739868
1788862274545198000,3.650197998046875,-0.9071645140647888,0.3057769536972046,-2.317378282546997
1788862274555204900,3.660204833984375,-1.004347801208496,0.2508346140384674,-2.445781946182251
1788862274565211000,3.6702109375,-1.061793565750122,0.45976200699806213,-2.5393056869506836
1788862274575218000,3.680218017578125,-1.185682773590088,0.8626681566238403,-2.5555100440979004
1788862274585224000,3.690223876953125,-1.2617239952087402,1.1137278079986572,-2.537055253982544
1788862274595230000,3.70022998046875,-1.3650617599487305,1.0384492874145508,-2.451592445373535
1788862274605236700,3.71023681640625,-1.2948049306869507,1.1744505167007446,-2.2931129932403564
1788862274615243000,3.720242919921875,-1.1596505641937256,1.1770644187927246,-2.111264944076538
1788862274625249800,3.730249755859375,-1.0809863805770874,1.0654324293136597,-2.00875186920166
1788862274635255800,3.740255859375,-1.0093790292739868,1.1277337074279785,-1.9858113527297974
1788862274645261800,3.75026171875,-0.9527227282524109,1.2691930532455444,-1.947050929069519
1788862274655268900,3.760268798828125,-1.003376841545105,1.4752466678619385,-1.879749059677124
1788862274665275000,3.77027490234375,-1.0731021165847778,1.743891716003418,-1.8389968872070312
1788862274675281700,3.78028173828125,-0.9846742153167725,1.9018405675888062,-1.775900959968567
1788862274685288000,3.790287841796875,-0.8582563996315002,1.8782025575637817,-1.6112632751464844
1788862274695294000,3.8002939453125,-0.7736560106277466,1.84999680519104,-1.5397849082946777
1788862274705300700,3.81030078125,-0.787224292755127,1.7982568740844727,-1.6096878051757812
1788862274715306800,3.820306640625,-0.8894941806793213,1.8462481498718262,-1.665656566619873
1788862274725313800,3.830313720703125,-1.0070040225982666,2.0388481616973877,-1.6318495273590088
1788862274735319800,3.84031982421875,-1.0971717834472656,2.1231000423431396,-1.609395146369934
1788862274745325800,3.850325927734375,-1.1639801263809204,2.166116237640381,-1.6440356969833374
1788862274755332900,3.860332763671875,-1.2761154174804688,2.1949751377105713,-1.6436606645584106
1788862274765339000,3.8703388671875,-1.4400862455368042,2.0174851417541504,-1.5772318840026855
1788862274775346000,3.880345947265625,-1.6444090604782104,1.7592154741287231,-1.4070934057235718
1788862274785351700,3.8903515625,-1.8184351921081543,1.554643154144287,-1.254120945930481
1788862274795358000,3.90035791015625,-1.9128795862197876,1.414250373840332,-1.1832467317581177
1788862274805364700,3.91036474609375,-1.9580931663513184,1.383773922920227,-1.0953952074050903
1788862274815370800,3.920370849609375,-2.0324175357818604,1.4495137929916382,-1.0988197326660156
1788862274825378000,3.9303779296875,-2.132720947265625,1.6234209537506104,-1.1424404382705688
1788862274835383800,3.9403837890625,-2.2046761512756348,1.7941838502883911,-1.1723690032958984
1788862274845389800,3.950389892578125,-2.175473213195801,1.845954418182373,-1.214463472366333
1788862274855396900,3.96039697265625,-2.050062417984009,1.7784216403961182,-1.238592267036438
1788862274865403000,3.97040283203125,-1.938683032989502,1.5844844579696655,-1.2996755838394165
1788862274875410000,3.980409912109375,-1.8053289651870728,1.4565531015396118,-1.3024567365646362
1788862274885415700,3.990415771484375,-1.6573660373687744,1.4685416221618652,-1.19083833694458
1788862274895421700,4.000421630859375,-1.5095396041870117,1.5916392803192139,-0.9810113310813904
1788862274905429000,4.010428955078125,-1.3885232210159302,1.7618166208267212,-0.7906256914138794
1788862274915434800,4.020434814453125,-1.2959239482879639,1.9189680814743042,-0.7212074398994446
1788862274925441800,4.03044189453125,-1.1733983755111694,1.9943630695343018,-0.7296984195709229
1788862274935447800,4.04044775390625,-1.0054285526275635,1.8353736400604248,-0.7272336483001709
1788862274945453800,4.050453857421875,-0.8375082015991211,1.6616876125335693,-0.6452149748802185
1788862274955460900,4.0604609375,-0.7276715040206909,1.439049482345581,-0.5176317095756531
1788862274965466600,4.070466552734375,-0.6848512887954712,1.3337936401367188,-0.4542205035686493
1788862274975474000,4.080473876953125,-0.7009612917900085,1.3404150009155273,-0.3978842496871948
1788862274985480000,4.09047998046875,-0.7006608843803406,1.5396623611450195,-0.3593355417251587
1788862274995485700,4.100485595703125,-0.6979812383651733,1.6094776391983032,-0.33123651146888733
1788862275005493000,4.110492919921875,-0.685011088848114,1.644365906715393,-0.2729359269142151
1788862275015498800,4.120498779296875,-0.7430986166000366,1.7347679138183594,-0.25075820088386536
1788862275025505800,4.130505859375,-0.8464639186859131,1.704312801361084,-0.3061354160308838
1788862275035511800,4.14051171875,-0.8953576683998108,1.7387781143188477,-0.43896111845970154
1788862275045517800,4.150517822265625,-0.9330733418464661,1.7696244716644287,-0.5463922619819641
1788862275055524900,4.16052490234375,-0.997925877571106,1.8435897827148438,-0.5703076720237732
1788862275065531000,4.17053076171875,-1.056420087814331,1.8267114162445068,-0.48578959703445435
1788862275075538000,4.180537841796875,-1.0775741338729858,1.7484890222549438,-0.38447868824005127
1788862275085544000,4.1905439453125,-1.1327587366104126,1.6736342906951904,-0.3502592146396637
1788862275095549700,4.2005498046875,-1.2188483476638794,1.7750394344329834,-0.37947407364845276
1788862275105557000,4.210556884765625,-1.2257550954818726,1.8354130983352661,-0.39401307702064514
1788862275115563000,4.22056298828125,-1.2451287508010864,1.9717199802398682,-0.3536747097969055
1788862275125569800,4.23056982421875,-1.2755053043365479,2.0366451740264893,-0.21807347238063812
1788862275135575800,4.240575927734375,-1.3144769668579102,2.155196189880371,-0.005567338317632675
1788862275145582000,4.25058203125,-1.3513963222503662,2.126978635787964,0.13299186527729034
1788862275155588900,4.2605888671875,-1.3455506563186646,1.7819902896881104,0.1239408552646637
1788862275165595000,4.270594970703125,-1.3083056211471558,1.2333616018295288,0.13811659812927246
1788862275175602000,4.280601806640625,-1.2278269529342651,0.7430024743080139,0.14954182505607605
1788862275185608000,4.29060791015625,-1.128546953201294,0.41861242055892944,0.09977959096431732
1788862275195614000,4.300614013671875,-1.0736736059188843,0.36213424801826477,0.04556455463171005
1788862275205620700,4.310620849609375,-1.063597321510315,0.44090521335601807,0.03871037811040878
1788862275215627000,4.320626953125,-1.033959984779358,0.5525244474411011,0.10531710088253021
1788862275225633800,4.3306337890625,-0.9585297107696533,0.5113370418548584,0.17891915142536163
1788862275235639800,4.340639892578125,-0.8353606462478638,0.4631626009941101,0.18343986570835114
1788862275245645800,4.350645751953125,-0.6546257734298706,0.42605090141296387,0.12192989885807037
1788862275255652900,4.36065283203125,-0.46783483028411865,0.4672643840312958,0.07063262164592743
1788862275265659000,4.370658935546875,-0.3695772588253021,0.46106427907943726,0.07283559441566467
1788862275275665700,4.380665771484375,-0.31071341037750244,0.38034626841545105,0.12619414925575256
1788862275285672000,4.390671875,-0.24284087121486664,0.21325288712978363,0.19122642278671265
1788862275295678000,4.400677978515625,-0.18361909687519073,0.20705197751522064,0.27937251329421997
1788862275305684700,4.410684814453125,-0.1798238307237625,0.4372119605541229,0.40349632501602173
1788862275315690800,4.420690673828125,-0.225387841463089,0.6561264395713806,0.46176230907440186
1788862275325697800,4.43069775390625,-0.22640757262706757,0.599241316318512,0.3869019150733948
1788862275335703800,4.440703857421875,-0.13480602204799652,0.3730238974094391,0.2629892826080322
1788862275345710800,4.4507109375,-0.013462545350193977,0.16123628616333008,0.13315193355083466
1788862275355716900,4.460716796875,0.048285242170095444,0.060325659811496735,0.012693957425653934
1788862275365723000,4.470722900390625,0.07009439915418625,0.11354387551546097,-0.004177434369921684
1788862275375730000,4.48072998046875,0.08988887816667557,0.10083340108394623,0.07757255434989929
1788862275385735700,4.490735595703125,0.12336082011461258,0.10872221738100052,0.16306588053703308
1788862275395743000,4.500742919921875,0.11561208218336105,0.22404427826404572,0.25401976704597473
1788862275405748700,4.510748779296875,0.08912055194377899,0.4594533443450928,0.3004927337169647
1788862275415754800,4.520754638671875,0.09366763383150101,0.5446047186851501,0.27585768699645996
1788862275425762000,4.530761962890625,0.12411555647850037,0.4116581082344055,0.2163940817117691
1788862275435767800,4.540767822265625,0.17889198660850525,0.19678416848182678,0.09804560989141464
1788862275445774800,4.55077490234375,0.24322623014450073,0.17783178389072418,-0.04637229070067406
1788862275455780900,4.56078076171875,0.278472363948822,0.25159549713134766,-0.08678469806909561
1788862275465787000,4.570786865234375,0.21312318742275238,0.2848684787750244,-0.032635707408189774
1788862275475794000,4.5807939453125,0.11222560703754425,0.2861103117465973,0.04147261008620262
1788862275485799400,4.59079931640625,0.018486864864826202,0.13008663058280945,0.0960405096411705
1788862275495806500,4.600806396484375,-0.014313692227005959,-0.061766695231199265,0.1122000440955162
1788862275505812500,4.6108125,-0.01116104144603014,-0.1411866843700409,0.08259953558444977
1788862275515818200,4.620818359375,-0.02538898028433323,-0.11964650452136993,0.032285235822200775
1788862275525825500,4.630825439453125,-0.0680573508143425,-0.12465644627809525,-0.013411412946879864
1788862275535831600,4.64083154296875,-0.11806032806634903,-0.1313321888446808,-0.055514656007289886
1788862275545838300,4.65083837890625,-0.14734230935573578,-0.03778146579861641,-0.09217120707035065
1788862275555844600,4.6608447265625,-0.1667778044939041,0.11438383162021637,-0.13064749538898468
1788862275565851400,4.670851318359375,-0.2282470166683197,0.16121232509613037,-0.16600733995437622
1788862275575857400,4.680857421875,-0.2880650758743286,0.055682968348264694,-0.18203558027744293
1788862275585863700,4.69086376953125,-0.3110617399215698,-0.04574698209762573,-0.1678800880908966
1788862275595870500,4.700870361328125,-0.2785346806049347,-0.1515706181526184,-0.17136482894420624
1788862275605876500,4.71087646484375,-0.21278098225593567,-0.28020980954170227,-0.16881698369979858
1788862275615883500,4.720883544921875,-0.1693786382675171,-0.37268808484077454,-0.1844734400510788
1788862275625889500,4.7308896484375,-0.164600670337677,-0.36835697293281555,-0.2043006718158722
1788862275635895600,4.7408955078125,-0.18174982070922852,-0.27478256821632385,-0.20954550802707672
1788862275645902300,4.75090234375,-0.18650943040847778,-0.18566067516803741,-0.19661958515644073
1788862275655908600,4.76090869140625,-0.19634394347667694,-0.1326880007982254,-0.17506395280361176
1788862275665915400,4.770915283203125,-0.22516600787639618,-0.09774626791477203,-0.14533083140850067
1788862275675921400,4.78092138671875,-0.24690139293670654,-0.07212372869253159,-0.09889542311429977
1788862275685928700,4.7909287109375,-0.2545337378978729,-0.20450466871261597,-0.11388129740953445
1788862275695934500,4.8009345703125,-0.25038108229637146,-0.2734203636646271,-0.21207363903522491
1788862275705940500,4.8109404296875,-0.2689840495586395,-0.20835480093955994,-0.31349825859069824
1788862275715947300,4.820947265625,-0.30345016717910767,-0.10444704443216324,-0.3928562104701996
1788862275725953500,4.83095361328125,-0.3036099374294281,-0.03406715765595436,-0.4386758804321289
1788862275735960600,4.840960693359375,-0.2899585962295532,-0.012319250032305717,-0.43455490469932556
1788862275745966300,4.85096630859375,-0.2856447994709015,0.02424062415957451,-0.4050223231315613
1788862275755972400,4.860972412109375,-0.29138603806495667,0.019477561116218567,-0.3702627420425415
1788862275765979600,4.870979736328125,-0.29263612627983093,0.0034993935842067003,-0.36687973141670227
1788862275775985400,4.8809853515625,-0.2929743528366089,0.019522035494446754,-0.37456002831459045
1788862275785992400,4.890992431640625,-0.2880781292915344,0.004453870467841625,-0.3715551793575287
1788862275795998500,4.90099853515625,-0.27824705839157104,-0.08563794195652008,-0.37587854266166687
1788862275806005500,4.911005615234375,-0.24298095703125,-0.17146097123622894,-0.4025983214378357
1788862275816011500,4.921011474609375,-0.2116352915763855,-0.18271894752979279,-0.45135706663131714
1788862275826017300,4.931017333984375,-0.19244109094142914,-0.20916414260864258,-0.5008969306945801
1788862275836024600,4.941024658203125,-0.17873698472976685,-0.269694060087204,-0.5267825722694397
1788862275846030600,4.951030517578125,-0.17772871255874634,-0.32262492179870605,-0.5391492247581482
1788862275856037400,4.961037353515625,-0.20686902105808258,-0.38764145970344543,-0.5516796708106995
1788862275866043600,4.971043701171875,-0.2335384488105774,-0.5448140501976013,-0.5227726697921753
1788862275876049400,4.98104931640625,-0.20246335864067078,-0.5550128817558289,-0.48468440771102905
1788862275886056400,4.991056396484375,-0.10758078843355179,-0.49339771270751953,-0.4686007797718048
1788862275896062500,5.0010625,-0.022251509130001068,-0.5425828695297241,-0.49097105860710144
1788862275906069500,5.011069580078125,0.04940669611096382,-0.5897517204284668,-0.5218434929847717
1788862275916075500,5.021075439453125,0.11156781017780304,-0.6687703728675842,-0.5348732471466064
1788862275926082300,5.031082275390625,0.15183906257152557,-0.7245635986328125,-0.5373103022575378
1788862275936088600,5.041088623046875,0.17375661432743073,-0.7804399132728577,-0.570611834526062
1788862275946094600,5.051094482421875,0.1937316507101059,-0.7945564985275269,-0.6172677278518677
1788862275956101400,5.061101318359375,0.2523358464241028,-0.6106841564178467,-0.6693375706672668
1788862275966107400,5.071107421875,0.3502621352672577,-0.2820356786251068,-0.6806853413581848
1788862275976114400,5.081114501953125,0.3688978850841522,-0.25533589720726013,-0.6398226022720337
1788862275986120400,5.091120361328125,0.35506489872932434,-0.3824975788593292,-0.5715356469154358
1788862275996126500,5.10112646484375,0.38454633951187134,-0.42260849475860596,-0.5959494113922119
1788862276006133500,5.111133544921875,0.4306400716304779,-0.43179240822792053,-0.6840630173683167
1788862276016139500,5.121139404296875,0.4442778527736664,-0.3311134874820709,-0.719307541847229
1788862276026146300,5.131146240234375,0.4393936097621918,-0.1237935796380043,-0.7582634687423706
1788862276036152300,5.14115234375,0.38378840684890747,-0.0478530079126358,-0.8105341196060181
1788862276046159600,5.15115966796875,0.3659481704235077,-0.13887132704257965,-0.8286862373352051
1788862276056165400,5.161165283203125,0.39939266443252563,-0.3345918357372284,-0.853198230266571
1788862276066171400,5.17117138671875,0.44675886631011963,-0.3310287892818451,-0.8782151937484741
1788862276076178400,5.181178466796875,0.42302581667900085,-0.17474757134914398,-0.8669119477272034
1788862276086184400,5.191184326171875,0.340038537979126,-0.11227221041917801,-0.8167518377304077
1788862276096191500,5.20119140625,0.28734254837036133,-0.1371155083179474,-0.7707177400588989
1788862276106197200,5.211197265625,0.28981369733810425,-0.19876796007156372,-0.7928049564361572
1788862276116204500,5.22120458984375,0.3054715096950531,-0.19285094738006592,-0.8173757791519165
1788862276126210600,5.23121044921875,0.29614004492759705,-0.1742391735315323,-0.8030208349227905
1788862276136216300,5.24121630859375,0.30303895473480225,-0.20133577287197113,-0.7469934821128845
1788862276146223600,5.2512236328125,0.3375628590583801,-0.26752492785453796,-0.6704508066177368
1788862276156229400,5.2612294921875,0.36370524764060974,-0.30083760619163513,-0.6197887063026428
1788862276166236400,5.271236328125,0.3500584065914154,-0.24500149488449097,-0.6033753752708435
1788862276176242700,5.28124267578125,0.3410944640636444,-0.14062689244747162,-0.5667675733566284
1788862276186249500,5.29124951171875,0.3420116603374481,-0.1471865177154541,-0.5551180839538574
1788862276196255500,5.30125537109375,0.315681517124176,-0.19569599628448486,-0.5590127110481262
1788862276206261500,5.311261474609375,0.27226880192756653,-0.22326797246932983,-0.5150526762008667
1788862276216268500,5.3212685546875,0.21792539954185486,-0.16992805898189545,-0.4105324149131775
1788862276226274600,5.331274658203125,0.18556639552116394,-0.12033706158399582,-0.3480844795703888
1788862276236281300,5.34128125,0.1683402806520462,-0.14123648405075073,-0.3231807351112366
1788862276246287600,5.35128759765625,0.1722404807806015,-0.11984997242689133,-0.28225937485694885
1788862276256294400,5.36129443359375,0.23023374378681183,-0.0065559037029743195,-0.24091914296150208
1788862276266300400,5.371300537109375,0.21006934344768524,-0.043296609073877335,-0.154946967959404
1788862276276306400,5.381306396484375,0.17196111381053925,0.0035840822383761406,-0.01461862400174141
1788862276286313500,5.3913134765625,0.18594536185264587,0.1229695975780487,0.04808923229575157
1788862276296319500,5.401319580078125,0.19945558905601501,0.1138695776462555,0.044803425669670105
1788862276306326300,5.411326171875,0.2152060568332672,0.017462613061070442,0.01582237333059311
1788862276316332500,5.42133251953125,0.2133793830871582,-0.04736751690506935,0.00866193138062954
1788862276326339600,5.431339599609375,0.20528444647789001,0.15197567641735077,0.02653493732213974
1788862276336345300,5.441345458984375,0.19486695528030396,0.3601382076740265,0.039923179894685745
1788862276346351400,5.451351318359375,0.15419143438339233,0.39834630489349365,0.037150297313928604
1788862276356358700,5.461358642578125,0.08347997814416885,0.3347036838531494,0.05738792568445206
1788862276366364400,5.471364501953125,0.03526637703180313,0.33108657598495483,0.1359652876853943
1788862276376371500,5.481371337890625,0.03560300171375275,0.45379093289375305,0.2139410525560379
1788862276386377500,5.49137744140625,0.046176016330718994,0.52309250831604,0.2208745926618576
1788862276396384500,5.501384521484375,0.021747373044490814,0.44662249088287354,0.1841469407081604
1788862276406390500,5.511390625,-0.02111513912677765,0.3827306032180786,0.16848647594451904
1788862276416396300,5.521396240234375,-0.034140925854444504,0.4498473107814789,0.218643918633461
1788862276426403600,5.531403564453125,-0.02473996765911579,0.5240855813026428,0.3208855986595154
1788862276436409600,5.54140966796875,-0.10134845972061157,0.4119611978530884,0.4099273383617401
1788862276446416400,5.55141650390625,-0.1951332688331604,0.39012885093688965,0.48545485734939575
1788862276456422700,5.561422607421875,-0.23422688245773315,0.45774704217910767,0.5631802678108215
1788862276466429400,5.571429443359375,-0.28279760479927063,0.5566928386688232,0.6009801030158997
1788862276476435500,5.581435546875,-0.3579200506210327,0.5802322030067444,0.5811086893081665
1788862276486441700,5.591441650390625,-0.45155492424964905,0.538419246673584,0.5673925876617432
1788862276496448800,5.60144873046875,-0.5375625491142273,0.52249675989151,0.6107006669044495
1788862276506454800,5.611454833984375,-0.5977209210395813,0.609989583492279,0.6670675277709961
1788862276516461600,5.621461669921875,-0.6404519081115723,0.6905422210693359,0.70698481798172
1788862276526467600,5.631467529296875,-0.6748921275138855,0.6767014861106873,0.7293029427528381
1788862276536474600,5.641474609375,-0.6906527280807495,0.5922684073448181,0.724310040473938
1788862276546480600,5.651480712890625,-0.7017368078231812,0.47350257635116577,0.7167826294898987
1788862276556486700,5.661486572265625,-0.7111566662788391,0.399329274892807,0.735366940498352
1788862276566493700,5.67149365234375,-0.7401377558708191,0.42148253321647644,0.8028437495231628
1788862276576499700,5.681499755859375,-0.7908453941345215,0.48074957728385925,0.9029285311698914
1788862276586506500,5.691506591796875,-0.8421690464019775,0.513308048248291,0.9945460557937622
1788862276596512500,5.701512451171875,-0.8723655343055725,0.5183632373809814,1.0449978113174438
1788862276606519800,5.711519775390625,-0.8623299598693848,0.4843083620071411,1.0732858180999756
1788862276616525600,5.721525634765625,-0.8179566264152527,0.5014268755912781,1.1513652801513672
1788862276626531600,5.731531494140625,-0.7592064738273621,0.659310519695282,1.2788435220718384
1788862276636538600,5.74153857421875,-0.6999943256378174,0.8746989965438843,1.3984277248382568
1788862276646544600,5.751544677734375,-0.6611558198928833,0.8984192609786987,1.4353519678115845
1788862276656551700,5.7615517578125,-0.6217317581176758,0.7104243040084839,1.4243834018707275
1788862276666557400,5.771557373046875,-0.500750720500946,0.5157608389854431,1.443768858909607
1788862276676564700,5.781564697265625,-0.3948908746242523,0.4509647786617279,1.5029534101486206
1788862276686570800,5.79157080078125,-0.36932292580604553,0.5237013101577759,1.5709220170974731
1788862276696576500,5.801576416015625,-0.4074138402938843,0.598554253578186,1.6120723485946655
1788862276706583800,5.811583740234375,-0.4465167820453644,0.5706658959388733,1.6584566831588745
1788862276716589600,5.821589599609375,-0.46338149905204773,0.5018362402915955,1.7162253856658936
1788862276726596600,5.8315966796875,-0.44496867060661316,0.5083356499671936,1.7777007818222046
1788862276736602600,5.8416025390625,-0.44924119114875793,0.6108812093734741,1.807645559310913
1788862276746609700,5.851609619140625,-0.4992454946041107,0.7209984064102173,1.8536427021026611
1788862276756615700,5.86161572265625,-0.5418299436569214,0.8033060431480408,1.9669582843780518
1788862276766622500,5.87162255859375,-0.4903276264667511,0.7806345820426941,2.0622522830963135
1788862276776628700,5.881628662109375,-0.442217081785202,0.6821774840354919,2.038278102874756
1788862276786634800,5.891634765625,-0.3767020106315613,0.5493371486663818,1.9352989196777344
1788862276796641500,5.9016416015625,-0.21509313583374023,0.49558258056640625,1.8790223598480225
1788862276806647600,5.9116474609375,-0.040175117552280426,0.4477945566177368,1.85456383228302
1788862276816654600,5.921654541015625,0.023806262761354446,0.6278178691864014,1.8092453479766846
1788862276826660600,5.93166064453125,-0.016748087480664253,0.4569326639175415,1.680624008178711
1788862276836667600,5.941667724609375,0.01155518926680088,-0.13315832614898682,1.5937386751174927
1788862276846673700,5.951673583984375,0.16244962811470032,-0.42915108799934387,1.5999137163162231
1788862276856679700,5.9616796875,0.3517782688140869,-0.2422427237033844,1.5838508605957031
1788862276866686500,5.9716865234375,0.3413722515106201,0.12053520232439041,1.4432207345962524
1788862276876692500,5.9816923828125,0.27175161242485046,-0.0017590179340913892,1.3002684116363525
1788862276886699800,5.99169970703125,0.33679986000061035,-0.2655949294567108,1.3154500722885132
1788862276896705500,6.00170556640625,0.4259720742702484,-0.5579849481582642,1.3773472309112549
1788862276906712600,6.011712646484375,0.47512656450271606,-0.750468373298645,1.3622883558273315
1788862276916718800,6.02171875,0.4886692762374878,-0.7999768257141113,1.3029481172561646
1788862276926725600,6.0317255859375,0.4227307438850403,-0.7682263851165771,1.2535030841827393
1788862276936731600,6.041731689453125,0.2766371965408325,-0.8805446624755859,1.2865164279937744
1788862276946737400,6.0517373046875,0.12601998448371887,-1.1006442308425903,1.3878710269927979
1788862276956744700,6.06174462890625,0.045403167605400085,-1.2526713609695435,1.443481206893921
1788862276966750700,6.071750732421875,0.06924937665462494,-1.2417771816253662,1.392134666442871
1788862276976757500,6.081757568359375,0.04869003966450691,-1.0676047801971436,1.3365329504013062
1788862276986763800,6.091763671875,-0.0638735219836235,-0.7612746953964233,1.3577545881271362
1788862276996770600,6.1017705078125,-0.22517293691635132,-0.49160754680633545,1.4095776081085205
1788862277006776600,6.111776611328125,-0.3293989300727844,-0.38691869378089905,1.3909010887145996
1788862277016783600,6.12178369140625,-0.31473609805107117,-0.5448180437088013,1.299190878868103
1788862277026789600,6.13178955078125,-0.23348918557167053,-0.8135048747062683,1.1502957344055176
1788862277036795600,6.141795654296875,-0.11431006342172623,-1.0679869651794434,0.9869073033332825
1788862277046802400,6.151802490234375,-0.001529453438706696,-1.0407342910766602,0.854612410068512
1788862277056808700,6.16180859375,0.1176813617348671,-0.6119645833969116,0.7276695966720581
1788862277066815500,6.1718154296875,0.22681289911270142,-0.24621883034706116,0.6139259934425354
1788862277076821500,6.181821533203125,0.3076656758785248,-0.18019959330558777,0.4865190386772156
1788862277086828800,6.191828857421875,0.3788983225822449,-0.1431821882724762,0.3289738893508911
1788862277096834600,6.20183447265625,0.4370327293872833,-0.029758693650364876,0.15874330699443817
1788862277106840600,6.211840576171875,0.4706348776817322,0.32630035281181335,-0.0006831008358858526
1788862277116847900,6.221847900390625,0.4569947123527527,0.7249979376792908,-0.14392921328544617
1788862277126853600,6.231853515625,0.45648443698883057,0.9059136509895325,-0.24511973559856415
1788862277136860700,6.241860595703125,0.44355666637420654,0.833836555480957,-0.3348509669303894
1788862277146866400,6.251866455078125,0.4431209862232208,0.7639344334602356,-0.4525829255580902
1788862277156873700,6.261873779296875,0.3794842064380646,0.5469115376472473,-0.5382884740829468
1788862277166879700,6.271879638671875,0.2921373248100281,0.4024558365345001,-0.6174802780151367
1788862277176886500,6.281886474609375,0.25943291187286377,0.49240249395370483,-0.7273194193840027
1788862277186892800,6.291892822265625,0.22036299109458923,0.7697680592536926,-0.8793246746063232
1788862277196898800,6.30189892578125,0.09089022874832153,0.8758164644241333,-1.0349401235580444
1788862277206905600,6.311905517578125,-0.08642437309026718,0.5452766418457031,-1.095598578453064
1788862277216911600,6.32191162109375,-0.21453572809696198,0.1553294062614441,-0.9891225099563599
1788862277226918700,6.331918701171875,-0.27187278866767883,-0.06763150542974472,-0.7113745212554932
1788862277236924700,6.341924560546875,-0.2581300735473633,-0.0885399878025055,-0.4259190857410431
1788862277246931500,6.351931396484375,-0.22079016268253326,-0.166171133518219,-0.3875668942928314
1788862277256937700,6.361937744140625,-0.204204261302948,-0.433245450258255,-0.5345755219459534
1788862277266944800,6.37194482421875,-0.17597343027591705,-0.32553574442863464,-0.654530942440033
1788862277276950500,6.381950439453125,-0.1281190812587738,0.21231412887573242,-0.8396206498146057
1788862277286956500,6.39195654296875,-0.12591078877449036,0.8962418437004089,-1.1554754972457886
1788862277296963600,6.401963623046875,-0.22139284014701843,1.1077685356140137,-1.4344052076339722
1788862277306969600,6.411969482421875,-0.35160329937934875,0.9604272246360779,-1.51923668384552
1788862277316976600,6.4219765625,-0.43846577405929565,0.6456834077835083,-1.444494605064392
1788862277326982700,6.431982666015625,-0.5443799495697021,-0.031190143898129463,-1.271016001701355
1788862277336989700,6.44198974609375,-0.5261785984039307,-0.8307310342788696,-1.02571439743042
1788862277346995700,6.45199560546875,-0.37298688292503357,-1.4469984769821167,-0.7897500395774841
1788862277357002800,6.462002685546875,-0.20132139325141907,-1.7733625173568726,-0.6147510409355164
1788862277367008800,6.4720087890625,-0.11679080128669739,-1.9216395616531372,-0.4973706305027008
1788862277377014500,6.4820146484375,-0.1951625645160675,-1.9432766437530518,-0.3979140818119049
1788862277387021600,6.492021484375,-0.43165072798728943,-1.7132408618927002,-0.4439380168914795
1788862277397027800,6.50202783203125,-0.684568464756012,-0.9798283576965332,-0.6082177758216858
1788862277407034600,6.51203466796875,-0.815089225769043,-0.12363246083259583,-0.6959928870201111
1788862277417040600,6.52204052734375,-0.8163997530937195,0.22420087456703186,-0.6094284653663635
1788862277427047700,6.532047607421875,-0.8073247671127319,-0.12483913451433182,-0.35136255621910095
1788862277437053700,6.5420537109375,-0.7949330806732178,-0.46255752444267273,-0.07552884519100189
1788862277447060500,6.552060546875,-0.8213923573493958,-0.48612356185913086,0.12743225693702698
1788862277457066500,6.56206640625,-0.9020757675170898,-0.5169935822486877,0.2291458398103714
1788862277467072800,6.57207275390625,-0.9238886833190918,-0.5448668003082275,0.19282644987106323
1788862277477079600,6.58207958984375,-0.9016501903533936,-0.8717436790466309,0.09449667483568192
1788862277487085800,6.5920859375,-0.8411673903465271,-1.247483730316162,-0.04099004343152046
1788862277497092600,6.602092529296875,-0.7558570504188538,-1.3784435987472534,-0.21717040240764618
1788862277507098600,6.6120986328125,-0.7037680149078369,-1.268621563911438,-0.38795146346092224
1788862277517106000,6.62210595703125,-0.667815625667572,-1.0686650276184082,-0.535431444644928
1788862277527111700,6.632111572265625,-0.6128745675086975,-0.8776884078979492,-0.6628445386886597
1788862277537118700,6.64211865234375,-0.5237092971801758,-0.8194940686225891,-0.7629040479660034
1788862277547124700,6.652124755859375,-0.45235201716423035,-0.8274369239807129,-0.8073567152023315
1788862277557131800,6.6621318359375,-0.4241099953651428,-0.8198256492614746,-0.7982050180435181
1788862277567137800,6.6721376953125,-0.43162623047828674,-0.8471786975860596,-0.7858532667160034
1788862277577143600,6.6821435546875,-0.4606994390487671,-0.9032022953033447,-0.7895238995552063
1788862277587150800,6.69215087890625,-0.49452638626098633,-0.8621723055839539,-0.8012098670005798
1788862277597156900,6.702156982421875,-0.534826934337616,-0.7666729688644409,-0.8124784827232361
1788862277607163600,6.71216357421875,-0.6162291169166565,-0.7747702598571777,-0.8284755945205688
1788862277617169700,6.722169677734375,-0.6901491284370422,-0.925753653049469,-0.8371263146400452
1788862277627176700,6.7321767578125,-0.689054548740387,-1.017192006111145,-0.7795906066894531
1788862277637182700,6.7421826171875,-0.6365628838539124,-1.000992774963379,-0.7192907929420471
1788862277647189500,6.752189453125,-0.5515076518058777,-0.8873023986816406,-0.7696929574012756
1788862277657195800,6.76219580078125,-0.44693195819854736,-0.7169303894042969,-0.8869237303733826
1788862277667201800,6.772201904296875,-0.33714792132377625,-0.6289076209068298,-1.0076152086257935
1788862277677208600,6.78220849609375,-0.20694784820079803,-0.731264054775238,-1.1054209470748901
1788862277687214600,6.792214599609375,-0.05616047605872154,-0.8409772515296936,-1.17172110080719
1788862277697221600,6.8022216796875,0.09101193398237228,-0.8772742748260498,-1.1609786748886108
1788862277707227600,6.8122275390625,0.17875510454177856,-0.9282581210136414,-1.0433993339538574
1788862277717234700,6.822234619140625,0.2033959925174713,-0.9663141369819641,-0.8685542941093445
1788862277727240700,6.83224072265625,0.18295995891094208,-0.98171466588974,-0.7334558367729187
1788862277737247700,6.842247802734375,0.18131040036678314,-1.133676290512085,-0.6901949644088745
1788862277747253800,6.852253662109375,0.2063845992088318,-1.339444875717163,-0.7494521141052246
1788862277757260800,6.8622607421875,0.23097462952136993,-1.5096246004104614,-0.8598968982696533
1788862277767266800,6.872266845703125,0.24979758262634277,-1.5947368144989014,-0.9459116458892822
1788862277777272600,6.8822724609375,0.23212884366512299,-1.4644384384155273,-0.9721962809562683
1788862277787279600,6.892279541015625,0.1631620228290558,-1.2984294891357422,-0.9455311298370361
1788862277797286000,6.902285888671875,0.06323995441198349,-1.3545050621032715,-0.8784423470497131
1788862277807292700,6.912292724609375,-0.0033358754590153694,-1.423524022102356,-0.8049814701080322
1788862277817298700,6.922298583984375,-0.039801474660634995,-1.5144917964935303,-0.7986378073692322
1788862277827305700,6.9323056640625,-0.032349418848752975,-1.755190134048462,-0.8937419652938843
1788862277837311700,6.942311767578125,-0.0017502295086160302,-2.0396924018859863,-1.0089346170425415
1788862277847318500,6.952318603515625,0.005548696033656597,-2.0997602939605713,-1.082124948501587
1788862277857324800,6.96232470703125,-0.021586518734693527,-2.0042006969451904,-1.1793476343154907
1788862277867330800,6.972330810546875,-0.07940001785755157,-2.096658229827881,-1.290229320526123
1788862277877337600,6.982337646484375,-0.1845000684261322,-2.2004177570343018,-1.3800554275512695
1788862277887343600,6.992343505859375,-0.3336200416088104,-1.9903651475906372,-1.500841498374939
1788862277897351000,7.002350830078125,-0.4245757758617401,-1.717087984085083,-1.7093523740768433
1788862277907356700,7.012356689453125,-0.49550801515579224,-1.5927234888076782,-1.9607936143875122
1788862277917363700,7.02236376953125,-0.6346062421798706,-1.4928873777389526,-2.0852768421173096
1788862277927369700,7.03236962890625,-0.7688814997673035,-1.4594780206680298,-2.172692060470581
1788862277937376800,7.042376708984375,-0.8633654117584229,-1.2645103931427002,-2.24448561668396
1788862277947382800,7.0523828125,-0.8103746175765991,-1.0044796466827393,-2.1990246772766113
1788862277957388500,7.062388427734375,-0.689350962638855,-0.7964950203895569,-2.1421806812286377
1788862277967395800,7.072395751953125,-0.6397586464881897,-0.6166131496429443,-2.2481119632720947
1788862277977401900,7.08240185546875,-0.6062225699424744,-0.788049578666687,-2.405484437942505
1788862277987408600,7.09240869140625,-0.5797046422958374,-0.8050757050514221,-2.401806354522705
1788862277997415000,7.102414794921875,-0.6058249473571777,-0.517723023891449,-2.324314832687378
1788862278007421700,7.112421630859375,-0.6443158388137817,0.25652551651000977,-2.2336881160736084
1788862278017427700,7.122427734375,-0.5795161128044128,0.9764618277549744,-2.2090401649475098
1788862278027434800,7.132434814453125,-0.5259532928466797,0.7942755222320557,-2.1542084217071533
1788862278037440800,7.142440673828125,-0.6531628966331482,0.24938799440860748,-1.971650242805481
1788862278047447800,7.15244775390625,-0.9043967127799988,-0.05879167839884758,-1.6873830556869507
1788862278057453600,7.16245361328125,-1.2150291204452515,-0.047561924904584885,-1.4347585439682007
1788862278067459800,7.1724599609375,-1.2535126209259033,0.49432316422462463,-1.2582868337631226
1788862278077466600,7.182466552734375,-0.9495517015457153,1.6689764261245728,-1.1111080646514893
1788862278087472600,7.19247265625,-0.5701097846031189,2.330622434616089,-1.0890823602676392
1788862278097480000,7.20247998046875,-0.42760059237480164,2.053614616394043,-1.0069688558578491
1788862278107485700,7.212485595703125,-0.6139108538627625,1.2795034646987915,-0.6729584336280823
1788862278117492700,7.22249267578125,-0.8560877442359924,0.790127694606781,-0.2531920373439789
1788862278127498800,7.232498779296875,-1.0508465766906738,0.7076828479766846,0.08425016701221466
1788862278137505800,7.242505859375,-1.204889178276062,0.9727256894111633,0.29882505536079407
1788862278147511800,7.25251171875,-1.2514857053756714,1.455950140953064,0.36775484681129456
1788862278157517600,7.262517578125,-1.2353328466415405,1.5070903301239014,0.45463356375694275
1788862278167524900,7.27252490234375,-1.2245204448699951,1.1868947744369507,0.7418743968009949
1788862278177531000,7.28253076171875,-1.2813860177993774,0.9269790053367615,1.1931376457214355
1788862278187537700,7.29253759765625,-1.3961552381515503,1.386840581893921,1.7637919187545776
1788862278197543700,7.302543701171875,-1.4462621212005615,2.2258522510528564,2.228492259979248
1788862278207550700,7.31255078125,-1.2889715433120728,2.6419270038604736,2.215998649597168
1788862278217556700,7.322556640625,-0.901844322681427,2.3960022926330566,2.1302082538604736
1788862278227563500,7.3325634765625,-0.40395891666412354,1.6385985612869263,2.1866395473480225
1788862278237569800,7.34256982421875,-0.027363181114196777,1.4501864910125732,2.37976336479187
1788862278247576800,7.352576904296875,0.0699966624379158,1.6822993755340576,2.4687907695770264
1788862278257582600,7.36258251953125,0.07157831639051437,1.3881194591522217,2.152510166168213
1788862278267588600,7.372588623046875,0.17260132730007172,0.65146404504776,1.6567684412002563
1788862278277595600,7.382595703125,0.1755845993757248,0.0911211222410202,1.4322333335876465
1788862278287601700,7.3926015625,0.07242093980312347,0.07800984382629395,1.6285182237625122
1788862278297608700,7.402608642578125,0.015000787563621998,0.12031842023134232,1.9233242273330688
1788862278307614700,7.41261474609375,0.0070192934945225716,0.4709467589855194,2.1791157722473145
1788862278317621800,7.422621826171875,0.04224945232272148,0.582118034362793,2.353437900543213
1788862278327627800,7.432627685546875,0.11231855303049088,0.506359875202179,2.3947384357452393
1788862278337634800,7.442634765625,0.16448135673999786,0.3478226959705353,2.301788806915283
1788862278347640800,7.452640869140625,0.18105047941207886,0.017521202564239502,2.1889588832855225
1788862278357647600,7.462647705078125,0.16725556552410126,-0.29370298981666565,2.1931309700012207
1788862278367653600,7.472653564453125,0.12307000160217285,-0.36445119976997375,2.304743528366089
1788862278377660000,7.482659912109375,0.03152410313487053,-0.4874407649040222,2.4001121520996094
1788862278387666700,7.492666748046875,-0.02851712889969349,-0.5133024454116821,2.5182909965515137
1788862278397672700,7.502672607421875,-0.009836917743086815,-0.35598528385162354,2.554892063140869
1788862278407679700,7.5126796875,-0.0013164004776626825,-0.27658870816230774,2.495586395263672
1788862278417685800,7.522685791015625,-0.047874048352241516,-0.2543470561504364,2.4130496978759766
1788862278427692500,7.532692626953125,-0.11051186174154282,-0.22083118557929993,2.3324804306030273
1788862278437698800,7.54269873046875,-0.13485048711299896,-0.145399272441864,2.2450335025787354
1788862278447705900,7.552705810546875,-0.0896768867969513,0.10084352642297745,2.1423919200897217
1788862278457711600,7.562711669921875,-0.043716855347156525,0.2435724437236786,1.9700936079025269
1788862278467719000,7.572718994140625,-0.03743711858987808,0.18573550879955292,1.751875877380371
1788862278477724700,7.582724609375,0.013997041620314121,0.23483461141586304,1.596851110458374
1788862278487730400,7.59273046875,0.1090409979224205,0.27054494619369507,1.5522394180297852
1788862278497737500,7.602737548828125,0.1658337116241455,0.36334118247032166,1.5517020225524902
1788862278507743200,7.6127431640625,0.17938706278800964,0.456185907125473,1.4774231910705566
1788862278517750500,7.62275048828125,0.14792847633361816,0.4009953439235687,1.3109983205795288
1788862278527756500,7.632756591796875,0.07409260421991348,0.333469033241272,1.072799801826477
1788862278537763300,7.642763427734375,-0.03563149645924568,0.2526056170463562,0.8017590045928955
1788862278547769600,7.65276953125,-0.1046217530965805,0.22291404008865356,0.5568802952766418
1788862278557776400,7.6627763671875,-0.12589508295059204,0.28109318017959595,0.3563453257083893
1788862278567782400,7.672782470703125,-0.15863704681396484,0.266446590423584,0.19895997643470764
1788862278577789400,7.68278955078125,-0.22936980426311493,0.21285474300384521,0.051361724734306335
1788862278587795500,7.69279541015625,-0.28745895624160767,0.23253284394741058,-0.08179579675197601
1788862278597801500,7.702801513671875,-0.26813051104545593,0.2132137417793274,-0.17908427119255066
1788862278607808500,7.71280859375,-0.20137998461723328,0.051538024097681046,-0.30939486622810364
1788862278617814500,7.722814453125,-0.17561496794223785,-0.2020963728427887,-0.502780556678772
1788862278627821600,7.732821533203125,-0.17359788715839386,-0.30051589012145996,-0.6799793243408203
1788862278637827300,7.742827392578125,-0.15325292944908142,-0.29422202706336975,-0.808886706829071
1788862278647834600,7.752834716796875,-0.1815149337053299,-0.47207432985305786,-0.9188688397407532
1788862278657840400,7.76284033203125,-0.27870380878448486,-0.5680165886878967,-1.0249977111816406
1788862278667847400,7.772847412109375,-0.36014991998672485,-0.45140525698661804,-1.1060923337936401
1788862278677853700,7.782853759765625,-0.3598679006099701,-0.14044871926307678,-1.1408874988555908
1788862278687860500,7.792860595703125,-0.3636900782585144,-0.07862690091133118,-1.1493803262710571
1788862278697866500,7.802866455078125,-0.4831845164299011,-0.43089598417282104,-1.1371793746948242
1788862278707872500,7.81287255859375,-0.5367097854614258,-0.6682321429252625,-1.063954472541809
1788862278717879600,7.822879638671875,-0.444157212972641,-0.6373125314712524,-0.9513136148452759
1788862278727885600,7.832885498046875,-0.37974172830581665,-0.6309212446212769,-0.7829073071479797
1788862278737892400,7.842892333984375,-0.459957480430603,-0.7151336073875427,-0.6263847947120667
1788862278747898600,7.852898681640625,-0.5690655708312988,-0.6639332175254822,-0.5961433053016663
1788862278757905400,7.862905517578125,-0.6125808358192444,-0.41326481103897095,-0.6454852819442749
1788862278767911400,7.872911376953125,-0.6655183434486389,-0.15621542930603027,-0.6916921734809875
1788862278777918500,7.88291845703125,-0.7282192707061768,0.08721932768821716,-0.7844889760017395
1788862278787924500,7.892924560546875,-0.6992430090904236,0.11067511141300201,-0.9181788563728333
1788862278797931500,7.902931640625,-0.6344730854034424,-0.10599806904792786,-1.069286584854126
1788862278807937300,7.912937255859375,-0.5634676218032837,-0.440909206867218,-1.139223337173462
1788862278817944600,7.922944580078125,-0.47309377789497375,-0.5858222246170044,-1.1353827714920044
1788862278827950600,7.93295068359375,-0.4083568751811981,-0.5817563533782959,-1.095429539680481
1788862278837956400,7.942956298828125,-0.40332430601119995,-0.40259405970573425,-1.0533866882324219
1788862278847963600,7.952963623046875,-0.4365123510360718,-0.32935526967048645,-0.967593252658844
1788862278857969400,7.962969482421875,-0.48245611786842346,-0.45423486828804016,-0.9379104971885681
1788862278867976400,7.9729765625,-0.5056581497192383,-0.6019105911254883,-1.0324833393096924
1788862278877982500,7.982982421875,-0.49833789467811584,-0.7417340278625488,-1.1480045318603516
1788862278887989500,7.992989501953125,-0.4738791584968567,-0.8038325309753418,-1.1895397901535034
1788862278897995500,8.00299560546875,-0.4381864070892334,-0.5285698175430298,-1.2180907726287842
1788862278908002300,8.013002197265624,-0.40966182947158813,-0.4526609480381012,-1.2600916624069214
1788862278918008600,8.023008544921876,-0.4171932339668274,-0.8193763494491577,-1.306897521018982
1788862278928015400,8.033015380859375,-0.40314292907714844,-1.1163954734802246,-1.321966528892517
1788862278938021400,8.043021484375,-0.33107805252075195,-0.9077589511871338,-1.3226133584976196
1788862278948027400,8.05302734375,-0.292894184589386,-0.52010178565979,-1.318538784980774
1788862278958034400,8.063034423828125,-0.3037140667438507,-0.48417919874191284,-1.2831528186798096
1788862278968040400,8.07304052734375,-0.3040584325790405,-0.7085843086242676,-1.222100853919983
1788862278978047500,8.083047607421875,-0.24785533547401428,-0.9458432197570801,-1.2050100564956665
1788862278988053500,8.093053466796874,-0.17431055009365082,-1.0151901245117188,-1.2674249410629272
1788862278998060500,8.103060546875,-0.15038497745990753,-0.9013873338699341,-1.3389511108398438
1788862279008066300,8.11306640625,-0.1396646946668625,-0.8356256484985352,-1.398779034614563
1788862279018073600,8.123073486328124,-0.09702800959348679,-0.8141427040100098,-1.472145915031433
1788862279028079600,8.13307958984375,-0.04977954179048538,-0.8224227428436279,-1.5262565612792969
1788862279038086400,8.14308642578125,-0.027843348681926727,-0.9683791399002075,-1.5103247165679932
1788862279048092400,8.153092529296876,0.004488225560635328,-1.1316900253295898,-1.4326722621917725
1788862279058099500,8.163099365234375,0.04952121526002884,-1.088638424873352,-1.3637781143188477
1788862279068105500,8.17310546875,0.05476577579975128,-1.1254377365112305,-1.322657585144043
1788862279078111500,8.183111572265625,0.09230250120162964,-1.2926759719848633,-1.3120795488357544
1788862279088118500,8.193118408203125,0.16428960859775543,-1.40252685546875,-1.3257132768630981
1788862279098124500,8.20312451171875,0.1916104406118393,-1.3879317045211792,-1.3591128587722778
1788862279108131300,8.21313134765625,0.16054333746433258,-1.2984564304351807,-1.3595967292785645
1788862279118137300,8.223137451171874,0.13693015277385712,-1.3537108898162842,-1.2868090867996216
1788862279128144400,8.233144287109376,0.17248335480690002,-1.4102779626846313,-1.2313975095748901
1788862279138150400,8.243150390625,0.17070142924785614,-1.2124391794204712,-1.259366750717163
1788862279148157400,8.253157470703124,0.09595875442028046,-1.0056266784667969,-1.3451142311096191
1788862279158163500,8.26316357421875,0.050210706889629364,-0.9654776453971863,-1.3882791996002197
1788862279168170500,8.27317041015625,0.0983302965760231,-0.999354362487793,-1.3334721326828003
1788862279178176500,8.283176513671876,0.1816725879907608,-1.035740613937378,-1.3421956300735474
1788862279188182300,8.293182373046875,0.21230773627758026,-0.9042497277259827,-1.4333136081695557
1788862279198189600,8.303189453125,0.17524026334285736,-0.5601727366447449,-1.5224109888076782
1788862279208195300,8.3131953125,0.1601174920797348,-0.16132177412509918,-1.5550764799118042
1788862279218202600,8.32320263671875,0.19785289466381073,0.008050203323364258,-1.5060689449310303
1788862279228208600,8.333208740234374,0.20589324831962585,0.12189474701881409,-1.3254212141036987
1788862279238215400,8.34321533203125,0.19088447093963623,0.3009611666202545,-1.0860536098480225
1788862279248221400,8.353221435546875,0.13471174240112305,0.17591270804405212,-1.0007888078689575
1788862279258228500,8.363228515625,0.08222190290689468,-0.01990819349884987,-1.0000507831573486
1788862279268234500,8.373234375,0.033178459852933884,-0.06484610587358475,-0.8850911855697632
1788862279278241300,8.3832412109375,-0.02803349867463112,0.035163313150405884,-0.7848644852638245
1788862279288247600,8.39324755859375,-0.16171540319919586,0.14936791360378265,-0.7795737981796265
1788862279298253600,8.403253662109375,-0.37236452102661133,0.16489094495773315,-0.7118149995803833
1788862279308260400,8.41326025390625,-0.47113797068595886,0.0888582319021225,-0.5895761847496033
1788862279318266400,8.423266357421875,-0.4798020124435425,-0.09466978162527084,-0.5049662590026855
1788862279328273400,8.4332734375,-0.4853810667991638,-0.02255617454648018,-0.40869829058647156
1788862279338279400,8.443279541015626,-0.5215739607810974,0.08050123602151871,-0.34581705927848816
1788862279348286500,8.453286376953125,-0.5593703389167786,0.00472391489893198,-0.27328240871429443
1788862279358292500,8.46329248046875,-0.5576571226119995,0.10200945287942886,-0.10906177014112473
1788862279368299500,8.473299560546875,-0.4824955463409424,0.3524845540523529,0.05615594610571861
1788862279378305500,8.483305419921875,-0.46484625339508057,0.5134840607643127,0.14824938774108887
1788862279388312600,8.4933125,-0.5204581022262573,0.6466895341873169,0.2922622263431549
1788862279398318600,8.503318603515625,-0.5246043801307678,0.7096086144447327,0.5091495513916016
1788862279408325400,8.513325439453125,-0.47455480694770813,0.5356075167655945,0.6994262337684631
1788862279418331400,8.523331298828126,-0.5098568797111511,0.47258538007736206,0.8443711996078491
1788862279428337700,8.533337646484375,-0.5949573516845703,0.5192713737487793,0.9735960364341736
1788862279438344400,8.543344482421874,-0.662361741065979,0.6455158591270447,1.0876624584197998
1788862279448350500,8.5533505859375,-0.7192873358726501,0.8057864904403687,1.1692816019058228
1788862279458357500,8.563357421875,-0.7660521268844604,0.6889352798461914,1.1939715147018433
1788862279468363500,8.573363525390626,-0.7763401865959167,0.6261650919914246,1.2877146005630493
1788862279478370300,8.583370361328125,-0.7382711172103882,0.7736895680427551,1.45854651927948
1788862279488376300,8.593376220703124,-0.7392871379852295,0.9802374243736267,1.6184775829315186
1788862279498383600,8.603383544921876,-0.8020623326301575,1.0030052661895752,1.7186579704284668
1788862279508389400,8.613389404296875,-0.8552089333534241,0.8452303409576416,1.790748953819275
1788862279518396400,8.623396484375,-0.8410534262657166,0.7514074444770813,1.8865036964416504
1788862279528402700,8.633402587890625,-0.7962899804115295,0.7286067605018616,1.9756975173950195
1788862279538408400,8.643408447265625,-0.7505461573600769,0.7289931774139404,2.026801824569702
1788862279548415500,8.65341552734375,-0.7052782773971558,0.8409141302108765,2.0321223735809326
1788862279558421200,8.663421142578125,-0.653928279876709,0.8732350468635559,1.9982330799102783
1788862279568428500,8.673428466796874,-0.5740885734558105,0.7422890067100525,1.9614285230636597
1788862279578434600,8.6834345703125,-0.4796331822872162,0.6496584415435791,2.0135176181793213
1788862279588441300,8.69344140625,-0.3680483400821686,0.6018909215927124,2.1388938426971436
1788862279598447600,8.703447509765626,-0.2806497812271118,0.3651675879955292,2.244609832763672
1788862279608454400,8.713454345703125,-0.21660713851451874,0.0731905922293663,2.3137807846069336
1788862279618460400,8.72346044921875,-0.17084310948848724,-0.07782582193613052,2.371267080307007
1788862279628467500,8.733467529296876,-0.14470498263835907,-0.16773387789726257,2.4197700023651123
1788862279638473500,8.743473388671875,-0.15552914142608643,-0.22987553477287292,2.4132513999938965
1788862279648480500,8.75348046875,-0.22250577807426453,-0.17351479828357697,2.347346305847168
1788862279658486300,8.763486328125,-0.3114468455314636,0.010090983472764492,2.2638885974884033
1788862279668492500,8.773492431640625,-0.39694228768348694,0.2300715446472168,2.1655006408691406
1788862279678499600,8.78349951171875,-0.4241046607494354,0.3219732344150543,2.085967779159546
1788862279688505300,8.79350537109375,-0.36585360765457153,0.3241511881351471,2.0845866203308105
1788862279698512600,8.8035126953125,-0.2311495989561081,0.374786376953125,2.14943790435791
1788862279708518400,8.813518310546876,-0.06771060079336166,0.3429621458053589,2.1818532943725586
1788862279718525400,8.823525390625,0.04296131432056427,0.3688712418079376,2.1139867305755615
1788862279728531500,8.833531494140624,0.05733732506632805,0.46702390909194946,1.9831087589263916
1788862279738538500,8.84353857421875,0.04842185974121094,0.48559173941612244,1.8280962705612183
1788862279748544500,8.85354443359375,0.07367608696222305,0.38831499218940735,1.6428041458129883
1788862279758551300,8.86355126953125,0.14214569330215454,0.26703035831451416,1.4893629550933838
1788862279768557600,8.8735576171875,0.24528352916240692,0.21693018078804016,1.4322501420974731
1788862279778563600,8.8835634765625,0.3524291515350342,0.06751725822687149,1.389828085899353
1788862279788570400,8.8935703125,0.40447211265563965,-0.1008368656039238,1.2709156274795532
1788862279798576400,8.903576416015625,0.36093929409980774,-0.08592822402715683,1.1024019718170166
1788862279808583400,8.91358349609375,0.26111334562301636,-0.007190801203250885,0.9376457333564758
1788862279818589400,8.92358935546875,0.17454996705055237,-0.10645533353090286,0.7960763573646545
1788862279828596500,8.933596435546875,0.09857264906167984,-0.28670474886894226,0.6464663743972778
1788862279838602500,8.9436025390625,-0.013463610783219337,-0.319494366645813,0.5362434387207031
1788862279848609500,8.953609619140625,-0.1239195466041565,-0.0884113535284996,0.4895726144313812
1788862279858615300,8.963615234375,-0.17255046963691711,-0.14751408994197845,0.4957367777824402
1788862279868622600,8.97362255859375,-0.17987468838691711,-0.29418474435806274,0.4855344891548157
1788862279878628600,8.983628662109375,-0.155299574136734,-0.21113407611846924,0.4442110061645508
1788862279888635400,8.993635498046874,-0.150014266371727,-0.3205026388168335,0.32661300897598267
1788862279898641700,9.0036416015625,-0.22975996136665344,-0.6212443709373474,0.12607936561107635
1788862279908647400,9.0136474609375,-0.31170275807380676,-0.605960488319397,-0.1440170854330063
1788862279918654500,9.023654541015626,-0.28859743475914,-0.17323915660381317,-0.3944149613380432
1788862279928660500,9.033660400390625,-0.24910515546798706,0.03469699248671532,-0.5889588594436646
1788862279938667500,9.04366748046875,-0.26956942677497864,-0.012248942628502846,-0.7457433938980103
1788862279948673500,9.053673583984375,-0.33199286460876465,-0.12339597195386887,-0.8075417876243591
1788862279958680300,9.063680419921875,-0.3436148762702942,-0.22566215693950653,-0.814426064491272
1788862279968686600,9.0736865234375,-0.34944748878479004,-0.4247637987136841,-0.817552924156189
1788862279978693400,9.083693359375,-0.37904584407806396,-0.6090068817138672,-0.7967778444290161
1788862279988699400,9.093699462890624,-0.3813100755214691,-0.8062504529953003,-0.7863798141479492
1788862279998706700,9.103706787109376,-0.4130312502384186,-1.2383214235305786,-0.8436907529830933
1788862280008712400,9.11371240234375,-0.5086991786956787,-1.4848659038543701,-0.9601073861122131
1788862280018719500,9.123719482421874,-0.5918800830841064,-1.1241657733917236,-1.0945093631744385
1788862280028725500,9.1337255859375,-0.5629501938819885,-0.45665064454078674,-1.1809518337249756
1788862280038731500,9.1437314453125,-0.5903591513633728,-0.17901316285133362,-1.2640491724014282
1788862280048738600,9.153738525390626,-0.7213730812072754,-0.08330341428518295,-1.2942217588424683
1788862280058744300,9.163744384765625,-0.8016602396965027,-0.015426626428961754,-1.2235376834869385
1788862280068751600,9.173751708984375,-0.8201321959495544,-0.009791644290089607,-1.1294090747833252
1788862280078757600,9.183757568359376,-0.8712294697761536,-0.11201601475477219,-1.059584379196167
1788862280088764400,9.193764404296875,-0.9454330801963806,-0.2864658534526825,-1.0477749109268188
1788862280098770400,9.2037705078125,-0.9584924578666687,-0.5149203538894653,-1.1199843883514404
1788862280108777500,9.213777587890625,-0.8973859548568726,-0.7910509705543518,-1.2210979461669922
1788862280118783500,9.223783447265625,-0.8406662344932556,-0.7890253663063049,-1.329525351524353
1788862280128790300,9.233790283203126,-0.8158732652664185,-0.6674422025680542,-1.4423445463180542
1788862280138796500,9.243796630859375,-0.7785335779190063,-0.5894020199775696,-1.5163586139678955
1788862280148802600,9.253802490234374,-0.7476377487182617,-0.4128269851207733,-1.5265917778015137
1788862280158809300,9.263809326171875,-0.7138440608978271,-0.2704690396785736,-1.4720628261566162
1788862280168815400,9.2738154296875,-0.7434626817703247,-0.4653996527194977,-1.3885985612869263
1788862280178822400,9.283822509765624,-0.7924869656562805,-0.800664484500885,-1.2945061922073364
1788862280188828400,9.293828369140625,-0.7481919527053833,-0.8356195092201233,-1.277510166168213
1788862280198835500,9.30383544921875,-0.6537511944770813,-0.6899417042732239,-1.3235868215560913
1788862280208841500,9.313841552734376,-0.603341281414032,-0.6397157907485962,-1.3627169132232666
1788862280218848500,9.3238486328125,-0.5790881514549255,-0.7770763039588928,-1.3379324674606323
1788862280228854500,9.3338544921875,-0.5303655862808228,-1.0622079372406006,-1.3186644315719604
1788862280238861600,9.343861572265626,-0.4784957468509674,-1.3322124481201172,-1.3430060148239136
1788862280248867600,9.35386767578125,-0.4499959349632263,-1.3699241876602173,-1.397821307182312
1788862280258874400,9.363874267578124,-0.4574940502643585,-1.3306034803390503,-1.4216015338897705
1788862280268880400,9.37388037109375,-0.5033062696456909,-1.446088433265686,-1.426217794418335
1788862280278887400,9.383887451171875,-0.5402137041091919,-1.6692283153533936,-1.4253085851669312
1788862280288893400,9.3938935546875,-0.5347433090209961,-1.7702207565307617,-1.4426418542861938
1788862280298899500,9.4038994140625,-0.48617470264434814,-1.7333202362060547,-1.4599590301513672
1788862280308906500,9.413906494140624,-0.40457838773727417,-1.3506416082382202,-1.4243464469909668
1788862280318912500,9.42391259765625,-0.332638680934906,-1.0549646615982056,-1.3870584964752197
1788862280328919300,9.433919189453125,-0.28695881366729736,-0.9818209409713745,-1.4382249116897583
1788862280338925300,9.44392529296875,-0.22146154940128326,-1.041785478591919,-1.5022790431976318
1788862280348932600,9.4539326171875,-0.1475018411874771,-1.3070427179336548,-1.514000654220581
1788862280358938400,9.4639384765625,-0.09008382260799408,-1.4293265342712402,-1.5362002849578857
1788862280368945400,9.4739453125,-0.07438741624355316,-1.2078988552093506,-1.4979718923568726
1788862280378951400,9.483951416015625,-0.11395879089832306,-0.9960251450538635,-1.3885409832000732
1788862280388958500,9.49395849609375,-0.1920328289270401,-0.8772119879722595,-1.3156249523162842
1788862280398964500,9.503964599609375,-0.2493714839220047,-0.7525590062141418,-1.3211896419525146
1788862280408970200,9.51397021484375,-0.24603506922721863,-0.6715013980865479,-1.3961241245269775
1788862280418977500,9.5239775390625,-0.21690088510513306,-0.6763523817062378,-1.4604040384292603
1788862280428983600,9.533983642578125,-0.18094608187675476,-0.6015601754188538,-1.3650192022323608
1788862280438990300,9.543990234375,-0.1739475578069687,-0.41685235500335693,-1.2197397947311401
1788862280448996600,9.55399658203125,-0.19999700784683228,-0.10609394311904907,-1.153799295425415
1788862280459003400,9.56400341796875,-0.1998601108789444,0.21892355382442474,-1.1085636615753174
1788862280469009400,9.574009521484374,-0.12079086899757385,0.17701925337314606,-1.1036118268966675
1788862280479016400,9.584016357421875,-0.09072644263505936,-0.09981154650449753,-0.9910359978675842
1788862280489022500,9.5940224609375,-0.15422898530960083,-0.12377866357564926,-0.7653434872627258
1788862280499029800,9.60402978515625,-0.19642437994480133,0.217838317155838,-0.6893299221992493
1788862280509035800,9.614035888671875,-0.1866641491651535,0.23182843625545502,-0.7398043274879456
1788862280519042800,9.624042724609374,-0.1717509925365448,0.04673900827765465,-0.7132973074913025
1788862280529048600,9.634048583984375,-0.1377115249633789,0.04216796159744263,-0.6135560870170593
1788862280539054800,9.644054931640625,-0.07535067945718765,0.24184085428714752,-0.5763266682624817
1788862280549062000,9.654061767578124,-0.011343734338879585,0.4947953522205353,-0.5210219025611877
1788862280559067600,9.664067626953125,0.07927298545837402,0.5692658424377441,-0.3963686525821686
1788862280569075000,9.674074951171875,0.1295292228460312,0.4339045584201813,-0.30938050150871277
1788862280579080700,9.684080810546876,0.1461513489484787,0.47160640358924866,-0.25858867168426514
1788862280589087700,9.694087646484375,0.1503455638885498,0.4344632923603058,-0.15824823081493378
1788862280599093800,9.70409375,0.18403641879558563,0.3801494538784027,-0.021922342479228973
1788862280609100800,9.714100830078126,0.2013014256954193,0.24557620286941528,0.06376060098409653
1788862280619106800,9.72410693359375,0.1920570582151413,0.23927436769008636,0.1217096596956253
1788862280629113600,9.734113525390624,0.23563995957374573,0.33797112107276917,0.23690176010131836
1788862280639120000,9.744119873046875,0.35160037875175476,0.46199744939804077,0.40586867928504944
1788862280649126000,9.7541259765625,0.4656691551208496,0.5630934238433838,0.5375816822052002
1788862280659132700,9.764132568359376,0.4803117513656616,0.4261590242385864,0.5831156373023987
1788862280669138700,9.774138671875,0.4872724413871765,0.4865848422050476,0.627246618270874
1788862280679145700,9.784145751953124,0.5066911578178406,0.7678058743476868,0.7664393782615662
1788862280689151700,9.79415185546875,0.5375595688819885,1.1518248319625854,0.9449582695960999
1788862280699158800,9.80415869140625,0.5787778496742249,1.4387168884277344,1.1166013479232788
1788862280709164800,9.814164794921876,0.574872612953186,1.2880802154541016,1.2526806592941284
1788862280719171800,9.824171875,0.5272781848907471,0.917227029800415,1.4655125141143799
1788862280729177600,9.834177490234374,0.5421119928359985,0.8248712420463562,1.8402512073516846
1788862280739185000,9.844184814453126,0.6171100735664368,0.930675745010376,2.189814567565918
1788862280749191000,9.85419091796875,0.6538047194480896,0.8448279500007629,2.38862681388855
1788862280759197700,9.86419775390625,0.6299867033958435,0.5696890354156494,2.4521050453186035
1788862280769203700,9.87420361328125,0.596624493598938,0.3752732276916504,2.385249614715576
1788862280779209700,9.884209716796875,0.5363028645515442,0.32627159357070923,2.2170794010162354
1788862280789216800,9.894216796875,0.41886571049690247,0.30966225266456604,2.0468106269836426
1788862280799222800,9.904222900390625,0.29998859763145447,0.2937067151069641,2.0308117866516113
1788862280809229800,9.914229736328124,0.2598464787006378,0.5413420796394348,2.1910207271575928
1788862280819235800,9.92423583984375,0.2672383487224579,0.43640872836112976,2.3671324253082275
1788862280829242600,9.93424267578125,0.26152268052101135,-0.1660694032907486,2.4545085430145264
1788862280839248600,9.94424853515625,0.2237694412469864,-0.4053663909435272,2.532675266265869
1788862280849255700,9.954255615234375,0.25676387548446655,0.26041561365127563,2.5813679695129395
1788862280859261700,9.96426171875,0.370743989944458,0.919400691986084,2.475816011428833
1788862280869268700,9.974268798828126,0.4536876082420349,1.0882091522216797,2.265446424484253
1788862280879274800,9.984274658203125,0.44335028529167175,0.9454607963562012,2.1008248329162598
1788862280889280800,9.99428076171875,0.4122365713119507,0.59698885679245,2.040158748626709
1788862280899287800,10.004287841796875,0.3635891377925873,0.1883171796798706,2.113976001739502
1788862280909293600,10.01429345703125,0.29276689887046814,0.21483826637268066,2.2605979442596436
1788862280919300900,10.02430078125,0.22052837908267975,0.4730530381202698,2.3338353633880615
1788862280929306600,10.034306640625,0.144353449344635,0.4607526957988739,2.235248327255249
1788862280939313700,10.044313720703125,0.061644721776247025,0.5060650706291199,2.0219714641571045
1788862280949320000,10.05431982421875,0.06767438352108002,0.7652625441551208,1.8494822978973389
1788862280959326700,10.06432666015625,0.18133889138698578,1.0709806680679321,1.7843408584594727
1788862280969332700,10.074332763671874,0.3504440188407898,1.1323803663253784,1.833169937133789
1788862280979339800,10.08433984375,0.4698154330253601,0.7282147407531738,1.9252502918243408
1788862280989345800,10.094345703125,0.44341498613357544,-0.07617972046136856,1.951841115951538
1788862280999351800,10.104351806640626,0.3117522895336151,-0.623142421245575,1.9267741441726685
1788862281009358800,10.11435888671875,0.20757955312728882,-0.641975998878479,1.847983717918396
1788862281019364900,10.12436474609375,0.10391095280647278,-0.43857523798942566,1.652956485748291
1788862281029371600,10.13437158203125,-0.04261403903365135,-0.13312023878097534,1.3479230403900146
1788862281039377700,10.144377685546875,-0.14063593745231628,0.3029218018054962,0.9931319355964661
1788862281049385000,10.154385009765624,-0.23384152352809906,0.3401930034160614,0.6898202300071716
1788862281059390700,10.164390625,-0.2603175938129425,0.07094740867614746,0.48434245586395264
1788862281069397800,10.174397705078125,-0.14258138835430145,0.22840067744255066,0.3963334858417511
1788862281079403800,10.18440380859375,0.0359066016972065,0.7014628052711487,0.3690888285636902
1788862281089410800,10.194410888671875,0.052008338272571564,0.7645527720451355,0.2733103632926941
1788862281099416800,10.204416748046874,-0.1682089865207672,0.1993836760520935,0.05855625495314598
1788862281109423900,10.214423828125,-0.2729255259037018,-0.40078258514404297,-0.198319211602211
1788862281119430000,10.224429931640625,-0.1656944304704666,-0.34817156195640564,-0.3041638731956482
1788862281129436000,10.234435791015626,0.03550925850868225,0.12754544615745544,-0.2843976318836212
1788862281139442700,10.244442626953125,0.08453885465860367,-0.005628058221191168,-0.36235636472702026
1788862281149449000,10.254448974609375,-0.0182261411100626,-0.6004768013954163,-0.5036959052085876
1788862281159455700,10.264455810546876,-0.10119399428367615,-0.7388525009155273,-0.6687138676643372
1788862281169461800,10.274461669921875,-0.1342773735523224,-0.5255271792411804,-0.7916401028633118
1788862281179468800,10.28446875,-0.23377761244773865,-0.42736226320266724,-0.8918492197990417
1788862281189474800,10.294474853515625,-0.4085656702518463,-0.5069159269332886,-0.9881651401519775
1788862281199481600,10.304481689453125,-0.544161319732666,-0.7107734680175781,-1.108362078666687
1788862281209487600,10.314487548828126,-0.5687886476516724,-0.8595112562179565,-1.2268749475479126
1788862281219495000,10.324494873046875,-0.5318172574043274,-0.6180989146232605,-1.2337887287139893
1788862281229500700,10.334500732421875,-0.49036359786987305,0.05355670303106308,-1.07598876953125
1788862281239506700,10.344506591796875,-0.5179318189620972,0.3204595148563385,-0.8506192564964294
1788862281249514000,10.354513916015625,-0.5718363523483276,-0.26596537232398987,-0.7177791595458984
1788862281259519700,10.364519775390624,-0.52848219871521,-0.8999218344688416,-0.7478228211402893
1788862281269526800,10.37452685546875,-0.4615175724029541,-0.9767997860908508,-0.7994143962860107
1788862281279532500,10.384532470703125,-0.44133397936820984,-0.7618076205253601,-0.7952656745910645
1788862281289539800,10.394539794921876,-0.4608573615550995,-0.5053361654281616,-0.854179859161377
1788862281299545900,10.4045458984375,-0.5232682824134827,-0.19777698814868927,-1.036920428276062
1788862281309552600,10.414552734375,-0.6425411105155945,-0.23214589059352875,-1.2768232822418213
1788862281319559000,10.424558837890626,-0.7291823029518127,-0.15410195291042328,-1.5106525421142578
1788862281329565700,10.434565673828125,-0.6714428067207336,0.6202027797698975,-1.613006830215454
1788862281339571700,10.44457177734375,-0.5467355251312256,1.4332011938095093,-1.5474326610565186
1788862281349577700,10.45457763671875,-0.57741779088974,1.1109226942062378,-1.4507801532745361
1788862281359584800,10.464584716796875,-0.6717230081558228,-0.20036345720291138,-1.4276043176651
1788862281369590800,10.4745908203125,-0.5426526069641113,-0.9316490888595581,-1.422008991241455
1788862281379597600,10.48459765625,-0.4543134272098541,-0.9284794330596924,-1.352683186531067
1788862281389603800,10.494603759765624,-0.5314220786094666,-0.6946426630020142,-1.3505151271820068
1788862281399611000,10.50461083984375,-0.5977286696434021,-0.3819692134857178,-1.449583649635315
1788862281409616600,10.51461669921875,-0.5648588538169861,-0.5480740070343018,-1.5314819812774658
1788862281419624000,10.5246240234375,-0.5138044357299805,-0.9085538983345032,-1.4634320735931396
1788862281429629700,10.534629638671875,-0.42825013399124146,-0.615969717502594,-1.3591381311416626
1788862281439636700,10.54463671875,-0.35185950994491577,-0.45965734124183655,-1.2831658124923706
1788862281449642800,10.554642822265626,-0.31289026141166687,-0.7494473457336426,-1.240316390991211
1788862281459649800,10.56464990234375,-0.29405373334884644,-0.7450991868972778,-1.2609657049179077
1788862281469655800,10.57465576171875,-0.31806424260139465,-0.7491447925567627,-1.2771124839782715
1788862281479661800,10.584661865234375,-0.367274671792984,-1.049031376838684,-1.2446935176849365
1788862281489668900,10.5946689453125,-0.34630388021469116,-1.141680121421814,-1.2753108739852905
1788862281499675000,10.6046748046875,-0.24850009381771088,-0.9128304123878479,-1.3946449756622314
1788862281509681700,10.614681640625,-0.1312198042869568,-0.7519083619117737,-1.454978108406067
1788862281519687700,10.624687744140624,-0.03810290992259979,-0.6944631934165955,-1.4324368238449097
1788862281529694700,10.63469482421875,0.012682505883276463,-0.5784353613853455,-1.4470187425613403
1788862281539700700,10.64470068359375,0.06754442304372787,-0.5491382479667664,-1.4787614345550537
1788862281549707800,10.654707763671874,0.12715555727481842,-0.6275891065597534,-1.519540548324585
1788862281559713800,10.6647138671875,0.22316251695156097,-0.6639348268508911,-1.594772458076477
1788862281569720800,10.674720947265625,0.397794246673584,-0.621882438659668,-1.7126530408859253
1788862281579726600,10.6847265625,0.5262922644615173,-0.7728410959243774,-1.8318039178848267
1788862281589732600,10.694732666015625,0.5201467871665955,-0.7983392477035522,-1.8462311029434204
1788862281599740000,10.704739990234375,0.4673525393009186,-0.47239789366722107,-1.7795943021774292
1788862281609745700,10.71474560546875,0.45203378796577454,-0.45390066504478455,-1.6925525665283203
1788862281619752700,10.724752685546875,0.48341113328933716,-0.37135010957717896,-1.5865094661712646
1788862281629758700,10.7347587890625,0.4907801151275635,0.01696673221886158,-1.5101138353347778
1788862281639765800,10.744765869140625,0.5020670890808105,0.32539859414100647,-1.4853019714355469
1788862281649771800,10.754771728515625,0.5546221733093262,0.34447401762008667,-1.4474533796310425
1788862281659778800,10.76477880859375,0.633682906627655,0.2738264799118042,-1.3158342838287354
1788862281669784800,10.774784912109375,0.6426966786384583,0.04621729627251625,-1.1744871139526367
1788862281679791600,10.78479150390625,0.5520961880683899,-0.10403558611869812,-1.077368974685669
1788862281689797600,10.794797607421875,0.43729209899902344,-0.18862290680408478,-0.9681554436683655
1788862281699804000,10.804803955078125,0.3724590539932251,-0.273617684841156,-0.9073544144630432
1788862281709810700,10.814810791015624,0.29873183369636536,-0.35576796531677246,-0.8274492025375366
1788862281719816700,10.824816650390625,0.22353029251098633,-0.1147199273109436,-0.6842629909515381
1788862281729823700,10.83482373046875,0.20793242752552032,0.061580006033182144,-0.6590895056724548
1788862281739829800,10.844829833984376,0.14796335995197296,-0.10421588271856308,-0.6067802309989929
1788862281749836800,10.8548369140625,0.0466492623090744,-0.11571568250656128,-0.34181326627731323
1788862281759842600,10.864842529296874,0.02664945460855961,-0.06639154255390167,-0.12095758318901062
1788862281769849900,10.874849853515625,0.007536213379353285,0.02901487424969673,0.00729493098333478
1788862281779855600,10.884855712890625,-0.06764988601207733,0.1842001974582672,0.10130318254232407
1788862281789862700,10.894862548828126,-0.07368727028369904,0.25673726201057434,0.03223543241620064
1788862281799869000,10.904868896484375,-0.14123035967350006,0.06689727306365967,-0.013110475614666939
1788862281809874700,10.914874755859374,-0.20266495645046234,-0.07172718644142151,0.10025016963481903
1788862281819881700,10.9248818359375,-0.17333850264549255,0.13217908143997192,0.27764520049095154
1788862281829887700,10.9348876953125,-0.10524918884038925,0.45417362451553345,0.33809682726860046
1788862281839894800,10.944894775390624,-0.090305395424366,0.42701923847198486,0.3093589246273041
1788862281849900800,10.95490087890625,-0.10283104330301285,0.41817009449005127,0.3808240294456482
1788862281859907600,10.964907470703125,-0.09749912470579147,0.41047462821006775,0.5510908365249634
1788862281869913900,10.974913818359376,-0.1212364137172699,0.17550204694271088,0.6617870330810547
1788862281879920600,10.984920654296875,-0.13275031745433807,0.18257033824920654,0.7507799863815308
1788862281889926700,10.9949267578125,-0.06611377000808716,0.7557291984558105,0.8496895432472229
1788862281899932700,11.0049326171875,0.04975717142224312,1.0598443746566772,0.8631635308265686
1788862281909939700,11.014939697265625,0.09196215122938156,1.074591040611267,0.8538134098052979
1788862281919945700,11.02494580078125,0.0627850890159607,1.1520283222198486,0.9814579486846924
1788862281929952500,11.034952392578125,0.05856158211827278,1.1261663436889648,1.1951502561569214
1788862281939958800,11.044958740234375,0.04067312926054001,1.054403305053711,1.4580782651901245
1788862281949965800,11.0549658203125,0.023978836834430695,1.1394939422607422,1.6736321449279785
1788862281959971600,11.0649716796875,0.05061577260494232,1.1200603246688843,1.7404223680496216
1788862281969979000,11.074978759765624,0.09828609228134155,0.9801886677742004,1.7708442211151123
1788862281979984600,11.084984619140625,0.13928252458572388,0.9874932169914246,1.806596040725708
1788862281989991700,11.09499169921875,0.15232455730438232,1.1138322353363037,1.808295726776123
1788862281999997700,11.104997802734376,0.15078231692314148,1.1455520391464233,1.8513054847717285
1788862282010003700,11.115003662109375,0.1568383425474167,1.1740753650665283,1.923668622970581
1788862282020010800,11.1250107421875,0.20236322283744812,1.1776235103607178,2.009326457977295
1788862282030016800,11.135016845703126,0.2762124240398407,1.0464668273925781,2.1688873767852783
1788862282040023800,11.14502392578125,0.3627220094203949,0.836462676525116,2.3237829208374023
1788862282050029800,11.15502978515625,0.4637724459171295,0.36751142144203186,2.4050352573394775
1788862282060036600,11.16503662109375,0.6053114533424377,0.1434924453496933,2.5197746753692627
1788862282070042600,11.175042724609375,0.7283090353012085,0.3502885103225708,2.586867570877075
1788862282080049700,11.185049560546876,0.752864420413971,0.339516818523407,2.428706407546997
1788862282090055700,11.1950556640625,0.7189559936523438,0.17641177773475647,2.170976400375366
1788862282100062700,11.205062744140625,0.6869112849235535,0.37072160840034485,1.9609854221343994
1788862282110068700,11.21506884765625,0.6744575500488281,0.2924917936325073,1.8452281951904297
1788862282120074800,11.22507470703125,0.6685522198677063,-0.055761002004146576,1.8738709688186646
1788862282130081500,11.23508154296875,0.6464030146598816,-0.0035172367934137583,2.030609369277954
1788862282140087600,11.245087646484375,0.6621715426445007,0.3622245192527771,2.1838009357452393
1788862282150094800,11.2550947265625,0.717879056930542,0.3902638852596283,2.1747827529907227
1788862282160100600,11.2651005859375,0.7651515007019043,0.31012243032455444,2.0551624298095703
1788862282170108000,11.27510791015625,0.8115783333778381,0.3896811902523041,1.9232590198516846
1788862282180114000,11.285114013671874,0.8710235953330994,0.4175761938095093,1.8156108856201172
1788862282190120700,11.29512060546875,0.9110314249992371,0.488503098487854,1.7633920907974243
1788862282200126700,11.305126708984375,0.8820741176605225,0.5815451741218567,1.7811332941055298
1788862282210133800,11.3151337890625,0.7444693446159363,0.5655161142349243,1.8488953113555908
1788862282220139800,11.325139892578125,0.5670362710952759,0.4665360152721405,1.8705556392669678
1788862282230145800,11.335145751953124,0.43582576513290405,0.28205937147140503,1.812497854232788
1788862282240152800,11.34515283203125,0.40523138642311096,0.13239160180091858,1.7171673774719238
1788862282250158800,11.355158935546875,0.40500500798225403,0.00501153664663434,1.5707571506500244
1788862282260165600,11.36516552734375,0.3159419894218445,-0.05331861600279808,1.3567801713943481
1788862282270171600,11.375171630859375,0.15969671308994293,0.08887740969657898,1.1185423135757446
1788862282280178700,11.3851787109375,0.06939398497343063,0.33139684796333313,0.901322066783905
1788862282290184700,11.395184814453126,0.08319582045078278,0.4373469650745392,0.7052916288375854
1788862282300191700,11.405191650390625,0.17745867371559143,0.6028419137001038,0.5390610694885254
1788862282310197800,11.41519775390625,0.22711224853992462,0.4938525855541229,0.41768673062324524
1788862282320204800,11.425204833984376,0.14326635003089905,-0.3791952431201935,0.306156724691391
1788862282330210600,11.43521044921875,0.0020991035271435976,-1.1024844646453857,0.1534084677696228
1788862282340216600,11.445216552734376,-0.08827047049999237,-0.773556649684906,-0.07514827698469162
1788862282350224000,11.455223876953125,-0.1448674350976944,-0.32650089263916016,-0.33084502816200256
1788862282360229600,11.465229736328125,-0.17206443846225739,0.0887887254357338,-0.590343713760376
1788862282370236700,11.475236572265626,-0.18408195674419403,0.46505504846572876,-0.7745265960693359
1788862282380243000,11.485242919921875,-0.26066887378692627,0.1272524893283844,-0.7948558330535889
1788862282390249700,11.495249755859374,-0.341498464345932,-0.380465567111969,-0.7168377637863159
1788862282400255700,11.505255859375,-0.23945333063602448,-0.12103374302387238,-0.6241163015365601
1788862282410262800,11.5152626953125,-0.13654133677482605,0.0657915323972702,-0.52220618724823
1788862282420268800,11.525268798828124,-0.15377464890480042,-0.08688536286354065,-0.5044130682945251
1788862282430275600,11.535275634765625,-0.20213977992534637,-0.3799273669719696,-0.644210696220398
1788862282440281600,11.545281494140625,-0.281794935464859,-0.9312887787818909,-0.8595887422561646
1788862282450287900,11.555287841796876,-0.3766322135925293,-1.2088772058486938,-1.072786808013916
1788862282460294700,11.565294677734375,-0.29450300335884094,-0.3519705533981323,-1.2165218591690063
1788862282470300700,11.57530078125,-0.20770445466041565,0.31438907980918884,-1.2694146633148193
1788862282480307700,11.5853076171875,-0.28839558362960815,0.06933406740427017,-1.2987562417984009
1788862282490313700,11.595313720703125,-0.2789493501186371,-0.23396828770637512,-1.2936278581619263
1788862282500321000,11.605321044921874,-0.15013490617275238,-0.39200079441070557,-1.1878734827041626
1788862282510327000,11.6153271484375,-0.10444384813308716,-0.44729894399642944,-1.083418607711792
1788862282520334000,11.625333984375,-0.1874295473098755,-0.363497793674469,-1.0586118698120117
1788862282530340000,11.635340087890626,-0.27687394618988037,-0.3136015832424164,-1.0719654560089111
1788862282540346000,11.64534619140625,-0.3010796904563904,-0.36720678210258484,-1.1344999074935913
1788862282550353200,11.655353271484374,-0.2725431025028229,-0.4531424343585968,-1.2669637203216553
1788862282560359000,11.66535888671875,-0.20768767595291138,-0.384006530046463,-1.469167947769165
1788862282570366200,11.6753662109375,-0.16627925634384155,-0.3544723391532898,-1.6160897016525269
1788862282580372000,11.6853720703125,-0.17602455615997314,-0.4484885632991791,-1.6094344854354858
1788862282590379000,11.69537890625,-0.21044005453586578,-0.4866657853126526,-1.4950871467590332
1788862282600385300,11.70538525390625,-0.23647911846637726,-0.5097391605377197,-1.34079110622406
1788862282610392000,11.71539208984375,-0.2672064006328583,-0.5674580931663513,-1.257333517074585
1788862282620398000,11.725398193359375,-0.2929288148880005,-0.7281098365783691,-1.2876932621002197
1788862282630405000,11.735405029296874,-0.26720505952835083,-0.8758353590965271,-1.4204707145690918
1788862282640411100,11.7454111328125,-0.21616505086421967,-0.9851978421211243,-1.5956151485443115
1788862282650417200,11.755417236328125,-0.2069403976202011,-1.1307193040847778,-1.696601152420044
1788862282660424000,11.765423828125,-0.23169182240962982,-0.917453408241272,-1.6992323398590088
1788862282670430200,11.77543017578125,-0.2527853846549988,-0.557835042476654,-1.5977469682693481
1788862282680437000,11.78543701171875,-0.2459261417388916,-0.4579553008079529,-1.4791086912155151
1788862282690443000,11.795443115234375,-0.2161397486925125,-0.3898971676826477,-1.4106100797653198
1788862282700450300,11.8054501953125,-0.23528389632701874,-0.24314554035663605,-1.3719377517700195
1788862282710456000,11.8154560546875,-0.24328403174877167,-0.28274860978126526,-1.3514496088027954
1788862282720463000,11.825463134765625,-0.1704939752817154,-0.5585439801216125,-1.3651573657989502
1788862282730468900,11.83546875,-0.08892028778791428,-0.6248061060905457,-1.3617770671844482
1788862282740475100,11.84547509765625,-0.041849713772535324,-0.5981971025466919,-1.3648297786712646
1788862282750482200,11.855482177734375,-0.021212877705693245,-0.4910445511341095,-1.3559141159057617
1788862282760488000,11.865488037109374,-0.053771886974573135,-0.3586694598197937,-1.289333462715149
1788862282770495200,11.8754951171875,-0.09604157507419586,-0.5285152196884155,-1.209467887878418
1788862282780501200,11.885501220703125,-0.10360255837440491,-0.6751158833503723,-1.2175780534744263
1788862282790508000,11.895508056640624,-0.03189028799533844,-0.5783097147941589,-1.2286869287490845
1788862282800514000,11.90551416015625,0.0816517174243927,-0.8495779633522034,-1.2295122146606445
1788862282810521000,11.91552099609375,0.20232300460338593,-1.3369231224060059,-1.2957572937011719
1788862282820527000,11.925527099609376,0.2559390962123871,-1.437568187713623,-1.3282169103622437
1788862282830533000,11.935533203125,0.1895856410264969,-1.0519979000091553,-1.2162824869155884
1788862282840540200,11.9455400390625,0.07379432767629623,-0.8380293846130371,-1.1284314393997192
1788862282850546200,11.955546142578125,-0.08261311799287796,-1.0190764665603638,-1.079524040222168
1788862282860553000,11.965552978515625,-0.24677009880542755,-0.8038181662559509,-0.9802025556564331
1788862282870559200,11.975559326171876,-0.34866398572921753,-0.490217924118042,-1.064882755279541
1788862282880566000,11.98556591796875,-0.37412354350090027,-0.31749647855758667,-1.037218689918518
1788862282890572000,11.995572021484374,-0.35093724727630615,-0.10216924548149109,-0.9452669024467468
1788862282900579300,12.005579345703126,-0.3252449333667755,-0.0682632103562355,-0.9375264644622803
1788862282910585000,12.015585205078125,-0.30082640051841736,0.058577559888362885,-0.9446107149124146
1788862282920591000,12.025591064453126,-0.2303980588912964,-0.00041332258842885494,-0.9297875761985779
1788862282930598100,12.03559814453125,-0.21858960390090942,-0.19942815601825714,-0.975215494632721
1788862282940604200,12.045604248046875,-0.272497296333313,-0.19666779041290283,-1.0634428262710571
1788862282950611200,12.055611083984376,-0.30193403363227844,0.1347849816083908,-1.0556235313415527
1788862282960617000,12.065616943359375,-0.27482837438583374,0.22065646946430206,-1.0263420343399048
1788862282970624300,12.075624267578124,-0.21318897604942322,0.28686079382896423,-0.9502382278442383
1788862282980630300,12.08563037109375,-0.19965292513370514,0.25347647070884705,-0.7799512147903442
1788862282990637000,12.095636962890625,-0.17242157459259033,-0.062364306300878525,-0.6051346659660339
1788862283000643000,12.10564306640625,-0.0771978497505188,-0.16774718463420868,-0.4883553087711334
1788862283010650000,12.115650146484375,-0.050026148557662964,0.05801137164235115,-0.31261807680130005
1788862283020656000,12.12565625,-0.04258847236633301,0.1571539342403412,-0.21883514523506165
1788862283030662100,12.135662109375,-0.01612544059753418,-0.02935655787587166,-0.25734177231788635
1788862283040669200,12.145669189453125,0.022284798324108124,0.017467407509684563,-0.18473336100578308
1788862283050675200,12.15567529296875,0.04007817804813385,0.21540045738220215,0.016518788412213326
1788862283060682000,12.165681884765625,0.06589273363351822,0.2210783213376999,0.14407753944396973
1788862283070688000,12.17568798828125,0.05357135087251663,0.06264021247625351,0.3288567066192627
1788862283080695000,12.185695068359376,0.026078471913933754,0.22352470457553864,0.5776718854904175
1788862283090701000,12.195701171875,0.11649465560913086,0.31048384308815,0.7123085260391235
1788862283100708000,12.2057080078125,0.2507627010345459,0.16904228925704956,0.7225363850593567
1788862283110714000,12.215714111328126,0.2775232195854187,0.18362735211849213,0.7223760485649109
1788862283120720100,12.22572021484375,0.20589163899421692,0.1716758906841278,0.7872863411903381
1788862283130727200,12.23572705078125,0.07954276353120804,0.05306028947234154,0.8796780705451965
1788862283140733000,12.24573291015625,-0.02955549582839012,0.41634395718574524,1.1118899583816528
1788862283150740200,12.255740234375,-0.017646372318267822,0.8213766813278198,1.3464298248291016
1788862283160746000,12.26574609375,0.0836229920387268,0.7268813252449036,1.3733010292053223
1788862283170753000,12.2757529296875,0.11029428243637085,0.2897314131259918,1.4310200214385986
1788862283180759300,12.28575927734375,0.06811380386352539,0.017908958718180656,1.6916571855545044
1788862283190766000,12.29576611328125,0.016024505719542503,0.2066224217414856,1.944146990776062
1788862283200772000,12.305772216796875,0.016084959730505943,0.45746955275535583,1.9846779108047485
1788862283210778000,12.315778076171876,0.09920940548181534,0.5313536524772644,1.8962281942367554
1788862283220785200,12.32578515625,0.1762714385986328,0.37422606348991394,1.7993099689483643
1788862283230791200,12.335791259765625,0.16005970537662506,0.16593916714191437,1.7726521492004395
1788862283240798000,12.3457978515625,0.05819007009267807,-0.032286301255226135,1.8558975458145142
1788862283250804200,12.35580419921875,-0.030496124178171158,0.10346327722072601,2.025527000427246
1788862283260811000,12.36581103515625,-0.05387255176901817,0.5628876090049744,2.193272113800049
1788862283270817000,12.375817138671875,-0.016675915569067,0.7439665794372559,2.155951976776123
1788862283280824000,12.385823974609375,0.014733405783772469,0.5158942341804504,2.0191009044647217
1788862283290830000,12.395830078125,0.00350445369258523,0.45827221870422363,2.0252175331115723
1788862283300836000,12.405836181640625,0.0022684806026518345,0.6316847801208496,2.193105697631836
1788862283310843000,12.4158427734375,-0.014053767547011375,0.9649173021316528,2.4038467407226562
1788862283320849200,12.42584912109375,-0.05408001318573952,1.2515560388565063,2.5689876079559326
1788862283330856200,12.435856201171875,-0.14024072885513306,1.0432456731796265,2.633404493331909
1788862283340862000,12.445862060546874,-0.27181366086006165,0.43913793563842773,2.630727767944336
1788862283350869200,12.455869140625,-0.35155004262924194,0.06263541430234909,2.6616876125335693
1788862283360875000,12.465875,-0.3179449439048767,0.22624671459197998,2.7323789596557617
