time,seconds_elapsed,z,y,x
1788862321147756300,0.04775634765625,9.733327574157714,2.1320365783691404,-0.3003226707458496
1788862321157797400,0.05779736328125,9.655815295410155,2.5866356185913086,-0.49455228042602534
1788862321167839200,0.067839111328125,10.200196897888183,2.958485063934326,-0.5714660087585449
1788862321177880300,0.07788037109375,9.983072734832763,2.696319982147217,-0.3655646659851074
1788862321187922200,0.087922119140625,9.419537519073486,2.525733113861084,-0.3155857063293457
1788862321197963300,0.09796337890625,9.1041014503479,2.5463831031799313,-0.5274725532531738
1788862321208005400,0.10800537109375,8.295609477233887,2.3165397438049316,-0.6150105514526367
1788862321218046500,0.11804638671875,7.193229250335693,2.2278046447753903,-0.27518355331420896
1788862321228088300,0.12808837890625,6.474819114685058,2.544886727142334,-0.6572083557128906
1788862321238129400,0.13812939453125,6.1188312553405755,3.17920052947998,-0.8292916000366211
1788862321248171300,0.148171142578125,6.059425126647949,3.6548984718322752,-1.0121487518310546
1788862321258212400,0.15821240234375,6.469282523345947,3.8413469261169433,-0.8361749298095703
1788862321268254200,0.168254150390625,7.152827097320556,3.8967128395080564,-0.5348047958374023
1788862321278295300,0.17829541015625,8.233659509277343,4.123862722015381,-0.3564367721557617
1788862321288337200,0.188337158203125,8.45332751159668,4.20107572555542,-0.45115737533569333
1788862321298378200,0.198378173828125,7.886500268554687,3.995922570800781,-0.675464143371582
1788862321308420400,0.20842041015625,7.765593084716796,3.7038299682617186,-0.968454571533203
1788862321318461400,0.21846142578125,7.856273472595214,3.399018169403076,-1.0474632263183594
1788862321328502800,0.228502685546875,8.11469761428833,2.9703064346313477,-0.9262567672729491
1788862321338543900,0.2385439453125,7.8258970390319815,2.671779415130615,-0.6555623420715332
1788862321348586000,0.2485859375,6.886023249816894,2.7193641731262206,-0.3434183006286621
1788862321358627000,0.258626953125,6.407332555389404,2.9973908409118653,-0.07407061386108398
1788862321368669000,0.2686689453125,6.153098266601562,3.1386487388610838,0.296881005859375
1788862321378710000,0.2787099609375,5.54167901763916,2.811690574645996,0.8725368675231933
1788862321388752000,0.288751953125,5.654056858062744,2.1869535789489745,2.1441572242736817
1788862321398793000,0.29879296875,5.547065971374511,1.0678139404296874,3.8756139373779295
1788862321408834800,0.308834716796875,6.277447115325927,0.15427636947631834,4.246266281890869
1788862321418876000,0.3188759765625,6.19290186920166,-0.18899229354858396,3.6879683822631835
1788862321428917800,0.328917724609375,9.21243907546997,1.1008838508605956,1.0889128425598145
1788862321438958800,0.338958740234375,12.757353908538818,2.539649411010742,3.3553239891052242
1788862321449001000,0.3490009765625,12.137854228973389,2.9691093338012693,6.313360140228271
1788862321459042000,0.3590419921875,8.510788351440429,3.014748802947998,7.8630071647644035
1788862321469084000,0.369083984375,3.6797383140563964,1.9915268684387206,6.683264296722411
1788862321479125000,0.379125,2.207902843475342,0.26485855865478514,3.984400475311279
1788862321489166800,0.389166748046875,2.9619267288208007,-1.9053356086730955,1.992424694061279
1788862321499208000,0.3992080078125,3.483264140319824,-3.6557962974548337,0.6081272216796875
1788862321509250000,0.40925,3.9731776550292968,-4.4568063903808595,0.968454571533203
1788862321519292000,0.4192919921875,4.849904375457763,-4.431816910552978,3.0974983978271484
1788862321529333000,0.4293330078125,5.285050527191162,-3.8775592262268064,4.9832314804077145
1788862321539375000,0.439375,5.830778868103027,-3.094356008148193,6.40972675704956
1788862321549416200,0.449416259765625,5.819556047821044,-3.023727059173584,6.8216790802001945
1788862321559458000,0.4594580078125,6.00106646118164,-3.846584242248535,6.58210927658081
1788862321569499100,0.4694990234375,6.00151537399292,-4.666448673248291,6.2036757766723625
1788862321579541000,0.479541015625,5.083937587738037,-4.506635712432861,6.434117686462402
1788862321589582000,0.48958203125,3.7401919059753417,-4.043806604003906,8.088361396026611
1788862321599624000,0.4996240234375,2.509721890258789,-2.709937004089355,10.07495022354126
1788862321609665000,0.5096650390625,2.3675661666870114,-0.9699509475708007,12.000337271118163
1788862321619707000,0.519706787109375,2.9240684150695797,0.19602526092529296,12.889184637451171
1788862321629748000,0.529748046875,3.5146880371093747,0.42975919799804685,13.549535382843017
1788862321639790000,0.5397900390625,3.605817337799072,0.9469067565917968,14.464419692230225
1788862321649831200,0.5498310546875,2.616862414550781,2.123656872558594,15.374365960693359
1788862321659873000,0.559873046875,1.1495160720825195,3.0506618278503415,15.772102711486815
1788862321669914000,0.5699140625,0.06928221054077148,2.9761423011779784,15.543157177734374
1788862321679956000,0.5799560546875,-1.028608888244629,2.7638065414428707,15.118336020660399
1788862321689997000,0.5899970703125,-2.273593751525879,2.9493571701049803,14.451251583099364
1788862321700039000,0.600038818359375,-3.5221699172973633,3.133561060333252,14.087482568359373
1788862321710080000,0.610080078125,-5.67560467300415,3.463511976623535,14.01356159210205
1788862321720121900,0.620121826171875,-11.16012212600708,5.165789356994629,16.276381436157227
1788862321730163000,0.630162841796875,-29.73882773361206,11.83034895324707,25.35235101699829
1788862321740205000,0.640205078125,-30.329596993255613,8.196699021148682,24.23575521774292
1788862321750246100,0.65024609375,-4.583250165557861,-4.37959338684082,13.826813862609862
1788862321760288000,0.6602880859375,3.3467946456909177,-3.141791128540039,11.027992121887207
1788862321770329000,0.6703291015625,0.8237550086975097,5.220706357574462,14.637999312591552
1788862321780371000,0.680370849609375,-7.79507169265747,3.8914755233764646,13.582904568481444
1788862321790412000,0.690412109375,-5.8731263099670405,-2.807949634552002,6.157587394714355
1788862321800454000,0.700453857421875,-3.4757822601318358,-4.438849877929687,4.111143525695801
1788862321810495000,0.710494873046875,-1.7079636093139647,-4.241028965759277,6.631340048217773
1788862321820537000,0.720537109375,-1.6497545814514158,-5.752817676544189,11.257835481262207
1788862321830578200,0.730578125,-3.261650849151611,-9.099013771820069,8.953566020965576
1788862321840620000,0.7406201171875,-2.7020062110900875,-7.496993585968017,1.8607436027526854
1788862321850661000,0.7506611328125,2.148347077178955,-3.2104747886657714,5.576245304107665
1788862321860703000,0.760702880859375,4.63502477645874,-1.1888707618713379,14.751574253845215
1788862321870744000,0.770744140625,0.029328970336914062,-7.12484486541748,15.819837107086181
1788862321880786000,0.780785888671875,-14.15362238922119,-9.028983373260498,8.691251301574706
1788862321890827000,0.790826904296875,-9.937283628082275,-8.279298978424071,5.756259341430663
1788862321900868900,0.800868896484375,-2.7597663261413574,-9.981875634002686,5.594201816558837
1788862321910910000,0.810909912109375,-1.1752537399291991,-11.268609388732909,6.552032118225097
1788862321920952000,0.8209521484375,-1.8508675209045409,-11.877933711242676,6.393116983032226
1788862321930993200,0.8309931640625,-3.295020034790039,-12.776058609008789,4.844367784118652
1788862321941035000,0.841034912109375,-4.112490264129638,-12.288838571166991,3.538929328918457
1788862321951076000,0.851076171875,-3.2692823669433593,-8.5034561088562,5.013607913970947
1788862321961118000,0.861117919921875,-2.9753941131591795,-6.694337479400635,5.146486106109619
1788862321971159000,0.871158935546875,-0.9623194297790527,-6.202329038238525,4.198831161499023
1788862321981201000,0.881200927734375,-0.5366004470825195,-6.208763455200195,2.539649411010742
1788862321991242000,0.891241943359375,-0.9804255798339843,-6.091896486663818,1.548898836517334
1788862322001283800,0.901283935546875,-2.5288755035400388,-6.624456718444824,1.928679074859619
1788862322011325000,0.911324951171875,-2.3126491661071777,-7.26505530014038,3.906588921356201
1788862322021367000,0.921366943359375,1.2126631408691406,-8.574833245849609,5.653757582855224
1788862322031408000,0.931408203125,-0.2127846725463867,-10.260949765014647,4.308216249847412
1788862322041450000,0.941449951171875,-6.642413230895996,-10.592247419738769,3.6200329101562496
1788862322051491000,0.951490966796875,-10.716147355651854,-9.044396046447753,5.0394952194213865
1788862322061533000,0.961532958984375,-5.507112731170654,-8.81051247177124,4.761468551635742
1788862322071574000,0.971573974609375,-2.9803321540832517,-9.398737892150878,4.106953672790527
1788862322081616000,0.981615966796875,-2.816927890777588,-8.83639977722168,4.523844036865234
1788862322091657000,0.991656982421875,-2.937386161804199,-7.473051569366454,4.721216036224365
1788862322101698800,1.00169873046875,-3.897012114715576,-5.819107135009765,4.600308852386474
1788862322111740000,1.011739990234375,-2.320879234313965,-4.7846623802185055,6.8596870315551755
1788862322121782000,1.021781982421875,-1.746869386291504,-5.734112976074218,6.286275733947754
1788862322131823000,1.031822998046875,-2.2601263671875,-5.325751955413818,6.140229432678222
1788862322141865000,1.041864990234375,-1.6353893714904784,-5.155613999938964,6.733392893981933
1788862322151906000,1.051906005859375,-1.2113164024353027,-5.609464852142334,5.811026704406738
1788862322161948000,1.061947998046875,-3.6258687767028808,-4.474164352416992,3.5996821960449217
1788862322171989000,1.071989013671875,-4.301482557678223,-1.8305168067932127,2.235885075378418
1788862322182030800,1.08203076171875,-3.5863644493103024,0.4029740669250488,2.2457611572265623
1788862322192072000,1.092072021484375,-4.049043920135498,-1.2689268798828124,2.126499987030029
1788862322202113800,1.10211376953125,-2.0082862800598145,-3.397671430969238,2.7831097923278807
1788862322212155000,1.11215478515625,-1.723226644897461,-6.189759479522705,3.8090252037048336
1788862322222197000,1.122197021484375,-3.7951089065551757,-6.547991902923584,5.10159482498169
1788862322232238000,1.132238037109375,-3.3647511581420897,-8.240542839050292,5.845293715667724
1788862322242280000,1.142280029296875,-1.7037737564086912,-7.349301271057128,10.749666178894042
1788862322252321000,1.152321044921875,-5.280262123870849,-7.223456046295166,11.593622264099121
1788862322262363000,1.16236279296875,-5.938218667602539,-7.487865692138671,7.783998509979248
1788862322272404000,1.172404052734375,-2.0727800872802735,-8.176198669433592,5.061940859985351
1788862322282445800,1.18244580078125,-1.527650296783447,-7.21417851486206,3.493738772583008
1788862322292487000,1.19248681640625,-2.8830677116394043,-7.22689771118164,2.72609786529541
1788862322302529000,1.202529052734375,-2.290053887939453,-6.301089856719971,4.141519959259033
1788862322312570000,1.212570068359375,-1.6940473121643065,-6.3904235061645505,6.433070223236084
1788862322322612200,1.2226123046875,-1.403301448059082,-8.95042363128662,8.161983097076416
1788862322332653300,1.2326533203125,-2.3437737876892086,-9.280673822784424,8.66356834487915
1788862322342695200,1.242695068359375,-2.655169641113281,-11.442937197113036,6.934954746246338
1788862322352736300,1.252736328125,-2.565237441253662,-11.247660124206542,5.336974775695801
1788862322362778000,1.262778076171875,-3.0837317382812497,-5.20319875793457,3.7858313751220702
1788862322372819200,1.272819091796875,-2.6253917579650876,-4.042459865570068,3.793612530517578
1788862322382861000,1.282861083984375,-2.7911902229309082,-4.988169521331787,4.883572836303711
1788862322392902100,1.292902099609375,-3.6981437393188474,-6.3615434486389155,2.913743420410156
1788862322402944000,1.302944091796875,-6.621613603973389,-7.10614016494751,0.8345289161682128
1788862322412985000,1.312985107421875,-6.610540421295165,-9.21273835067749,-0.09382277755737305
1788862322423027200,1.323027099609375,-1.291522158050537,-6.218789174652099,0.6739677673339843
1788862322433068300,1.333068359375,-5.571905813598632,-4.421940828704834,-2.929754644012451
1788862322443110100,1.343110107421875,-5.069273102569579,-7.351246559906006,-1.0883142921447753
1788862322453151200,1.353151123046875,-2.9180829109191895,-6.026205578613281,1.1914146011352538
1788862322463193000,1.363193115234375,-3.9920319931030273,-2.6644471725463865,0.7872434333801269
1788862322473234200,1.373234130859375,-5.379621492767334,-1.831115357208252,4.945223529052734
1788862322483276000,1.383276123046875,-3.0297125633239745,-3.2849943153381345,11.481543698883057
1788862322493317000,1.393317138671875,-1.4101847778320311,2.6726772407531736,15.379902552032469
1788862322503359000,1.40335888671875,-0.8586205703735351,-0.9050082275390624,20.55841110534668
1788862322513400000,1.413400146484375,-7.39928023071289,-8.195501920318604,25.181913786315917
1788862322523442200,1.423442138671875,-5.62427897491455,-13.518710036468505,23.653066388702392
1788862322533483300,1.433483154296875,-5.839158573913574,-36.489877864837645,20.21304751586914
1788862322543525000,1.443525146484375,1.0245686729431152,-29.390770667266843,5.751321300506591
1788862322553567200,1.453567138671875,0.1500865165710449,-18.343924207305907,5.717054289245605
1788862322563608000,1.463608154296875,0.5578489868164063,-15.618424892425535,6.734739632415771
1788862322573649200,1.473649169921875,-2.0829554443359375,-15.018527738952637,5.17117631072998
1788862322583691000,1.48369091796875,-1.6979378898620605,-12.13680676574707,5.266196189117431
1788862322593733000,1.493733154296875,-4.062810579681396,-13.596222315216064,-2.2014684265136717
1788862322603774000,1.50377392578125,-5.729324572753906,-15.37975291442871,-7.880514764404296
1788862322613816300,1.51381640625,-5.015553202819824,-15.023765055084228,-10.286837070465086
1788862322623857200,1.523857177734375,-5.042637609100342,-12.9984200881958,-8.735095119476318
1788862322633899300,1.533899169921875,-4.53910707244873,-11.409119098663329,-5.002684368896484
1788862322643940000,1.543940185546875,-4.638466441345215,-10.407594616699217,-2.8383260681152342
1788862322653982200,1.553982177734375,-4.2886137237548825,-9.70968483276367,-1.8700211341857909
1788862322664023000,1.56402294921875,-4.100519255828857,-8.59293939590454,0.20560206756591795
1788862322674065200,1.574065185546875,-3.044676323699951,-6.781276927185059,2.486079148864746
1788862322684106000,1.58410595703125,-3.3915362892150878,-6.282385156249999,3.350385948181152
1788862322694148400,1.5941484375,-4.505139336395263,-7.063343810272216,4.2037692024230955
1788862322704189200,1.604189208984375,-3.738695529937744,-7.1321771080017085,4.168155452728271
1788862322714231300,1.614231201171875,-2.7252000396728513,-6.21789134902954,3.3611598556518554
1788862322724272000,1.624272216796875,-2.4527099632263183,-5.663633664703369,2.7178677970886227
1788862322734314200,1.634314208984375,-2.377591886138916,-5.183446594238281,1.8421885398864746
1788862322744355300,1.644355224609375,-2.244264781188965,-4.992209736633301,1.6475100173950195
1788862322754397200,1.654397216796875,-2.2655133209228513,-5.064335061645507,2.1689970664978024
1788862322764438300,1.664438232421875,-4.504989698791504,-6.460004991912841,2.6906337532043456
1788862322774480100,1.674480224609375,-5.709572409057617,-9.047688073730468,1.9729718055725096
1788862322784521200,1.684521240234375,-4.5778632118225095,-10.841543667602538,1.2122142280578612
1788862322794563300,1.694563232421875,-3.3358711006164548,-10.481365955352782,1.0458172126770018
1788862322804604400,1.7046044921875,-3.069665803527832,-9.527725506591796,1.354070676422119
1788862322814646300,1.714646240234375,-2.7512369827270504,-8.098087840270995,1.7654244491577147
1788862322824687400,1.724687255859375,-1.4848539421081541,-3.31357509765625,3.9564182434082027
1788862322834729200,1.734729248046875,-1.3447931449890136,-2.852392002868652,4.205115940856933
1788862322844770300,1.744770263671875,-2.633322550964355,-5.408052637481689,2.7871500076293945
1788862322854812200,1.754812255859375,-3.897610665130615,-5.482422526550293,3.46021994934082
1788862322864853200,1.764853271484375,-4.217685499572753,-4.444536106872558,5.099499898529053
1788862322874895000,1.77489501953125,-3.206733848571777,-4.546289677429199,3.7924154296875
1788862322884936200,1.784936279296875,-2.886359738922119,-5.746981809997559,0.2962824554443359
1788862322894978300,1.794978271484375,-3.4304420661926267,-0.39369653549194333,-5.96245995941162
1788862322905019400,1.805019287109375,-0.6471826362609863,-4.284723146057129,-4.509778102111816
1788862322915061200,1.815061279296875,-1.1776479415893555,-15.7305034576416,-3.6201825477600096
1788862322925102300,1.825102294921875,-2.3618799377441406,-21.395483860778807,-6.055235273742675
1788862322935144200,1.835144287109375,-3.533542375183105,-18.91105072555542,-1.2886790435791016
1788862322945185300,1.845185302734375,-4.7560815979003905,-14.488062433624266,2.36217921295166
1788862322955227100,1.85522705078125,-4.584596903991699,-11.33265428314209,1.6754922492980957
1788862322965268200,1.865268310546875,-4.684704460906982,-8.38224964981079,0.8622118728637694
1788862322975310000,1.87531005859375,-4.152892417144775,-8.894908080291748,-0.6551134292602538
1788862322985351200,1.88535107421875,-3.7292683609008788,-11.189600733947753,-0.8444049980163574
1788862322995393300,1.895393310546875,-3.647266954040527,-11.064952610015869,-0.2015618522644043
1788862323005434400,1.905434326171875,-4.4659342842102046,-9.764003282928467,-0.745045629119873
1788862323015476200,1.915476318359375,-4.818181203460693,-9.730783734893798,-1.2427402992248535
1788862323025517300,1.925517333984375,-3.974674031066894,-9.573963526153564,-1.686116519165039
1788862323035559200,1.93555908203125,-3.0508114654541014,-9.626785600280762,-1.2708721687316893
1788862323045600300,1.945600341796875,-2.680159120941162,-9.483582413482665,-1.1872247482299805
1788862323055642000,1.95564208984375,-3.0725089179992673,-8.736441857910156,-1.1260229682922362
1788862323065683200,1.96568310546875,-3.04527487411499,-8.406042028808594,-1.9451392112731933
1788862323075725000,1.97572509765625,-2.6880899139404297,-7.804798136901855,-3.171868286895752
1788862323085766100,1.98576611328125,-2.703053674316406,-7.923610394287109,-3.0506618278503415
1788862323095808300,1.995808349609375,-3.1426889541625975,-9.09721812057495,-1.6953940505981444
1788862323105849300,2.005849365234375,-3.3592145668029785,-9.165003955078124,0.1388636962890625
1788862323115891200,2.01589111328125,-3.6948517120361326,-9.044096771240234,-0.34386721343994137
1788862323125933000,2.02593310546875,-4.20736050491333,-9.192537274169922,-1.957409494781494
1788862323135974100,2.03597412109375,-4.099920705413818,-9.495553421783447,-2.18336227645874
1788862323146016000,2.04601611328125,-3.8926726242065426,-9.860220262145996,-1.8517653465270996
1788862323156057000,2.05605712890625,-3.595641980743408,-10.611999583435058,-1.5390227546691893
1788862323166099000,2.066098876953125,-3.545064470672607,-10.599130749511717,-1.5222633430480956
1788862323176140000,2.07614013671875,-3.6906618591308593,-10.203488925170898,-1.7342998275756836
1788862323186182100,2.08618212890625,-3.649212242889404,-9.69831237487793,-2.329707852935791
1788862323196223200,2.09622314453125,-3.665822016906738,-9.769539874267577,-2.272247013092041
1788862323206265000,2.10626513671875,-2.9158383468627926,-9.46787046508789,-0.8646060745239257
1788862323216306200,2.11630615234375,-3.3859996978759765,-9.370306747436523,-1.3651438591003417
1788862323226348300,2.126348388671875,-3.7352538650512694,-9.693823246765136,-2.9435213035583496
1788862323236389000,2.13638916015625,-2.156427507781982,-8.983493541717529,-2.4557027153015136
1788862323246431200,2.14643115234375,-3.381211294555664,-8.632294085693358,-2.5758617111206052
1788862323256472000,2.15647216796875,-2.959233251953125,-8.58051947479248,-2.168248878479004
1788862323266514200,2.16651416015625,-2.8235119453430175,-9.943119494628906,-2.3205799591064453
1788862323276555300,2.17655517578125,-2.9013234992980954,-10.441711990356445,-1.8828899681091307
1788862323286597400,2.186597412109375,-3.053056029510498,-11.311705018615722,-2.8417677330017086
1788862323296638200,2.19663818359375,-3.7894226776123046,-11.116876858520508,-3.461566687774658
1788862323306680300,2.206680419921875,-4.399195912933349,-10.63624087524414,-3.2697312797546383
1788862323316721200,2.21672119140625,-4.176385520935058,-10.492738413238525,-3.12188932723999
1788862323326763300,2.22676318359375,-3.905840733337402,-9.960776731872558,-2.750339157104492
1788862323336804400,2.236804443359375,-3.6542999214172363,-9.803208335113524,-3.100191874694824
1788862323346846500,2.246846435546875,-3.810671217346191,-9.118167385101318,-3.102137163543701
1788862323356887300,2.25688720703125,-4.083909481811523,-7.781305033111572,-2.753032633972168
1788862323366929400,2.266929443359375,-3.5036148544311523,-7.585579047393798,-2.0081366424560545
1788862323376970500,2.276970458984375,-3.090615068054199,-8.768763580322265,-1.9834464378356933
1788862323387012600,2.2870126953125,-2.819322092437744,-9.195530026245116,-1.9948188957214354
1788862323397053400,2.297053466796875,-2.932897033691406,-9.922768780517577,-1.9141642272949217
1788862323407095600,2.307095458984375,-3.125929542541504,-10.184933862304687,-1.5381249290466308
1788862323417136400,2.317136474609375,-2.564788528442383,-9.128492379760742,-0.7731774986267089
1788862323427178500,2.327178466796875,-2.66878666305542,-7.644386625671387,-0.6777087074279785
1788862323437219300,2.33721923828125,-5.04338579711914,-6.14187544631958,-1.1257236930847168
1788862323447261400,2.347261474609375,-6.225373229217529,-5.17132594833374,-1.6563386360168455
1788862323457302300,2.35730224609375,-5.2365679435729975,-4.740968199920654,-1.8490718696594237
1788862323467344600,2.3673447265625,-1.8921674995422362,-5.150077408599853,-2.316090830993652
1788862323477385500,2.377385498046875,0.6257844589233398,-7.400626969146728,-2.45181213760376
1788862323487427600,2.387427490234375,-1.9258359603881834,-9.032425038146972,-1.3078326568603516
1788862323497468400,2.397468505859375,-3.3072903182983397,-9.296685046386719,-1.1339537612915038
1788862323507510500,2.407510498046875,-2.4806921951293943,-9.630676177978515,-1.608155327606201
1788862323517551400,2.41755126953125,-2.401833177947998,-9.58339069519043,-1.4356231704711913
1788862323527593500,2.427593505859375,-3.6833296165466307,-8.910320753479004,-0.9573813888549804
1788862323537634300,2.43763427734375,-3.834164321136474,-9.147047442626953,-1.3358148887634276
1788862323547676400,2.447676513671875,-3.519775715637207,-9.27004955291748,-1.5433622451782225
1788862323557718500,2.457718505859375,-3.1892262489318846,-8.78477480392456,-1.386093123626709
1788862323567759600,2.467759521484375,-2.586934893798828,-8.749161054229736,-1.4477438163757324
1788862323577801500,2.477801513671875,-2.45779764175415,-9.094973556518553,-1.2747627464294433
1788862323587842600,2.487842529296875,-2.881421697998047,-9.374795875549315,-1.0947487091064452
1788862323597884400,2.497884521484375,-2.9390321754455564,-9.547028757476806,-1.077540384674072
1788862323607925500,2.507925537109375,-2.7787703018188474,-9.419238243865966,-1.0184335311889647
1788862323617967400,2.51796728515625,-2.5273791275024413,-9.140463388061523,-1.2083236503601074
1788862323628008400,2.528008544921875,-2.4699182876586914,-9.050531188201903,-1.7393875061035156
1788862323638050300,2.53805029296875,-2.3068132995605466,-8.890568589782715,-1.7931074058532714
1788862323648091600,2.548091552734375,-2.0623054550170896,-8.758139310455322,-1.5931915672302246
1788862323658133500,2.558133544921875,-1.774253067779541,-8.954912759399413,-1.811961743927002
1788862323668174600,2.568174560546875,-1.617732134246826,-8.825176956939696,-1.986139914703369
1788862323678216400,2.578216552734375,-1.9237410339355467,-8.002020498657226,-1.7794903839111327
1788862323688257500,2.588257568359375,-3.001281418609619,-8.28064571685791,-1.8775030143737792
1788862323698299400,2.59829931640625,-4.135684092712402,-9.113827894592285,-1.9247884971618652
1788862323708340500,2.608340576171875,-4.721216036224365,-9.510966094970703,-1.35347212600708
1788862323718382300,2.61838232421875,-4.5593081489562985,-10.135104540252685,-0.598251139831543
1788862323728423400,2.62842333984375,-3.4153286682128905,-10.531943465423584,-0.12315174789428711
1788862323738465500,2.638465576171875,-2.3786393493652342,-10.485106895446776,0.005536591339111328
1788862323748506600,2.648506591796875,-2.245312244415283,-10.31152727508545,-0.12599486236572266
1788862323758548500,2.658548583984375,-2.469469374847412,-10.20259109954834,-0.4150947128295898
1788862323768589600,2.668589599609375,-2.544886727142334,-10.149020837402343,-0.7245452774047851
1788862323778631400,2.67863134765625,-2.62389538192749,-10.105775569915771,-1.0295067138671874
1788862323788672500,2.688672607421875,-2.7780221138000485,-9.93429087600708,-1.5078981330871581
1788862323798714400,2.69871435546875,-3.0262708984374997,-9.760411980438231,-1.8435352783203125
1788862323808755500,2.70875537109375,-3.3749265151977537,-9.676016371917724,-1.7034744812011717
1788862323818797300,2.71879736328125,-3.6234745750427244,-9.673472532653808,-1.6494553062438964
1788862323828838400,2.72883837890625,-3.5639188087463376,-9.458742571258544,-1.605761125946045
1788862323838880500,2.738880615234375,-3.245639625549316,-9.118915573120116,-1.3814543579101561
1788862323848921600,2.748921630859375,-2.959233251953125,-8.846275859069824,-1.183034895324707
1788862323858963500,2.75896337890625,-2.9109003059387204,-8.719383171081542,-0.9840168823242187
1788862323869004500,2.769004638671875,-3.021781770324707,-8.749759604644774,-0.7092822418212891
1788862323879046400,2.77904638671875,-3.0850784767150876,-8.86752439880371,-0.4836287353515625
1788862323889087500,2.78908740234375,-3.1398458396911617,-8.96942760696411,-0.35628713455200195
1788862323899129300,2.79912939453125,-3.328838133239746,-9.074024291992187,-0.4300584732055664
1788862323909170400,2.80917041015625,-3.586813362121582,-9.243264421844481,-0.6669347999572753
1788862323919212300,2.81921240234375,-3.909132760620117,-9.422380633544922,-1.0248679481506346
1788862323929253400,2.82925341796875,-4.189403992462158,-9.416694404602051,-1.2855366539001465
1788862323939295500,2.83929541015625,-4.140921408843994,-9.273491217803954,-1.4167688323974608
1788862323949336600,2.849336669921875,-3.7984009338378906,-9.143306502532958,-1.4392144729614258
1788862323959378400,2.85937841796875,-3.4483985786437987,-9.127893829345702,-1.347785897064209
1788862323969419500,2.86941943359375,-3.348590296936035,-9.179369165039063,-1.2566565963745115
1788862323979461400,2.87946142578125,-3.5473090347290035,-9.110086954498291,-1.451784031677246
1788862323989502500,2.88950244140625,-3.908983123016357,-8.90598126296997,-1.2852373786926268
1788862323999544300,2.89954443359375,-3.877409588623047,-8.788366106414795,-1.0203788200378416
1788862324009585400,2.90958544921875,-3.4926913093566894,-8.854057014465331,-0.8813654861450195
1788862324019627300,2.919627197265625,-3.3705870246887204,-8.804975880432128,-0.7594108390808105
1788862324029668400,2.92966845703125,-3.4295442405700682,-8.566303902435303,-0.7466916427612305
1788862324039710500,2.93971044921875,-3.4638112518310544,-8.407089492034912,-0.8411129707336426
1788862324049752600,2.949752685546875,-3.668365856170654,-8.320449319458007,-0.7413046890258789
1788862324059793400,2.95979345703125,-3.6100071907043456,-8.28079535446167,-0.5991489654541016
1788862324069835500,2.96983544921875,-3.4069489624023435,-8.683021233367919,-0.5665279678344726
1788862324079876400,2.97987646484375,-3.1926679138183593,-9.139565562438964,-0.7659948936462402
1788862324089918500,2.98991845703125,-2.9569886878967284,-9.467271914672851,-1.1923124267578125
1788862324099959300,2.999959228515625,-2.8057050704956055,-9.504232402801513,-1.5623662208557128
1788862324110001400,3.01000146484375,-2.786850732421875,-9.529371520233154,-1.7148469390869139
1788862324120042200,3.020042236328125,-2.886958289337158,-9.534758473968505,-1.7181389663696287
1788862324130084600,3.030084716796875,-3.0220810455322265,-9.575160626983642,-1.7326538139343262
1788862324140125400,3.04012548828125,-3.0364462554931637,-9.72285294189453,-1.898601916503906
1788862324150167600,3.05016748046875,-3.0747534820556637,-9.781361244964598,-2.062754367828369
1788862324160208400,3.06020849609375,-3.2525229553222657,-9.547328032684325,-2.204610816192627
1788862324170250500,3.07025048828125,-3.42849677734375,-9.157970987701415,-1.8498200576782224
1788862324180291300,3.080291259765625,-3.3132758224487304,-8.948777617645263,-2.09417826461792
1788862324190333400,3.09033349609375,-3.507355794525146,-8.811559934997558,-1.1954548164367675
1788862324200374300,3.100374267578125,-3.3596634796142575,-8.702324484252928,-0.127042325592041
1788862324210416400,3.11041650390625,-2.6218004554748533,-9.253290141296386,-0.24555530776977538
1788862324220457500,3.12045751953125,-3.0665234138488766,-9.555707738494872,0.22176292877197265
1788862324230499600,3.13049951171875,-3.3891420875549314,-9.65910732269287,1.1982979309082031
1788862324240540400,3.14054052734375,-2.842366283416748,-9.83852280960083,1.4974235008239745
1788862324250582500,3.15058251953125,-2.6153660385131836,-10.250624770355223,0.6183025787353515
1788862324260623400,3.160623291015625,-2.939331450653076,-10.251372958374024,-0.36002807464599607
1788862324270665500,3.17066552734375,-2.9255647911071776,-9.875184022521973,-1.0281599754333495
1788862324280706300,3.180706298828125,-3.253420780944824,-9.472209955596924,-1.6377835731506347
1788862324290748400,3.19074853515625,-4.11802685546875,-8.86108998184204,-1.7504606887817382
1788862324300789200,3.200789306640625,-4.442291542816162,-8.186822939300537,-1.767070462799072
1788862324310831600,3.21083154296875,-4.538508522033691,-7.790283289337157,-1.3667898727416992
1788862324320872200,3.2208720703125,-4.662558095550537,-8.231265307617187,-0.3898059577941894
1788862324330914000,3.2309140625,-4.398148449707031,-9.025392070770263,0.378583137512207
1788862324340955100,3.240955078125,-4.20137500076294,-9.368960009002684,-0.13721768264770506
1788862324350997000,3.2509970703125,-3.812915781402588,-8.847472959899902,-0.4364928901672363
1788862324361038000,3.2610380859375,-3.1563059761047363,-8.28049607925415,-1.686715069580078
1788862324371080000,3.271079833984375,-3.985747213745117,-6.180930860900879,-1.5260042831420897
1788862324381121000,3.28112109375,-3.2932243835449215,-6.120776544189453,-0.17941548690795897
1788862324391163000,3.291162841796875,-1.8716671478271483,-8.965836304473877,-0.016759411621093748
1788862324401204000,3.301203857421875,-1.1746551895141601,-11.95769055404663,-1.069310316467285
1788862324411246000,3.31124609375,-1.1260229682922362,-12.60801557998657,-1.220743571472168
1788862324421287200,3.321287109375,-1.2548609451293944,-12.149974874877929,-2.1052514472961423
1788862324431329000,3.3313291015625,-2.4346038131713867,-11.022754805755614,-3.158251264953613
1788862324441370000,3.3413701171875,-3.9203555809020996,-9.893290172576904,-3.1275755561828613
1788862324451412000,3.351411865234375,-4.242674979400634,-9.639355158996581,-2.13248549118042
1788862324461453000,3.361453125,-3.695899175262451,-9.820865572357176,-1.8058266021728515
1788862324471495000,3.371494873046875,-3.647117316436767,-8.88607946166992,-1.5102923347473143
1788862324481536000,3.381535888671875,-3.629310441589355,-7.698705075836181,-0.9400234268188477
1788862324491577900,3.391577880859375,-3.6291608039855956,-7.343914317321777,-0.034715924072265626
1788862324501619000,3.401618896484375,-3.8811505287170407,-7.825747401428222,0.39279870986938475
1788862324511661000,3.4116611328125,-4.390516931915283,-8.381501461791991,0.3585316986083984
1788862324521702100,3.4217021484375,-4.828655835723876,-8.460360478973389,0.1640028137207031
1788862324531744000,3.431743896484375,-5.002983644104003,-8.36444277496338,0.16355390090942382
1788862324541785000,3.44178515625,-4.822819969177246,-8.579472011566162,0.15816694717407226
1788862324551827000,3.451826904296875,-4.36073904876709,-9.068786975860595,0.028431144714355466
1788862324561868000,3.461867919921875,-4.0355765357971185,-9.465925176239013,-0.1696890426635742
1788862324571910000,3.471909912109375,-3.953275853729248,-9.585934534454346,-0.40716391983032224
1788862324581951000,3.481950927734375,-4.074631950378418,-9.53745195083618,-0.5418377632141113
1788862324591993000,3.4919931640625,-4.019864587402344,-9.585335984039306,-0.5832873794555664
1788862324602034200,3.5020341796875,-3.867533506774902,-9.836427883148193,-0.7930792999267577
1788862324612076000,3.512075927734375,-3.8340146835327147,-10.11939259185791,-1.258452247619629
1788862324622117000,3.5221171875,-4.01597400970459,-10.135403815460204,-1.5578770927429197
1788862324632159000,3.532158935546875,-3.975422219085693,-9.929801747894286,-1.5451578964233397
1788862324642200000,3.542199951171875,-3.745878134918213,-9.798120656585693,-1.4752771354675291
1788862324652242000,3.552241943359375,-3.769820151519775,-9.771036250305174,-1.4477438163757324
1788862324662283000,3.562282958984375,-4.4671313850402825,-9.737517427062988,-1.3250409812927246
1788862324672324900,3.572324951171875,-5.464166738891601,-9.579649755096435,-1.041328084564209
1788862324682366000,3.582365966796875,-6.44189884185791,-9.37913536605835,-0.7688380081176758
1788862324692408000,3.592407958984375,-7.441029122161865,-9.52518166732788,-0.7745242370605468
1788862324702449200,3.60244921875,-7.359626265716552,-9.906159006500243,-0.7700351089477538
1788862324712491000,3.612490966796875,-6.315155791473388,-10.063727403259277,-0.5087678527832031
1788862324722532000,3.622531982421875,-4.948515556335449,-10.078242250823974,-0.33952772293090816
1788862324732574000,3.632573974609375,-3.5064579689025877,-9.85692823486328,-0.20844518203735352
1788862324742615000,3.642614990234375,-2.8848633628845213,-9.592817864227294,-0.31229367904663086
1788862324752657000,3.652656982421875,-3.6923078727722167,-9.94057565536499,-1.389983701324463
1788862324762698000,3.662697998046875,-4.196586597442627,-10.405050777435303,-2.2144868980407715
1788862324772739800,3.67273974609375,-3.684377079772949,-10.639532902526854,-2.615515676116943
1788862324782781000,3.682781005859375,-3.0449755989074707,-10.670657524108886,-3.1598972785949706
1788862324792823000,3.692822998046875,-2.5962124252319336,-10.42644895477295,-3.4127848289489746
1788862324802864000,3.702864013671875,-2.8802245971679685,-9.948506448364258,-2.8215666564941406
1788862324812906000,3.712906005859375,-3.7346553146362305,-9.485976615142821,-1.4764742362976073
1788862324822947000,3.722947021484375,-4.781220715332031,-9.23802710571289,0.06374561920166015
1788862324832989000,3.732989013671875,-5.744737245941161,-9.418789331054686,0.884208600616455
1788862324843030000,3.743030029296875,-6.252756910705566,-10.045321977996826,0.45055882492065424
1788862324853072000,3.75307177734375,-6.74162296218872,-10.504859059143065,-0.7305307815551757
1788862324863113000,3.763113037109375,-6.839785230255127,-10.31033017425537,-1.569848101043701
1788862324873154800,3.77315478515625,-6.816441764068603,-9.749338797760009,-2.068590234375
1788862324883196000,3.78319580078125,-6.947973217773437,-9.333046984100342,-2.428618309020996
1788862324893238000,3.793238037109375,-7.186345920562744,-9.212289437866211,-2.5953145996093747
1788862324903279000,3.803279052734375,-7.100753211212158,-9.043198945617675,-2.318185757446289
1788862324913321000,3.813321044921875,-6.97820001373291,-8.923488862609863,-1.8409914390563964
1788862324923362000,3.823362060546875,-6.876296805572509,-9.103353262329101,-1.4321815055847167
1788862324933404000,3.83340380859375,-6.699275520324707,-8.99591346282959,-1.4030021728515625
1788862324943445000,3.843445068359375,-6.660369743347167,-8.185476200866699,-1.719934617614746
1788862324953486800,3.85348681640625,-6.908319252777099,-7.669974655914306,-2.2560861518859863
1788862324963528000,3.86352783203125,-7.671620669555663,-7.22689771118164,-2.328510752105713
1788862324973569800,3.87356982421875,-8.058433875274657,-6.8140475624084464,-2.288856787109375
1788862324983611000,3.88361083984375,-7.963264359283447,-6.612186434936523,-2.385223403930664
1788862324993653000,3.893653076171875,-7.781155395507812,-6.4652423080444335,-2.0971710166931152
1788862325003694000,3.903694091796875,-7.773374240112304,-6.319046369171142,-1.44280577545166
1788862325013736000,3.91373583984375,-8.03090055618286,-6.208314542388916,-0.722749626159668
1788862325023777000,3.923777099609375,-8.17141026611328,-6.035932022857666,-0.2850596351623535
1788862325033819000,3.93381884765625,-8.104671894836425,-5.607519563293457,-0.050427872467041016
1788862325043860000,3.94385986328125,-7.868843031311035,-5.568314511108398,-0.1731307075500488
1788862325053901800,3.95390185546875,-7.503128727722167,-5.419574732971191,-0.8476970252990722
1788862325063943000,3.96394287109375,-7.155221298980712,-5.064634336853027,-1.32144967880249
1788862325073984800,3.97398486328125,-6.687304512023926,-4.6067432693481445,-1.7022773803710936
1788862325084025900,3.98402587890625,-6.368127503204345,-4.4559085647583005,-2.1275474502563476
1788862325094068000,3.99406787109375,-6.267122120666504,-4.478503842926025,-2.5418939750671385
1788862325104109000,4.004109130859375,-6.228515618896484,-4.656273316192626,-2.9761423011779784
1788862325114151000,4.01415087890625,-6.081571492004394,-4.888211602020263,-3.21765739364624
1788862325124192000,4.02419189453125,-6.303633695983886,-4.9993923416137696,-3.1904233497619625
1788862325134233900,4.03423388671875,-6.825569657897949,-5.110573081207275,-3.1176994743347164
1788862325144275000,4.04427490234375,-7.57809716720581,-5.316474423980712,-3.0262708984374997
1788862325154316800,4.05431689453125,-7.5822870201110835,-5.2247465728759765,-2.994847001647949
1788862325164358000,4.06435791015625,-7.138611524963379,-5.033808990478516,-3.0985458610534664
1788862325174400000,4.07439990234375,-6.687603787231445,-4.652083463287354,-2.799569928741455
1788862325184441000,4.084441162109375,-6.65872372970581,-4.072237748718261,-2.362777763366699
1788862325194483000,4.09448291015625,-6.865223622894287,-4.009838867950439,-2.4754548789978026
1788862325204524000,4.10452392578125,-6.766462804412841,-4.535515769958496,-2.9486089820861814
1788862325214566000,4.11456591796875,-6.824073281860351,-3.5320459991455078,-3.295768222808838
1788862325224607000,4.12460693359375,-6.30737463607788,-2.779817765045166,-3.7337574890136715
1788862325234648800,4.13464892578125,-5.758204630279541,-2.7064953392028808,-4.013430170440674
1788862325244690000,4.14468994140625,-5.758952818298339,-2.6131214744567868,-4.037072911834716
1788862325254731800,4.154731689453125,-5.8636991409301755,-2.6403555183410643,-4.368520204162597
1788862325264772900,4.16477294921875,-6.673687490081787,-2.7406127128601074,-4.471470875549316
1788862325274815000,4.17481494140625,-7.281665074157714,-2.8151322395324705,-4.575917922973632
1788862325284856000,4.18485595703125,-7.94246473236084,-2.63047943649292,-4.676324755096435
1788862325294898000,4.19489794921875,-8.470086923217773,-2.417096213531494,-4.715529807281494
1788862325304939000,4.20493896484375,-8.078335676574707,-2.436100189208984,-4.4844893470764156
1788862325314980900,4.21498095703125,-6.675034228515624,-2.5213936233520506,-4.059817827606201
1788862325325022000,4.22502197265625,-5.214571215820312,-1.9437924728393554,-3.2918776451110836
1788862325335063800,4.235063720703125,-5.195417602539062,-0.8988730857849121,-2.6554689163208005
1788862325345105000,4.24510498046875,-6.516867281341552,-0.09337386474609374,-2.549675130462646
1788862325355147000,4.25514697265625,-8.013243318939208,-0.7495347572326659,-2.8419173706054686
1788862325365187800,4.265187744140625,-9.32152488861084,-1.9446902984619139,-3.838952724456787
1788862325375230000,4.27522998046875,-9.804854348754882,-3.3960254173278805,-4.913500357055664
1788862325385270800,4.285270751953125,-9.093327542877196,-4.523544761657715,-5.87971036453247
1788862325395313200,4.295313232421875,-8.217947560882568,-4.801272154235839,-6.377255397033691
1788862325405354000,4.30535400390625,-7.953687552642822,-5.1876364471435545,-5.9956795074462885
1788862325415396000,4.31539599609375,-8.527398125457763,-5.348945783996582,-5.5461681457519525
1788862325425437000,4.32543701171875,-9.620500820922851,-4.865616323852539,-4.481047682189941
1788862325435479000,4.33547900390625,-10.587907929229736,-3.9139211639404294,-3.261650849151611
1788862325445520000,4.345519775390625,-10.51503441619873,-2.552967157745361,-3.1578023521423337
1788862325455562000,4.35556201171875,-9.875632935333252,-1.179293955230713,-3.7632360969543455
1788862325465602800,4.365602783203125,-9.935936889648437,-0.16864157943725586,-3.716399526977539
1788862325475645000,4.37564501953125,-10.181043284606933,-0.10848726272583008,-3.6534020957946773
1788862325485685800,4.385685791015625,-9.092429717254639,-1.1691185981750487,-4.293851039886475
1788862325495728000,4.39572802734375,-7.120056462097168,-1.4642039527893065,-5.257367570495605
1788862325505769000,4.40576904296875,-6.16117869720459,-1.17480482711792,-5.182249493408203
1788862325515811000,4.41581103515625,-6.410624582672119,-0.4879682258605957,-4.06011710281372
1788862325525852000,4.425851806640625,-6.554725595092773,-0.575206948852539,-3.4467525650024413
1788862325535894000,4.43589404296875,-6.800729815673828,-0.7664438064575195,-3.2441432495117186
1788862325545934800,4.445934814453125,-6.613533173370361,-0.7944260383605957,-2.8004677543640133
1788862325555977000,4.45597705078125,-6.382343075561523,-0.834379278564453,-2.3096564140319824
1788862325566017800,4.466017822265625,-6.500856057739258,-0.853532891845703,-2.1294927391052245
1788862325576060000,4.476059814453125,-7.1507321708679195,-1.361103643798828,-2.773832260894775
1788862325586100700,4.486100830078125,-7.004536231994629,-2.197428211212158,-3.9688381645202635
1788862325596143000,4.49614306640625,-5.976076981353759,-2.5549124465942383,-5.2837037887573235
1788862325606184000,4.506183837890625,-5.285499440002441,-2.258031440734863,-5.749525649261474
1788862325616226000,4.51622607421875,-5.52895982131958,-2.0370166999816894,-5.20948353729248
1788862325626267000,4.526266845703125,-7.360673728942871,-2.0784663162231443,-4.868010525512695
1788862325636309000,4.53630908203125,-9.751134449005127,-1.9720739799499512,-5.205892234802246
1788862325646349800,4.546349853515625,-11.061959857940673,-2.1520880172729493,-5.746233621978759
1788862325656392000,4.556391845703125,-11.449371614074707,-2.864662286376953,-5.984905599975586
1788862325666432800,4.566432861328125,-10.665569845581054,-3.2974142364501953,-5.999270809936523
1788862325676475100,4.57647509765625,-10.3422029838562,-3.2043396469116208,-5.958419744110107
1788862325686516000,4.586515869140625,-10.397269622039794,-2.877381482696533,-5.989544365692138
1788862325696558000,4.59655810546875,-10.064625228881836,-2.1932383583068846,-5.758054992675781
1788862325706599000,4.606598876953125,-9.651326167297363,-1.4630068519592285,-5.204545496368408
1788862325716641000,4.61664111328125,-9.381230292510987,-1.0950479843139649,-4.598363563537597
1788862325726681900,4.626681884765625,-9.773879364776612,-0.7962216896057128,-4.1091982368469235
1788862325736724000,4.636723876953125,-9.28920316619873,-1.0907084938049316,-3.772363990783691
1788862325746764800,4.646764892578125,-7.474547945404052,-1.7700632148742674,-3.3934815780639647
1788862325756807000,4.656806884765625,-6.853551889801025,-1.4170681076049805,-3.666570204925537
1788862325766847700,4.66684765625,-7.119607549285888,-0.9937433265686034,-4.037222549438476
1788862325776890000,4.67689013671875,-7.391050162506103,-1.0079588989257813,-4.0720881111145015
1788862325786931000,4.686930908203125,-7.767837648773193,-1.4827590156555175,-4.500201295471191
1788862325796973000,4.69697314453125,-7.122600301361084,-2.2451626068115234,-4.930259768676757
1788862325807014000,4.707013916015625,-6.643311056518554,-2.2328923233032225,-4.34128616027832
1788862325817056000,4.717055908203125,-6.956652198791503,-1.5792752700805663,-3.6611832511901854
1788862325827096800,4.727096923828125,-8.365340600585936,-1.0075099861145018,-3.386897523498535
1788862325837139000,4.737138916015625,-9.096469932556152,-0.37918168792724605,-3.1836896575927733
1788862325847179800,4.7471796875,-8.517372406005858,0.40402153015136716,-2.8865093765258787
1788862325857222000,4.757221923828125,-8.058583512878418,-0.05686228942871093,-3.2612019363403317
1788862325867262700,4.7672626953125,-9.494505958557129,-1.773504879760742,-4.480299494171143
1788862325877305000,4.77730517578125,-10.76971761779785,-3.579032206726074,-5.1602527656555175
1788862325887346000,4.787345947265625,-10.399214910888672,-4.104559471130371,-4.19419239578247
1788862325897388000,4.797387939453125,-10.041431400299071,-3.291129457092285,-3.26224939956665
1788862325907428900,4.807428955078125,-8.698583544158936,-1.8812439544677733,-3.1606454666137695
1788862325917471000,4.817470947265625,-7.037456504821777,-0.795473501586914,-3.379266005706787
1788862325927511800,4.82751171875,-7.812728929901122,-0.3371335212707519,-3.8744168365478515
1788862325937554000,4.837553955078125,-9.530269345855713,-0.24914661026000975,-4.07298593673706
1788862325947595000,4.847594970703125,-9.657610946655273,-0.4783914192199707,-3.5983354576110838
1788862325957636900,4.857636962890625,-9.591620763397216,-0.9478045822143554,-3.314772198486328
1788862325967678000,4.867677978515625,-9.39185456237793,-1.4459481651306152,-3.4913445709228514
1788862325977720000,4.877719970703125,-8.450185121917723,-1.3920786277770996,-3.5537434516906736
1788862325987761000,4.887760986328125,-8.725069400024413,-0.8779238212585448,-3.1420904037475585
1788862325997802000,4.897802001953125,-9.12968948059082,-0.598251139831543,-2.9132945075988768
1788862326007844000,4.907843994140625,-8.557026371002197,-0.5345055206298828,-3.0301614761352536
1788862326017885000,4.917885009765625,-8.271966735839843,-0.656310530090332,-3.084180651092529
1788862326027927000,4.927927001953125,-8.530390877532959,-0.8295908752441405,-2.8631659103393554
1788862326037968000,4.9379677734375,-8.429385494995117,-0.9807248550415039,-2.2506991981506346
1788862326048010000,4.948010009765625,-8.245181604766845,-1.0658686515808105,-1.7197849800109861
1788862326058050800,4.95805078125,-8.850166436767578,-1.004217958831787,-1.614589744567871
1788862326068093000,4.968093017578125,-9.613617491149903,-1.0398317085266113,-1.7672201004028318
1788862326078133800,4.9781337890625,-10.00342344894409,-1.1857283721923828,-1.8412907142639159
1788862326088176000,4.988176025390625,-9.890147782897948,-1.0479121391296387,-1.850268970489502
1788862326098217000,4.998217041015625,-10.16323640975952,-1.0305541770935058,-2.0868460220336913
1788862326108259000,5.008259033203125,-9.765948571777344,-1.0199299072265624,-2.286761860656738
1788862326118300000,5.0182998046875,-9.497349073028564,-1.022174471282959,-2.574963885498047
1788862326128342000,5.028342041015625,-10.143484246063231,-1.1658265708923339,-3.0918121688842772
1788862326138382800,5.0383828125,-9.712079034423828,-1.2301707405090332,-3.2294787643432614
1788862326148425000,5.048425048828125,-9.42297918395996,-1.1688193229675292,-3.0119056884765625
1788862326158465800,5.0584658203125,-9.773729727172851,-1.1001356628417969,-2.9670144073486324
1788862326168508200,5.068508056640625,-9.511863920593262,-1.063624087524414,-2.794182975006103
1788862326178549000,5.078549072265625,-9.067440237426757,-1.1100117446899413,-2.539649411010742
1788862326188591000,5.088591064453125,-9.130587306213378,-1.366939510345459,-2.6153660385131836
1788862326198632000,5.0986318359375,-8.82278275527954,-1.638232485961914,-2.8535891036987304
1788862326208674000,5.108674072265625,-8.403348551940917,-1.8628385292053222,-3.112162882995605
1788862326218715000,5.11871484375,-8.304587733459472,-2.0898387741088866,-3.4419641616821286
1788862326228757000,5.128757080078125,-8.553584706115721,-2.2601263671875,-3.7633857345581054
1788862326238797800,5.1387978515625,-8.413823184204102,-2.3665187034606934,-3.7802947837829586
1788862326248840000,5.14883984375,-8.09479581298828,-2.385971591949463,-3.539378241729736
1788862326258880800,5.158880859375,-8.43357534790039,-2.307860762786865,-3.2435446990966796
1788862326268923100,5.168923095703125,-8.633341548919677,-2.226308268737793,-2.95594122467041
1788862326278964000,5.1789638671875,-8.047510330200195,-2.15792388381958,-2.4973019691467284
1788862326289006000,5.189006103515625,-7.84624775314331,-2.060659441375732,-2.0720318992614746
1788862326299047000,5.199046875,-8.495226040649413,-2.0361188743591305,-2.0178630867004395
1788862326309089000,5.209089111328125,-9.08539674987793,-2.1794716987609863,-2.1746832954406736
1788862326319129900,5.2191298828125,-8.996811288452149,-2.3582886352539063,-2.116324629974365
1788862326329172700,5.2291728515625,-8.922441399383544,-2.4857798736572265,-2.032677209472656
1788862326339213800,5.2392138671875,-9.160215551757812,-2.4785972686767574,-1.9578584075927734
1788862326349255700,5.249255615234375,-9.325265828704833,-2.371157469177246,-1.8992004669189453
1788862326359296800,5.259296875,-9.364770156097412,-2.3014263458251953,-1.7989432723999021
1788862326369338600,5.269338623046875,-9.508122980499268,-2.2381296394348142,-1.8490718696594237
1788862326379379700,5.279379638671875,-9.796175367736815,-2.3355437194824216,-2.1646575759887696
1788862326389421800,5.289421875,-9.95314521408081,-2.443432431793213,-2.3644237770080565
1788862326399462700,5.299462646484375,-9.489717555236815,-2.532616443634033,-2.2391771026611327
1788862326409504800,5.3095048828125,-9.37763899002075,-2.596511700439453,-1.9288287124633787
1788862326419545900,5.3195458984375,-9.326762204742431,-2.7008091102600096,-1.4704887321472166
1788862326429588000,5.329587890625,-8.991873247528076,-2.758718862915039,-0.7936778503417968
1788862326439628800,5.33962890625,-9.0788126953125,-2.8399720817565917,-0.03426701126098632
1788862326449671000,5.3496708984375,-9.655366382598876,-3.148075907897949,0.3094505645751953
1788862326459711700,5.359711669921875,-10.534936217498778,-3.6188358093261717,0.15981296081542967
1788862326469753900,5.36975390625,-10.73141039123535,-4.090792811584472,-0.3435679382324219
1788862326479794700,5.379794677734375,-10.1506668510437,-4.2149920227050774,-0.7438485282897949
1788862326489836800,5.3898369140625,-9.665990652465819,-3.937114992523193,-1.098788924407959
1788862326499878000,5.3998779296875,-9.523386016082764,-3.5206735412597654,-1.470937644958496
1788862326509920000,5.409919921875,-9.357886826324462,-3.1120132453918457,-1.7081132469177245
1788862326519960800,5.4199609375,-9.134328246307373,-2.799121015930176,-1.7272668601989745
1788862326530003000,5.4300029296875,-9.330353507232665,-2.8107927490234372,-1.9211971946716306
1788862326540043800,5.440043701171875,-9.211092337036133,-3.158999452972412,-2.190544881439209
1788862326550086000,5.4500859375,-8.558822022247314,-3.469796755981445,-2.141463747406006
1788862326560126700,5.460126708984375,-8.31835439300537,-3.6737528099060057,-1.8576012130737303
1788862326570167800,5.470167724609375,-8.187571127319336,-3.911078049468994,-1.624914739227295
1788862326580209700,5.480209716796875,-7.961917620849609,-4.144811986541748,-1.420509772491455
1788862326590250800,5.490250732421875,-7.837119859313964,-4.432565098571777,-1.4082394889831542
1788862326600292900,5.50029296875,-8.020575561523437,-4.732738131713867,-1.7452233726501465
1788862326610334000,5.510333984375,-8.599224175262451,-4.971260472106933,-1.8751088127136228
1788862326620375800,5.520375732421875,-8.811410297393799,-5.102193375396729,-1.7504606887817382
1788862326630417000,5.5304169921875,-8.148366075134277,-5.025878197479248,-1.5767314308166502
1788862326640458800,5.540458740234375,-7.349600546264648,-4.685303011322021,-1.4229039741516112
1788862326650499800,5.550499755859375,-7.556998265075683,-4.28367568283081,-1.313967798614502
1788862326660541700,5.560541748046875,-8.247875081634522,-4.299387631225586,-1.5638625968933104
1788862326670582800,5.570582763671875,-8.587851717376708,-4.835688803100585,-1.7565958305358886
1788862326680624600,5.580624755859375,-8.360851472473144,-5.6434325881958,-1.6620248649597167
1788862326690665700,5.590665771484375,-7.706635868835448,-6.293607976531982,-1.5209166046142577
1788862326700707800,5.600707763671875,-7.377133865356445,-6.524199523925781,-1.425597451019287
1788862326710749000,5.6107490234375,-8.010998754882811,-6.4567129646301265,-1.47482822265625
1788862326720790800,5.620790771484375,-8.933364944458008,-6.274753638458251,-1.7308581626892088
1788862326730832000,5.630831787109375,-8.827421520996094,-6.117185241699218,-1.7559972801208494
1788862326740873700,5.640873779296875,-7.981819422149658,-6.002263562011718,-1.7634791603088378
1788862326750914800,5.650914794921875,-7.61625475616455,-5.824045175933837,-1.9776105712890624
1788862326760956700,5.660956787109375,-8.141183470153807,-5.703736542510986,-2.1829133636474607
1788862326770997800,5.670997802734375,-8.654590088653563,-5.767033248901367,-2.1999720504760742
1788862326781039600,5.68103955078125,-8.349927927398682,-5.992836392974853,-2.0816087059020996
1788862326791080700,5.691080810546875,-7.972541890716553,-6.199785198974609,-1.9405004455566406
1788862326801122800,5.701122802734375,-7.946056034851074,-6.412719509124756,-1.8748095375061034
1788862326811164000,5.711163818359375,-8.17889214630127,-6.78681351852417,-1.899350104522705
1788862326821205800,5.721205810546875,-8.419509413146972,-7.108235091400146,-1.9755156448364257
1788862326831246800,5.731246826171875,-8.08895994644165,-7.192032149505615,-1.942745009613037
1788862326841288700,5.741288818359375,-7.4568907081604,-6.897844620513916,-1.9394529823303222
1788862326851329800,5.751329833984375,-7.331644033813476,-6.417507912445068,-1.9107225624084472
1788862326861371600,5.76137158203125,-7.446266438293456,-6.130203713226318,-1.8421885398864746
1788862326871412700,5.771412841796875,-7.665186252593994,-6.181080498504638,-1.568052449798584
1788862326881454600,5.78145458984375,-7.613112366485595,-6.535272706604004,-1.1914146011352538
1788862326891495700,5.79149560546875,-7.464372588348388,-6.8393363174438475,-0.7852981445312499
1788862326901537800,5.801537841796875,-7.410503050994873,-6.987327907562255,-0.750133307647705
1788862326911579000,5.811578857421875,-7.252036828613281,-6.867019274139404,-0.9522937103271484
1788862326921620700,5.821620849609375,-7.1498343452453605,-6.451774923706054,-1.363048932647705
1788862326931661800,5.831661865234375,-7.269843703460693,-6.144269647979736,-1.7284639610290526
1788862326941703700,5.84170361328125,-7.321319039154052,-5.969941839599609,-1.9367595054626463
1788862326951744800,5.851744873046875,-7.137115148925781,-5.934178452301025,-1.7628806098937988
1788862326961786600,5.86178662109375,-6.970418858337402,-6.1082069854736325,-1.5116390731811522
1788862326971827700,5.87182763671875,-7.126790154266357,-6.380547424316406,-1.3563152404785155
1788862326981868800,5.881868896484375,-7.320720488739013,-6.571335369110107,-1.4130278923034667
1788862326991910700,5.89191064453125,-7.683442040252685,-6.698527332305908,-1.511190160369873
1788862327001951700,5.90195166015625,-7.882609690856933,-6.7739446846008295,-1.7800889343261719
1788862327011993900,5.911993896484375,-7.78280140914917,-6.841281606292724,-2.0503344467163083
1788862327022035000,5.922034912109375,-7.75706374130249,-6.887369988250732,-2.3026234466552733
1788862327032076800,5.932076904296875,-7.57809716720581,-6.814795750427246,-2.520495797729492
1788862327042118000,5.942117919921875,-7.110180380249023,-6.565050589752197,-2.516156307220459
1788862327052159700,5.95215966796875,-6.838588129425048,-6.527042638397217,-2.3184850326538085
1788862327062200800,5.962200927734375,-6.9059250511169425,-6.669048724365234,-2.0026000511169433
1788862327072242700,5.97224267578125,-7.108833641815185,-6.889165639495849,-1.5150807380676268
1788862327082283800,5.98228369140625,-7.193378887939453,-7.125443415832519,-1.038784245300293
1788862327092326000,5.992325927734375,-7.200411855316162,-7.389703424072265,-0.7863456077575683
1788862327102367000,6.002366943359375,-7.256825231933593,-7.278971597290039,-0.7610568527221679
1788862327112408800,6.012408935546875,-7.365911045074462,-7.116614797210693,-0.8747814315795898
1788862327122450000,6.022449951171875,-7.542932330322265,-6.901136647796631,-0.9425672660827636
1788862327132491800,6.03249169921875,-7.694066310119628,-6.828562409973144,-1.0096049125671387
1788862327142532900,6.042532958984375,-7.61640439376831,-6.86941347579956,-1.0793360359191895
1788862327152574700,6.05257470703125,-7.36770669631958,-6.865373260498046,-1.092953057861328
1788862327162615800,6.06261572265625,-7.004685869598388,-6.845022546386718,-1.0152911415100097
1788862327172657700,6.07265771484375,-6.749553755187988,-6.751947956848144,-0.8482955757141113
1788862327182698800,6.08269873046875,-6.553977407073974,-6.61383244857788,-0.6911760917663574
1788862327192740900,6.092740966796875,-6.388328579711914,-6.641814680480957,-0.6404489440917969
1788862327202782000,6.102781982421875,-6.3886278549194335,-6.753893245697021,-0.5342062454223633
1788862327212823800,6.11282373046875,-6.480654981231689,-6.9972039894104,-0.5430348640441894
1788862327222865000,6.122864990234375,-6.636577364349365,-7.244854223632812,-0.6251859085083007
1788862327232906800,6.13290673828125,-7.027430785369873,-7.453748318481445,-0.7757213378906249
1788862327242947800,6.14294775390625,-7.478737798309326,-7.482029825592041,-0.9350853858947753
1788862327252989700,6.15298974609375,-7.892934685516357,-7.250091539764404,-0.9853636207580566
1788862327263030800,6.16303076171875,-8.118139279174803,-6.943184814453125,-0.9636661682128905
1788862327273072600,6.17307275390625,-8.087014657592773,-6.649296560668945,-0.9802759422302245
1788862327283113700,6.18311376953125,-7.89742381362915,-6.426186893463134,-1.0571896705627442
1788862327293155800,6.19315576171875,-7.661594950103759,-6.382193437957763,-1.1079168182373047
1788862327303197000,6.203197021484375,-7.453000130462646,-6.452373474121093,-1.2000935821533203
1788862327313238800,6.21323876953125,-7.403320446014404,-6.5497875541687005,-1.2596493484497069
1788862327323278800,6.22327880859375,-7.521983065795898,-6.822277630615234,-1.304241354370117
1788862327333321200,6.2333212890625,-7.669076830291748,-7.151629996490478,-1.2369044326782226
1788862327343362000,6.243362060546875,-7.8912886718749995,-7.164199555206299,-0.8894459167480468
1788862327353404200,6.253404052734375,-8.163030560302733,-6.889913827514648,-0.4918588035583496
1788862327363445000,6.263445068359375,-8.362198210906982,-6.549637916564941,-0.32935236587524414
1788862327373486000,6.273486083984375,-8.386888415527343,-6.349572440338134,-0.32142157287597656
1788862327383528000,6.28352783203125,-8.380005085754394,-6.225522866821288,-0.47539866714477536
1788862327393569000,6.293569091796875,-8.353668867492676,-6.0716954101562495,-0.6530185028076172
1788862327403611000,6.30361083984375,-8.3256866355896,-6.05867693862915,-0.797418790435791
1788862327413652000,6.31365185546875,-8.223184877014159,-6.1936500572204585,-1.027262149810791
1788862327423693800,6.32369384765625,-8.189815691375731,-6.30138913192749,-1.23211602935791
1788862327433735000,6.33373486328125,-8.135048328399657,-6.367229677581787,-1.3268366325378418
1788862327443777000,6.343777099609375,-7.993790430450439,-6.3235354972839355,-1.3956699302673339
1788862327453818000,6.353818115234375,-7.725789482116698,-6.245125392913818,-1.4263456390380858
1788862327463860000,6.36385986328125,-7.462128024291991,-6.17344898071289,-1.3298293846130371
1788862327473901000,6.373901123046875,-7.138910800170898,-6.142623634338379,-1.164479832458496
1788862327483943000,6.38394287109375,-6.776189248657226,-6.169259127807617,-1.1079168182373047
1788862327493984000,6.39398388671875,-6.684760672760009,-6.121674369812012,-1.1430816551208496
1788862327504025900,6.40402587890625,-6.9059250511169425,-5.815066919708252,-1.0764929214477539
1788862327514067000,6.41406689453125,-7.192929975128173,-5.376329465484619,-0.8921393936157226
1788862327524108800,6.42410888671875,-7.687182980346679,-5.19661470336914,-0.8487444885253905
1788862327534150000,6.43414990234375,-8.295010926818847,-5.382913520050049,-0.9346364730834961
1788862327544192000,6.44419189453125,-8.844330570220947,-5.731868412017822,-1.0007762939453124
1788862327554233000,6.454233154296875,-9.210942699432373,-5.967398000335693,-1.0025719451904296
1788862327564275000,6.46427490234375,-9.687987380218505,-6.0142345703124995,-0.9793781166076659
1788862327574316000,6.47431591796875,-9.318831411743163,-5.8271875656127925,-1.0770914718627929
1788862327584358000,6.48435791015625,-8.35785872039795,-5.541379742431641,-1.1791443176269532
1788862327594399000,6.49439892578125,-8.093149799346923,-5.708225670623779,-1.3976152191162108
1788862327604440800,6.50444091796875,-7.92256293106079,-6.1656678253173824,-1.4354735328674315
1788862327614482000,6.51448193359375,-7.66099639968872,-6.274005450439453,-0.8447042732238769
1788862327624523800,6.524523681640625,-7.829338703918457,-6.034136371612549,-0.05955576629638672
1788862327634564900,6.53456494140625,-8.443002516937256,-5.972934591674805,0.19961656341552733
1788862327644607000,6.54460693359375,-8.977807312774658,-6.215796422576904,-0.11252747802734374
1788862327654648000,6.55464794921875,-9.151536570739745,-6.317998905944824,-0.6163572898864745
1788862327664690000,6.56468994140625,-9.09751739578247,-6.018873336029053,-1.0473135887145995
1788862327674731000,6.57473095703125,-9.057414517974854,-5.370942511749267,-1.3226467796325683
1788862327684772000,6.584772216796875,-8.863633821105957,-4.700566046905517,-1.3198036651611327
1788862327694814000,6.59481396484375,-8.623166191864014,-4.384830702972412,-1.2223895851135254
1788862327704855000,6.60485498046875,-8.541015147399902,-4.262576780700683,-1.1067197174072265
1788862327714897000,6.61489697265625,-8.621969091033934,-4.299686906433105,-1.0181342559814452
1788862327724938000,6.62493798828125,-8.874707003784179,-4.304475309753418,-0.9913491249084472
1788862327734979800,6.634979736328125,-9.026738809204101,-4.1374797439575195,-0.9615712417602539
1788862327745021000,6.64502099609375,-9.07267755355835,-3.9644986740112302,-0.9706991355895995
1788862327755063000,6.65506298828125,-9.125200352478027,-3.810222304534912,-1.0637737251281738
1788862327765104000,6.665104248046875,-9.017610915374755,-3.8132150566101073,-1.2511200050354003
1788862327775146000,6.67514599609375,-8.940697187042236,-3.8304233810424804,-1.4107833282470703
1788862327785187000,6.68518701171875,-8.794800523376464,-3.787178113555908,-1.6659154426574707
1788862327795229000,6.69522900390625,-8.700079920196533,-3.8379052612304685,-2.000954037475586
1788862327805270000,6.70527001953125,-8.496572779083252,-3.9350200660705563,-2.35574479598999
1788862327815312000,6.715311767578125,-8.219743212127685,-3.9866450393676756,-2.6497826873779293
1788862327825353000,6.72535302734375,-7.931092274475097,-3.8893805969238278,-2.8751369186401368
1788862327835394800,6.735394775390625,-7.785644523620605,-4.134935904693603,-2.7513866203308104
1788862327845436200,6.745436279296875,-7.631068878936767,-4.195539134216308,-2.4869769744873045
1788862327855478000,6.75547802734375,-7.6653358901977535,-3.969735990142822,-2.1957821975708005
1788862327865519000,6.76551904296875,-7.9283987976074215,-3.7304654617309567,-1.8748095375061034
1788862327875561000,6.77556103515625,-8.499415893554687,-3.7587469688415527,-1.6629226905822754
1788862327885602000,6.78560205078125,-9.050231912994384,-3.975422219085693,-1.7549498168945312
1788862327895644000,6.795643798828125,-9.335441185760498,-4.230404695892334,-1.9883844787597655
1788862327905685000,6.80568505859375,-9.374346962738036,-4.301931470489501,-2.231994497680664
1788862327915726800,6.815726806640625,-9.336937561798095,-4.204667028045654,-2.5424925254821775
1788862327925768000,6.825767822265625,-9.147645993041992,-3.916315365600586,-2.6855460746765134
1788862327935810000,6.83581005859375,-8.860192156219481,-3.4620156005859375,-2.5755624359130858
1788862327945851100,6.84585107421875,-8.617479962921141,-3.0391397323608396,-2.346766539764404
1788862327955893000,6.85589306640625,-8.365639875793457,-2.8507459892272946,-2.254440138244629
1788862327965934000,6.86593408203125,-8.393023557281493,-2.634070738983154,-2.2116437835693357
1788862327975976000,6.875975830078125,-8.383147475433349,-2.55371534576416,-2.230498121643066
1788862327986017000,6.88601708984375,-8.185775476074218,-2.8190228172302243,-2.4519617752075193
1788862327996058000,6.89605810546875,-7.79537096786499,-3.0731074684143063,-2.791788773345947
1788862328006100000,6.906099853515625,-7.764994534301757,-2.973149549102783,-3.166032420349121
1788862328016141000,6.91614111328125,-8.342745322418212,-2.6158149513244626,-3.2411504974365233
1788862328026183000,6.926182861328125,-8.470236560821533,-2.4747066909790036,-3.1420904037475585
1788862328036224000,6.93622412109375,-8.220491400146484,-2.4136545486450194,-3.195959941101074
1788862328046266000,6.94626611328125,-8.02521432723999,-2.139219183349609,-3.437923946380615
1788862328056307200,6.95630712890625,-7.7504796867370604,-1.9033903198242186,-3.4006641830444333
1788862328066349000,6.96634912109375,-7.684938416290283,-1.622819812774658,-3.3084874191284177
1788862328076390100,6.97639013671875,-7.823203562164307,-1.565957523345947,-3.619284722137451
1788862328086432000,6.986431884765625,-8.03808316116333,-1.9021932189941406,-3.9098809486389157
1788862328096473000,6.99647314453125,-8.009053466033935,-1.9999065742492674,-3.9357682540893553
1788862328106515000,7.006514892578125,-8.124274420928955,-1.9098247367858885,-3.687070556640625
1788862328116556000,7.01655615234375,-8.572738319396972,-2.2020669769287107,-3.255366069793701
1788862328126598000,7.026597900390625,-8.794650885772704,-2.8012159423828122,-3.2034418212890623
1788862328136639000,7.036638916015625,-8.834454488372803,-3.258658097076416,-3.538929328918457
1788862328146681000,7.04668115234375,-9.007285920715331,-3.358915291595459,-3.7665281242370603
1788862328156722200,7.05672216796875,-9.219472042846679,-3.149273008728027,-3.7371991539001463
1788862328166764000,7.066763916015625,-9.229647399902344,-2.9308021072387693,-3.612251754760742
1788862328176805000,7.07680517578125,-9.19313582458496,-2.5317186180114746,-3.631405368041992
1788862328186847000,7.086846923828125,-9.200916979980468,-2.5776573623657226,-3.965246862030029
1788862328196888000,7.09688818359375,-8.163180197906494,-2.729988442993164,-4.237886576080322
1788862328206930000,7.106929931640625,-6.62026686553955,-2.546083827972412,-4.121169245147705
1788862328216971000,7.116970947265625,-6.781426564788818,-2.6508301506042478,-4.126705836486816
1788862328227012900,7.127012939453125,-7.587374698638915,-2.8006173919677733,-4.169801466369629
1788862328237054000,7.137053955078125,-8.122478769683838,-2.422932080078125,-3.8916251609802246
1788862328247096000,7.147095947265625,-8.94473740234375,-1.3958195678710936,-3.6797383140563964
1788862328257137200,7.15713720703125,-9.44183352203369,-0.024690204620361325,-3.825335702514648
1788862328267179000,7.167178955078125,-9.367014720153808,0.9534908111572266,-3.703979605865478
1788862328277220000,7.17722021484375,-8.492382926177978,1.0012252067565917,-3.3541268882751463
1788862328287261000,7.187260986328125,-7.250690090179443,0.5253776268005371,-3.1043817276000976
1788862328297303000,7.197302978515625,-8.148665350341796,-0.05491700057983398,-2.93035319442749
1788862328307344000,7.20734375,-9.18026699066162,-1.0239701225280762,-2.902520600128174
1788862328317386000,7.217385986328125,-8.908525102233886,-1.8677765701293945,-2.905363714599609
1788862328327427300,7.22742724609375,-8.978705138397217,-1.9017443061828612,-3.1343092483520505
1788862328337469400,7.237469482421875,-9.031676850128173,-1.0085574493408203,-2.7534815467834473
1788862328347510300,7.24751025390625,-8.469787648010254,-0.30256723480224607,-2.120963395690918
1788862328357552400,7.257552490234375,-8.106317908477783,-0.0004489128112792969,-2.626439221191406
1788862328367593200,7.26759326171875,-8.636334300994873,0.12853870162963865,-3.638438335418701
1788862328377635300,7.27763525390625,-9.636212769317627,0.00014963760375976562,-3.803787887573242
1788862328387676200,7.28767626953125,-9.411157813262939,-0.17866729888916014,-3.1947628402709958
1788862328397718500,7.297718505859375,-8.610297357940674,-0.27308862686157226,-2.2659622337341307
1788862328407759400,7.30775927734375,-8.52290899734497,-0.3495534423828125,-2.0796634170532227
1788862328417801500,7.317801513671875,-8.57348650741577,-0.3107973030090332,-2.672527603149414
1788862328427842300,7.32784228515625,-8.771457057189942,-0.21308394775390624,-3.1955110282897947
1788862328437884400,7.337884521484375,-8.839991079711913,-0.26126725616455077,-3.604021686553955
1788862328447925200,7.34792529296875,-8.570643392944335,-0.33533787002563475,-3.495384786224365
1788862328457967400,7.35796728515625,-8.392574644470214,-0.4321533996582031,-3.1206922264099117
1788862328468008200,7.36800830078125,-8.10751500930786,-0.5844844802856445,-2.5439889015197754
1788862328478050300,7.37805029296875,-8.238148637390136,-0.7064391273498535,-2.295141566467285
1788862328488091100,7.388091064453125,-8.551340142059326,-0.8560767311096191,-2.4670751731872556
1788862328498133500,7.398133544921875,-8.557774559020995,-0.9433154541015625,-2.5481787544250487
1788862328508174300,7.40817431640625,-8.473079675292968,-1.1043255157470702,-2.447173371887207
1788862328518216400,7.418216552734375,-8.458115914916991,-1.2548609451293944,-2.3228245231628417
1788862328528257300,7.42825732421875,-8.538620945739746,-1.2789525993347166,-2.408716507720947
1788862328538299400,7.43829931640625,-8.47278040008545,-1.1550526634216307,-2.560598675537109
1788862328548340200,7.44834033203125,-8.325387360382079,-1.0030208580017088,-2.6101287223815914
1788862328558381300,7.45838134765625,-8.359504734039307,-0.9032125762939452,-2.3192332206726074
1788862328568423200,7.468423095703125,-8.554781806945801,-1.0527005424499511,-1.8966566276550292
1788862328578464300,7.47846435546875,-8.913762418365478,-1.337460902404785,-1.6195277854919432
1788862328588506000,7.488506103515625,-9.183858293151856,-1.6343419082641601,-1.7458219230651855
1788862328598547200,7.498547119140625,-9.011475773620605,-1.8721160606384277,-2.0624550926208496
1788862328608589300,7.50858935546875,-8.327033374023436,-2.0184616371154784,-2.302174533843994
1788862328618630400,7.51863037109375,-8.225579078674317,-2.067842046356201,-2.49011936416626
1788862328628672300,7.52867236328125,-8.846275859069824,-2.1115362266540525,-2.5674820053100587
1788862328638713300,7.53871337890625,-9.211840525054932,-2.3054665611267087,-2.4735095901489257
1788862328648755200,7.548755126953125,-9.226804285430907,-2.6918308540344236,-2.3033716346740722
1788862328658796300,7.55879638671875,-9.262418035125732,-3.0801404357910154,-2.1329344039916993
1788862328668838100,7.568838134765625,-9.444676636505127,-3.2269349250793455,-1.9913772308349609
1788862328678879200,7.578879150390625,-9.64638812637329,-3.191470812988281,-1.86433490524292
1788862328688921000,7.588921142578125,-9.67197615661621,-3.132064684295654,-1.7884686401367187
1788862328698962200,7.598962158203125,-9.673023619842528,-3.049165451812744,-1.6647183418273925
1788862328709004300,7.60900439453125,-8.901941047668457,-2.9837738189697265,-1.5949872184753418
1788862328719045400,7.61904541015625,-8.023867588806151,-3.0047230834960934,-1.6542437095642089
1788862328729087200,7.629087158203125,-8.188768228149414,-3.0181904678344726,-1.8589479515075682
1788862328739128300,7.63912841796875,-8.699930282592772,-3.140294752502441,-1.961300072479248
1788862328749170200,7.649170166015625,-8.773103070831299,-3.3488895721435545,-1.8160019592285155
1788862328759211300,7.659211181640625,-8.611195183563233,-3.5372833152770995,-1.4440028762817383
1788862328769253400,7.66925341796875,-8.447641282653809,-3.7096658348083493,-1.0473135887145995
1788862328779294200,7.679294189453125,-8.374917407226562,-3.995324020385742,-0.9349357482910156
1788862328789336300,7.68933642578125,-8.742277724456786,-4.450072698211669,-1.1463736824035644
1788862328799377200,7.699377197265625,-9.412354914093017,-4.981884741973877,-1.604414387512207
1788862328809418200,7.709418212890625,-9.88954923248291,-5.472995357513428,-2.151040554046631
1788862328819460400,7.71946044921875,-10.021379961395263,-5.638644184875488,-2.681954772186279
1788862328829501400,7.72950146484375,-9.570970774078368,-5.268590390777588,-2.7519851707458494
1788862328839543300,7.739543212890625,-8.538321670532227,-4.586542192840576,-2.4244284561157223
1788862328849584400,7.74958447265625,-7.961468708038329,-4.149899665069579,-2.065447844696045
1788862328859626200,7.759626220703125,-8.205826914978028,-3.9802106224060054,-1.4241010749816894
1788862328869667300,7.769667236328125,-8.621669815826415,-4.138227931976318,-0.5544073219299316
1788862328879709200,7.779709228515625,-8.736292220306396,-4.774487023162841,-0.05132569808959961
1788862328889750300,7.789750244140625,-8.222287051391602,-5.922805994415283,0.04144961624145507
1788862328899792100,7.799792236328125,-7.734618100738525,-6.832153712463379,-0.1592144104003906
1788862328909833200,7.809833251953125,-7.820061172485351,-7.033565927124023,-0.6293757614135742
1788862328919875300,7.819875244140625,-8.021174111938477,-6.768707368469238,-1.2770073104858397
1788862328929916400,7.82991650390625,-7.951742263793945,-6.261735166931152,-1.6596306632995605
1788862328939958300,7.839958251953125,-7.790133651733398,-5.673659384155273,-1.9607015220642088
1788862328949999400,7.849999267578125,-7.6090721511840815,-5.213074839782714,-2.117521730804443
1788862328960041200,7.860041259765625,-7.458686359405517,-5.114314021301269,-2.1293431015014646
1788862328970082300,7.870082275390625,-7.544727981567382,-5.439177259063721,-1.945887399291992
1788862328980124200,7.880124267578125,-7.573009488677978,-6.287921747589111,-1.56416187210083
1788862328990165200,7.890165283203125,-7.299920861816406,-7.387758135223388,-1.5011644409179687
1788862329000207400,7.900207275390625,-7.092373505401611,-8.23575443572998,-1.459415549468994
1788862329010248400,7.91024853515625,-7.002890218353271,-8.80392841720581,-1.5026608169555664
1788862329020290300,7.920290283203125,-7.104793426513671,-9.024793520355225,-1.6127940933227538
1788862329030331400,7.930331298828125,-7.293785720062256,-8.856301578521729,-1.7859248008728026
1788862329040373200,7.940373291015625,-7.476642871856689,-8.512584002685546,-1.975366007232666
1788862329050414300,7.950414306640625,-7.770381488037109,-8.12726717300415,-1.9728221679687499
1788862329060455400,7.960455322265625,-7.944260383605957,-7.7973162567138665,-1.8083704414367674
1788862329070497300,7.970497314453125,-7.686434792327881,-7.574356227111816,-1.6666636306762694
1788862329080538400,7.980538330078125,-7.341220840454101,-7.483376564025878,-1.6379332107543945
1788862329090580200,7.990580322265625,-6.9713166839599605,-7.5165961120605465,-1.6494553062438964
1788862329100621300,8.000621337890625,-6.647051996612548,-7.569567823791504,-1.517026026916504
1788862329110663400,8.010663330078126,-6.39700756072998,-7.6199956962585444,-1.4450503395080565
1788862329120704500,8.02070458984375,-6.27565146408081,-7.640196772766113,-1.4839561164855957
1788862329130746400,8.030746337890625,-6.386532928466797,-7.762600332641601,-1.2840402778625488
1788862329140787500,8.040787353515626,-6.58854369354248,-7.9655089233398435,-0.9130886581420898
1788862329150829300,8.050829345703125,-6.903081936645507,-8.183530912017822,-0.6223427940368652
1788862329160870400,8.060870361328124,-7.209390111541747,-8.302792082214355,-0.4230255058288574
1788862329170912300,8.070912353515626,-7.314136434173584,-8.288127597045898,-0.3589806114196777
1788862329180953300,8.080953369140625,-7.1407064514160155,-8.036437147521973,-0.4011784156799316
1788862329190995200,8.0909951171875,-6.820332341766357,-7.6470801025390625,-0.670975015258789
1788862329201036300,8.101036376953125,-6.656928078460693,-7.4214265960693355,-0.9534908111572266
1788862329211078400,8.111078369140625,-6.539462559509277,-7.3928458137512205,-0.982520506286621
1788862329221119500,8.121119384765626,-6.457910065460204,-7.735815201568603,-0.9525929855346679
1788862329231161300,8.131161376953125,-6.470030711364745,-8.14013600692749,-1.1918635139465332
1788862329241202400,8.141202392578125,-6.417058999633789,-8.340650395965575,-1.681627391052246
1788862329251244300,8.151244384765626,-6.338648895263671,-8.443451429748535,-1.9150620529174804
1788862329261285400,8.161285400390625,-6.329969914245605,-8.530241239929198,-1.806125877380371
1788862329271326200,8.171326171875,-6.121524732208251,-8.349927927398682,-1.5129858116149901
1788862329281368300,8.181368408203125,-5.933579901885986,-8.185476200866699,-1.2734160079956054
1788862329291409200,8.1914091796875,-6.0139352951049805,-7.960720520019531,-1.2167033561706542
1788862329301451300,8.201451171875,-6.198139185333251,-7.587075423431396,-1.2083236503601074
1788862329311492000,8.2114921875,-6.493972727966308,-7.340323014831543,-1.1553519386291504
1788862329321534500,8.221534423828125,-6.772897221374511,-7.283909638214111,-1.2146084297180175
1788862329331574800,8.23157470703125,-7.088632565307617,-7.339425189208984,-1.1613374427795409
1788862329341616600,8.24161669921875,-7.3648635818481445,-7.559691741943359,-1.0881646545410155
1788862329351657700,8.25165771484375,-7.4405802093505855,-7.8918872222900385,-1.0588356842041016
1788862329361699600,8.261699462890626,-7.400626969146728,-8.025513602447509,-1.31516489944458
1788862329371740700,8.27174072265625,-7.5056725669860835,-7.921814743041992,-1.5295955856323242
1788862329381782800,8.28178271484375,-7.745392008209228,-7.782951046752929,-1.5670049865722655
1788862329391824000,8.291823974609375,-7.973589353942871,-7.5996449821472165,-1.5472528228759765
1788862329401865700,8.30186572265625,-8.236801898956298,-7.3080012924194335,-1.2466308769226073
1788862329411906800,8.31190673828125,-8.356212706756592,-7.081150685119629,-0.9407716148376464
1788862329421948700,8.32194873046875,-8.299799330139159,-6.860884132385253,-0.6696282768249512
1788862329431989800,8.33198974609375,-8.039579537200927,-6.85011022491455,-0.5795464393615722
1788862329442031600,8.342031494140626,-7.687931168365478,-6.8776435440063475,-0.7867945205688476
1788862329452072700,8.35207275390625,-7.466317877197265,-6.8572928298950195,-0.9642647186279296
1788862329462114600,8.362114501953124,-7.438634920501708,-6.886621800231933,-1.2325649421691893
1788862329472155600,8.37215576171875,-7.499537425231933,-6.936301484680175,-1.5843629486083983
1788862329482197800,8.38219775390625,-7.813626755523681,-6.877194631195068,-1.8873790962219237
1788862329492238800,8.39223876953125,-8.022520850372313,-6.6510922119140625,-2.1815666252136228
1788862329502279700,8.40227978515625,-7.996184632110595,-6.356455770111084,-2.2028151649475096
1788862329512321800,8.41232177734375,-7.858817311859131,-6.091896486663818,-1.9262848731994628
1788862329522362600,8.422362548828126,-7.737012302398681,-5.979369008636474,-1.3148656242370604
1788862329532404700,8.43240478515625,-7.596502592468261,-5.966649812316894,-0.7420528770446777
1788862329542445600,8.442445556640624,-7.765892359924316,-5.831078143310546,-0.3321954803466797
1788862329552487700,8.45248779296875,-8.231564582824706,-5.596147105407715,-0.15128361740112303
1788862329562528500,8.462528564453125,-8.690652751159668,-5.559785167694091,-0.30481179885864257
1788862329572571000,8.47257080078125,-8.827421520996094,-5.844844802856445,-0.7046434761047363
1788862329582611700,8.48261181640625,-8.693645503234864,-6.078279464721679,-1.0675146652221679
1788862329592653800,8.49265380859375,-8.59278975830078,-5.9962780578613275,-1.3052888175964354
1788862329602694700,8.502694580078124,-8.782081327056884,-5.704784005737304,-1.4437036010742186
1788862329612736800,8.51273681640625,-8.932467118835449,-5.3770776535034175,-1.6505027694702148
1788862329622777600,8.522777587890625,-9.063400022125244,-5.252130254364014,-1.8305168067932127
1788862329632819700,8.53281982421875,-8.934113132476806,-5.370643236541747,-1.9737199935913086
1788862329642860500,8.542860595703125,-8.464251056671142,-5.400421119689941,-1.9342156661987304
1788862329652902700,8.552902587890625,-8.201637062072754,-5.195118327331543,-1.776647269439697
1788862329662943500,8.562943603515626,-8.291569261932372,-4.897638771057129,-1.6572364616394042
1788862329672984600,8.572984619140625,-8.42714093093872,-4.584596903991699,-1.7642273483276367
1788862329683026700,8.583026611328124,-8.342894960021972,-4.489577025604248,-1.8477251312255858
1788862329693067800,8.59306787109375,-7.798214082336425,-4.615272612762451,-1.9271826988220213
1788862329703109600,8.603109619140625,-7.649773579406737,-4.744858777618408,-2.0102315689086914
1788862329713150700,8.613150634765624,-7.386261759185791,-4.782417816162109,-1.942146459197998
1788862329723192600,8.623192626953125,-6.695684217834472,-4.736479071807861,-1.9200000938415527
1788862329733233700,8.633233642578125,-7.0269818725585935,-4.4583027664184565,-2.025793879699707
1788862329743275500,8.643275634765626,-7.513004809570312,-4.263773881530762,-2.1793220611572264
1788862329753316600,8.653316650390625,-7.7250412940979,-4.2582372901916505,-2.3313538665771483
1788862329763358700,8.663358642578125,-8.059182063293457,-4.508730638885498,-2.398391513061523
1788862329773399600,8.673399658203126,-8.377311608886718,-4.790049333953857,-2.5664345420837402
1788862329783441700,8.683441650390625,-8.762628438568115,-4.973804311370849,-3.1015386131286617
1788862329793482800,8.693482666015624,-8.916605532836913,-4.792293898010254,-3.853317934417724
1788862329803524600,8.703524658203126,-8.79749400024414,-4.628141446685791,-4.259135115814209
1788862329813565700,8.713565673828125,-8.131307388305663,-4.534318669128417,-4.324975661468506
1788862329823607800,8.72360791015625,-7.7503300491333,-4.190900368499755,-3.9791631591796874
1788862329833648600,8.733648681640625,-7.691073558044433,-3.835660697174072,-3.296217135620117
1788862329843690800,8.743690673828125,-7.693467759704589,-3.5722985145568846,-2.6153660385131836
1788862329853731600,8.753731689453126,-8.378508709716796,-3.374627239990234,-2.420388240814209
1788862329863773700,8.763773681640625,-8.780285675811767,-3.187430597686767,-2.4500164863586424
1788862329873814500,8.773814453125,-8.885181636047363,-3.1937153770446773,-2.55386498336792
1788862329883857000,8.78385693359375,-8.55448253173828,-3.0621839233398433,-2.816778253173828
1788862329893897700,8.793897705078125,-8.609399532318115,-2.8016648551940917,-3.3680431854248045
1788862329903938800,8.803938720703124,-9.253888691711426,-2.808398547363281,-3.845836054229736
1788862329913980700,8.813980712890626,-8.012794406127929,-2.6506805130004882,-3.174262488555908
1788862329924021800,8.824021728515625,-8.754847283172607,-2.508375151824951,-2.812289125061035
1788862329934063600,8.834063720703124,-9.1546789604187,-2.533214994049072,-3.3277906700134277
1788862329944104700,8.844104736328125,-7.604134110260009,-2.59845698928833,-3.7789480453491207
1788862329954146600,8.854146484375,-6.7167831199645995,-2.3783400741577148,-4.078821803283692
1788862329964187600,8.864187744140626,-7.095964807891845,-1.8788497528076171,-4.010886331176757
1788862329974229500,8.8742294921875,-7.253832479858398,-1.6487071182250976,-3.995324020385742
1788862329984270600,8.8842705078125,-7.013364850616455,-1.7741034301757812,-4.0529344978332515
1788862329994312700,8.894312744140626,-7.132326745605468,-2.0783166786193847,-3.994725469970703
1788862330004353800,8.904353759765625,-7.446565713500976,-2.138022082519531,-4.1009681686401365
1788862330014395600,8.914395751953125,-7.2249524223327635,-1.693149486541748,-4.347122026824951
1788862330024436700,8.924436767578126,-7.759158667755126,-1.2285247268676758,-4.399644825744629
1788862330034478600,8.934478515625,-8.088361396026611,-1.1254244178771973,-3.99038597946167
1788862330044519700,8.944519775390624,-7.801057196807861,-1.0248679481506346,-3.227832750701904
1788862330054561500,8.9545615234375,-8.037185335540771,-0.7619546783447265,-2.91119958114624
1788862330064602600,8.9646025390625,-9.005190994262694,-0.6395511184692383,-3.353079425048828
1788862330074644700,8.974644775390624,-8.143278396606444,-0.3516483688354492,-3.676147011566162
1788862330084685800,8.984685791015625,-8.079233502197265,-0.19856910018920898,-3.578433656311035
1788862330094727000,8.994726806640625,-8.098387115478515,-0.2519897247314453,-3.332130160522461
1788862330104768800,9.004768798828126,-8.229768931579589,-0.12524667434692383,-3.239504483795166
1788862330114809900,9.014809814453125,-8.729109615325926,0.12509703674316405,-2.9454665924072265
1788862330124851700,9.024851806640624,-8.262988479614258,0.2838625343322754,-3.0449755989074707
1788862330134892800,9.034892822265626,-7.933785751342773,0.2950853546142578,-3.038092269134521
1788862330144934700,9.0449345703125,-8.519018419647216,0.15472528228759766,-3.3158196617126463
1788862330154975700,9.054975830078124,-8.221538863372801,0.1662473777770996,-3.2110733390808104
1788862330165017600,9.065017578125,-7.071723516082764,0.21113865890502928,-3.0029274322509765
1788862330175058700,9.07505859375,-7.484124752044678,-0.02483984222412109,-2.9204771125793454
1788862330185100800,9.085100830078124,-8.35666161956787,-0.5641337661743163,-3.0371944435119627
1788862330195142000,9.095141845703125,-8.568548466491698,-0.8819640365600585,-3.117400199127197
1788862330205183700,9.105183837890625,-8.034042945861817,-0.7020996368408202,-3.4084453384399414
1788862330215224800,9.115224853515626,-8.224830890655516,-0.6536170532226562,-3.5332430999755857
1788862330225266700,9.1252666015625,-8.137741805267334,-0.6682815383911133,-3.1645360443115234
1788862330235307800,9.135307861328124,-7.879916213989257,-0.49739539489746093,-2.852392002868652
1788862330245349600,9.145349609375,-7.7781626434326165,-0.4373907157897949,-2.96881005859375
1788862330255390700,9.155390625,-7.954435740661621,-0.5913678100585937,-3.2185552192687985
1788862330265431600,9.165431640625,-8.091803060913085,-0.7276876670837402,-3.429095327758789
1788862330275473700,9.1754736328125,-8.19131206741333,-0.8065466842651366,-3.3473931961059566
1788862330285514500,9.185514404296875,-8.652195886993407,-1.0301052642822266,-3.2550667945861815
1788862330295556900,9.195556884765624,-8.477419165802,-1.3187562019348145,-3.0723592803955078
1788862330305597700,9.20559765625,-8.157942881774902,-1.3813047203063964,-2.8281507110595703
1788862330315639800,9.215639892578125,-8.650849148559569,-1.4016554344177246,-2.7021558486938475
1788862330325680600,9.2256806640625,-9.067739512634278,-1.55772745513916,-2.7425580017089843
1788862330335722800,9.23572265625,-8.652195886993407,-1.7006313667297361,-2.7084406280517577
1788862330345763600,9.245763671875,-8.275857313537598,-1.7859248008728026,-2.65576819152832
1788862330355805700,9.2558056640625,-8.566902452850341,-1.95995333404541,-2.5248352882385254
1788862330365846500,9.265846435546875,-8.635586112976073,-2.104353621673584,-2.354398057556152
1788862330375888600,9.275888671875,-8.451531860351562,-2.218527113342285,-2.157325333404541
1788862330385929500,9.285929443359375,-8.42025760116577,-2.4774001678466795,-2.1074960113525387
1788862330395971800,9.295971923828125,-8.666710734558105,-2.9228713142395017,-2.1333833168029783
1788862330406012700,9.3060126953125,-8.892962791442871,-3.370437387084961,-2.1416133850097654
1788862330416054800,9.3160546875,-8.715193318176269,-3.5857658988952634,-2.025793879699707
1788862330426095600,9.326095703125,-8.406341304016113,-3.611054653930664,-1.8803461288452148
1788862330436137700,9.3361376953125,-8.396614859771727,-3.587411912536621,-1.7221791816711425
1788862330446178600,9.346178466796875,-8.500014443969727,-3.5323452743530273,-1.5538368774414062
1788862330456219600,9.3562197265625,-8.076540025329589,-3.423708374023437,-1.5370774658203123
1788862330466261500,9.366261474609376,-7.838466597747802,-3.3357214630126952,-1.7151462142944336
1788862330476302600,9.376302490234375,-8.204779451751708,-3.3078888687133787,-1.9999065742492674
1788862330486344400,9.386344482421874,-8.586056066131592,-3.304447203826904,-2.046892781829834
1788862330496385500,9.396385498046875,-8.61224264678955,-3.437923946380615,-1.9313725517272948
1788862330506427600,9.406427734375,-8.604461491394042,-3.7433342956542965,-1.7369933044433592
1788862330516468700,9.41646875,-8.834304850769042,-4.289661186981201,-1.5921441040039062
1788862330526510600,9.426510498046875,-8.908076189422607,-5.092466931152344,-1.7259201217651365
1788862330536551700,9.4365517578125,-8.875155916595459,-5.953032790374755,-2.014720697021484
1788862330546593800,9.44659375,-8.727912514495848,-6.32667788696289,-2.1178210060119627
1788862330556634600,9.456634521484375,-8.489390174102782,-6.292859788513184,-1.906383071899414
1788862330566676700,9.4666767578125,-8.438214113616944,-6.071994685363769,-1.623568000793457
1788862330576717600,9.476717529296875,-8.959252249908447,-5.993734218597412,-1.4826093780517577
1788862330586759700,9.486759765625,-9.631574003601074,-6.085761344909668,-1.4073416633605955
1788862330596800800,9.49680078125,-9.675567459106444,-6.282834069061279,-1.448492004394531
1788862330606843000,9.5068427734375,-9.069086251068114,-6.194547882843017,-1.5364789154052734
1788862330616883700,9.5168837890625,-8.296357665252685,-5.899911441040039,-1.5764321556091307
1788862330626924800,9.5269248046875,-7.706336593627929,-5.728726022338867,-1.4814122772216796
1788862330636966700,9.536966552734375,-7.4326494163513175,-5.795314756011963,-1.3646949462890625
1788862330647007700,9.5470078125,-7.287800215911865,-5.973084229278564,-1.4276923774719237
1788862330657049600,9.557049560546876,-7.24590168685913,-6.123170745849609,-1.5789759948730469
1788862330667090700,9.567090576171875,-7.522282341003417,-6.254402924346923,-1.541716231536865
1788862330677132500,9.577132568359374,-7.7784619186401365,-6.450727460479736,-1.2852373786926268
1788862330687173600,9.587173583984375,-7.7690347496032715,-6.681618283081054,-0.8426093467712402
1788862330697215700,9.5972158203125,-7.451952667236328,-7.032069551086425,-0.6459855354309082
1788862330707256800,9.6072568359375,-7.118260810852051,-7.388356685638428,-0.7254431030273437
1788862330717298700,9.617298583984375,-6.826916396331787,-7.667730091857909,-0.9886556480407714
1788862330727339800,9.62733984375,-6.710498340606689,-7.850886518859863,-1.350180098724365
1788862330737381600,9.637381591796874,-6.968772844696044,-8.016535346221923,-1.7539023536682128
1788862330747422700,9.647422607421875,-7.362170104980469,-8.132504489135743,-2.0916344253540036
1788862330757464600,9.657464599609375,-7.599345706939697,-8.135347603607178,-2.239476377868652
1788862330767505700,9.667505615234376,-7.479186711120605,-8.074445098876952,-2.3063643867492676
1788862330777547500,9.677547607421875,-7.212981414031982,-8.02476541442871,-2.3529016815185546
1788862330787588600,9.687588623046874,-6.9229837379455565,-8.028506354522705,-2.3415292236328122
1788862330797629700,9.697629638671875,-6.725761376190185,-8.060079888916015,-2.219724214172363
1788862330807671800,9.707671875,-6.694936029815674,-8.120084568023682,-1.997662010192871
1788862330817713000,9.717712890625,-6.604704554748535,-8.191461705017089,-1.7546505416870115
1788862330827754800,9.727754638671875,-6.690147626495361,-8.285434120178222,-1.5313912368774414
1788862330837795800,9.7377958984375,-6.831555162048339,-8.35067611541748,-1.3628992950439451
1788862330847837700,9.747837646484374,-6.830657336425781,-8.385392039489746,-1.1878232986450195
1788862330857878800,9.757878662109375,-6.866869636535644,-8.396614859771727,-1.1510124481201172
1788862330867920600,9.767920654296875,-6.893505130004883,-8.398410511016845,-1.1870751106262207
1788862330877961700,9.777961669921876,-6.945429378509521,-8.386589140319824,-1.4859014053344726
1788862330888003600,9.788003662109375,-7.030872450256347,-8.326285186004638,-1.763928073120117
1788862330898044700,9.798044677734374,-7.156119124603271,-8.29351455078125,-1.9086276359558105
1788862330908086800,9.808086669921876,-7.173626724243164,-8.199691773223876,-1.861641428375244
1788862330918127900,9.8181279296875,-6.937348947906494,-8.033444395446777,-1.8091186294555663
1788862330928169700,9.828169677734374,-6.668300536346435,-7.8441528266906735,-1.6849194183349607
1788862330938210800,9.8382109375,-6.534973431396484,-7.690026094818115,-1.502960092163086
1788862330948252700,9.848252685546875,-6.363638375091552,-7.55909319152832,-1.3404536544799803
1788862330958293800,9.858293701171876,-6.09040011062622,-7.378929516601562,-1.2596493484497069
1788862330968334600,9.86833447265625,-5.949441487884521,-7.164798105621338,-1.1939584403991699
1788862330978376700,9.878376708984375,-6.046855567932129,-7.0747162681579585,-1.1055226165771483
1788862330988417500,9.88841748046875,-6.227917068481445,-7.096264083099364,-1.0510545288085937
1788862330998459600,9.898459716796875,-6.391321331787109,-7.20190823135376,-1.0953472595214844
1788862331008500500,9.90850048828125,-6.60156216506958,-7.274332831573486,-1.2196961082458495
1788862331018542800,9.91854296875,-6.86297905883789,-7.406612473297119,-1.3198036651611327
1788862331028583700,9.928583740234375,-7.218817280578613,-7.664438064575195,-1.2981062126159668
1788862331038625800,9.938625732421874,-7.519888139343261,-7.911340110778808,-1.375169578552246
1788862331048666600,9.94866650390625,-7.879018388366699,-7.9943889808654784,-1.477970612335205
1788862331058708700,9.958708740234375,-8.192359530639648,-7.969998051452636,-1.6672621810913084
1788862331068749600,9.96874951171875,-8.515427117156982,-7.790133651733398,-1.7791911087036132
1788862331078791700,9.978791748046875,-8.713696942138672,-7.682544214630126,-1.8602946899414061
1788862331088832500,9.98883251953125,-8.697386443328856,-7.5062711174011225,-1.8825906929016112
1788862331098874600,9.99887451171875,-8.642170167541503,-7.425766086578369,-1.8857330825805663
1788862331108915500,10.00891552734375,-8.319850769042969,-7.490259893798828,-1.9569605819702147
1788862331118956800,10.018956787109374,-7.670423568725585,-7.560739205169678,-1.9360113174438476
1788862331128998700,10.02899853515625,-6.968922482299805,-7.472901931762695,-1.7851766128540039
1788862331139039700,10.039039794921875,-6.3901242309570305,-7.1023992248535155,-1.3754688537597655
1788862331149081600,10.04908154296875,-6.122721833038329,-6.443395217895508,-0.7516296836853027
1788862331159122700,10.059122802734375,-6.440402465820312,-5.79052635269165,-0.10729016189575195
1788862331169164500,10.06916455078125,-7.163900279998779,-5.5921068901062005,0.10489596023559569
1788862331179205600,10.07920556640625,-8.04361975250244,-5.820603511047363,-0.21622633743286132
1788862331189247500,10.08924755859375,-8.677484642028809,-6.184821438598632,-0.902763663482666
1788862331199288600,10.09928857421875,-8.75275235671997,-6.547991902923584,-1.6283564041137695
1788862331209330700,10.10933056640625,-8.383147475433349,-6.790704096221924,-2.2631191192626954
1788862331219371800,10.119371826171875,-8.021473387145996,-6.7842696792602535,-2.4817396583557128
1788862331229413600,10.12941357421875,-7.694814498138427,-6.593182459259033,-2.4293664970397946
1788862331239454700,10.139454833984376,-7.744793457794189,-6.336254693603515,-2.256834339904785
1788862331249496600,10.14949658203125,-7.805097412109374,-5.9688943763732905,-2.0464438690185545
1788862331259537700,10.15953759765625,-7.6867340675354,-5.525667794036865,-1.7814356727600096
1788862331269579800,10.169579833984375,-7.7693340248107905,-5.3205146392822265,-1.5264531959533691
1788862331279620600,10.17962060546875,-8.194903369903564,-5.37543163986206,-1.3973159439086913
1788862331289661700,10.18966162109375,-8.771008144378662,-5.425859512329101,-1.4496891052246093
1788862331299703600,10.19970361328125,-9.305214389801025,-5.6112605033874505,-1.7877204521179197
1788862331309744600,10.20974462890625,-9.457545470428466,-6.0148331207275385,-2.1461025131225586
1788862331319786800,10.219786865234376,-9.319130686950682,-6.388478217315673,-2.337937921142578
1788862331329828900,10.229828857421875,-9.190143072509764,-6.348076064300537,-2.1543325813293457
1788862331339870700,10.23987060546875,-8.118438554382324,-5.831826331329346,-1.6416741508483885
1788862331349911800,10.249911865234376,-7.980921596527099,-5.077652808380127,-0.9525929855346679
1788862331359953700,10.25995361328125,-7.925256407928466,-4.429871621704101,-0.9229647399902343
1788862331369994800,10.269994873046874,-8.47801771621704,-3.8922237113952636,-1.0443208366394043
1788862331380036900,10.280036865234376,-8.422502165222168,-3.73480495223999,-1.39177935256958
1788862331390078000,10.290077880859375,-8.322993158721923,-3.7301661865234372,-2.0177134490966795
1788862331400119800,10.300119873046874,-8.085368643951416,-3.621678923797607,-2.608482708740234
1788862331410161000,10.310160888671875,-7.68044928817749,-3.5513492500305173,-2.73866742401123
1788862331420202800,10.32020263671875,-7.5254247306823725,-3.817255271911621,-2.576609899139404
1788862331430243800,10.330243896484374,-7.748684035491943,-4.037970737457275,-2.5725696838378904
1788862331440284700,10.34028466796875,-7.911190473175048,-3.9351697036743163,-2.708739903259277
1788862331450326800,10.350326904296875,-8.142829483795165,-3.5945945175170895,-2.9541455734252926
1788862331460367600,10.36036767578125,-8.658181391143799,-3.4044051231384276,-3.2899323562622067
1788862331470409700,10.37040966796875,-8.762927713775634,-3.2556653450012205,-3.612102117156982
1788862331480450600,10.380450439453124,-8.684517609405518,-3.2035914588928223,-3.672406071472168
1788862331490493000,10.390492919921876,-8.476222064971923,-3.4980782630920406,-3.6337995697021483
1788862331500533800,10.40053369140625,-8.300996430969239,-3.7141549629211426,-3.4955344238281247
1788862331510575900,10.410575927734374,-8.068908507537842,-3.7868788383483882,-3.3200095146179196
1788862331520616700,10.42061669921875,-7.812728929901122,-3.672406071472168,-3.0277672744750976
1788862331530658800,10.430658935546875,-7.803002485656738,-3.4452561889648434,-2.890998504638672
1788862331540699600,10.44069970703125,-7.746738746643066,-2.93678761138916,-2.9899089607238767
1788862331550741800,10.45074169921875,-7.971494427490234,-2.2547394134521483,-3.2326211540222167
1788862331560782600,10.460782470703125,-7.777564093017578,-1.790713204193115,-3.390788101196289
1788862331570824700,10.47082470703125,-7.660397849273681,-1.6885107208251953,-3.582773146820068
1788862331580865500,10.480865478515625,-7.512555896759033,-1.7533038032531738,-3.6296097167968746
1788862331590908000,10.490907958984375,-7.653364881896972,-1.8552070114135741,-3.6332010192871094
1788862331600948700,10.50094873046875,-7.700201451873779,-2.021903302001953,-3.497180437469482
1788862331610989800,10.51098974609375,-7.813028205108642,-1.885882720184326,-3.3892917251586914
1788862331621031700,10.52103173828125,-8.07624075012207,-1.7353472908020018,-3.4693478431701656
1788862331631072800,10.53107275390625,-7.565976521301269,-1.6711527587890624,-3.3337761741638183
1788862331641114600,10.541114501953125,-7.3751885765075675,-1.7184382415771484,-3.4765304481506347
1788862331651155700,10.55115576171875,-7.5148004608154295,-1.6754922492980957,-3.816507083892822
1788862331661197600,10.561197509765625,-7.809137627410888,-1.5765817932128905,-3.4976293502807616
1788862331671238700,10.57123876953125,-8.023717951202393,-1.502211904144287,-3.4391210472106932
1788862331681280500,10.581280517578126,-7.9463553100585935,-1.472882933807373,-3.7319618377685546
1788862331691321600,10.591321533203125,-7.745392008209228,-1.4080898513793945,-3.82413860168457
1788862331701363700,10.60136376953125,-7.7799582946777335,-1.0746972702026367,-3.7268741592407224
1788862331711404800,10.61140478515625,-7.798064444732666,-0.656310530090332,-3.921103768920898
1788862331721446700,10.62144677734375,-8.366687339019775,-0.5072714767456055,-4.265419895172119
1788862331731487700,10.63148779296875,-8.43342571029663,-0.4740519287109375,-4.235043461608886
1788862331741529600,10.641529541015625,-8.347683363342284,-0.40072950286865233,-4.10530765914917
1788862331751570700,10.65157080078125,-7.848492317199707,-0.25483283920288086,-4.014627271270752
1788862331761611800,10.66161181640625,-7.111078205871582,0.09202712631225586,-3.7557542167663573
1788862331771653600,10.671653564453125,-7.543530880737304,-0.06973112335205078,-3.2453403503417966
1788862331781694700,10.68169482421875,-8.261492103576659,-0.5143044441223145,-3.188178785705566
1788862331791736800,10.69173681640625,-8.331073589324951,-0.5424363136291503,-3.8564603240966795
1788862331801778000,10.70177783203125,-8.19086315460205,-0.282815071105957,-4.426130681610108
1788862331811819800,10.71181982421875,-8.506748136138915,-0.1500865165710449,-4.078522528076172
1788862331821860900,10.72186083984375,-8.640673791503906,-0.10669161148071288,-3.2749685958862305
1788862331831902700,10.73190283203125,-7.698705075836181,-0.05850830307006836,-2.702455123901367
1788862331841943800,10.74194384765625,-6.945279740905761,0.027383681488037107,-2.913743420410156
1788862331851985700,10.751985595703125,-7.39299545135498,-0.03366846084594726,-3.2740707702636715
1788862331862026800,10.76202685546875,-7.8255977638244625,-0.16609774017333984,-3.322403716278076
1788862331872068600,10.772068603515624,-7.840112611389159,-0.29553426742553707,-3.161393654632568
1788862331882109700,10.782109619140625,-7.742698531341552,-0.48542438659667964,-3.049913639831543
1788862331892150500,10.792150634765624,-7.716811225891113,-0.7758709754943848,-2.736871772766113
1788862331902193000,10.80219287109375,-7.9286980728149405,-0.9769839149475097,-2.530072604370117
1788862331912233700,10.812233642578125,-8.065317205047608,-0.9543886367797851,-2.699163096618652
1788862331922275800,10.82227587890625,-7.824699938201904,-0.7531260597229004,-3.135955261993408
1788862331932316700,10.832316650390625,-8.144924410247802,-0.5740098480224609,-3.344101168823242
1788862331942358800,10.84235888671875,-8.5678002784729,-0.4870704002380371,-3.273322582244873
1788862331952399600,10.852399658203124,-8.716540056610107,-0.5825391914367676,-2.946214780426025
1788862331962441700,10.862441650390625,-8.468740184783934,-0.8339303657531738,-2.6931775924682615
1788862331972482600,10.872482666015625,-8.417713761901854,-1.1985972061157226,-2.4346038131713867
1788862331982524700,10.882524658203126,-8.277802602386474,-1.5502455749511719,-2.0854992835998534
1788862331992565500,10.8925654296875,-8.152256652832031,-1.801038198852539,-1.8824410552978514
1788862332002607900,10.90260791015625,-8.394370295715332,-1.9288287124633787,-1.84518129196167
1788862332012648700,10.912648681640626,-8.826972608184814,-2.165555401611328,-1.9777602088928221
1788862332022690800,10.92269091796875,-9.183858293151856,-2.4657284347534176,-2.055272487640381
1788862332032731600,10.932731689453124,-9.348758932495116,-2.859424970245361,-2.0222025772094727
1788862332042772700,10.942772705078125,-8.88069250793457,-3.2218472465515133,-1.7648258987426757
1788862332052814800,10.95281494140625,-8.60012200088501,-3.5531449012756346,-1.4535796829223633
1788862332062855700,10.962855712890626,-8.587851717376708,-3.821744400024414,-1.3153145370483397
1788862332072897800,10.972897705078125,-8.550891229248046,-3.910928411865234,-1.4443021514892578
1788862332082938600,10.982938720703125,-8.451082947540282,-3.797952021026611,-1.665616167449951
1788862332092980700,10.992980712890626,-8.426093467712402,-3.7199908294677733,-1.8197428993225098
1788862332103021600,11.003021484375,-8.605060041809082,-3.781342247009277,-1.81944362411499
1788862332113064000,11.01306396484375,-8.748113591003417,-3.984250837707519,-1.744175909423828
1788862332123104800,11.023104736328126,-8.475024964141845,-4.3257238494873045,-1.7513585144042967
1788862332133147000,11.03314697265625,-8.03090055618286,-4.661660269927978,-1.7031752059936522
1788862332143187700,11.043187744140624,-8.03239693222046,-5.003582194519042,-1.5028104545593262
1788862332153229800,11.053229736328126,-8.446893094635008,-5.310339282226562,-1.3302782974243164
1788862332163270700,11.063270751953125,-8.75993496170044,-5.644779326629639,-1.3058873680114744
1788862332173312800,11.073312744140624,-8.709806364440917,-5.963657060241699,-1.5083470458984374
1788862332183353600,11.083353515625,-8.451681497955322,-6.238541338348388,-1.7533038032531738
1788862332193394700,11.093394775390625,-8.41442173461914,-6.339097808074951,-1.9285294372558592
1788862332203436500,11.1034365234375,-8.577676360321044,-6.436511888122558,-1.9461866744995115
1788862332213477600,11.1134775390625,-8.440907590484619,-6.595875936126709,-1.9197008186340332
1788862332223519700,11.123519775390625,-7.825448126220703,-6.674585315704345,-1.7850269752502441
1788862332233560800,11.133560791015626,-7.2046017082214355,-6.713940005493163,-1.7473182991027831
1788862332243602700,11.143602783203125,-7.170633972167968,-6.903530849456787,-1.7969979835510252
1788862332253643800,11.153643798828124,-7.564031232452392,-7.2909426055908195,-1.7389385932922363
1788862332263685600,11.163685546875,-7.87856947555542,-7.778611556243896,-1.6717513092041014
1788862332273726700,11.173726806640625,-7.842207537841796,-8.027907804107665,-1.6748936988830565
1788862332283768600,11.1837685546875,-7.593060927581787,-8.063820829010009,-1.665017617034912
1788862332293809700,11.1938095703125,-7.5059718421936035,-8.041824101257324,-1.5070003074645995
1788862332303851800,11.203851806640625,-7.413346165466308,-7.936479228210449,-1.2229881355285643
1788862332313892900,11.213892822265626,-7.057059030914306,-7.816320232391357,-0.9446621925354003
1788862332323934000,11.223933837890625,-6.673687490081787,-7.679551462554931,-0.7935282127380371
1788862332333975600,11.2339755859375,-6.65902300491333,-7.587225061035156,-0.9307458953857422
1788862332344016600,11.2440166015625,-7.001842755126953,-7.553257324981689,-1.21296241607666
1788862332354058500,11.25405859375,-7.73791012802124,-7.611765628051757,-1.497872413635254
1788862332364099600,11.264099609375,-8.271817098236083,-7.779210106658935,-1.731456713104248
1788862332374141700,11.2741416015625,-8.348581188964843,-7.974786454772949,-1.7993921852111816
1788862332384182800,11.284182861328125,-8.062174815368651,-7.990797678375244,-1.7374422172546387
1788862332394224600,11.294224609375,-7.609521063995361,-7.8827593284606925,-1.6394295867919921
1788862332404265700,11.304265625,-7.391050162506103,-7.7304282478332516,-1.502960092163086
1788862332414307600,11.3143076171875,-7.336731712341308,-7.640795323181152,-1.449838742828369
1788862332424348700,11.3243486328125,-7.341220840454101,-7.763049245452881,-1.473481484222412
1788862332434390500,11.334390625,-7.246500237274169,-8.110807036590575,-1.5946879432678223
1788862332444431600,11.344431640625,-7.246949150085449,-8.40125362548828,-1.7986439971923827
1788862332454473500,11.354473388671876,-7.384166832733154,-8.539069858551025,-1.8728642486572264
1788862332464514600,11.3645146484375,-7.517793212890624,-8.671798413085938,-1.7368436668395995
1788862332474555400,11.374555419921874,-7.480832724761963,-8.831910649108886,-1.6699556579589843
1788862332484597800,11.38459765625,-7.313837158966064,-8.700379195404052,-1.777395457458496
1788862332494638600,11.394638671875,-7.310844406890869,-8.482955757141113,-1.9467852249145507
1788862332504680700,11.4046806640625,-7.367856333923339,-8.380753273773193,-2.012326495361328
1788862332514721500,11.414721435546875,-7.171531797790527,-8.211962056732178,-1.7585411193847655
1788862332524763600,11.424763671875,-6.759878749847411,-8.098686390686035,-1.3572130661010742
1788862332534804500,11.434804443359376,-6.393266620635986,-7.996184632110595,-1.0030208580017088
1788862332544846600,11.4448466796875,-6.062567516326904,-7.939920893096923,-0.730979694366455
1788862332554887400,11.454887451171874,-5.812223805236816,-7.995137168884277,-0.6976105087280273
1788862332564929500,11.464929443359376,-5.710619872283935,-7.976282830810546,-0.8384194938659667
1788862332574970400,11.474970458984375,-5.712116248321533,-7.802553572845459,-1.0479121391296387
1788862332585012700,11.4850126953125,-5.87387449798584,-7.4028715332031245,-1.2083236503601074
1788862332595053600,11.495053466796875,-6.194547882843017,-6.834697551727294,-1.3242927932739257
1788862332605094700,11.5050947265625,-6.58884296875,-6.385186190032958,-1.451185481262207
1788862332615136500,11.515136474609376,-7.08668727645874,-6.252607273101806,-1.5254057327270507
1788862332625177600,11.525177490234375,-7.71890615234375,-6.3037833335876465,-1.4752771354675291
1788862332635219500,11.535219482421875,-8.24144066467285,-6.643311056518554,-1.5084966835021971
1788862332645260500,11.545260498046876,-8.67568899078369,-7.15701695022583,-1.7437269966125488
1788862332655302400,11.555302490234375,-9.154080410003662,-7.515099736022949,-1.8682254829406737
1788862332665343500,11.565343505859374,-9.494655596160888,-7.663091326141357,-1.8965069900512694
1788862332675385600,11.575385498046876,-9.728239895629882,-7.547271820831298,-1.8332102836608886
1788862332685426700,11.5854267578125,-9.962871658325195,-7.472303381347656,-1.727566135406494
1788862332695468500,11.595468505859374,-9.809044201660155,-7.740005054473876,-1.8983026412963866
1788862332705509600,11.605509521484375,-8.843881657409668,-8.214505895996094,-2.269553536224365
1788862332715551500,11.615551513671875,-7.395389653015136,-8.603114752960204,-2.345719076538086
1788862332725592600,11.625592529296876,-6.06466244277954,-8.271966735839843,-1.6325462570190428
1788862332735633700,11.635633544921875,-5.200804556274414,-7.353491123962402,-0.6555623420715332
1788862332745675500,11.645675537109375,-5.272630606079101,-6.255300749969482,0.027533319091796873
1788862332755716600,11.655716552734376,-6.302286957550049,-5.663184751892089,0.2950853546142578
1788862332765758500,11.665758544921875,-7.363816118621826,-5.762394483184814,-0.18884265594482422
1788862332775799600,11.675799560546874,-7.979574858093261,-5.770774188995361,-0.8515876029968261
1788862332785841700,11.685841552734376,-8.13370158996582,-5.250334603118896,-1.153556287384033
1788862332795882800,11.6958828125,-8.28019680404663,-4.838531917572022,-1.0108020133972166
1788862332805924600,11.705924560546874,-8.408735505676269,-4.940435125732422,-0.8777741836547851
1788862332815965700,11.715965576171875,-8.17141026611328,-5.248688589477538,-1.1104606575012206
1788862332826007600,11.726007568359375,-7.716212675476074,-5.421669659423828,-1.6572364616394042
1788862332836048600,11.736048583984376,-7.715614125061035,-5.364059181976318,-1.9844939010620115
1788862332846090500,11.746090576171875,-7.919719816589355,-5.164143343353271,-2.0877438476562498
1788862332856131600,11.756131591796875,-8.13385122756958,-5.0942625823974605,-1.9972130973815916
1788862332866172700,11.766172607421876,-8.429535132598877,-5.128379956054687,-1.923591396331787
1788862332876214500,11.776214599609375,-9.233986890411376,-5.233575191497803,-1.908178723144531
1788862332886255600,11.786255615234374,-9.880421338653564,-5.285948352813721,-1.8655320060729979
1788862332896297700,11.796297607421875,-9.74290438079834,-5.3095910942077635,-1.9967641845703124
1788862332906338800,11.8063388671875,-9.439289682769775,-5.237615406799316,-2.0594623405456542
1788862332916380700,11.816380615234374,-8.678981018066406,-5.081393748474121,-1.914014589691162
1788862332926421800,11.826421875,-8.07534292449951,-4.956147074127197,-1.5541361526489257
1788862332936463600,11.836463623046875,-7.682693852233887,-4.862174658966064,-1.279401512145996
1788862332946504700,11.846504638671876,-7.847444853973388,-4.853794953155517,-1.2363058822631836
1788862332956546600,11.856546630859375,-8.218995024108887,-4.872798928833007,-1.786224076080322
1788862332966587600,11.866587646484374,-8.810662109374999,-4.932653970336914,-2.6912323036193846
1788862332976629500,11.87662939453125,-8.536825294494628,-5.162497329711914,-3.4617163253784176
1788862332986670600,11.886670654296875,-8.057685687255859,-5.216666142272949,-3.733009300994873
1788862332996711400,11.89671142578125,-7.828440878295898,-4.780173252105713,-3.77326181640625
1788862333006753800,11.90675390625,-7.438634920501708,-4.017021472930908,-3.6270658775329587
1788862333016794600,11.916794677734375,-7.621641709899902,-3.2857425033569334,-3.26898309173584
1788862333026836700,11.926836669921874,-7.7118731849670406,-3.0220810455322265,-2.8809727851867675
1788862333036877600,11.936877685546875,-7.219565468597412,-3.1274259185791013,-2.834136215209961
1788862333046919700,11.946919677734375,-6.9816416786193845,-3.2022447204589843,-3.1549592376708984
1788862333056960500,11.95696044921875,-7.396886029052734,-3.2064345733642576,-3.3845033218383787
1788862333067002600,11.967002685546875,-7.60398447265625,-3.2583588218688964,-3.277662072753906
1788862333077043500,11.97704345703125,-7.672967407989502,-3.1968577667236326,-3.246986363983154
1788862333087085600,11.98708544921875,-8.058583512878418,-2.7973253646850584,-3.478775012207031
1788862333097126400,11.99712646484375,-8.292317449951172,-2.4212860664367675,-3.7867292007446287
1788862333107168800,12.007168701171874,-8.220790675354003,-2.248454634094238,-3.900004866790771
1788862333117209600,12.017209716796875,-7.874379622650146,-2.0636521934509275,-3.7924154296875
1788862333127250700,12.027250732421875,-7.844003189086914,-1.8695722213745116,-3.6209307357788085
1788862333137292500,12.03729248046875,-7.839663698577881,-1.648557480621338,-3.5078047073364256
1788862333147333600,12.047333740234375,-7.724143468475341,-1.5310919616699217,-3.2555157073974605
1788862333157375500,12.05737548828125,-7.494150471496582,-1.590947003173828,-3.142838591766357
1788862333167416600,12.06741650390625,-7.337928813171386,-1.603067649078369,-3.403507297515869
1788862333177458400,12.07745849609375,-7.2054995338439936,-1.4609119255065917,-3.770418701934814
1788862333187499500,12.08749951171875,-7.779659019470214,-1.291671795654297,-3.716998077392578
1788862333197541600,12.097541748046876,-8.073397635650634,-1.343296768951416,-3.689614395904541
1788862333207582700,12.107582763671875,-7.60982033920288,-1.5089455963134766,-3.483413777923584
1788862333217624600,12.11762451171875,-7.43743781967163,-1.4983213264465332,-3.7020343170166012
1788862333227665700,12.127665771484375,-7.464971138763428,-1.1869254730224608,-3.6544495590209958
1788862333237707500,12.13770751953125,-7.543530880737304,-0.9168295982360839,-3.4962826118469237
1788862333247748600,12.14774853515625,-7.83367819442749,-0.6986579719543456,-3.3209073402404785
1788862333257789700,12.157789794921875,-7.851784344482422,-0.4767454055786133,-3.436876483154297
1788862333267831600,12.16783154296875,-7.707683332061767,0.14260463638305662,-3.7406408187866207
1788862333277872600,12.17787255859375,-7.972691528320312,0.2786252182006836,-3.9272389106750487
1788862333287914500,12.18791455078125,-8.088211758422851,0.08274959487915039,-3.9508816520690915
1788862333297955600,12.19795556640625,-7.770231850433349,0.10295067138671875,-3.636941959381103
1788862333307997700,12.207997802734376,-7.253084291839599,-0.059256491088867186,-3.582024958801269
1788862333318038800,12.218038818359375,-8.174851930999756,-0.14320318679809568,-3.582773146820068
1788862333328080600,12.22808056640625,-8.562413324737548,-0.41539398803710936,-3.6158430572509763
1788862333338121500,12.23812158203125,-8.195053007507324,-0.35449148330688474,-3.63903688583374
1788862333348163300,12.248163330078125,-7.944410021209716,-0.040701428222656245,-3.4249054748535155
1788862333358204400,12.258204345703126,-7.926603146362305,-0.054767362976074214,-3.3367689262390137
1788862333368246300,12.268246337890625,-8.251765659332275,-0.3708019821166992,-3.400963458251953
1788862333378287400,12.278287353515625,-8.45931301574707,-0.5553051475524902,-3.442413074493408
1788862333388328200,12.288328125,-7.7495818611145015,-0.44636897201538084,-3.2951696723937984
1788862333398370300,12.298370361328125,-7.191882511901855,-0.41105449752807616,-3.285443228149414
1788862333408411400,12.308411376953124,-6.991218485260009,-0.4128501487731933,-3.4329859054565426
1788862333418453200,12.318453369140625,-7.042843458557129,-0.44756607284545896,-3.2372599197387695
1788862333428494300,12.328494384765625,-7.266551676177978,-0.43350013809204097,-3.05170929107666
1788862333438536400,12.338536376953124,-7.540388491058349,-0.5379471855163573,-3.079990798187256
1788862333448577300,12.348577392578125,-7.77606771697998,-0.7453449043273925,-2.877381482696533
1788862333458619400,12.358619384765625,-7.898172001647949,-0.9695020347595215,-2.384624853515625
1788862333468660500,12.368660400390626,-8.215104446411132,-1.227028350830078,-2.001702225494385
1788862333478702300,12.378702392578125,-8.371625379943847,-1.6727987724304199,-1.8676269325256347
1788862333488743400,12.388743408203124,-8.361749298095702,-2.0802619674682616,-2.0228011276245117
1788862333498785300,12.398785400390626,-8.783278427886962,-2.364124501800537,-2.231844860076904
1788862333508826400,12.408826416015625,-9.396343690490722,-2.5049334869384765,-2.345569438934326
1788862333518867200,12.4188671875,-9.367164357757568,-2.654421453094482,-2.320280683898926
1788862333528909300,12.428909423828125,-8.921543573760985,-2.877980033111572,-2.2637176696777344
1788862333538950100,12.4389501953125,-8.717437882232666,-2.927210804748535,-2.24067347869873
1788862333548992500,12.448992431640624,-9.055020316314696,-2.8761843818664548,-2.119018106842041
1788862333559033300,12.459033447265625,-9.097367758178711,-2.9242180526733397,-1.8058266021728515
1788862333569075500,12.469075439453125,-8.73988352279663,-3.025073797607422,-1.4401122985839843
1788862333579116300,12.4791162109375,-8.609249894714354,-3.178751616668701,-1.1553519386291504
1788862333589158400,12.489158447265625,-8.491784375762938,-3.4715924072265625,-0.9579799392700195
1788862333599199200,12.49919921875,-8.262539566802978,-3.938461730957031,-0.8870517150878906
1788862333609241300,12.509241455078126,-8.21061531829834,-4.421491915893554,-0.7849988693237304
1788862333619282200,12.5192822265625,-8.417414486694335,-4.825513446044922,-0.618003303527832
1788862333629324300,12.52932421875,-8.548048114776611,-5.1428948036193844,-0.5035305366516113
1788862333639365000,12.539365234375,-8.324190259552001,-5.332635285186767,-0.4739022911071777
1788862333649406200,12.54940625,-8.052149095916748,-5.38815083618164,-0.7146691955566405
1788862333659448300,12.5594482421875,-8.087762845611572,-5.4418707359313965,-1.1345523117065428
1788862333669489400,12.569489501953125,-8.30578483428955,-5.435735594177245,-1.5369278282165526
1788862333679531300,12.57953125,-8.221838138580322,-5.534646050262451,-1.7987936347961424
1788862333689572400,12.589572265625,-7.9670052993774405,-5.622333686065674,-1.8870798210144042
1788862333699614200,12.5996142578125,-7.789984014129638,-5.705681831359863,-1.7562965553283691
1788862333709655300,12.6096552734375,-8.008305278015136,-5.928941136169433,-1.5860089622497557
1788862333719697200,12.619697265625,-8.406191666412353,-6.290914499664306,-1.3851952980041502
1788862333729738200,12.62973828125,-8.589048818206786,-6.672191114044189,-1.1968015548706055
1788862333739780400,12.6397802734375,-8.423549628448486,-7.127687979888916,-1.2006921325683593
1788862333749821400,12.649821533203125,-8.274660212707518,-7.529614583587646,-1.387290224456787
1788862333759862500,12.659862548828125,-8.10781428451538,-7.811681466674804,-1.595436131286621
1788862333769904400,12.669904296875,-7.835773120880127,-7.996334269714355,-1.7585411193847655
1788862333779945500,12.679945556640625,-7.683142765045165,-8.09524472579956,-1.8876783714294432
1788862333789987300,12.6899873046875,-7.776965542602539,-8.14627114868164,-1.840692163848877
