time,seconds_elapsed,z,y,x
1788862321157797400,0.05779736328125,-0.1603190004825592,0.42308366298675537,1.7432689666748047
1788862321167839200,0.067839111328125,-0.25781574845314026,0.49158746004104614,1.8550753593444824
1788862321177880300,0.07788037109375,-0.3405013084411621,0.48279476165771484,1.9331579208374023
1788862321187922200,0.087922119140625,-0.39683395624160767,0.4219970405101776,1.9713828563690186
1788862321197963300,0.09796337890625,-0.3780967593193054,0.28186336159706116,2.0111329555511475
1788862321208005400,0.10800537109375,-0.34048226475715637,0.002784780226647854,1.9731245040893555
1788862321218046500,0.11804638671875,-0.37573373317718506,-0.4810180962085724,1.868708848953247
1788862321228088300,0.12808837890625,-0.4581749737262726,-1.021634817123413,1.743781328201294
1788862321238129400,0.13812939453125,-0.5400387048721313,-1.5483037233352661,1.5804743766784668
1788862321248171300,0.148171142578125,-0.589809238910675,-1.9436163902282715,1.3848481178283691
1788862321258212400,0.15821240234375,-0.6011601686477661,-2.1445767879486084,1.2153706550598145
1788862321268254200,0.168254150390625,-0.5988696813583374,-2.1121251583099365,1.0752168893814087
1788862321278295300,0.17829541015625,-0.570881187915802,-1.885055661201477,0.9183762073516846
1788862321288337200,0.188337158203125,-0.49566590785980225,-1.7318841218948364,0.7098313570022583
1788862321298378200,0.198378173828125,-0.3818538784980774,-1.5974518060684204,0.4634096026420593
1788862321308420400,0.20842041015625,-0.21004441380500793,-1.4475502967834473,0.22415657341480255
1788862321318461000,0.2184609375,0.046605754643678665,-1.243578314781189,0.031196177005767822
1788862321328502800,0.228502685546875,0.38180842995643616,-1.0457721948623657,-0.1038307398557663
1788862321338543900,0.2385439453125,0.7336940169334412,-1.1090110540390015,-0.18394581973552704
1788862321348586000,0.2485859375,1.0404239892959595,-1.5005898475646973,-0.1825866848230362
1788862321358627000,0.258626953125,1.2951343059539795,-2.0685296058654785,-0.08520234376192093
1788862321368669000,0.2686689453125,1.5153615474700928,-2.8435304164886475,0.0612705759704113
1788862321378710000,0.2787099609375,1.7413997650146484,-3.5776638984680176,0.2059401422739029
1788862321388752000,0.288751953125,2.047283887863159,-4.206390857696533,0.3056277632713318
1788862321398793000,0.29879296875,2.375748634338379,-4.457916259765625,0.2552628815174103
1788862321408834800,0.308834716796875,2.628931999206543,-4.57786226272583,0.07493673264980316
1788862321418876000,0.3188759765625,2.956057548522949,-4.6194844245910645,0.05015868321061134
1788862321428917800,0.328917724609375,3.2889318466186523,-3.6483497619628906,0.31643056869506836
1788862321438958800,0.338958740234375,3.0983898639678955,-2.071730613708496,0.6071361303329468
1788862321449001000,0.3490009765625,2.405735969543457,-1.0681941509246826,0.6188986897468567
1788862321459042000,0.3590419921875,1.7090836763381958,-1.1691910028457642,0.33208826184272766
1788862321469084000,0.369083984375,1.489639401435852,-1.9624173641204834,0.07536298036575317
1788862321479125000,0.379125,1.6757632493972778,-2.787066698074341,0.08688274770975113
1788862321489166800,0.389166748046875,2.1270384788513184,-3.496497392654419,0.41027119755744934
1788862321499208000,0.3992080078125,2.702308177947998,-4.294704437255859,1.0242304801940918
1788862321509250000,0.40925,3.167785406112671,-5.049087047576904,1.8521004915237427
1788862321519292000,0.4192919921875,3.461264133453369,-5.674856662750244,2.7268381118774414
1788862321529333000,0.4293330078125,3.6369411945343018,-6.055607795715332,3.418513774871826
1788862321539375000,0.439375,3.734342336654663,-6.183361530303955,3.8807244300842285
1788862321549416200,0.449416259765625,3.90132999420166,-5.981186866760254,4.17325496673584
1788862321559458000,0.4594580078125,4.238994598388672,-5.383273601531982,4.272782325744629
1788862321569499100,0.4694990234375,4.6827898025512695,-4.800061225891113,4.374899864196777
1788862321579541000,0.479541015625,5.108119010925293,-4.303011417388916,4.410167217254639
1788862321589582000,0.48958203125,5.335330009460449,-3.985346794128418,4.3037800788879395
1788862321599624000,0.4996240234375,5.301855564117432,-3.6947860717773438,4.040185451507568
1788862321609665000,0.5096650390625,5.149132251739502,-3.254216432571411,3.7113099098205566
1788862321619707000,0.519706787109375,5.046213626861572,-2.615154504776001,3.4252188205718994
1788862321629748000,0.529748046875,4.990711212158203,-1.9539788961410522,3.2841172218322754
1788862321639790000,0.5397900390625,4.876615524291992,-1.4034771919250488,3.221498489379883
1788862321649831200,0.5498310546875,4.6269121170043945,-1.1982303857803345,3.196037769317627
1788862321659873000,0.559873046875,4.388530731201172,-1.24458646774292,3.2193665504455566
1788862321669914000,0.5699140625,4.231396198272705,-1.4133217334747314,3.303358554840088
1788862321679956000,0.5799560546875,4.108508110046387,-1.6444811820983887,3.3926658630371094
1788862321689997000,0.5899970703125,3.9943342208862305,-1.8545711040496826,3.4011619091033936
1788862321700039000,0.600038818359375,3.8538546562194824,-2.174396514892578,3.288749933242798
1788862321710080000,0.610080078125,3.6493353843688965,-2.9937500953674316,3.0068728923797607
1788862321720121900,0.620121826171875,2.9051709175109863,-4.90557861328125,2.0003700256347656
1788862321730163000,0.630162841796875,2.1310877799987793,-8.49652099609375,-0.7529594302177429
1788862321740205000,0.640205078125,3.6032087802886963,-8.313100814819336,-1.868046760559082
1788862321750246100,0.65024609375,5.048125743865967,-5.584571838378906,-1.409846544265747
1788862321760288000,0.6602880859375,4.799943923950195,-0.38740289211273193,-0.44545337557792664
1788862321770329000,0.6703291015625,3.835475206375122,1.267863392829895,-0.11984416097402573
1788862321780371000,0.680370849609375,3.6833817958831787,0.3023711144924164,-0.24393680691719055
1788862321790412000,0.690412109375,3.8354129791259766,-0.9461790919303894,-0.169081449508667
1788862321800454000,0.700453857421875,4.037275314331055,-2.211026191711426,0.2923157215118408
1788862321810495000,0.710494873046875,4.047629356384277,-2.9253692626953125,0.9242188930511475
1788862321820537000,0.720537109375,3.682770013809204,-1.1392011642456055,0.2636505663394928
1788862321830578200,0.730578125,4.371356010437012,0.10672172904014587,-0.6580613851547241
1788862321840620000,0.7406201171875,4.985237121582031,-0.678014874458313,-0.5401251316070557
1788862321850661000,0.7506611328125,4.167003631591797,-2.377232313156128,0.8124500513076782
1788862321860703000,0.760702880859375,2.534808874130249,-2.4260406494140625,1.9471204280853271
1788862321870744000,0.770744140625,1.498698115348816,-1.4677010774612427,1.4863207340240479
1788862321880786000,0.780785888671875,1.3625779151916504,-1.3741185665130615,0.34781771898269653
1788862321890827000,0.790826904296875,1.490670084953308,-1.6737051010131836,0.5767004489898682
1788862321900868900,0.800868896484375,1.3564085960388184,-2.212150812149048,1.166756510734558
1788862321910910000,0.810909912109375,1.1090168952941895,-2.298398017883301,1.4980294704437256
1788862321920952000,0.8209521484375,0.9669691920280457,-2.070160388946533,1.3920713663101196
1788862321930993200,0.8309931640625,1.285233497619629,-1.3481210470199585,0.9047913551330566
1788862321941035000,0.841034912109375,1.403874158859253,-0.7443140149116516,0.310351699590683
1788862321951076000,0.851076171875,1.2837458848953247,-0.35328587889671326,-0.11248992383480072
1788862321961118000,0.861117919921875,1.018032193183899,0.08372128009796143,-0.34787794947624207
1788862321971159000,0.871158935546875,0.8326486349105835,0.4516712725162506,-0.38672739267349243
1788862321981201000,0.881200927734375,0.6420286297798157,0.5721143484115601,-0.37472453713417053
1788862321991242000,0.891241943359375,0.47287827730178833,0.5118933320045471,-0.502586841583252
1788862322001283800,0.901283935546875,0.21525739133358002,0.4157473146915436,-0.6753942966461182
1788862322011325000,0.911324951171875,-0.12892071902751923,1.1799216270446777,0.05564482510089874
1788862322021367000,0.921366943359375,-0.13052500784397125,1.8138898611068726,0.7699989080429077
1788862322031408000,0.931408203125,0.06736324727535248,1.8615902662277222,0.4924115538597107
1788862322041450000,0.941449951171875,0.03167875483632088,0.9936919212341309,-0.1333862841129303
1788862322051491000,0.951490966796875,-0.14836385846138,0.4962614178657532,-0.3177506625652313
1788862322061533000,0.961532958984375,-0.0022418012376874685,0.5810548663139343,-0.4253671169281006
1788862322071574000,0.971573974609375,0.21761341392993927,0.9060142636299133,-0.5610255002975464
1788862322081616000,0.981615966796875,0.37633275985717773,1.1185718774795532,-0.5982796549797058
1788862322091657000,0.991656982421875,0.3617001175880432,0.7234222292900085,-0.513716459274292
1788862322101698800,1.00169873046875,0.11942675709724426,0.13819631934165955,-0.32511380314826965
1788862322111740000,1.011739990234375,-0.005473793484270573,-0.02460576221346855,-0.06387434899806976
1788862322121782000,1.021781982421875,-0.11480720341205597,0.06556354463100433,0.05271831154823303
1788862322131823000,1.031822998046875,-0.3028898537158966,0.39583131670951843,0.040244124829769135
1788862322141865000,1.041864990234375,-0.4046396315097809,0.9458030462265015,0.07494565099477768
1788862322151906000,1.051906005859375,-0.5381847023963928,1.1108112335205078,0.15757225453853607
1788862322161948000,1.061947998046875,-0.80903559923172,0.9011541604995728,0.15756426751613617
1788862322171989000,1.071989013671875,-1.1265370845794678,0.7405484318733215,0.06563683599233627
1788862322182030800,1.08203076171875,-1.5164473056793213,0.7015770673751831,-0.03258107975125313
1788862322192072000,1.092072021484375,-1.6894627809524536,0.8003489375114441,-0.18255861103534698
1788862322202113800,1.10211376953125,-1.830644965171814,1.1284980773925781,-0.12345907092094421
1788862322212155000,1.11215478515625,-2.0413951873779297,1.214254379272461,-0.14144234359264374
1788862322222197000,1.122197021484375,-1.912787914276123,1.045997977256775,-0.20588605105876923
1788862322232238000,1.132238037109375,-1.7090286016464233,1.3219163417816162,-0.17235295474529266
1788862322242280000,1.142280029296875,-1.6986957788467407,1.807376503944397,-0.46513235569000244
1788862322252321000,1.152321044921875,-1.8222066164016724,1.0668244361877441,-0.4937623143196106
1788862322262363000,1.16236279296875,-1.944653868675232,0.31627535820007324,-0.2701672911643982
1788862322272404000,1.172404052734375,-2.136970281600952,0.4427913427352905,-0.33025693893432617
1788862322282445800,1.18244580078125,-2.04713773727417,0.876495361328125,-0.7478563189506531
1788862322292487000,1.19248681640625,-1.5287127494812012,1.1219806671142578,-0.9474391937255859
1788862322302529000,1.202529052734375,-1.0810539722442627,0.9872940182685852,-0.8716895580291748
1788862322312570000,1.212570068359375,-0.6991780996322632,0.8359748721122742,-0.6215048432350159
1788862322322612200,1.2226123046875,-0.6315289735794067,0.5868412256240845,-0.30909204483032227
1788862322332653300,1.2326533203125,-0.4751798212528229,0.003608127124607563,-0.16804321110248566
1788862322342695200,1.242695068359375,0.1380034238100052,-0.19149371981620789,-0.033293113112449646
1788862322352736300,1.252736328125,0.5068759322166443,-0.5904503464698792,0.014342455193400383
1788862322362778000,1.262778076171875,1.0290905237197876,-1.0593373775482178,0.19057874381542206
1788862322372819200,1.272819091796875,1.334506630897522,-1.1977132558822632,0.31537649035453796
1788862322382861000,1.282861083984375,1.7211430072784424,-1.2953176498413086,0.3900887966156006
1788862322392902100,1.292902099609375,2.0417089462280273,-1.619863510131836,0.34662407636642456
1788862322402944000,1.302944091796875,2.744892120361328,-2.773075580596924,-0.09943783283233643
1788862322412985000,1.312985107421875,3.0569794178009033,-1.8293945789337158,0.2118154615163803
1788862322423027200,1.323027099609375,3.7307679653167725,-1.6380336284637451,0.22334641218185425
1788862322433068300,1.333068359375,4.264343738555908,-1.990671992301941,0.04338724911212921
1788862322443110100,1.343110107421875,4.299781799316406,-1.4175059795379639,0.00835895910859108
1788862322453151200,1.353151123046875,4.6627583503723145,-1.2995771169662476,0.025459323078393936
1788862322463193000,1.363193115234375,4.657588958740234,-1.8669869899749756,0.09818705171346664
1788862322473234200,1.373234130859375,3.9839792251586914,-2.1815786361694336,0.24254857003688812
1788862322483276000,1.383276123046875,3.363204002380371,-2.4372894763946533,0.1918550282716751
1788862322493317000,1.393317138671875,2.451504707336426,-1.607213020324707,0.29196906089782715
1788862322503359000,1.40335888671875,1.1070833206176758,-1.9728888273239136,0.4997811019420624
1788862322513400000,1.413400146484375,-0.17897523939609528,-2.6612584590911865,0.887710690498352
1788862322523442200,1.423442138671875,-0.8457964062690735,-3.0969953536987305,0.6582098603248596
1788862322533483300,1.433483154296875,-0.09997589886188507,-2.0978546142578125,0.6315024495124817
1788862322543525000,1.443525146484375,1.031625509262085,-1.7325327396392822,0.7176546454429626
1788862322553567200,1.453567138671875,0.8185518383979797,-1.4873510599136353,1.1265047788619995
1788862322563608000,1.463608154296875,0.19232654571533203,-1.4232511520385742,1.2358152866363525
1788862322573649200,1.473649169921875,-1.0369946956634521,-1.2788033485412598,1.2546954154968262
1788862322583691000,1.48369091796875,-1.7534496784210205,-0.692495584487915,1.044451355934143
1788862322593733000,1.493733154296875,-1.7948758602142334,-0.4709599018096924,0.6314685344696045
1788862322603774000,1.50377392578125,-1.2958838939666748,-0.2747781276702881,0.2971387505531311
1788862322613816300,1.51381640625,-0.6517770290374756,-0.23435108363628387,0.08999834954738617
1788862322623857200,1.523857177734375,-0.06191904842853546,-0.13662292063236237,-0.056434761732816696
1788862322633899300,1.533899169921875,0.4425937533378601,-0.17636218667030334,-0.09261058270931244
1788862322643940000,1.543940185546875,1.125386118888855,-0.15679647028446198,-0.15477728843688965
1788862322653982200,1.553982177734375,1.7508137226104736,-0.016949215903878212,-0.24730469286441803
1788862322664023000,1.56402294921875,2.0531396865844727,0.012810810469090939,-0.06131458282470703
1788862322674065200,1.574065185546875,2.2609705924987793,-0.035036470741033554,0.16167157888412476
1788862322684106000,1.58410595703125,2.374812364578247,-0.4111027717590332,0.14112316071987152
1788862322694148400,1.5941484375,2.256063938140869,-0.8670827150344849,-0.13604587316513062
1788862322704189200,1.604189208984375,2.097130298614502,-1.216905117034912,-0.1977100372314453
1788862322714231300,1.614231201171875,1.9935256242752075,-1.8942793607711792,0.1971569061279297
1788862322724272000,1.624272216796875,1.8286263942718506,-2.083606719970703,0.2406764179468155
1788862322734314200,1.634314208984375,1.619848370552063,-1.6117470264434814,-0.02439448982477188
1788862322744355300,1.644355224609375,1.3383029699325562,-0.7523067593574524,-0.1468796581029892
1788862322754397200,1.654397216796875,0.9286649227142334,-0.180275559425354,-0.1749788373708725
1788862322764438300,1.664438232421875,0.576554536819458,-0.3153873085975647,-0.15133129060268402
1788862322774480100,1.674480224609375,0.44482365250587463,-0.5236435532569885,-0.1367100179195404
1788862322784521200,1.684521240234375,0.3327719271183014,-0.5345289707183838,-0.14669287204742432
1788862322794563300,1.694563232421875,0.19624371826648712,-0.5008288025856018,-0.11767106503248215
1788862322804604400,1.7046044921875,0.10399021208286285,-0.4493160843849182,-0.10205508768558502
1788862322814646300,1.714646240234375,-0.19789178669452667,-0.1936531960964203,-0.09423530846834183
1788862322824687400,1.724687255859375,-0.4959737956523895,0.22391767799854279,-0.05634811520576477
1788862322834729200,1.734729248046875,-0.5578818917274475,0.4121410548686981,0.033923644572496414
1788862322844770300,1.744770263671875,-0.741274893283844,0.32437869906425476,0.15255308151245117
1788862322854812200,1.754812255859375,-0.9967888593673706,-0.08222158998250961,0.32540497183799744
1788862322864853200,1.764853271484375,-1.3329317569732666,-0.44744059443473816,0.44498249888420105
1788862322874895000,1.77489501953125,-1.539899230003357,-0.5636466145515442,0.43793320655822754
1788862322884936200,1.784936279296875,-0.5400484204292297,-1.0705540180206299,0.15153980255126953
1788862322894978300,1.794978271484375,1.022606611251831,-1.399587631225586,0.1851525753736496
1788862322905019400,1.805019287109375,0.616658627986908,-1.483817219734192,0.545495867729187
1788862322915061200,1.815061279296875,1.0207812786102295,-1.3791745901107788,0.6882302165031433
1788862322925102300,1.825102294921875,1.6415438652038574,-1.0390406847000122,0.37214285135269165
1788862322935144200,1.835144287109375,1.287392020225525,-1.0689036846160889,0.11564255505800247
1788862322945185300,1.845185302734375,1.0949519872665405,-1.2846291065216064,0.08613419532775879
1788862322955227100,1.85522705078125,0.9479795694351196,-1.5217818021774292,0.02574647217988968
1788862322965268200,1.865268310546875,0.7442096471786499,-1.8982033729553223,-0.0724772959947586
1788862322975310000,1.87531005859375,0.6782306432723999,-2.2206923961639404,-0.021035397425293922
1788862322985351200,1.88535107421875,0.637346625328064,-2.3537116050720215,0.14464065432548523
1788862322995393300,1.895393310546875,0.5589702725410461,-2.0439889430999756,0.15811429917812347
1788862323005434400,1.905434326171875,0.44749465584754944,-1.656921148300171,0.034183286130428314
1788862323015476200,1.915476318359375,0.35953718423843384,-1.3524953126907349,-0.1254081279039383
1788862323025517300,1.925517333984375,0.32434430718421936,-1.1177924871444702,-0.1516072303056717
1788862323035559200,1.93555908203125,0.30798274278640747,-1.0022207498550415,-0.07982444763183594
1788862323045600300,1.945600341796875,0.34967291355133057,-1.0919890403747559,-0.033404480665922165
1788862323055642000,1.95564208984375,0.4231116473674774,-1.2719182968139648,0.035945627838373184
1788862323065683200,1.96568310546875,0.5927039384841919,-1.2394170761108398,-0.01258782111108303
1788862323075725000,1.97572509765625,0.750463604927063,-1.1273090839385986,-0.024575257673859596
1788862323085766100,1.98576611328125,0.8270718455314636,-1.2979620695114136,0.05536218732595444
1788862323095808300,1.995808349609375,0.7396120429039001,-1.3987869024276733,0.14109669625759125
1788862323105849300,2.005849365234375,0.6268476247787476,-1.2598586082458496,0.20753324031829834
1788862323115891200,2.01589111328125,0.6407120227813721,-1.1321964263916016,0.18012496829032898
1788862323125933000,2.02593310546875,0.6764774918556213,-1.104074478149414,0.10598203539848328
1788862323135974100,2.03597412109375,0.7281243801116943,-1.1346486806869507,0.06712684035301208
1788862323146016000,2.04601611328125,0.7197309136390686,-1.1457191705703735,0.08790775388479233
1788862323156057000,2.05605712890625,0.7027042508125305,-1.0296870470046997,0.11120908707380295
1788862323166099000,2.066098876953125,0.6325883269309998,-0.8979862928390503,0.08447760343551636
1788862323176140000,2.07614013671875,0.598402202129364,-0.7116585373878479,-0.00938814040273428
1788862323186182100,2.08618212890625,0.5724571347236633,-0.4894427955150604,-0.1310541331768036
1788862323196223200,2.09622314453125,0.46971338987350464,-0.18526554107666016,-0.23774659633636475
1788862323206265000,2.10626513671875,0.4049266576766968,0.10685978084802628,-0.3327716588973999
1788862323216306200,2.11630615234375,0.3754942715167999,-0.1058083027601242,-0.2987864911556244
1788862323226348300,2.126348388671875,0.39055684208869934,0.16389667987823486,-0.26571881771087646
1788862323236389000,2.13638916015625,0.32239803671836853,0.32636788487434387,-0.2508624494075775
1788862323246431200,2.14643115234375,0.20723441243171692,0.2918170988559723,-0.1624915897846222
1788862323256472000,2.15647216796875,0.09098652750253677,0.24816879630088806,-0.06993915140628815
1788862323266514200,2.16651416015625,-0.011398432776331902,0.1781574934720993,0.005590229295194149
1788862323276555300,2.17655517578125,-0.06858997792005539,0.18173374235630035,0.06992832571268082
1788862323286597400,2.186597412109375,-0.036078374832868576,0.35908135771751404,0.06307601183652878
1788862323296638200,2.19663818359375,-0.032553497701883316,0.4199783205986023,0.0023523718118667603
1788862323306680300,2.206680419921875,-0.05028082802891731,0.4944181740283966,-0.06299201399087906
1788862323316721200,2.21672119140625,-0.15687638521194458,0.5573317408561707,-0.07609401643276215
1788862323326763300,2.22676318359375,-0.21547232568264008,0.643143355846405,-0.1043887659907341
1788862323336804400,2.236804443359375,-0.27934014797210693,0.790000319480896,-0.14347133040428162
1788862323346846500,2.246846435546875,-0.323598176240921,0.8067015409469604,-0.1935102641582489
1788862323356887300,2.25688720703125,-0.43361610174179077,0.8304138779640198,-0.2216877043247223
1788862323366929400,2.266929443359375,-0.5230013728141785,1.0218232870101929,-0.225633442401886
1788862323376970500,2.276970458984375,-0.5987973213195801,1.3015714883804321,-0.24971719086170197
1788862323387012600,2.2870126953125,-0.7107624411582947,1.4812299013137817,-0.21551048755645752
1788862323397053400,2.297053466796875,-0.756500780582428,1.5467441082000732,-0.12747272849082947
1788862323407095600,2.307095458984375,-0.8247928023338318,1.4866539239883423,0.04181003198027611
1788862323417136400,2.317136474609375,-0.804394543170929,1.5353248119354248,0.3844577372074127
1788862323427178500,2.327178466796875,-0.5913030505180359,1.2780338525772095,0.5544531941413879
1788862323437219300,2.33721923828125,-0.3315483629703522,0.34959250688552856,0.39880457520484924
1788862323447261400,2.347261474609375,-0.1278013437986374,-0.9233521223068237,0.27173662185668945
1788862323457302300,2.35730224609375,-0.036857202649116516,-1.8663643598556519,0.25320330262184143
1788862323467344600,2.3673447265625,-0.040336888283491135,-1.2621493339538574,-0.11678539216518402
1788862323477385500,2.377385498046875,-0.04407521337270737,-0.8520820736885071,-0.2313230037689209
1788862323487427600,2.387427490234375,-0.03633473441004753,-1.0470352172851562,0.01774354837834835
1788862323497468400,2.397468505859375,-0.0711875632405281,-1.0502865314483643,0.23102527856826782
1788862323507510500,2.407510498046875,-0.03889806568622589,-0.45410457253456116,0.14328236877918243
1788862323517551400,2.41755126953125,-0.0847255140542984,-0.006837323307991028,0.020154928788542747
1788862323527593500,2.427593505859375,-0.15019480884075165,0.06316253542900085,0.016339683905243874
1788862323537634300,2.43763427734375,-0.10961378365755081,-0.04070627689361572,0.08222735673189163
1788862323547676400,2.447676513671875,-0.0816069170832634,-0.2310892790555954,0.18440672755241394
1788862323557718500,2.457718505859375,-0.09179160743951797,-0.2870517075061798,0.24370238184928894
1788862323567759600,2.467759521484375,-0.04949847236275673,-0.10809739679098129,0.1543690264225006
1788862323577801500,2.477801513671875,-0.05654144659638405,0.028037790209054947,0.018607039004564285
1788862323587842600,2.487842529296875,-0.058570243418216705,0.067021943628788,-0.09071598947048187
1788862323597884400,2.497884521484375,-0.06903465837240219,0.09823501110076904,-0.17844931781291962
1788862323607925500,2.507925537109375,-0.1196935772895813,0.08924578130245209,-0.17955532670021057
1788862323617967400,2.51796728515625,-0.20238755643367767,-0.03694841265678406,-0.018847202882170677
1788862323628008400,2.528008544921875,-0.22134819626808167,-0.13746704161167145,0.1840076446533203
1788862323638050300,2.53805029296875,-0.21018579602241516,-0.13200417160987854,0.2754659354686737
1788862323648091600,2.548091552734375,-0.2121829092502594,-0.051465123891830444,0.2540820837020874
1788862323658133500,2.558133544921875,-0.1796364188194275,-0.0008402196690440178,0.17280595004558563
1788862323668174600,2.568174560546875,-0.20029829442501068,-0.021908219903707504,0.08206459134817123
1788862323678216400,2.578216552734375,-0.2787376344203949,-0.2896871268749237,0.08638206124305725
1788862323688257500,2.588257568359375,-0.2366362363100052,-0.7831727862358093,0.12849941849708557
1788862323698299400,2.59829931640625,-0.16909024119377136,-1.2238686084747314,0.13776233792304993
1788862323708340500,2.608340576171875,-0.1623481810092926,-1.3818433284759521,0.0825805738568306
1788862323718382300,2.61838232421875,-0.21887478232383728,-1.1578587293624878,0.03596887364983559
1788862323728423400,2.62842333984375,-0.322902113199234,-0.6073724627494812,0.055645640939474106
1788862323738465500,2.638465576171875,-0.41233307123184204,-0.037770796567201614,0.10599140077829361
1788862323748506600,2.648506591796875,-0.44837257266044617,0.2702893018722534,0.14210918545722961
1788862323758548500,2.658548583984375,-0.4412921667098999,0.344099223613739,0.1482192426919937
1788862323768589600,2.668589599609375,-0.4010789692401886,0.272037535905838,0.13512900471687317
1788862323778631400,2.67863134765625,-0.34209463000297546,0.14523330330848694,0.12650449573993683
1788862323788672500,2.688672607421875,-0.26479610800743103,0.06150218844413757,0.13240712881088257
1788862323798714400,2.69871435546875,-0.21636146306991577,-0.026859816163778305,0.1586582362651825
1788862323808755500,2.70875537109375,-0.18400005996227264,-0.16147887706756592,0.16258932650089264
1788862323818797300,2.71879736328125,-0.13180406391620636,-0.2596341073513031,0.11841030418872833
1788862323828838400,2.72883837890625,-0.09005341678857803,-0.25988417863845825,0.04316215217113495
1788862323838880500,2.738880615234375,-0.07027401775121689,-0.18233418464660645,-0.0065555572509765625
1788862323848921600,2.748921630859375,-0.0693989023566246,-0.08375193923711777,-0.015950124710798264
1788862323858963500,2.75896337890625,-0.07026604562997818,0.006503662094473839,-0.0058243474923074245
1788862323869004500,2.769004638671875,-0.07111985981464386,0.06048061326146126,-0.0027286889962852
1788862323879046400,2.77904638671875,-0.07345161586999893,0.09525398910045624,-0.0034946762025356293
1788862323889087500,2.78908740234375,-0.08144216984510422,0.09969188272953033,0.004374698270112276
1788862323899129300,2.79912939453125,-0.11678244173526764,0.03884783759713173,0.020762506872415543
1788862323909170400,2.80917041015625,-0.1406976282596588,-0.07244246453046799,0.05107034742832184
1788862323919212300,2.81921240234375,-0.13493934273719788,-0.2056998610496521,0.06524714827537537
1788862323929253400,2.82925341796875,-0.11650493741035461,-0.2872048318386078,0.06713080406188965
1788862323939295500,2.83929541015625,-0.09464898705482483,-0.24620270729064941,0.06414297223091125
1788862323949336600,2.849336669921875,-0.06939583271741867,-0.11511658132076263,0.07260703295469284
1788862323959378400,2.85937841796875,-0.04998261108994484,0.0033930903300642967,0.08175476640462875
1788862323969419500,2.86941943359375,-0.01333991251885891,0.06912922114133835,0.056921858340501785
1788862323979461400,2.87946142578125,0.02749849297106266,0.06857727468013763,-0.0039482759311795235
1788862323989502500,2.88950244140625,0.03905794769525528,-0.014304294250905514,-0.05869594216346741
1788862323999544300,2.89954443359375,0.037813104689121246,-0.08116398006677628,-0.05346746742725372
1788862324009585400,2.90958544921875,0.04063898324966431,-0.10066711157560349,0.004405418410897255
1788862324019627300,2.919627197265625,0.03174922615289688,-0.08835271745920181,0.052200499922037125
1788862324029668400,2.92966845703125,0.00905376672744751,-0.03061911091208458,0.05811484530568123
1788862324039710500,2.93971044921875,-0.0035325002390891314,-0.032803744077682495,0.060468483716249466
1788862324049752600,2.949752685546875,-0.01191533263772726,-0.09514062106609344,0.08405503630638123
1788862324059793400,2.95979345703125,-0.019946271553635597,-0.1395881623029709,0.11284162849187851
1788862324069835500,2.96983544921875,-0.03884432837367058,-0.13438807427883148,0.11373751610517502
1788862324079876400,2.97987646484375,-0.03400079905986786,-0.06122680753469467,0.09078711271286011
1788862324089918500,2.98991845703125,-0.005184064619243145,0.025179190561175346,0.06626978516578674
1788862324099959300,2.999959228515625,0.03431589901447296,0.06804545223712921,0.06611940264701843
1788862324110001400,3.01000146484375,0.0805654227733612,0.06293324381113052,0.0637555792927742
1788862324120042200,3.020042236328125,0.11398692429065704,0.03298691660165787,0.0710623636841774
1788862324130084600,3.030084716796875,0.13846297562122345,0.026968438178300858,0.08788475394248962
1788862324140125400,3.04012548828125,0.1448780596256256,0.05673794820904732,0.10151821374893188
1788862324150167600,3.05016748046875,0.16619239747524261,0.10899555683135986,0.09768591821193695
1788862324160208400,3.06020849609375,0.17802532017230988,0.12665560841560364,0.08472634106874466
1788862324170250500,3.07025048828125,0.17484471201896667,0.09162971377372742,0.060813549906015396
1788862324180291300,3.080291259765625,0.2068711370229721,0.13851375877857208,0.025994788855314255
1788862324190333400,3.09033349609375,0.16439904272556305,0.0054803453385829926,0.021100696176290512
1788862324200374300,3.100374267578125,0.11100848019123077,0.029142094776034355,0.01113051176071167
1788862324210416400,3.11041650390625,0.09769321233034134,0.017992237582802773,0.058384839445352554
1788862324220457500,3.12045751953125,0.06035606563091278,-0.16976366937160492,0.140290766954422
1788862324230499600,3.13049951171875,0.010332310572266579,-0.25475311279296875,0.1868116557598114
1788862324240540400,3.14054052734375,-0.03137025237083435,-0.10617444664239883,0.2169501632452011
1788862324250582500,3.15058251953125,-0.052226267755031586,0.08330227434635162,0.25599050521850586
1788862324260623400,3.160623291015625,-0.07614665478467941,0.18453314900398254,0.34395626187324524
1788862324270665500,3.17066552734375,-0.07203845679759979,0.2707846760749817,0.4238835871219635
1788862324280706300,3.180706298828125,-0.07709355652332306,0.214323952794075,0.44973936676979065
1788862324290748400,3.19074853515625,-0.07690846174955368,0.054881561547517776,0.40673625469207764
1788862324300789200,3.200789306640625,-0.07575646042823792,-0.08594095706939697,0.3160097897052765
1788862324310831600,3.21083154296875,-0.04986893758177757,-0.2959216237068176,0.26906198263168335
1788862324320872200,3.2208720703125,-0.0462038516998291,-0.5040450692176819,0.2577279210090637
1788862324330914000,3.2309140625,-0.028420861810445786,-0.5838038325309753,0.2660668194293976
1788862324340955100,3.240955078125,-0.053443655371665955,-0.5928990840911865,0.2277311533689499
1788862324350997000,3.2509970703125,-0.05655955523252487,-0.4371158480644226,0.23501355946063995
1788862324361038000,3.2610380859375,0.08518368750810623,-0.26239800453186035,0.2361263930797577
1788862324371080000,3.271079833984375,0.07194191962480545,-0.18666677176952362,0.20902900397777557
1788862324381121000,3.28112109375,-0.06809800118207932,-0.018095940351486206,0.1351000964641571
1788862324391163000,3.291162841796875,-0.06964476406574249,0.24286215007305145,-0.026062695309519768
1788862324401204000,3.301203857421875,-0.010721102356910706,0.3878311812877655,-0.16807562112808228
1788862324411246000,3.31124609375,-0.02969425916671753,0.439237117767334,-0.20304638147354126
1788862324421287200,3.321287109375,-0.0028800577856600285,0.5093411207199097,-0.22609545290470123
1788862324431329000,3.3313291015625,0.06030689924955368,0.48809871077537537,-0.22911414504051208
1788862324441370000,3.3413701171875,0.045775093138217926,0.2484544813632965,-0.17227022349834442
1788862324451412000,3.351411865234375,0.08226891607046127,-0.016642678529024124,-0.09727028012275696
1788862324461453000,3.361453125,0.2092415988445282,-0.12069196254014969,-0.05395526438951492
1788862324471495000,3.371494873046875,0.3278047442436218,-0.023350495845079422,-0.0016180253587663174
1788862324481536000,3.381535888671875,0.3177430033683777,0.1672128140926361,0.08085908740758896
1788862324491577900,3.391577880859375,0.18668138980865479,0.2879922091960907,0.17939604818820953
1788862324501619000,3.401618896484375,0.06950277090072632,0.21111193299293518,0.32443344593048096
1788862324511661000,3.4116611328125,0.010083921253681183,0.07364994287490845,0.43306511640548706
1788862324521702100,3.4217021484375,-0.031023893505334854,-0.03180402144789696,0.4661295711994171
1788862324531744000,3.431743896484375,-0.07516365498304367,-0.16095055639743805,0.4889454245567322
1788862324541785000,3.44178515625,-0.1079411506652832,-0.2938663959503174,0.5398350954055786
1788862324551827000,3.451826904296875,-0.12133045494556427,-0.43039175868034363,0.6099633574485779
1788862324561868000,3.461867919921875,-0.11676602065563202,-0.531463623046875,0.6736611723899841
1788862324571910000,3.471909912109375,-0.11128683388233185,-0.5985499620437622,0.6883503794670105
1788862324581951000,3.481950927734375,-0.11676860600709915,-0.6067880392074585,0.6271430253982544
1788862324591993000,3.4919931640625,-0.12413091212511063,-0.559608519077301,0.5218626856803894
1788862324602034200,3.5020341796875,-0.10479126125574112,-0.48345947265625,0.4219820499420166
1788862324612076000,3.512075927734375,-0.06230665370821953,-0.4146710932254791,0.33297041058540344
1788862324622117000,3.5221171875,-0.016419894993305206,-0.3788054883480072,0.24642254412174225
1788862324632159000,3.532158935546875,-0.0005272151902318001,-0.32877907156944275,0.15669132769107819
1788862324642200000,3.542199951171875,-0.019768308848142624,-0.2757546305656433,0.06586899608373642
1788862324652242000,3.552241943359375,-0.06246650591492653,-0.2865188419818878,-0.018980376422405243
1788862324662283000,3.562282958984375,-0.08654513210058212,-0.44557759165763855,-0.11505495011806488
1788862324672324900,3.572324951171875,-0.09144721180200577,-0.7092883586883545,-0.2473037987947464
1788862324682366000,3.582365966796875,-0.08372699469327927,-1.0274653434753418,-0.48371610045433044
1788862324692408000,3.592407958984375,-0.041233062744140625,-1.260022759437561,-0.8158660531044006
1788862324702449200,3.60244921875,0.024694105610251427,-1.1725271940231323,-1.1605679988861084
1788862324712491000,3.612490966796875,0.10249941796064377,-0.7474648356437683,-1.4502900838851929
1788862324722532000,3.622531982421875,0.169467031955719,-0.20901252329349518,-1.5558768510818481
1788862324732574000,3.632573974609375,0.16746407747268677,0.22656504809856415,-1.501848816871643
1788862324742615000,3.642614990234375,0.17184323072433472,0.4189225733280182,-1.4721916913986206
1788862324752657000,3.652656982421875,0.2477630227804184,0.4226515591144562,-1.5759990215301514
1788862324762698000,3.662697998046875,0.309640109539032,0.4544571042060852,-1.7690967321395874
1788862324772739800,3.67273974609375,0.3271043300628662,0.4583445191383362,-1.8970155715942383
1788862324782781000,3.682781005859375,0.31891360878944397,0.3480634391307831,-1.8683730363845825
1788862324792823000,3.692822998046875,0.30766811966896057,0.21329042315483093,-1.8260977268218994
1788862324802864000,3.702864013671875,0.2770780026912689,0.15854915976524353,-1.8998068571090698
1788862324812906000,3.712906005859375,0.2040402591228485,0.19003623723983765,-2.0520386695861816
1788862324822947000,3.722947021484375,0.09268003702163696,0.27695611119270325,-2.207188606262207
1788862324832989000,3.732989013671875,0.014870996586978436,0.3865419924259186,-2.2750439643859863
1788862324843030000,3.743030029296875,0.029105674475431442,0.4603436589241028,-2.251054525375366
1788862324853072000,3.75307177734375,0.0727199986577034,0.5107250809669495,-2.1981868743896484
1788862324863113000,3.763113037109375,0.1046743243932724,0.6080008745193481,-2.1875267028808594
1788862324873154800,3.77315478515625,0.13305217027664185,0.6784500479698181,-2.2032105922698975
1788862324883196000,3.78319580078125,0.19622841477394104,0.604985773563385,-2.213066816329956
1788862324893238000,3.793238037109375,0.2804378569126129,0.3709375858306885,-2.1976318359375
1788862324903279000,3.803279052734375,0.3356863260269165,0.04903709143400192,-2.195422649383545
1788862324913321000,3.813321044921875,0.3491179645061493,-0.3242509961128235,-2.224855899810791
1788862324923362000,3.823362060546875,0.3636530637741089,-0.6039641499519348,-2.281855821609497
1788862324933404000,3.83340380859375,0.35627612471580505,-0.7155841588973999,-2.301021099090576
1788862324943445000,3.843445068359375,0.35890132188796997,-0.6785284876823425,-2.2255992889404297
1788862324953486800,3.85348681640625,0.3558732867240906,-0.6125204563140869,-2.084158182144165
1788862324963528000,3.86352783203125,0.3185695707798004,-0.5663008093833923,-2.006014347076416
1788862324973569800,3.87356982421875,0.29029133915901184,-0.5213048458099365,-2.0239129066467285
1788862324983611000,3.88361083984375,0.27377966046333313,-0.567402184009552,-2.0412871837615967
1788862324993653000,3.893653076171875,0.2425018846988678,-0.7566549181938171,-2.0236551761627197
1788862325003694000,3.903694091796875,0.18306556344032288,-1.0821350812911987,-1.9777556657791138
1788862325013736000,3.91373583984375,0.1392805278301239,-1.402799129486084,-1.9369949102401733
1788862325023777000,3.923777099609375,0.10421771556138992,-1.5386005640029907,-1.9380536079406738
1788862325033819000,3.93381884765625,-0.008382068946957588,-1.5863085985183716,-1.9501179456710815
1788862325043860000,3.94385986328125,-0.09828288108110428,-1.558316707611084,-1.946847915649414
1788862325053901800,3.95390185546875,-0.14647118747234344,-1.5271289348602295,-1.9601565599441528
1788862325063943000,3.96394287109375,-0.15844260156154633,-1.4915525913238525,-1.9555997848510742
1788862325073984800,3.97398486328125,-0.16025301814079285,-1.4573688507080078,-1.9075355529785156
1788862325084025900,3.98402587890625,-0.1420966237783432,-1.3716228008270264,-1.8870445489883423
1788862325094068000,3.99406787109375,-0.0749007984995842,-1.301629900932312,-1.9435949325561523
1788862325104109000,4.004109130859375,0.021711058914661407,-1.2355917692184448,-1.9379092454910278
1788862325114151000,4.01415087890625,0.09098440408706665,-1.1300987005233765,-1.9043169021606445
1788862325124192000,4.02419189453125,0.14360356330871582,-1.0310815572738647,-1.8499834537506104
1788862325134233900,4.03423388671875,0.1864980310201645,-1.0146937370300293,-1.7736612558364868
1788862325144275000,4.04427490234375,0.21550598740577698,-1.0109606981277466,-1.8525505065917969
1788862325154316800,4.05431689453125,0.24475230276584625,-1.081462025642395,-1.884667158126831
1788862325164358000,4.06435791015625,0.2837417423725128,-1.1147797107696533,-1.8551534414291382
1788862325174400000,4.07439990234375,0.2677558362483978,-1.0395363569259644,-1.7696129083633423
1788862325184441000,4.084441162109375,0.22762450575828552,-0.8711729049682617,-1.6318516731262207
1788862325194483000,4.09448291015625,0.23930566012859344,-0.602473795413971,-1.6129966974258423
1788862325204524000,4.10452392578125,0.2506941258907318,-0.5921787619590759,-1.605984091758728
1788862325214566000,4.11456591796875,0.26881080865859985,-0.687301516532898,-1.4770338535308838
1788862325224607000,4.12460693359375,0.2890726625919342,-0.5617023706436157,-1.3407291173934937
1788862325234648800,4.13464892578125,0.29602324962615967,-0.4658021926879883,-1.155461311340332
1788862325244690000,4.14468994140625,0.29705843329429626,-0.33563706278800964,-0.9704491496086121
1788862325254731800,4.154731689453125,0.3051411211490631,-0.2331293225288391,-0.812723696231842
1788862325264772900,4.16477294921875,0.3046826422214508,-0.1723260134458542,-0.7002542614936829
1788862325274815000,4.17481494140625,0.30993303656578064,-0.16963383555412292,-0.5895735621452332
1788862325284856000,4.18485595703125,0.3106664717197418,-0.19908617436885834,-0.4846556782722473
1788862325294898000,4.19489794921875,0.31291231513023376,-0.2605607211589813,-0.4427361786365509
1788862325304939000,4.20493896484375,0.32316532731056213,-0.34877538681030273,-0.48583918809890747
1788862325314980900,4.21498095703125,0.2972394526004791,-0.4901418387889862,-0.4954183101654053
1788862325325022000,4.22502197265625,0.2133146971464157,-0.3907501995563507,-0.35358357429504395
1788862325335063800,4.235063720703125,0.08574476093053818,-0.18434160947799683,-0.12712036073207855
1788862325345105000,4.24510498046875,-0.024194255471229553,0.003342718817293644,0.0575716570019722
1788862325355147000,4.25514697265625,-0.06934256106615067,-0.027089755982160568,0.14222289621829987
1788862325365187800,4.265187744140625,-0.04859212785959244,-0.13389410078525543,0.05993020161986351
1788862325375230000,4.27522998046875,0.046731192618608475,-0.3922542929649353,-0.16235800087451935
1788862325385270800,4.285270751953125,0.1985352635383606,-0.6341887712478638,-0.40433427691459656
1788862325395313200,4.295313232421875,0.3143247067928314,-0.6752240657806396,-0.6312563419342041
1788862325405354000,4.30535400390625,0.3867407739162445,-0.5216192007064819,-0.8746680617332458
1788862325415396000,4.31539599609375,0.3633054792881012,-0.3784407675266266,-1.035279631614685
1788862325425437000,4.32543701171875,0.25620830059051514,-0.24404247105121613,-1.162736177444458
1788862325435479000,4.33547900390625,0.144033282995224,-0.0534682497382164,-1.295215368270874
1788862325445520000,4.345519775390625,0.08708076924085617,0.08637300878763199,-1.3291759490966797
1788862325455562000,4.35556201171875,0.03502875193953514,0.09614095091819763,-1.1962112188339233
1788862325465602800,4.365602783203125,0.0055778129026293755,0.14367085695266724,-0.9395016431808472
1788862325475645000,4.37564501953125,0.045666906982660294,0.1958744078874588,-0.9235343933105469
1788862325485685800,4.385685791015625,0.12430033087730408,-0.10944310575723648,-0.8849983215332031
1788862325495728000,4.39572802734375,0.1940985769033432,-0.3409857749938965,-0.7212549448013306
1788862325505769000,4.40576904296875,0.15903069078922272,-0.32318878173828125,-0.5322737693786621
1788862325515811000,4.41581103515625,0.06260561943054199,-0.19067229330539703,-0.4073465168476105
1788862325525852000,4.425851806640625,-0.041869450360536575,-0.1577284336090088,-0.334163099527359
1788862325535894000,4.43589404296875,-0.1287899613380432,-0.15233179926872253,-0.2431168258190155
1788862325545934800,4.445934814453125,-0.20199133455753326,-0.05997529625892639,-0.15963990986347198
1788862325555977000,4.45597705078125,-0.2909667491912842,0.041874099522829056,-0.04744173586368561
1788862325566017800,4.466017822265625,-0.355295866727829,0.10535681992769241,0.10803390294313431
1788862325576060000,4.476059814453125,-0.3457939624786377,0.08035586774349213,0.16410836577415466
1788862325586100700,4.486100830078125,-0.26413077116012573,-0.005964470095932484,0.1550057828426361
1788862325596143000,4.49614306640625,-0.14953705668449402,-0.019229408353567123,0.16370366513729095
1788862325606184000,4.506183837890625,-0.11269918829202652,0.12168705463409424,0.26583364605903625
1788862325616226000,4.51622607421875,-0.13483832776546478,0.26404792070388794,0.3273566663265228
1788862325626267000,4.526266845703125,-0.14045700430870056,0.3596870005130768,0.2639104425907135
1788862325636309000,4.53630908203125,-0.10438049584627151,0.48244914412498474,0.12167899310588837
1788862325646349800,4.546349853515625,-0.05107579380273819,0.4858306646347046,-0.06791192293167114
1788862325656392000,4.556391845703125,0.006293223239481449,0.3988582193851471,-0.17827332019805908
1788862325666432800,4.566432861328125,0.05167670547962189,0.2987414598464966,-0.20137107372283936
1788862325676475100,4.57647509765625,0.08991250395774841,0.21411658823490143,-0.227026104927063
1788862325686516000,4.586515869140625,0.12504203617572784,0.1592288315296173,-0.2836655080318451
1788862325696558000,4.59655810546875,0.12303401529788971,0.1888114959001541,-0.3591157793998718
1788862325706599000,4.606598876953125,0.09374348074197769,0.2538224458694458,-0.4194990396499634
1788862325716641000,4.61664111328125,0.028125591576099396,0.1679525524377823,-0.41698795557022095
1788862325726681900,4.626681884765625,-0.03401552140712738,-0.005015773698687553,-0.33785974979400635
1788862325736724000,4.636723876953125,-0.09413319081068039,-0.054858963936567307,-0.3124752938747406
1788862325746764800,4.646764892578125,-0.17076122760772705,-0.05074353888630867,-0.2642270028591156
1788862325756807000,4.656806884765625,-0.23613622784614563,-0.0015866453759372234,-0.23883697390556335
1788862325766847700,4.66684765625,-0.2939516007900238,0.01869039610028267,-0.26808619499206543
1788862325776890000,4.67689013671875,-0.35045188665390015,0.05246114358305931,-0.3463823199272156
1788862325786931000,4.686930908203125,-0.3317326009273529,0.241566464304924,-0.37205782532691956
1788862325796973000,4.69697314453125,-0.2914685308933258,0.3195595145225525,-0.333619624376297
1788862325807014000,4.707013916015625,-0.2556932270526886,0.46790263056755066,-0.3298879861831665
1788862325817056000,4.717055908203125,-0.24936076998710632,0.6979872584342957,-0.4313674867153168
1788862325827096800,4.727096923828125,-0.2358698844909668,0.8387448191642761,-0.5214785933494568
1788862325837139000,4.737138916015625,-0.2830568552017212,0.7559777498245239,-0.41512712836265564
1788862325847179800,4.7471796875,-0.3330751657485962,0.7386404275894165,-0.2578445374965668
1788862325857222000,4.757221923828125,-0.315636545419693,0.7259928584098816,-0.21510586142539978
1788862325867262700,4.7672626953125,-0.20657822489738464,0.6826539039611816,-0.35453832149505615
1788862325877305000,4.77730517578125,-0.1115017682313919,0.6609786748886108,-0.4515458345413208
1788862325887346000,4.787345947265625,-0.09108385443687439,0.6024490594863892,-0.4583938717842102
1788862325897388000,4.797387939453125,-0.12164334952831268,0.5947855710983276,-0.3925320506095886
1788862325907428900,4.807428955078125,-0.13636085391044617,0.7827227711677551,-0.2340179681777954
1788862325917471000,4.817470947265625,-0.08917602151632309,0.9809666275978088,-0.10374732315540314
1788862325927511800,4.82751171875,-0.03185579925775528,0.9427052736282349,-0.1297331303358078
1788862325937554000,4.837553955078125,-0.04608027637004852,0.7843430638313293,-0.17523562908172607
1788862325947595000,4.847594970703125,-0.10490481555461884,0.6419045925140381,-0.16122886538505554
1788862325957636900,4.857636962890625,-0.1263856142759323,0.5085271000862122,-0.10964955389499664
1788862325967678000,4.867677978515625,-0.11450786888599396,0.49983662366867065,0.01736397296190262
1788862325977720000,4.877719970703125,-0.12521937489509583,0.49363434314727783,0.15983696281909943
1788862325987761000,4.887760986328125,-0.15433895587921143,0.44464394450187683,0.22285239398479462
1788862325997802000,4.897802001953125,-0.16578416526317596,0.45744630694389343,0.29577428102493286
1788862326007844000,4.907843994140625,-0.14712226390838623,0.5314949154853821,0.37442517280578613
1788862326017885000,4.917885009765625,-0.1270044893026352,0.5988657474517822,0.4047156870365143
1788862326027927000,4.927927001953125,-0.1386648416519165,0.6062723994255066,0.4382512867450714
1788862326037968000,4.9379677734375,-0.1854400783777237,0.5639758110046387,0.511164665222168
1788862326048010000,4.948010009765625,-0.23172125220298767,0.5248614549636841,0.5536502599716187
1788862326058050800,4.95805078125,-0.2772170901298523,0.4994834065437317,0.5430290699005127
1788862326068093000,4.968093017578125,-0.3174215853214264,0.3956995904445648,0.5168313980102539
1788862326078133800,4.9781337890625,-0.3810511827468872,0.31930306553840637,0.5248773694038391
1788862326088176000,4.988176025390625,-0.4367988407611847,0.22720511257648468,0.532071590423584
1788862326098217000,4.998217041015625,-0.47651803493499756,0.1732097864151001,0.5394887924194336
1788862326108259000,5.008259033203125,-0.5021973252296448,0.2159658521413803,0.5670971870422363
1788862326118300000,5.0182998046875,-0.49118465185165405,0.21357087790966034,0.5486782193183899
1788862326128342000,5.028342041015625,-0.46431753039360046,0.1534208059310913,0.5321566462516785
1788862326138382800,5.0383828125,-0.451797753572464,0.13331447541713715,0.548103928565979
1788862326148425000,5.048425048828125,-0.4429989755153656,0.11811856180429459,0.5327310562133789
1788862326158465800,5.0584658203125,-0.43833816051483154,0.09745030105113983,0.5306130647659302
1788862326168508200,5.068508056640625,-0.44882631301879883,0.0787043422460556,0.5599293112754822
1788862326178549000,5.078549072265625,-0.4507022500038147,0.06291419267654419,0.5706626772880554
1788862326188591000,5.088591064453125,-0.4406853914260864,0.06307492405176163,0.5689427852630615
1788862326198632000,5.0986318359375,-0.4298708438873291,0.10026596486568451,0.5939290523529053
1788862326208674000,5.108674072265625,-0.4147835075855255,0.1896083652973175,0.6098984479904175
1788862326218715000,5.11871484375,-0.372756689786911,0.25271570682525635,0.6217101216316223
1788862326228757000,5.128757080078125,-0.30527669191360474,0.2783592641353607,0.6398152112960815
1788862326238797800,5.1387978515625,-0.21747013926506042,0.3360294699668884,0.6931524872779846
1788862326248840000,5.14883984375,-0.13769644498825073,0.40653470158576965,0.7264639735221863
1788862326258880800,5.158880859375,-0.06000137701630592,0.44795164465904236,0.7563395500183105
1788862326268923100,5.168923095703125,-0.0016176765784621239,0.4922025203704834,0.821336567401886
1788862326278964000,5.1789638671875,0.02527359314262867,0.5269879698753357,0.919967532157898
1788862326289006000,5.189006103515625,0.03129415959119797,0.5143623352050781,0.9711460471153259
1788862326299047000,5.199046875,0.04395482689142227,0.44390150904655457,0.9611533284187317
1788862326309089000,5.209089111328125,0.05323084443807602,0.35756850242614746,0.9393340945243835
1788862326319129900,5.2191298828125,0.04318619892001152,0.33792316913604736,0.9283121228218079
1788862326329172700,5.2291728515625,0.01634407415986061,0.34020039439201355,0.9131383299827576
1788862326339213800,5.2392138671875,-0.029643390327692032,0.32508963346481323,0.8992315530776978
1788862326349255700,5.249255615234375,-0.07392848283052444,0.316144734621048,0.8881832361221313
1788862326359296800,5.259296875,-0.10520251095294952,0.29324981570243835,0.8831557035446167
1788862326369338600,5.269338623046875,-0.10013923048973083,0.24769747257232666,0.8571532368659973
1788862326379379700,5.279379638671875,-0.06004427373409271,0.13637226819992065,0.8231827020645142
1788862326389421800,5.289421875,-0.0227519478648901,0.068640798330307,0.8148231506347656
1788862326399462700,5.299462646484375,-0.004211553372442722,0.08613376319408417,0.8315331339836121
1788862326409504800,5.3095048828125,-0.002722212579101324,0.1533108949661255,0.8353576064109802
1788862326419545900,5.3195458984375,-0.040959347039461136,0.28044193983078003,0.8515613675117493
1788862326429588000,5.329587890625,-0.1392422765493393,0.3999573588371277,0.8626739382743835
1788862326439628800,5.33962890625,-0.26367130875587463,0.44069069623947144,0.8576829433441162
1788862326449671000,5.3496708984375,-0.36990559101104736,0.37085646390914917,0.795617938041687
1788862326459711700,5.359711669921875,-0.4268306493759155,0.2201457917690277,0.7153489589691162
1788862326469753900,5.36975390625,-0.4444446563720703,0.07521616667509079,0.6805822253227234
1788862326479794700,5.379794677734375,-0.4425327777862549,-0.010129628702998161,0.6914306282997131
1788862326489836800,5.3898369140625,-0.41535478830337524,-0.058395229279994965,0.7001630663871765
1788862326499878000,5.3998779296875,-0.3699926435947418,-0.0766458660364151,0.6816167831420898
1788862326509920000,5.409919921875,-0.34778231382369995,-0.027510743588209152,0.6725025773048401
1788862326519960800,5.4199609375,-0.33412057161331177,0.04051677882671356,0.6488491892814636
1788862326530003000,5.4300029296875,-0.29721376299858093,0.06666301190853119,0.6046154499053955
1788862326540043800,5.440043701171875,-0.25307825207710266,0.09085409343242645,0.6051488518714905
1788862326550086000,5.4500859375,-0.24788078665733337,0.10256398469209671,0.6182766556739807
1788862326560126700,5.460126708984375,-0.2698494493961334,0.11460200697183609,0.6056197285652161
1788862326570167800,5.470167724609375,-0.29149261116981506,0.12401165068149567,0.6012529134750366
1788862326580209700,5.480209716796875,-0.30033910274505615,0.10456790775060654,0.6406860947608948
1788862326590250800,5.490250732421875,-0.2809465527534485,0.11396276205778122,0.6645944714546204
1788862326600292900,5.50029296875,-0.25964710116386414,0.12471101433038712,0.6305409073829651
1788862326610334000,5.510333984375,-0.2631726861000061,0.10971753299236298,0.567685604095459
1788862326620375800,5.520375732421875,-0.2746594548225403,0.15328578650951385,0.5492315292358398
1788862326630417000,5.5304169921875,-0.27401846647262573,0.3306944668292999,0.6048198342323303
1788862326640458800,5.540458740234375,-0.24427255988121033,0.4782397150993347,0.6785371899604797
1788862326650499800,5.550499755859375,-0.1948907971382141,0.4528719484806061,0.6934638023376465
1788862326660541700,5.560541748046875,-0.13812099397182465,0.3089110255241394,0.6626006960868835
1788862326670582800,5.570582763671875,-0.08761333674192429,0.15873537957668304,0.6247116327285767
1788862326680624600,5.580624755859375,-0.05700775980949402,0.12952077388763428,0.6246243119239807
1788862326690665700,5.590665771484375,-0.04192926734685898,0.25130847096443176,0.6705105304718018
1788862326700707800,5.600707763671875,-0.03303777426481247,0.390969455242157,0.6985730528831482
1788862326710749000,5.6107490234375,0.00770969782024622,0.4274298846721649,0.6487611532211304
1788862326720790800,5.620790771484375,0.07781422138214111,0.37125343084335327,0.5845286250114441
1788862326730832000,5.630831787109375,0.15721698105335236,0.3324096202850342,0.5804117918014526
1788862326740873700,5.640873779296875,0.23119880259037018,0.3668978214263916,0.6331812739372253
1788862326750914800,5.650914794921875,0.2986235022544861,0.38715314865112305,0.6621432900428772
1788862326760956700,5.660956787109375,0.35012078285217285,0.3254927396774292,0.6410419940948486
1788862326770997800,5.670997802734375,0.3669390082359314,0.24274232983589172,0.6266434192657471
1788862326781039600,5.68103955078125,0.3523086607456207,0.23078207671642303,0.632555365562439
1788862326791080700,5.691080810546875,0.3226577639579773,0.2861253321170807,0.6441490054130554
1788862326801122800,5.701122802734375,0.3103179931640625,0.33748942613601685,0.6359952092170715
1788862326811164000,5.711163818359375,0.3235936760902405,0.30688726902008057,0.6004432439804077
1788862326821205800,5.721205810546875,0.351760596036911,0.24468834698200226,0.5635331273078918
1788862326831246800,5.731246826171875,0.3671187460422516,0.2757216691970825,0.5505407452583313
1788862326841288700,5.741288818359375,0.3611985445022583,0.365687757730484,0.5542742609977722
1788862326851329800,5.751329833984375,0.3763100802898407,0.4141243100166321,0.561439573764801
1788862326861371600,5.76137158203125,0.41292163729667664,0.3980183005332947,0.551880419254303
1788862326871412700,5.771412841796875,0.4401032030582428,0.376275897026062,0.5128440856933594
1788862326881454600,5.78145458984375,0.44907352328300476,0.3647611737251282,0.4808158278465271
1788862326891495700,5.79149560546875,0.4512730836868286,0.30904996395111084,0.4641591012477875
1788862326901537800,5.801537841796875,0.4521314203739166,0.27285388112068176,0.45543432235717773
1788862326911579000,5.811578857421875,0.46196505427360535,0.3026427626609802,0.45237448811531067
1788862326921620700,5.821620849609375,0.4751857817173004,0.334261417388916,0.46652305126190186
1788862326931661800,5.831661865234375,0.5056370496749878,0.34557539224624634,0.46983423829078674
1788862326941703700,5.84170361328125,0.5134166479110718,0.3435279428958893,0.4683484733104706
1788862326951744800,5.851744873046875,0.49515384435653687,0.3411928713321686,0.48198598623275757
1788862326961786600,5.86178662109375,0.4556860625743866,0.295245885848999,0.5023251175880432
1788862326971827700,5.87182763671875,0.4325762093067169,0.2573413550853729,0.491040974855423
1788862326981868800,5.881868896484375,0.42966189980506897,0.23301179707050323,0.4476567506790161
1788862326991910700,5.89191064453125,0.44376271963119507,0.22095072269439697,0.3610117733478546
1788862327001951700,5.90195166015625,0.4532339870929718,0.23300471901893616,0.2798708379268646
1788862327011993900,5.911993896484375,0.4387008547782898,0.21901912987232208,0.22862336039543152
1788862327022035000,5.922034912109375,0.4203154444694519,0.1780538558959961,0.2121778130531311
1788862327032076800,5.932076904296875,0.39004629850387573,0.19829010963439941,0.20847603678703308
1788862327042118000,5.942117919921875,0.3424188494682312,0.2945961654186249,0.20116779208183289
1788862327052159700,5.95215966796875,0.3035982847213745,0.35284894704818726,0.18161985278129578
1788862327062200800,5.962200927734375,0.2706395387649536,0.32455766201019287,0.15097007155418396
1788862327072242700,5.97224267578125,0.23583920300006866,0.264467716217041,0.10606934130191803
1788862327082283800,5.98228369140625,0.2133338898420334,0.23595379292964935,0.04929181560873985
1788862327092326000,5.992325927734375,0.1882385015487671,0.255840539932251,0.010742779821157455
1788862327102367000,6.002366943359375,0.16057918965816498,0.2973589301109314,-0.002055306453257799
1788862327112408800,6.012408935546875,0.12778379023075104,0.31252023577690125,-0.00804889015853405
1788862327122450000,6.022449951171875,0.0820208266377449,0.2914125323295593,-0.001912434003315866
1788862327132491800,6.03249169921875,0.04118477180600166,0.2717774510383606,0.002431922359392047
1788862327142532900,6.042532958984375,0.021759942173957825,0.2770249545574188,0.009516996331512928
1788862327152574700,6.05257470703125,0.016604531556367874,0.303447961807251,0.030666885897517204
1788862327162615800,6.06261572265625,0.019081005826592445,0.31090056896209717,0.049690112471580505
1788862327172657700,6.07265771484375,0.013427565805613995,0.2847883701324463,0.05522732436656952
1788862327182698800,6.08269873046875,0.007295370101928711,0.24702180922031403,0.04469345882534981
1788862327192740900,6.092740966796875,-0.004193812608718872,0.20638805627822876,0.016576075926423073
1788862327202782000,6.102781982421875,-0.015506654977798462,0.15565402805805206,-0.02117716148495674
1788862327212823800,6.11282373046875,-0.02153920568525791,0.11794950813055038,-0.05797067657113075
1788862327222865000,6.122864990234375,-0.021185539662837982,0.07968654483556747,-0.09326581656932831
1788862327232906800,6.13290673828125,-0.014962038025259972,0.03488082066178322,-0.13764697313308716
1788862327242947800,6.14294775390625,-0.00974677037447691,-0.01067335158586502,-0.17976300418376923
1788862327252989700,6.15298974609375,0.009338589385151863,-0.04621228575706482,-0.23068474233150482
1788862327263030800,6.16303076171875,0.031733643263578415,-0.037102941423654556,-0.2750548720359802
1788862327273072600,6.17307275390625,0.06294284015893936,-0.006223192438483238,-0.3038918077945709
1788862327283113700,6.18311376953125,0.09256438165903091,0.03491811826825142,-0.29486075043678284
1788862327293155800,6.19315576171875,0.10719918459653854,0.10110035538673401,-0.24226093292236328
1788862327303197000,6.203197021484375,0.09921689331531525,0.21004442870616913,-0.16744102537631989
1788862327313238800,6.21323876953125,0.06520959734916687,0.31401291489601135,-0.12841375172138214
1788862327323278800,6.22327880859375,0.04384971410036087,0.37440383434295654,-0.14380468428134918
1788862327333321200,6.2333212890625,0.05472196638584137,0.3765895962715149,-0.17917051911354065
1788862327343362000,6.243362060546875,0.0774371400475502,0.30515056848526,-0.2257968783378601
1788862327353404200,6.253404052734375,0.12612196803092957,0.19472727179527283,-0.27507418394088745
1788862327363445000,6.263445068359375,0.1740061491727829,0.07319364696741104,-0.3389008343219757
1788862327373486000,6.273486083984375,0.22208939492702484,-0.0451652817428112,-0.368351012468338
1788862327383528000,6.28352783203125,0.2606767416000366,-0.09898723661899567,-0.3364865481853485
1788862327393569000,6.293569091796875,0.25997599959373474,-0.051046933978796005,-0.26208025217056274
1788862327403611000,6.30361083984375,0.23744992911815643,0.10237804055213928,-0.19794705510139465
1788862327413652000,6.31365185546875,0.20609021186828613,0.29939085245132446,-0.1604507714509964
1788862327423693800,6.32369384765625,0.17430326342582703,0.44643810391426086,-0.140155628323555
1788862327433735000,6.33373486328125,0.14706946909427643,0.5007237792015076,-0.12812384963035583
1788862327443777000,6.343777099609375,0.14160679280757904,0.4861699044704437,-0.1288817822933197
1788862327453818000,6.353818115234375,0.13754837214946747,0.4131580889225006,-0.13577789068222046
1788862327463860000,6.36385986328125,0.1273556500673294,0.2949345111846924,-0.20257343351840973
1788862327473901000,6.373901123046875,0.13042470812797546,0.1570468693971634,-0.3533625900745392
1788862327483943000,6.38394287109375,0.18940095603466034,-0.022866446524858475,-0.5379545092582703
1788862327493984000,6.39398388671875,0.3061612546443939,-0.24765335023403168,-0.6466442942619324
1788862327504025900,6.40402587890625,0.40716615319252014,-0.36030346155166626,-0.6546034216880798
1788862327514067000,6.41406689453125,0.42843762040138245,-0.30358025431632996,-0.5914700031280518
1788862327524108800,6.42410888671875,0.39685893058776855,-0.18330419063568115,-0.5231817364692688
1788862327534150000,6.43414990234375,0.3662188947200775,-0.07281085103750229,-0.4875880777835846
1788862327544192000,6.44419189453125,0.3435958921909332,-0.005995870102196932,-0.5016565322875977
1788862327554233000,6.454233154296875,0.3241885304450989,0.027155544608831406,-0.5972156524658203
1788862327564275000,6.46427490234375,0.30650514364242554,0.03878237307071686,-0.7319790720939636
1788862327574316000,6.47431591796875,0.26253509521484375,0.04086378961801529,-0.768337070941925
1788862327584358000,6.48435791015625,0.22577230632305145,-0.007121314760297537,-0.7975378036499023
1788862327594399000,6.49439892578125,0.2581310272216797,-0.10080892592668533,-0.8568906188011169
1788862327604440800,6.50444091796875,0.3340500295162201,-0.15320634841918945,-0.8543757796287537
1788862327614482000,6.51448193359375,0.354716956615448,-0.12754757702350616,-0.7770299315452576
1788862327624523800,6.524523681640625,0.29366132616996765,-0.09716811031103134,-0.6835992932319641
1788862327634564900,6.53456494140625,0.20534658432006836,-0.11747735738754272,-0.6342799067497253
1788862327644607000,6.54460693359375,0.13714969158172607,-0.1807471364736557,-0.6471502184867859
1788862327654648000,6.55464794921875,0.1014072597026825,-0.270365834236145,-0.7054044604301453
1788862327664690000,6.56468994140625,0.09716963768005371,-0.3735566735267639,-0.7801862955093384
1788862327674731000,6.57473095703125,0.10397067666053772,-0.4702949821949005,-0.8111798763275146
1788862327684772000,6.584772216796875,0.09504322707653046,-0.5136930346488953,-0.7888386249542236
1788862327694814000,6.59481396484375,0.07818294316530228,-0.47845059633255005,-0.7642348408699036
1788862327704855000,6.60485498046875,0.06731697916984558,-0.3945535719394684,-0.7441918849945068
1788862327714897000,6.61489697265625,0.07463327050209045,-0.36274197697639465,-0.7330577969551086
1788862327724938000,6.62493798828125,0.0898953229188919,-0.4115547835826874,-0.7416254878044128
1788862327734979800,6.634979736328125,0.09403563290834427,-0.5208483934402466,-0.7501384019851685
1788862327745021000,6.64502099609375,0.08782301098108292,-0.6574547290802002,-0.7534753084182739
1788862327755063000,6.65506298828125,0.0774114653468132,-0.7752013802528381,-0.7659252285957336
1788862327765104000,6.665104248046875,0.06781715899705887,-0.8725156784057617,-0.7994376420974731
1788862327775146000,6.67514599609375,0.07087809592485428,-0.9629719853401184,-0.8080520629882812
1788862327785187000,6.68518701171875,0.07153908908367157,-1.0080987215042114,-0.8055841326713562
1788862327795229000,6.69522900390625,0.08145853132009506,-0.9987714290618896,-0.8195419311523438
1788862327805270000,6.70527001953125,0.10079121589660645,-0.9596815705299377,-0.8436802625656128
1788862327815312000,6.715311767578125,0.13006757199764252,-0.815762460231781,-0.8859456181526184
1788862327825353000,6.72535302734375,0.15341444313526154,-0.7587041854858398,-0.948512852191925
1788862327835394800,6.735394775390625,0.1873350888490677,-0.771111011505127,-0.9951717853546143
1788862327845436200,6.745436279296875,0.20585283637046814,-0.7968347668647766,-0.9839920997619629
1788862327855478000,6.75547802734375,0.19939495623111725,-0.7438238263130188,-0.9329515695571899
1788862327865519000,6.76551904296875,0.1722315102815628,-0.622696578502655,-0.9241786003112793
1788862327875561000,6.77556103515625,0.1570914387702942,-0.558594822883606,-0.9624506235122681
1788862327885602000,6.78560205078125,0.15438753366470337,-0.598786473274231,-0.9925714731216431
1788862327895644000,6.795643798828125,0.136153444647789,-0.6878862380981445,-1.0387367010116577
1788862327905685000,6.80568505859375,0.11438077688217163,-0.7966575026512146,-1.0733602046966553
1788862327915726800,6.815726806640625,0.1295759677886963,-0.841770350933075,-1.0883681774139404
1788862327925768000,6.825767822265625,0.15310153365135193,-0.8125192523002625,-1.0954867601394653
1788862327935810000,6.83581005859375,0.15416689217090607,-0.7898052930831909,-1.0749428272247314
1788862327945851100,6.84585107421875,0.14945575594902039,-0.7489801049232483,-1.0254149436950684
1788862327955893000,6.85589306640625,0.13401181995868683,-0.7066741585731506,-0.9810962080955505
1788862327965934000,6.86593408203125,0.10056517273187637,-0.7428905367851257,-0.9381085634231567
1788862327975976000,6.875975830078125,0.08372785151004791,-0.7619336843490601,-0.9023942947387695
1788862327986017000,6.88601708984375,0.08943527191877365,-0.7298585772514343,-0.8849215507507324
1788862327996058000,6.89605810546875,0.12350217998027802,-0.7293643355369568,-0.8349574208259583
1788862328006100000,6.906099853515625,0.1474434733390808,-0.7547282576560974,-0.7786515355110168
1788862328016141000,6.91614111328125,0.1258089542388916,-0.7285254001617432,-0.7528412342071533
1788862328026183000,6.926182861328125,0.08613823354244232,-0.6972572207450867,-0.7473559379577637
1788862328036224000,6.93622412109375,0.05256568640470505,-0.686915397644043,-0.7186707258224487
1788862328046266000,6.94626611328125,0.018266038969159126,-0.6042476892471313,-0.656707227230072
1788862328056307200,6.95630712890625,-0.022624075412750244,-0.5000587105751038,-0.580873966217041
1788862328066349000,6.96634912109375,-0.05166211724281311,-0.38898172974586487,-0.4993889629840851
1788862328076390100,6.97639013671875,-0.026933951303362846,-0.2893115282058716,-0.49906471371650696
1788862328086432000,6.986431884765625,0.020388023927807808,-0.33398738503456116,-0.5461959838867188
1788862328096473000,6.99647314453125,0.04568498209118843,-0.37768682837486267,-0.5485897064208984
1788862328106515000,7.006514892578125,0.0354432612657547,-0.29584363102912903,-0.5474911332130432
1788862328116556000,7.01655615234375,0.031429778784513474,-0.12169592827558517,-0.6028298735618591
1788862328126598000,7.026597900390625,0.04955418407917023,-0.06826759874820709,-0.6958913803100586
1788862328136639000,7.036638916015625,0.08453574776649475,-0.13745452463626862,-0.7553757429122925
1788862328146681000,7.04668115234375,0.10770311951637268,-0.2024148851633072,-0.7990822196006775
1788862328156722200,7.05672216796875,0.12703856825828552,-0.2200506329536438,-0.8064519762992859
1788862328166764000,7.066763916015625,0.1221303641796112,-0.2098986655473709,-0.7399187684059143
1788862328176805000,7.07680517578125,0.13154470920562744,-0.1974421739578247,-0.6852934956550598
1788862328186847000,7.086846923828125,0.17697849869728088,-0.1081131100654602,-0.7128854393959045
1788862328196888000,7.09688818359375,0.18555910885334015,0.011063807643949986,-0.6874865293502808
1788862328206930000,7.106929931640625,0.1515369713306427,0.1002671867609024,-0.6620312929153442
1788862328216971000,7.116970947265625,0.10059882700443268,0.1915968805551529,-0.7519167065620422
1788862328227012900,7.127012939453125,0.039083272218704224,0.3289720416069031,-0.8966637849807739
1788862328237054000,7.137053955078125,-0.0344538576900959,0.4326364994049072,-1.0503108501434326
1788862328247096000,7.147095947265625,-0.10642605274915695,0.5503730177879333,-1.1464195251464844
1788862328257137200,7.15713720703125,-0.17364056408405304,0.6839010119438171,-1.177285075187683
1788862328267179000,7.167178955078125,-0.18307055532932281,0.759598970413208,-1.0747509002685547
1788862328277220000,7.17722021484375,-0.17391088604927063,0.851515531539917,-0.8937786817550659
1788862328287261000,7.187260986328125,-0.16346490383148193,0.7973228693008423,-0.7160731554031372
1788862328297303000,7.197302978515625,-0.14569124579429626,0.6209426522254944,-0.6929579973220825
1788862328307344000,7.20734375,-0.148268923163414,0.6797289848327637,-0.7069371938705444
1788862328317386000,7.217385986328125,-0.14125831425189972,0.7275293469429016,-0.6601091623306274
1788862328327427300,7.22742724609375,-0.16498415172100067,0.5247158408164978,-0.5259854197502136
1788862328337469400,7.237469482421875,-0.26205360889434814,0.43386027216911316,-0.3859005272388458
1788862328347510300,7.24751025390625,-0.3214322626590729,0.5476574301719666,-0.2340015321969986
1788862328357552400,7.257552490234375,-0.29788994789123535,0.6208031177520752,-0.11087226122617722
1788862328367593200,7.26759326171875,-0.26322171092033386,0.5990656018257141,-0.0533628985285759
1788862328377635300,7.27763525390625,-0.2805160582065582,0.5391455888748169,0.011574972420930862
1788862328387676200,7.28767626953125,-0.34695926308631897,0.5388441681861877,0.17293323576450348
1788862328397718500,7.297718505859375,-0.42534151673316956,0.5457422733306885,0.3373759686946869
1788862328407759400,7.30775927734375,-0.47208237648010254,0.5226428508758545,0.4537276029586792
1788862328417801500,7.317801513671875,-0.4841417670249939,0.4454849660396576,0.5568358302116394
1788862328427842300,7.32784228515625,-0.44780611991882324,0.3529648780822754,0.5959228277206421
1788862328437884400,7.337884521484375,-0.3966524004936218,0.3209649324417114,0.636040210723877
1788862328447925200,7.34792529296875,-0.35196614265441895,0.2981134057044983,0.690963089466095
1788862328457967400,7.35796728515625,-0.3123379349708557,0.2555391490459442,0.774041473865509
1788862328468008200,7.36800830078125,-0.2976290285587311,0.22711975872516632,0.866244912147522
1788862328478050300,7.37805029296875,-0.2744460105895996,0.22535283863544464,0.9242873191833496
1788862328488091100,7.388091064453125,-0.24689774215221405,0.24266497790813446,0.9841104745864868
1788862328498133500,7.398133544921875,-0.23038771748542786,0.24717380106449127,1.0543667078018188
1788862328508174300,7.40817431640625,-0.24213972687721252,0.2472907155752182,1.124967336654663
1788862328518216400,7.418216552734375,-0.25310197472572327,0.2161637395620346,1.1949291229248047
1788862328528257300,7.42825732421875,-0.23613952100276947,0.1354643702507019,1.2630841732025146
1788862328538299400,7.43829931640625,-0.19075803458690643,0.095437191426754,1.3226580619812012
1788862328548340200,7.44834033203125,-0.1570749133825302,0.09316045045852661,1.3723596334457397
1788862328558381300,7.45838134765625,-0.14937230944633484,0.11719851940870285,1.4065437316894531
1788862328568423200,7.468423095703125,-0.16193337738513947,0.16816850006580353,1.4036848545074463
1788862328578464300,7.47846435546875,-0.18320828676223755,0.23964311182498932,1.3692857027053833
1788862328588506000,7.488506103515625,-0.20501583814620972,0.2512630224227905,1.358559250831604
1788862328598547200,7.498547119140625,-0.2308742254972458,0.2386682778596878,1.418879747390747
1788862328608589300,7.50858935546875,-0.25517743825912476,0.2448500096797943,1.4898649454116821
1788862328618630400,7.51863037109375,-0.290145605802536,0.2738713026046753,1.4757626056671143
1788862328628672300,7.52867236328125,-0.33797624707221985,0.3122889995574951,1.3849437236785889
1788862328638713300,7.53871337890625,-0.3682838976383209,0.36784425377845764,1.3028435707092285
1788862328648755200,7.548755126953125,-0.3780938982963562,0.38405439257621765,1.2659887075424194
1788862328658796300,7.55879638671875,-0.3706563711166382,0.38135430216789246,1.2554110288619995
1788862328668838100,7.568838134765625,-0.34490442276000977,0.3895912170410156,1.234501838684082
1788862328678879200,7.578879150390625,-0.30541732907295227,0.4124612510204315,1.200665831565857
1788862328688921000,7.588921142578125,-0.27890264987945557,0.39551395177841187,1.1717252731323242
1788862328698962200,7.598962158203125,-0.2900056838989258,0.39050599932670593,1.1728546619415283
1788862328709004300,7.60900439453125,-0.3138313889503479,0.4798111319541931,1.247658371925354
1788862328719045400,7.61904541015625,-0.3302527368068695,0.5797070860862732,1.324679970741272
1788862328729087200,7.629087158203125,-0.31404900550842285,0.6071525812149048,1.3443852663040161
1788862328739128300,7.63912841796875,-0.28622907400131226,0.5653632879257202,1.3385416269302368
1788862328749170200,7.649170166015625,-0.2688295543193817,0.48435020446777344,1.351973295211792
1788862328759211300,7.659211181640625,-0.27575942873954773,0.4102081060409546,1.3729482889175415
1788862328769253400,7.66925341796875,-0.27603134512901306,0.3677282929420471,1.3835817575454712
1788862328779294200,7.679294189453125,-0.24314279854297638,0.3386773467063904,1.3582192659378052
1788862328789336300,7.68933642578125,-0.1807662397623062,0.2805061638355255,1.282846450805664
1788862328799377200,7.699377197265625,-0.11040481925010681,0.20640993118286133,1.1784718036651611
1788862328809418200,7.709418212890625,-0.04443858191370964,0.11771736294031143,1.0837056636810303
1788862328819460400,7.71946044921875,-0.0034125037491321564,0.004038349725306034,1.0691858530044556
1788862328829501400,7.72950146484375,0.0008205908816307783,-0.04562348127365112,1.16391921043396
1788862328839543300,7.739543212890625,-0.006590924691408873,0.02148442715406418,1.308701992034912
1788862328849584400,7.74958447265625,-0.022460967302322388,0.07002293318510056,1.404194951057434
1788862328859626200,7.759626220703125,-0.09897225350141525,0.01962740533053875,1.401328682899475
1788862328869667300,7.769667236328125,-0.22404788434505463,-0.09029962867498398,1.3099161386489868
1788862328879709200,7.779709228515625,-0.3431724011898041,-0.14220856130123138,1.1900485754013062
1788862328889750300,7.789750244140625,-0.4168093204498291,-0.05163578316569328,1.0981056690216064
1788862328899792100,7.799792236328125,-0.4529794454574585,0.09427647292613983,1.0273936986923218
1788862328909833200,7.809833251953125,-0.4496142864227295,0.21569398045539856,0.9795106649398804
1788862328919875300,7.819875244140625,-0.42403310537338257,0.28307437896728516,0.972905158996582
1788862328929916400,7.82991650390625,-0.39063867926597595,0.30628490447998047,1.0123720169067383
1788862328939958300,7.839958251953125,-0.34799450635910034,0.3228231966495514,1.0615984201431274
1788862328949999400,7.849999267578125,-0.2875942885875702,0.3420690596103668,1.1134384870529175
1788862328960041200,7.860041259765625,-0.2154426872730255,0.3022601902484894,1.1371057033538818
1788862328970082300,7.870082275390625,-0.17039398849010468,0.12103153765201569,1.141125202178955
1788862328980124200,7.880124267578125,-0.14065423607826233,-0.08906257152557373,1.1127121448516846
1788862328990165200,7.890165283203125,-0.12958987057209015,-0.18242821097373962,1.0552592277526855
1788862329000207400,7.900207275390625,-0.13294069468975067,-0.13125599920749664,0.9811829924583435
1788862329010248400,7.91024853515625,-0.13084878027439117,-0.01264600083231926,0.9268758296966553
1788862329020290300,7.920290283203125,-0.11062397807836533,0.09040050953626633,0.8891101479530334
1788862329030331400,7.930331298828125,-0.07311255484819412,0.15447589755058289,0.8727482557296753
1788862329040373200,7.940373291015625,-0.028491880744695663,0.1577332317829132,0.8754881024360657
1788862329050414300,7.950414306640625,0.019347015768289566,0.10056208819150925,0.8545188903808594
1788862329060455400,7.960455322265625,0.06373361498117447,0.06282271444797516,0.7862904071807861
1788862329070497300,7.970497314453125,0.0986657589673996,0.08972303569316864,0.7116904854774475
1788862329080538400,7.980538330078125,0.12246233224868774,0.1360260248184204,0.6472712159156799
1788862329090580200,7.990580322265625,0.12115979194641113,0.15654835104942322,0.6014725565910339
1788862329100621300,8.000621337890625,0.1015973910689354,0.14707741141319275,0.5756033062934875
1788862329110663400,8.010663330078126,0.09265023469924927,0.13868339359760284,0.5383651256561279
1788862329120704500,8.02070458984375,0.09125346690416336,0.1282120645046234,0.4737323224544525
1788862329130746400,8.030746337890625,0.06461147218942642,0.06736550480127335,0.3819717764854431
1788862329140787500,8.040787353515626,0.016714664176106453,-0.019290965050458908,0.2665379047393799
1788862329150829300,8.050829345703125,-0.025222398340702057,-0.0948813334107399,0.14848530292510986
1788862329160870400,8.060870361328124,-0.0584699772298336,-0.12185448408126831,0.046734925359487534
1788862329170912300,8.070912353515626,-0.06908667087554932,-0.04464545100927353,-0.051459018141031265
1788862329180953300,8.080953369140625,-0.0910516232252121,0.15508577227592468,-0.1219068169593811
1788862329190995200,8.0909951171875,-0.1006280854344368,0.4097510576248169,-0.1592635065317154
1788862329201036300,8.101036376953125,-0.10386192053556442,0.6140381097793579,-0.17863649129867554
1788862329211078400,8.111078369140625,-0.11467355489730835,0.66348797082901,-0.18017446994781494
1788862329221119500,8.121119384765626,-0.10773976892232895,0.5603293776512146,-0.17963020503520966
1788862329231161300,8.131161376953125,-0.08928859233856201,0.39542752504348755,-0.22393429279327393
1788862329241202400,8.141202392578125,-0.07609617710113525,0.2714725732803345,-0.28892219066619873
1788862329251244300,8.151244384765626,-0.048099689185619354,0.1595926731824875,-0.3606719970703125
1788862329261285400,8.161285400390625,-0.016258014366030693,0.10423055291175842,-0.4206477105617523
1788862329271326200,8.171326171875,0.011701980605721474,0.11278116703033447,-0.4673193395137787
1788862329281368300,8.181368408203125,0.054744090884923935,0.14822478592395782,-0.49613672494888306
1788862329291409200,8.1914091796875,0.10548263788223267,0.17029999196529388,-0.5097183585166931
1788862329301451300,8.201451171875,0.1401195526123047,0.17141041159629822,-0.5055565237998962
1788862329311492000,8.2114921875,0.17067745327949524,0.1787593960762024,-0.4963454008102417
1788862329321534500,8.221534423828125,0.19894665479660034,0.19501852989196777,-0.4838801920413971
1788862329331574800,8.23157470703125,0.21857014298439026,0.2033931016921997,-0.4895476698875427
1788862329341616600,8.24161669921875,0.2284449338912964,0.17311985790729523,-0.5126734972000122
1788862329351657700,8.25165771484375,0.23096029460430145,0.17449511587619781,-0.5675921440124512
1788862329361699600,8.261699462890626,0.23211780190467834,0.208175390958786,-0.652864933013916
1788862329371740700,8.27174072265625,0.24915698170661926,0.20506641268730164,-0.7307788729667664
1788862329381782800,8.28178271484375,0.28671154379844666,0.14488403499126434,-0.7726155519485474
1788862329391824000,8.291823974609375,0.32678309082984924,0.0429890975356102,-0.7659496665000916
1788862329401865700,8.30186572265625,0.36921191215515137,-0.04960694909095764,-0.7414414286613464
1788862329411906800,8.31190673828125,0.4049763083457947,-0.06855480372905731,-0.7147512435913086
1788862329421948700,8.32194873046875,0.41625234484672546,-0.021327532827854156,-0.7037670016288757
1788862329431989800,8.33198974609375,0.43566039204597473,0.09453382343053818,-0.6714234352111816
1788862329442031600,8.342031494140626,0.45124900341033936,0.2775022089481354,-0.6055808067321777
1788862329452072700,8.35207275390625,0.44502705335617065,0.47903716564178467,-0.5612722039222717
1788862329462114600,8.362114501953124,0.4351956248283386,0.604505181312561,-0.5438309907913208
1788862329472155600,8.37215576171875,0.43862470984458923,0.565497100353241,-0.530288577079773
1788862329482197800,8.38219775390625,0.4547446370124817,0.3541628122329712,-0.5219030380249023
1788862329492238800,8.39223876953125,0.46839362382888794,0.06637603789567947,-0.5633116960525513
1788862329502279700,8.40227978515625,0.4881477952003479,-0.2364569455385208,-0.6529674530029297
1788862329512321800,8.41232177734375,0.5014923214912415,-0.5208039879798889,-0.7743210196495056
1788862329522362600,8.422362548828126,0.5179628133773804,-0.7170801162719727,-0.8753131628036499
1788862329532404700,8.43240478515625,0.5368118286132812,-0.7366636991500854,-0.9261294603347778
1788862329542445600,8.442445556640624,0.5240718722343445,-0.5994963049888611,-0.9294697046279907
1788862329552487700,8.45248779296875,0.4492519199848175,-0.4019320607185364,-0.9102190732955933
1788862329562528500,8.462528564453125,0.36391544342041016,-0.26015228033065796,-0.9233885407447815
1788862329572571000,8.47257080078125,0.2990134060382843,-0.21734490990638733,-0.9535589814186096
1788862329582611700,8.48261181640625,0.2537996768951416,-0.26848962903022766,-0.980449914932251
1788862329592653800,8.49265380859375,0.22044651210308075,-0.36442333459854126,-0.9712327122688293
1788862329602694700,8.502694580078124,0.1896827667951584,-0.46186766028404236,-0.9465174674987793
1788862329612736800,8.51273681640625,0.15893763303756714,-0.5596717596054077,-0.9290873408317566
1788862329622777600,8.522777587890625,0.1510603129863739,-0.6707026958465576,-0.9797441959381104
1788862329632819700,8.53281982421875,0.175544872879982,-0.7964949607849121,-1.051443338394165
1788862329642860500,8.542860595703125,0.20301420986652374,-0.9204575419425964,-1.0965687036514282
1788862329652902700,8.552902587890625,0.20648324489593506,-0.992365300655365,-1.0955572128295898
1788862329662943500,8.562943603515626,0.2099926769733429,-1.002407431602478,-1.088435173034668
1788862329672984600,8.572984619140625,0.1942688524723053,-0.9744918942451477,-1.0764533281326294
1788862329683026700,8.583026611328124,0.17392943799495697,-0.9519323110580444,-1.0631860494613647
1788862329693067800,8.59306787109375,0.16023440659046173,-0.9849947094917297,-1.065953254699707
1788862329703109600,8.603109619140625,0.14882652461528778,-1.0380830764770508,-1.0986664295196533
1788862329713150700,8.613150634765624,0.14242668449878693,-0.9785788059234619,-1.1003769636154175
1788862329723192600,8.623192626953125,0.14491833746433258,-0.8464993834495544,-1.1207321882247925
1788862329733233700,8.633233642578125,0.1456429809331894,-0.7729274034500122,-1.171748161315918
1788862329743275500,8.643275634765626,0.14314517378807068,-0.7244644165039062,-1.2007275819778442
1788862329753316600,8.653316650390625,0.13454049825668335,-0.6985673308372498,-1.2471085786819458
1788862329763358700,8.663358642578125,0.12379344552755356,-0.7129250764846802,-1.3027398586273193
1788862329773399600,8.673399658203126,0.12629334628582,-0.7750257849693298,-1.3501214981079102
1788862329783441700,8.683441650390625,0.15389345586299896,-0.7863198518753052,-1.3741859197616577
1788862329793482800,8.693482666015624,0.18784157931804657,-0.6887301802635193,-1.3956542015075684
1788862329803524600,8.703524658203126,0.24488747119903564,-0.5477918386459351,-1.3752226829528809
1788862329813565700,8.713565673828125,0.31040146946907043,-0.3878285586833954,-1.3380506038665771
1788862329823607800,8.72360791015625,0.3387194871902466,-0.2896566092967987,-1.2955228090286255
1788862329833648600,8.733648681640625,0.3300285339355469,-0.23700299859046936,-1.2668583393096924
1788862329843690800,8.743690673828125,0.29976269602775574,-0.2558663487434387,-1.2753571271896362
1788862329853731600,8.753731689453126,0.2725726366043091,-0.32967236638069153,-1.3209036588668823
1788862329863773700,8.763773681640625,0.24494194984436035,-0.4281298518180847,-1.3495184183120728
1788862329873814500,8.773814453125,0.2284303605556488,-0.4845774173736572,-1.3728718757629395
1788862329883857000,8.78385693359375,0.21957993507385254,-0.5087201595306396,-1.330966591835022
1788862329893897700,8.793897705078125,0.25583726167678833,-0.5585335493087769,-1.3471753597259521
1788862329903938800,8.803938720703124,0.29147869348526,-0.40342625975608826,-1.3318967819213867
1788862329913980700,8.813980712890626,0.2548581063747406,-0.2087470293045044,-1.2822285890579224
1788862329924021800,8.824021728515625,0.21610575914382935,-0.3705081045627594,-1.3312971591949463
1788862329934063600,8.834063720703124,0.20169085264205933,-0.594792366027832,-1.310858964920044
1788862329944104700,8.844104736328125,0.2658110558986664,-0.6110840439796448,-1.2559925317764282
1788862329954146600,8.854146484375,0.3385923206806183,-0.41588765382766724,-1.1900758743286133
1788862329964187600,8.864187744140626,0.3959335684776306,-0.21632473170757294,-1.1567472219467163
1788862329974229500,8.8742294921875,0.4372147023677826,-0.09421133995056152,-1.100441813468933
1788862329984270600,8.8842705078125,0.4459562599658966,-0.07133923470973969,-1.0763740539550781
1788862329994312700,8.894312744140626,0.43589192628860474,-0.03712853789329529,-1.071844220161438
1788862330004353800,8.904353759765625,0.41657719016075134,0.1153593361377716,-1.0387427806854248
1788862330014395600,8.914395751953125,0.39593634009361267,0.24395884573459625,-0.9753439426422119
1788862330024436700,8.924436767578126,0.3809349238872528,0.19870424270629883,-0.9256322383880615
1788862330034478600,8.934478515625,0.3453580141067505,0.16609808802604675,-0.8889016509056091
1788862330044519700,8.944519775390624,0.28588366508483887,0.26317355036735535,-0.8205866813659668
1788862330054561500,8.9545615234375,0.2429433912038803,0.35943669080734253,-0.8243430852890015
1788862330064602600,8.9646025390625,0.21397292613983154,0.4470263123512268,-0.7848425507545471
1788862330074644700,8.974644775390624,0.16957269608974457,0.440620094537735,-0.667995274066925
1788862330084685800,8.984685791015625,0.10514404624700546,0.40626809000968933,-0.5563480854034424
1788862330094727000,8.994726806640625,0.06403975188732147,0.4858683943748474,-0.43235236406326294
1788862330104768800,9.004768798828126,-0.013046180829405785,0.40429332852363586,-0.2906695306301117
1788862330114809900,9.014809814453125,-0.07529997080564499,0.34857040643692017,-0.16216640174388885
1788862330124851700,9.024851806640624,-0.1303127408027649,0.4122549891471863,-0.016515148803591728
1788862330134892800,9.034892822265626,-0.1589699536561966,0.4562738239765167,0.04695463553071022
1788862330144934700,9.0449345703125,-0.18807953596115112,0.4551847577095032,0.091217041015625
1788862330154975700,9.054975830078124,-0.2352888584136963,0.5010925531387329,0.20878946781158447
1788862330165017600,9.065017578125,-0.28364473581314087,0.5440528988838196,0.3408554196357727
1788862330175058700,9.07505859375,-0.31427961587905884,0.5345185399055481,0.39445391297340393
1788862330185100800,9.085100830078124,-0.3391379117965698,0.4167107343673706,0.4288950562477112
1788862330195142000,9.095141845703125,-0.3665999174118042,0.3819567561149597,0.5006555914878845
1788862330205183700,9.105183837890625,-0.38887739181518555,0.4219714105129242,0.5605316162109375
1788862330215224800,9.115224853515626,-0.39545300602912903,0.4446045756340027,0.6162087321281433
1788862330225266700,9.1252666015625,-0.42290228605270386,0.45425328612327576,0.7041282057762146
1788862330235307800,9.135307861328124,-0.4345299005508423,0.543250560760498,0.7912953495979309
1788862330245349600,9.145349609375,-0.4260996878147125,0.6126373410224915,0.857986330986023
1788862330255390700,9.155390625,-0.41083526611328125,0.6541142463684082,0.908715009689331
1788862330265431600,9.165431640625,-0.40243783593177795,0.680940568447113,0.9686979055404663
1788862330275473700,9.1754736328125,-0.39881059527397156,0.6572791337966919,1.0032143592834473
1788862330285514500,9.185514404296875,-0.3784019947052002,0.6194047331809998,1.0301496982574463
1788862330295556900,9.195556884765624,-0.3462003767490387,0.6390226483345032,1.101853370666504
1788862330305597700,9.20559765625,-0.3275362253189087,0.6476995944976807,1.1585805416107178
1788862330315639800,9.215639892578125,-0.3013714551925659,0.6203574538230896,1.1718915700912476
1788862330325680600,9.2256806640625,-0.27018091082572937,0.5765959024429321,1.2038439512252808
1788862330335722800,9.23572265625,-0.23257893323898315,0.606873631477356,1.2839521169662476
1788862330345763600,9.245763671875,-0.19336919486522675,0.6557472944259644,1.3454667329788208
1788862330355805700,9.2558056640625,-0.14187005162239075,0.6623674035072327,1.38334059715271
1788862330365846500,9.265846435546875,-0.11126647144556046,0.615563154220581,1.4359840154647827
1788862330375888600,9.275888671875,-0.10912422835826874,0.5545397400856018,1.494845986366272
1788862330385929500,9.285929443359375,-0.10001922398805618,0.49431273341178894,1.5335997343063354
1788862330395971800,9.295971923828125,-0.06984507292509079,0.4493095576763153,1.5343902111053467
1788862330406012700,9.3060126953125,-0.045037176460027695,0.44257017970085144,1.5328807830810547
1788862330416054800,9.3160546875,-0.032894495874643326,0.4548284411430359,1.5655388832092285
1788862330426095600,9.326095703125,-0.02399943582713604,0.46807780861854553,1.610650658607483
1788862330436137700,9.3361376953125,-0.013602722436189651,0.4324825406074524,1.618958592414856
1788862330446178600,9.346178466796875,-0.001270645996555686,0.38870707154273987,1.6361337900161743
1788862330456219600,9.3562197265625,0.008944973349571228,0.40496647357940674,1.6659218072891235
1788862330466261500,9.366261474609376,0.026091571897268295,0.4580194354057312,1.6579328775405884
1788862330476302600,9.376302490234375,0.05215912684798241,0.4888817369937897,1.6224697828292847
1788862330486344400,9.386344482421874,0.0722549706697464,0.47787395119667053,1.669103980064392
1788862330496385500,9.396385498046875,0.08380403369665146,0.4630500078201294,1.8220701217651367
1788862330506427600,9.406427734375,0.0556723028421402,0.42860084772109985,1.9755781888961792
1788862330516468700,9.41646875,0.009337563067674637,0.3678634762763977,1.9994755983352661
1788862330526510600,9.426510498046875,0.00475436681881547,0.2513333559036255,1.8886404037475586
1788862330536551700,9.4365517578125,0.08226833492517471,0.12367898970842361,1.727236270904541
1788862330546593800,9.44659375,0.18242156505584717,-0.010685555636882782,1.5905466079711914
1788862330556634600,9.456634521484375,0.24500665068626404,-0.06719783693552017,1.4801907539367676
1788862330566676700,9.4666767578125,0.24958771467208862,-0.08300570398569107,1.370434284210205
1788862330576717600,9.476717529296875,0.18882663547992706,-0.11159926652908325,1.2654790878295898
1788862330586759700,9.486759765625,0.07586820423603058,-0.14565446972846985,1.1978790760040283
1788862330596800800,9.49680078125,-0.05000610277056694,-0.08922475576400757,1.2095870971679688
1788862330606843000,9.5068427734375,-0.15286795794963837,0.06381954997777939,1.3167821168899536
1788862330616883700,9.5168837890625,-0.21976417303085327,0.24891483783721924,1.4640434980392456
1788862330626924800,9.5269248046875,-0.25847822427749634,0.3476330637931824,1.5895494222640991
1788862330636966700,9.536966552734375,-0.2669502794742584,0.33235716819763184,1.653721809387207
1788862330647007700,9.5470078125,-0.23060239851474762,0.23736628890037537,1.6431708335876465
1788862330657049600,9.557049560546876,-0.17354975640773773,0.07804533839225769,1.5662147998809814
1788862330667090700,9.567090576171875,-0.13353048264980316,-0.140644371509552,1.4491175413131714
1788862330677132500,9.577132568359374,-0.1360200047492981,-0.3695811629295349,1.3477706909179688
1788862330687173600,9.587173583984375,-0.1754223257303238,-0.5360806584358215,1.298603892326355
1788862330697215700,9.5972158203125,-0.2161598950624466,-0.5810832381248474,1.2961198091506958
1788862330707256800,9.6072568359375,-0.2352251559495926,-0.4942739009857178,1.3100842237472534
1788862330717298700,9.617298583984375,-0.2470296025276184,-0.3003275990486145,1.2829879522323608
1788862330727339800,9.62733984375,-0.2607172429561615,-0.11176130920648575,1.2093462944030762
1788862330737381600,9.637381591796874,-0.2650856077671051,-0.017351189628243446,1.0979251861572266
1788862330747422700,9.647422607421875,-0.27684953808784485,-0.024490341544151306,0.9673545956611633
1788862330757464600,9.657464599609375,-0.2958884835243225,-0.07003279030323029,0.8382853269577026
1788862330767505700,9.667505615234376,-0.2982310950756073,-0.08776063472032547,0.7440392374992371
1788862330777547500,9.677547607421875,-0.2735790014266968,-0.039888981729745865,0.6764156818389893
1788862330787588600,9.687588623046874,-0.2247665375471115,0.07300377637147903,0.6195701956748962
1788862330797629700,9.697629638671875,-0.18224942684173584,0.18090441823005676,0.5545520186424255
1788862330807671800,9.707671875,-0.1514475792646408,0.2513154447078705,0.4913642704486847
1788862330817713000,9.717712890625,-0.1302267163991928,0.27059781551361084,0.43800172209739685
1788862330827754800,9.727754638671875,-0.10141050070524216,0.23153305053710938,0.3873007893562317
1788862330837795800,9.7377958984375,-0.07734431326389313,0.1744106411933899,0.3330700397491455
1788862330847837700,9.747837646484374,-0.05312143266201019,0.1476348340511322,0.2473139762878418
1788862330857878800,9.757878662109375,-0.05049848556518555,0.14935283362865448,0.13410593569278717
1788862330867920600,9.767920654296875,-0.04593386501073837,0.1649007350206375,0.009102098643779755
1788862330877961700,9.777961669921876,-0.03906157612800598,0.18688327074050903,-0.11212924867868423
1788862330888003600,9.788003662109375,-0.010171260684728622,0.18994782865047455,-0.217385932803154
1788862330898044700,9.798044677734374,0.01607818529009819,0.17369109392166138,-0.2977292239665985
1788862330908086800,9.808086669921876,0.03601197153329849,0.15173554420471191,-0.35090893507003784
1788862330918127900,9.8181279296875,0.05881741642951965,0.16287954151630402,-0.3852485418319702
1788862330928169700,9.828169677734374,0.06876956671476364,0.14171063899993896,-0.41596582531929016
1788862330938210800,9.8382109375,0.06843773275613785,0.08270617574453354,-0.43647533655166626
1788862330948252700,9.848252685546875,0.06293222308158875,0.05787138640880585,-0.4676820933818817
1788862330958293800,9.858293701171876,0.06253328174352646,0.06652612239122391,-0.49172112345695496
1788862330968334600,9.86833447265625,0.07666798681020737,0.0742088258266449,-0.5038476586341858
1788862330978376700,9.878376708984375,0.09355828911066055,0.04905899241566658,-0.5203930735588074
1788862330988417500,9.88841748046875,0.10418481379747391,0.025988571345806122,-0.5440117120742798
1788862330998459600,9.898459716796875,0.11077933013439178,0.0193604938685894,-0.5733437538146973
1788862331008500500,9.90850048828125,0.11764583736658096,0.02684492990374565,-0.5960029363632202
1788862331018542800,9.91854296875,0.1232113167643547,0.021285314112901688,-0.5920856595039368
1788862331028583700,9.928583740234375,0.13072465360164642,0.024286501109600067,-0.5692326426506042
1788862331038625800,9.938625732421874,0.13101732730865479,0.058141134679317474,-0.5403839349746704
1788862331048666600,9.94866650390625,0.1369187980890274,0.12257788330316544,-0.5186482667922974
1788862331058708700,9.958708740234375,0.14962872862815857,0.21586202085018158,-0.5208989381790161
1788862331068749600,9.96874951171875,0.16809670627117157,0.2925693988800049,-0.5397087335586548
1788862331078791700,9.978791748046875,0.1950329840183258,0.38156718015670776,-0.5454259514808655
1788862331088832500,9.98883251953125,0.1975051313638687,0.4780677258968353,-0.5519924759864807
1788862331098874600,9.99887451171875,0.1934129148721695,0.5393244028091431,-0.6037552952766418
1788862331108915500,10.00891552734375,0.19663698971271515,0.5035908222198486,-0.7063172459602356
1788862331118956800,10.018956787109374,0.222537562251091,0.3106927275657654,-0.8308354616165161
1788862331128998700,10.02899853515625,0.2738594710826874,-0.03792823106050491,-0.91156405210495
1788862331139039700,10.039039794921875,0.3377649486064911,-0.3816978633403778,-0.8981547951698303
1788862331149081600,10.04908154296875,0.36910146474838257,-0.5277454853057861,-0.8066189885139465
1788862331159122700,10.059122802734375,0.362421452999115,-0.4191553294658661,-0.7009180784225464
1788862331169164500,10.06916455078125,0.32598185539245605,-0.1844782829284668,-0.6063475012779236
1788862331179205600,10.07920556640625,0.26879847049713135,0.029305383563041687,-0.5546424984931946
1788862331189247500,10.08924755859375,0.19413518905639648,0.1142827495932579,-0.6016308069229126
1788862331199288600,10.09928857421875,0.1555398553609848,0.061878934502601624,-0.7386179566383362
1788862331209330700,10.10933056640625,0.18404152989387512,-0.07367595285177231,-0.9128783345222473
1788862331219371800,10.119371826171875,0.2490527331829071,-0.2595960199832916,-1.0640997886657715
1788862331229413600,10.12941357421875,0.3283545970916748,-0.44449561834335327,-1.1601080894470215
1788862331239454700,10.139454833984376,0.39473310112953186,-0.5727161765098572,-1.2064430713653564
1788862331249496600,10.14949658203125,0.4173187017440796,-0.6076233983039856,-1.1723779439926147
1788862331259537700,10.15953759765625,0.3949902057647705,-0.5877814888954163,-1.0910935401916504
1788862331269579800,10.169579833984375,0.36541032791137695,-0.5642696022987366,-1.0700054168701172
1788862331279620600,10.17962060546875,0.33007097244262695,-0.5528667569160461,-1.1293531656265259
1788862331289661700,10.18966162109375,0.3131692111492157,-0.5722429156303406,-1.218884825706482
1788862331299703600,10.19970361328125,0.326750785112381,-0.6035113334655762,-1.3636287450790405
1788862331309744600,10.20974462890625,0.37651512026786804,-0.6840293407440186,-1.5050456523895264
1788862331319786800,10.219786865234376,0.41563645005226135,-0.8185104131698608,-1.6271220445632935
1788862331329828900,10.229828857421875,0.41686204075813293,-0.85374516248703,-1.6695009469985962
1788862331339870700,10.23987060546875,0.3635128140449524,-0.8555459976196289,-1.6203049421310425
1788862331349911800,10.249911865234376,0.3098492920398712,-0.7900106310844421,-1.4926077127456665
1788862331359953700,10.25995361328125,0.24547560513019562,-0.7202104926109314,-1.3494493961334229
1788862331369994800,10.269994873046874,0.17579084634780884,-0.6691895127296448,-1.2581076622009277
1788862331380036900,10.280036865234376,0.14251969754695892,-0.733059287071228,-1.2222145795822144
1788862331390078000,10.290077880859375,0.15342853963375092,-0.8970832824707031,-1.2713816165924072
1788862331400119800,10.300119873046874,0.18329082429409027,-1.0341620445251465,-1.2853091955184937
1788862331410161000,10.310160888671875,0.2091834992170334,-1.0925005674362183,-1.3215878009796143
1788862331420202800,10.32020263671875,0.2225070297718048,-1.075708031654358,-1.3568514585494995
1788862331430243800,10.330243896484374,0.22327318787574768,-0.9981715679168701,-1.3577828407287598
1788862331440284700,10.34028466796875,0.21511059999465942,-0.8580328822135925,-1.3307815790176392
1788862331450326800,10.350326904296875,0.2168189287185669,-0.7921054363250732,-1.316314935684204
1788862331460367600,10.36036767578125,0.24024009704589844,-0.7667111754417419,-1.3058092594146729
1788862331470409700,10.37040966796875,0.26506975293159485,-0.758269190788269,-1.2663699388504028
1788862331480450600,10.380450439453124,0.2935298979282379,-0.7233977317810059,-1.2517646551132202
1788862331490493000,10.390492919921876,0.3126322031021118,-0.668856680393219,-1.2900819778442383
1788862331500533800,10.40053369140625,0.3229338228702545,-0.6598546504974365,-1.3472152948379517
1788862331510575900,10.410575927734374,0.323912113904953,-0.6469043493270874,-1.390738606452942
1788862331520616700,10.42061669921875,0.2990909218788147,-0.6112518310546875,-1.4251943826675415
1788862331530658800,10.430658935546875,0.24811795353889465,-0.552717924118042,-1.4374492168426514
1788862331540699600,10.44069970703125,0.1988273710012436,-0.48334094882011414,-1.4544780254364014
1788862331550741800,10.45074169921875,0.16545350849628448,-0.44223907589912415,-1.407448410987854
1788862331560782600,10.460782470703125,0.16230139136314392,-0.40351298451423645,-1.3520301580429077
1788862331570824700,10.47082470703125,0.16618365049362183,-0.30758270621299744,-1.2984697818756104
1788862331580865500,10.480865478515625,0.16515007615089417,-0.19322070479393005,-1.2625283002853394
1788862331590908000,10.490907958984375,0.16999396681785583,-0.04947850853204727,-1.2519241571426392
1788862331600948700,10.50094873046875,0.1585005670785904,0.08767295628786087,-1.2069852352142334
1788862331610989800,10.51098974609375,0.15185074508190155,0.13565634191036224,-1.1719058752059937
1788862331621031700,10.52103173828125,0.13524167239665985,0.11866643279790878,-1.1296221017837524
1788862331631072800,10.53107275390625,0.11863717436790466,0.0695861428976059,-1.0637669563293457
1788862331641114600,10.541114501953125,0.13267043232917786,0.01834346540272236,-1.0099732875823975
1788862331651155700,10.55115576171875,0.13528385758399963,0.043098241090774536,-0.9787829518318176
1788862331661197600,10.561197509765625,0.12559980154037476,0.10960323363542557,-0.9639230966567993
1788862331671238700,10.57123876953125,0.12519603967666626,0.14965645968914032,-0.9265145063400269
1788862331681280500,10.581280517578126,0.13676294684410095,0.1835971176624298,-0.8633296489715576
1788862331691321600,10.591321533203125,0.11954709887504578,0.2263910472393036,-0.7976880073547363
1788862331701363700,10.60136376953125,0.08837852627038956,0.28367456793785095,-0.7027361989021301
1788862331711404800,10.61140478515625,0.07657893747091293,0.32170599699020386,-0.6463575959205627
1788862331721446700,10.62144677734375,0.08434151858091354,0.3878194987773895,-0.6287016272544861
1788862331731487700,10.63148779296875,0.0865083709359169,0.43086177110671997,-0.5877161622047424
1788862331741529600,10.641529541015625,0.07294835150241852,0.42809394001960754,-0.4991557002067566
1788862331751570700,10.65157080078125,0.05033598095178604,0.48691612482070923,-0.3246172368526459
1788862331761611800,10.66161181640625,0.006709143053740263,0.5249889492988586,-0.1331000030040741
1788862331771653600,10.671653564453125,-0.04951944574713707,0.5099918842315674,-0.020544948056340218
1788862331781694700,10.68169482421875,-0.07364342361688614,0.46488484740257263,0.0708097368478775
1788862331791736800,10.69173681640625,-0.0650487095117569,0.41355574131011963,0.18998391926288605
1788862331801778000,10.70177783203125,-0.07420065999031067,0.3663448095321655,0.29790055751800537
1788862331811819800,10.71181982421875,-0.13382412493228912,0.32707422971725464,0.3897169828414917
1788862331821860900,10.72186083984375,-0.2232711762189865,0.2972438931465149,0.5314304232597351
1788862331831902700,10.73190283203125,-0.2875424921512604,0.4180397093296051,0.7143294811248779
1788862331841943800,10.74194384765625,-0.2867416739463806,0.5107837915420532,0.8567321300506592
1788862331851985700,10.751985595703125,-0.25986871123313904,0.5014072060585022,0.9352352023124695
1788862331862026800,10.76202685546875,-0.25550565123558044,0.4657016694545746,0.969036877155304
1788862331872068600,10.772068603515624,-0.2628106474876404,0.48744848370552063,1.001215934753418
1788862331882109700,10.782109619140625,-0.2675156593322754,0.5061342716217041,1.0197091102600098
1788862331892150500,10.792150634765624,-0.28238117694854736,0.5275234580039978,1.035422921180725
1788862331902193000,10.80219287109375,-0.29925045371055603,0.507115364074707,1.0321890115737915
1788862331912233700,10.812233642578125,-0.3071140646934509,0.5361399054527283,1.0627115964889526
1788862331922275800,10.82227587890625,-0.2949388921260834,0.5857229232788086,1.093417763710022
1788862331932316700,10.832316650390625,-0.2766486704349518,0.6255985498428345,1.1205418109893799
1788862331942358800,10.84235888671875,-0.26638004183769226,0.6082003712654114,1.1634037494659424
1788862331952399600,10.852399658203124,-0.2737064063549042,0.6028684973716736,1.2446707487106323
1788862331962441700,10.862441650390625,-0.2729865610599518,0.6351383328437805,1.343324065208435
1788862331972482600,10.872482666015625,-0.26285460591316223,0.6601539254188538,1.4507840871810913
1788862331982524700,10.882524658203126,-0.25192898511886597,0.6804025173187256,1.5455857515335083
1788862331992565500,10.8925654296875,-0.26390260457992554,0.6784818172454834,1.6131922006607056
1788862332002607900,10.90260791015625,-0.2820299565792084,0.6470914483070374,1.6306012868881226
1788862332012648700,10.912648681640626,-0.308196097612381,0.5738992691040039,1.6211761236190796
1788862332022690800,10.92269091796875,-0.32741931080818176,0.4718168377876282,1.6250696182250977
1788862332032731600,10.932731689453124,-0.3455694615840912,0.4182589650154114,1.6782705783843994
1788862332042772700,10.942772705078125,-0.369416743516922,0.45707425475120544,1.7523895502090454
1788862332052814800,10.95281494140625,-0.4018324315547943,0.5300009846687317,1.808752417564392
1788862332062855700,10.962855712890626,-0.42399337887763977,0.5851720571517944,1.8370072841644287
1788862332072897800,10.972897705078125,-0.44085490703582764,0.5905742645263672,1.8753477334976196
1788862332082938600,10.982938720703125,-0.44239845871925354,0.5859696865081787,1.9010249376296997
1788862332092980700,10.992980712890626,-0.4211238920688629,0.5605810284614563,1.8971062898635864
1788862332103021600,11.003021484375,-0.38906529545783997,0.49458497762680054,1.8612313270568848
1788862332113064000,11.01306396484375,-0.3789491653442383,0.41092321276664734,1.8449569940567017
1788862332123104800,11.023104736328126,-0.3891599774360657,0.3667674958705902,1.8639256954193115
1788862332133147000,11.03314697265625,-0.41797634959220886,0.34012189507484436,1.904916524887085
1788862332143187700,11.043187744140624,-0.43486079573631287,0.29074156284332275,1.901100993156433
1788862332153229800,11.053229736328126,-0.44680869579315186,0.22112296521663666,1.8583492040634155
1788862332163270700,11.063270751953125,-0.44513916969299316,0.1624479442834854,1.7938127517700195
1788862332173312800,11.073312744140624,-0.41196712851524353,0.12536324560642242,1.755028247833252
1788862332183353600,11.083353515625,-0.3463974595069885,0.09623625129461288,1.7276477813720703
1788862332193394700,11.093394775390625,-0.27754533290863037,0.04626910388469696,1.6833633184432983
1788862332203436500,11.1034365234375,-0.22791598737239838,0.013929009437561035,1.6189360618591309
1788862332213477600,11.1134775390625,-0.1920342743396759,0.058463502675294876,1.5807058811187744
1788862332223519700,11.123519775390625,-0.17152287065982819,0.2031053751707077,1.582537055015564
1788862332233560800,11.133560791015626,-0.15211303532123566,0.3608675003051758,1.5859180688858032
1788862332243602700,11.143602783203125,-0.15087413787841797,0.42732053995132446,1.5615453720092773
1788862332253643800,11.153643798828124,-0.13622990250587463,0.36876633763313293,1.512360692024231
1788862332263685600,11.163685546875,-0.09225312620401382,0.26046302914619446,1.4528135061264038
1788862332273726700,11.173726806640625,-0.022295568138360977,0.2140720784664154,1.3828554153442383
1788862332283768600,11.1837685546875,0.02702537551522255,0.21053805947303772,1.3244436979293823
1788862332293809700,11.1938095703125,0.04930716007947922,0.1975245624780655,1.2730365991592407
1788862332303851800,11.203851806640625,0.03155719116330147,0.1962752789258957,1.2541539669036865
1788862332313892900,11.213892822265626,-0.0024662460200488567,0.23269692063331604,1.269962191581726
1788862332323934000,11.223933837890625,-0.028864828869700432,0.2945863604545593,1.2748647928237915
1788862332333975600,11.2339755859375,-0.024838149547576904,0.34156808257102966,1.2391738891601562
1788862332344016600,11.2440166015625,-0.0032811909914016724,0.29563388228416443,1.137640118598938
1788862332354058500,11.25405859375,0.023306863382458687,0.16569006443023682,0.9811493754386902
1788862332364099600,11.264099609375,0.05550101771950722,0.01925908587872982,0.814081609249115
1788862332374141700,11.2741416015625,0.0790615975856781,-0.07458464056253433,0.6811485886573792
1788862332384182800,11.284182861328125,0.09091372787952423,-0.059358276426792145,0.5989682674407959
1788862332394224600,11.294224609375,0.1136028915643692,0.025780729949474335,0.551792323589325
1788862332404265700,11.304265625,0.12119849771261215,0.12339010089635849,0.5094525814056396
1788862332414307600,11.3143076171875,0.12149322777986526,0.19483165442943573,0.44572579860687256
1788862332424348700,11.3243486328125,0.1149437204003334,0.25657516717910767,0.34742265939712524
1788862332434390500,11.334390625,0.11332531273365021,0.2950756847858429,0.22951970994472504
1788862332444431600,11.344431640625,0.1068895235657692,0.2941654324531555,0.09951165318489075
1788862332454473500,11.354473388671876,0.1218033879995346,0.24128280580043793,-0.032525140792131424
1788862332464514600,11.3645146484375,0.16553062200546265,0.17035163938999176,-0.1504104882478714
1788862332474555400,11.374555419921874,0.20857489109039307,0.13075777888298035,-0.24583905935287476
1788862332484597800,11.38459765625,0.2339545488357544,0.10269204527139664,-0.308917373418808
1788862332494638600,11.394638671875,0.2737696170806885,0.04369405284523964,-0.34043553471565247
1788862332504680700,11.4046806640625,0.29372867941856384,-0.02532629296183586,-0.34984394907951355
1788862332514721500,11.414721435546875,0.2846195101737976,-0.03889373317360878,-0.35953956842422485
1788862332524763600,11.424763671875,0.2686871588230133,0.007854331284761429,-0.392630934715271
1788862332534804500,11.434804443359376,0.23497274518013,0.06388896703720093,-0.44137686491012573
1788862332544846600,11.4448466796875,0.20398420095443726,0.08551862835884094,-0.48912253975868225
1788862332554887400,11.454887451171874,0.18710367381572723,0.0801418200135231,-0.55176842212677
1788862332564929500,11.464929443359376,0.18495769798755646,0.07148761302232742,-0.6338614225387573
1788862332574970400,11.474970458984375,0.20266437530517578,0.058995310217142105,-0.7042887806892395
1788862332585012700,11.4850126953125,0.24893972277641296,0.036139532923698425,-0.7431904077529907
1788862332595053600,11.495053466796875,0.2868935763835907,0.005226944573223591,-0.7321528196334839
1788862332605094700,11.5050947265625,0.3082236349582672,-0.01838863641023636,-0.687600314617157
1788862332615136500,11.515136474609376,0.3154999911785126,-0.04587310180068016,-0.5967076420783997
1788862332625177600,11.525177490234375,0.3033274710178375,-0.03799707069993019,-0.49373331665992737
1788862332635219500,11.535219482421875,0.27279698848724365,0.06953197717666626,-0.42856565117836
1788862332645260500,11.545260498046876,0.23823606967926025,0.23617395758628845,-0.4134295582771301
1788862332655302400,11.555302490234375,0.20902590453624725,0.39817044138908386,-0.4316222071647644
1788862332665343500,11.565343505859374,0.18784499168395996,0.5249730944633484,-0.42785248160362244
1788862332675385600,11.575385498046876,0.16745804250240326,0.5962437987327576,-0.3749830424785614
1788862332685426700,11.5854267578125,0.14026716351509094,0.5840367078781128,-0.3762664198875427
1788862332695468500,11.595468505859374,0.12879566848278046,0.4523453712463379,-0.6467243432998657
1788862332705509600,11.605509521484375,0.18795645236968994,0.09999319165945053,-1.0589587688446045
1788862332715551500,11.615551513671875,0.30921003222465515,-0.45997384190559387,-1.292896032333374
1788862332725592600,11.625592529296876,0.3800610303878784,-0.845316469669342,-1.3149584531784058
1788862332735633700,11.635633544921875,0.37448200583457947,-0.7618767023086548,-1.185683012008667
1788862332745675500,11.645675537109375,0.2650878429412842,-0.41800349950790405,-1.0003936290740967
1788862332755716600,11.655716552734376,0.124020054936409,-0.10315166413784027,-0.9684873223304749
1788862332765758500,11.665758544921875,0.05212829262018204,-0.030538711696863174,-1.040890097618103
1788862332775799600,11.675799560546874,0.029075395315885544,-0.15881748497486115,-1.0994654893875122
1788862332785841700,11.685841552734376,0.01340562291443348,-0.3418333828449249,-1.1408931016921997
1788862332795882800,11.6958828125,-0.009379342198371887,-0.5843139886856079,-1.1813873052597046
1788862332805924600,11.705924560546874,-0.003924389369785786,-0.8166889548301697,-1.2091577053070068
1788862332815965700,11.715965576171875,0.04284565523266792,-0.914289116859436,-1.251354694366455
1788862332826007600,11.726007568359375,0.11874175816774368,-0.926533043384552,-1.2812914848327637
1788862332836048600,11.736048583984376,0.19350896775722504,-0.9455978870391846,-1.2532472610473633
1788862332846090500,11.746090576171875,0.2329045832157135,-0.9378483295440674,-1.1966129541397095
1788862332856131600,11.756131591796875,0.24085208773612976,-0.8968690633773804,-1.1676424741744995
1788862332866172700,11.766172607421876,0.25339505076408386,-0.8932402729988098,-1.1668678522109985
1788862332876214500,11.776214599609375,0.2641410231590271,-0.8802499771118164,-1.2209031581878662
1788862332886255600,11.786255615234374,0.26657116413116455,-0.8404671549797058,-1.3130536079406738
1788862332896297700,11.796297607421875,0.2841219902038574,-0.9935450553894043,-1.3451957702636719
1788862332906338800,11.8063388671875,0.2845933735370636,-1.2165223360061646,-1.3627095222473145
1788862332916380700,11.816380615234374,0.25236931443214417,-1.271772027015686,-1.3608481884002686
1788862332926421800,11.826421875,0.18048766255378723,-1.134312391281128,-1.3703422546386719
1788862332936463600,11.836463623046875,0.10244181007146835,-0.9486783742904663,-1.395644187927246
1788862332946504700,11.846504638671876,0.028762269765138626,-0.8933709859848022,-1.4298375844955444
1788862332956546600,11.856546630859375,-0.013123353943228722,-0.9498017430305481,-1.4663255214691162
1788862332966587600,11.866587646484374,-0.005798862315714359,-1.0073240995407104,-1.5404822826385498
1788862332976629500,11.87662939453125,0.04432442784309387,-1.0131386518478394,-1.596561074256897
1788862332986670600,11.886670654296875,0.11423186957836151,-0.9721802473068237,-1.6514312028884888
1788862332996711400,11.89671142578125,0.17421872913837433,-0.8264821171760559,-1.6647241115570068
1788862333006753800,11.90675390625,0.19826307892799377,-0.6797547340393066,-1.6205835342407227
1788862333016794600,11.916794677734375,0.2042255997657776,-0.5747191309928894,-1.6105380058288574
1788862333026836700,11.926836669921874,0.19690749049186707,-0.5009666681289673,-1.6222026348114014
1788862333036877600,11.936877685546875,0.20657314360141754,-0.460184246301651,-1.6143745183944702
1788862333046919700,11.946919677734375,0.23259888589382172,-0.43235474824905396,-1.6170722246170044
1788862333056960500,11.95696044921875,0.2699171006679535,-0.41494470834732056,-1.6337876319885254
1788862333067002600,11.967002685546875,0.2849530577659607,-0.3832016885280609,-1.6352267265319824
1788862333077043500,11.97704345703125,0.2669353187084198,-0.3245987296104431,-1.5907995700836182
1788862333087085600,11.98708544921875,0.2512364983558655,-0.23993389308452606,-1.5662410259246826
1788862333097126400,11.99712646484375,0.2629413306713104,-0.1818644404411316,-1.5687206983566284
1788862333107168800,12.007168701171874,0.2751271426677704,-0.13884294033050537,-1.5505081415176392
1788862333117209600,12.017209716796875,0.28472790122032166,-0.04546108841896057,-1.5217281579971313
1788862333127250700,12.027250732421875,0.27039024233818054,-0.021950170397758484,-1.4447758197784424
1788862333137292500,12.03729248046875,0.22889095544815063,-0.038995448499917984,-1.337909460067749
1788862333147333600,12.047333740234375,0.1730165034532547,-0.05806368589401245,-1.2286983728408813
1788862333157375500,12.05737548828125,0.13154596090316772,0.0033081695437431335,-1.1685060262680054
1788862333167416600,12.06741650390625,0.15134283900260925,0.12178714573383331,-1.1104859113693237
1788862333177458400,12.07745849609375,0.18405987322330475,0.18830950558185577,-1.05879545211792
1788862333187499500,12.08749951171875,0.20524398982524872,0.15925894677639008,-1.0250129699707031
1788862333197541600,12.097541748046876,0.1870279610157013,0.1691714972257614,-0.9766265153884888
1788862333207582700,12.107582763671875,0.1831352263689041,0.2530858516693115,-0.92138671875
1788862333217624600,12.11762451171875,0.18344679474830627,0.3585851788520813,-0.8486360907554626
1788862333227665700,12.127665771484375,0.17397844791412354,0.4251602292060852,-0.7601041197776794
1788862333237707500,12.13770751953125,0.14491041004657745,0.41844645142555237,-0.6667547225952148
1788862333247748600,12.14774853515625,0.1097974181175232,0.3516162931919098,-0.5660491585731506
1788862333257789700,12.157789794921875,0.08729848265647888,0.38383185863494873,-0.44772017002105713
1788862333267831600,12.16783154296875,0.08524012565612793,0.3998659551143646,-0.35701078176498413
1788862333277872600,12.17787255859375,0.08777589350938797,0.42503249645233154,-0.2899361848831177
1788862333287914500,12.18791455078125,0.08158697187900543,0.45010507106781006,-0.22983931005001068
1788862333297955600,12.19795556640625,0.056576769798994064,0.5074078440666199,-0.1103438287973404
1788862333307997700,12.207997802734376,0.03862440213561058,0.45374730229377747,0.01766020990908146
1788862333318038800,12.218038818359375,0.019789405167102814,0.37900134921073914,0.12198220938444138
1788862333328080600,12.22808056640625,0.004802200011909008,0.4218769073486328,0.243880957365036
1788862333338121500,12.23812158203125,-0.046223804354667664,0.5082646012306213,0.39679840207099915
1788862333348163300,12.248163330078125,-0.12522168457508087,0.5205462574958801,0.5731686353683472
1788862333358204400,12.258204345703126,-0.19973881542682648,0.47399336099624634,0.7251220941543579
1788862333368246300,12.268246337890625,-0.23876531422138214,0.43438947200775146,0.8197851777076721
1788862333378287400,12.278287353515625,-0.25057804584503174,0.46158602833747864,0.9223126173019409
1788862333388328200,12.288328125,-0.25154104828834534,0.510623574256897,1.050745964050293
1788862333398370300,12.298370361328125,-0.23746712505817413,0.5707826018333435,1.1904659271240234
1788862333408411400,12.308411376953124,-0.2163407951593399,0.6408445239067078,1.3222428560256958
1788862333418453200,12.318453369140625,-0.20444118976593018,0.6802269220352173,1.4295445680618286
1788862333428494300,12.328494384765625,-0.19127212464809418,0.6990014314651489,1.5268220901489258
1788862333438536400,12.338536376953124,-0.1623901128768921,0.7239534854888916,1.5927698612213135
1788862333448577300,12.348577392578125,-0.1423511505126953,0.7071459293365479,1.648389458656311
1788862333458619400,12.358619384765625,-0.15335924923419952,0.6554864048957825,1.666386365890503
1788862333468660500,12.368660400390626,-0.18050245940685272,0.6032605171203613,1.6608766317367554
1788862333478702300,12.378702392578125,-0.20407915115356445,0.5833544135093689,1.663002610206604
1788862333488743400,12.388743408203124,-0.2230600267648697,0.6018990874290466,1.6673566102981567
1788862333498785300,12.398785400390626,-0.2609862685203552,0.5807459950447083,1.645639419555664
1788862333508826400,12.408826416015625,-0.3010042607784271,0.5108806490898132,1.6389000415802002
1788862333518867200,12.4188671875,-0.2889783978462219,0.46022212505340576,1.6910076141357422
1788862333528909300,12.428909423828125,-0.2302045375108719,0.46577826142311096,1.7837951183319092
1788862333538950100,12.4389501953125,-0.17579831182956696,0.5017864108085632,1.8418490886688232
1788862333548992500,12.448992431640624,-0.14966018497943878,0.4888695776462555,1.865612506866455
1788862333559033300,12.459033447265625,-0.15413518249988556,0.46055325865745544,1.8774914741516113
1788862333569075500,12.469075439453125,-0.20375201106071472,0.46116524934768677,1.8717834949493408
