time,seconds_elapsed,z,y,x
1788862321147756300,0.04775634765625,-0.03969627991318703,0.391140341758728,1.6931158304214478
1788862321157797400,0.05779736328125,-0.16348320245742798,0.43210774660110474,1.7447694540023804
1788862321167839200,0.067839111328125,-0.2609786093235016,0.5006101131439209,1.8565782308578491
1788862321177880300,0.07788037109375,-0.34366416931152344,0.4918174147605896,1.934660792350769
1788862321187922200,0.087922119140625,-0.39999666810035706,0.4310195744037628,1.9728859663009644
1788862321197963300,0.09796337890625,-0.3812594711780548,0.29088589549064636,2.0126359462738037
1788862321208005400,0.10800537109375,-0.3436465859413147,0.011808988638222218,1.974624752998352
1788862321218046500,0.11804638671875,-0.3788980543613434,-0.47199389338493347,1.8702090978622437
1788862321228088300,0.12808837890625,-0.46133992075920105,-1.0126099586486816,1.7452805042266846
1788862321238129400,0.13812939453125,-0.5432036519050598,-1.5392788648605347,1.5819735527038574
1788862321248171300,0.148171142578125,-0.5929751992225647,-1.934590458869934,1.3863455057144165
1788862321258212400,0.15821240234375,-0.6043261289596558,-2.1355509757995605,1.2168680429458618
1788862321268254200,0.168254150390625,-0.6020339131355286,-2.1031010150909424,1.0767173767089844
1788862321278295300,0.17829541015625,-0.5740454196929932,-1.8760316371917725,0.9198766350746155
1788862321288337200,0.188337158203125,-0.4988310933113098,-1.7228590250015259,0.7113300561904907
1788862321298378200,0.198378173828125,-0.38501906394958496,-1.5884267091751099,0.46490830183029175
1788862321308420400,0.20842041015625,-0.21320948004722595,-1.4385253190994263,0.22565549612045288
1788862321318461400,0.21846142578125,0.04344068467617035,-1.234553337097168,0.03269509598612785
1788862321328502800,0.228502685546875,0.3786437213420868,-1.0367475748062134,-0.10233116149902344
1788862321338543900,0.2385439453125,0.7305293083190918,-1.0999864339828491,-0.18244624137878418
1788862321348586000,0.2485859375,1.0372588634490967,-1.4915648698806763,-0.18108776211738586
1788862321358627000,0.258626953125,1.2919691801071167,-2.059504508972168,-0.0837034210562706
1788862321368669000,0.2686689453125,1.5121960639953613,-2.834505081176758,0.0627688392996788
1788862321378710000,0.2787099609375,1.738234281539917,-3.568638563156128,0.2074384093284607
1788862321388752000,0.288751953125,2.044118881225586,-4.197366237640381,0.3071269094944
1788862321398793000,0.29879296875,2.3725836277008057,-4.448891639709473,0.2567620277404785
1788862321408834800,0.308834716796875,2.6257669925689697,-4.5688371658325195,0.07643565535545349
1788862321418876000,0.3188759765625,2.952892541885376,-4.610459327697754,0.051657602190971375
1788862321428917800,0.328917724609375,3.2857673168182373,-3.6393253803253174,0.31793057918548584
1788862321438958800,0.338958740234375,3.0952253341674805,-2.062706232070923,0.6086361408233643
1788862321449001000,0.3490009765625,2.4025719165802,-1.0591703653335571,0.6203995943069458
1788862321459042000,0.3590419921875,1.7059197425842285,-1.1601672172546387,0.3335891664028168
1788862321469084000,0.369083984375,1.4864747524261475,-1.953392744064331,0.07686255872249603
1788862321479125000,0.379125,1.6725986003875732,-2.7780420780181885,0.08838232606649399
1788862321489166800,0.389166748046875,2.123875141143799,-3.487474203109741,0.4117731750011444
1788862321499208000,0.3992080078125,2.6991448402404785,-4.285681247711182,1.0257325172424316
1788862321509250000,0.40925,3.1646201610565186,-5.040061950683594,1.853598952293396
1788862321519292000,0.4192919921875,3.458098888397217,-5.665831565856934,2.7283365726470947
1788862321529333000,0.4293330078125,3.6337764263153076,-6.04658317565918,3.420013427734375
1788862321539375000,0.439375,3.731177568435669,-6.174336910247803,3.8822240829467773
1788862321549416200,0.449416259765625,3.898165464401245,-5.972162246704102,4.174754619598389
1788862321559458000,0.4594580078125,4.235829830169678,-5.37424898147583,4.274281978607178
1788862321569499100,0.4694990234375,4.679622650146484,-4.79103422164917,4.3763957023620605
1788862321579541000,0.479541015625,5.104951858520508,-4.293984413146973,4.411663055419922
1788862321589582000,0.48958203125,5.3321638107299805,-3.976320743560791,4.305276870727539
1788862321599624000,0.4996240234375,5.298689365386963,-3.685760021209717,4.041682243347168
1788862321609665000,0.5096650390625,5.145966529846191,-3.2451908588409424,3.7128076553344727
1788862321619707000,0.519706787109375,5.043047904968262,-2.6061289310455322,3.4267165660858154
1788862321629748000,0.529748046875,4.987545013427734,-1.9449526071548462,3.285614013671875
1788862321639790000,0.5397900390625,4.873449325561523,-1.3944509029388428,3.2229952812194824
1788862321649831200,0.5498310546875,4.623744964599609,-1.1892033815383911,3.197533130645752
1788862321659873000,0.559873046875,4.385363578796387,-1.2355594635009766,3.2208619117736816
1788862321669914000,0.5699140625,4.2282304763793945,-1.404295802116394,3.3048558235168457
1788862321679956000,0.5799560546875,4.105342388153076,-1.6354552507400513,3.394163131713867
1788862321689997000,0.5899970703125,3.9911696910858154,-1.8455466032028198,3.4026618003845215
1788862321700039000,0.600038818359375,3.8506901264190674,-2.165372133255005,3.290249824523926
1788862321710080000,0.610080078125,3.6461687088012695,-2.9847233295440674,3.008368968963623
1788862321720121900,0.620121826171875,2.9020042419433594,-4.896552085876465,2.001866102218628
1788862321730163000,0.630162841796875,2.127922534942627,-8.487495422363281,-0.7514609694480896
1788862321740205000,0.640205078125,3.600043535232544,-8.304075241088867,-1.8665482997894287
1788862321750246100,0.65024609375,5.044960021972656,-5.5755462646484375,-1.408348560333252
1788862321760288000,0.6602880859375,4.796778202056885,-0.37837740778923035,-0.44395533204078674
1788862321770329000,0.6703291015625,3.832310199737549,1.2768882513046265,-0.11834502220153809
1788862321780371000,0.680370849609375,3.6802167892456055,0.3113959729671478,-0.2424376755952835
1788862321790412000,0.690412109375,3.832247495651245,-0.9371535778045654,-0.1675834059715271
1788862321800454000,0.700453857421875,4.034109592437744,-2.202000617980957,0.2938137650489807
1788862321810495000,0.710494873046875,4.044463157653809,-2.9163432121276855,0.9257158637046814
1788862321820537000,0.720537109375,3.6796038150787354,-1.130174994468689,0.26514750719070435
1788862321830578200,0.730578125,4.368190765380859,0.11574684083461761,-0.6565626859664917
1788862321840620000,0.7406201171875,4.982071876525879,-0.6689897775650024,-0.5386264324188232
1788862321850661000,0.7506611328125,4.163836479187012,-2.3682053089141846,0.8139456510543823
1788862321860703000,0.760702880859375,2.531641960144043,-2.417013645172119,1.9486160278320312
1788862321870744000,0.770744140625,1.4955321550369263,-1.4586751461029053,1.4878181219100952
1788862321880786000,0.780785888671875,1.3594119548797607,-1.3650926351547241,0.3493151068687439
1788862321890827000,0.790826904296875,1.4875041246414185,-1.6646791696548462,0.5781978368759155
1788862321900868900,0.800868896484375,1.3532426357269287,-2.203125,1.1682538986206055
1788862321910910000,0.810909912109375,1.1058499813079834,-2.2893710136413574,1.4995250701904297
1788862321920952000,0.8209521484375,0.9638022780418396,-2.06113338470459,1.3935669660568237
1788862321930993200,0.8309931640625,1.2820686101913452,-1.339096188545227,0.9062904715538025
1788862321941035000,0.841034912109375,1.4007092714309692,-0.7352891564369202,0.3118508458137512
1788862321951076000,0.851076171875,1.28057861328125,-0.344258576631546,-0.11099495738744736
1788862321961118000,0.861117919921875,1.0148649215698242,0.09274858236312866,-0.3463829755783081
1788862321971159000,0.871158935546875,0.8294833302497864,0.4606965184211731,-0.3852289021015167
1788862321981201000,0.881200927734375,0.6388633251190186,0.5811395645141602,-0.3732260465621948
1788862321991242000,0.891241943359375,0.4697136878967285,0.5209177732467651,-0.5010870695114136
1788862322001283800,0.901283935546875,0.2120928168296814,0.424771785736084,-0.6738945245742798
1788862322011325000,0.911324951171875,-0.1320863962173462,1.1889472007751465,0.057142648845911026
1788862322021367000,0.921366943359375,-0.13369068503379822,1.8229154348373413,0.7714967131614685
1788862322031408000,0.931408203125,0.06419842690229416,1.870615005493164,0.49391090869903564
1788862322041450000,0.941449951171875,0.02851393260061741,1.0027166604995728,-0.13188692927360535
1788862322051491000,0.951490966796875,-0.1515303999185562,0.5052879452705383,-0.3162543773651123
1788862322061533000,0.961532958984375,-0.005408347584307194,0.5900813937187195,-0.42387083172798157
1788862322071574000,0.971573974609375,0.21444785594940186,0.9150397777557373,-0.5595274567604065
1788862322081616000,0.981615966796875,0.3731671869754791,1.1275973320007324,-0.5967816114425659
1788862322091657000,0.991656982421875,0.35853418707847595,0.7324481010437012,-0.5122190713882446
1788862322101698800,1.00169873046875,0.116260826587677,0.14722220599651337,-0.3236164152622223
1788862322111740000,1.011739990234375,-0.008640093728899956,-0.01557949185371399,-0.062377624213695526
1788862322121782000,1.021781982421875,-0.11797350645065308,0.0745898187160492,0.05421503633260727
1788862322131823000,1.031822998046875,-0.3060552775859833,0.40485668182373047,0.041742388159036636
1788862322141865000,1.041864990234375,-0.40780505537986755,0.9548284411430359,0.07644391059875488
1788862322151906000,1.051906005859375,-0.5413503646850586,1.1198368072509766,0.15907007455825806
1788862322161948000,1.061947998046875,-0.8122012615203857,0.9101797938346863,0.15906208753585815
1788862322171989000,1.071989013671875,-1.1297025680541992,0.749573826789856,0.06713509559631348
1788862322182030800,1.08203076171875,-1.5196127891540527,0.7106024622917175,-0.031082818284630775
1788862322192072000,1.092072021484375,-1.6926289796829224,0.8093751072883606,-0.18106167018413544
1788862322202113800,1.10211376953125,-1.8338111639022827,1.1375242471694946,-0.12196212261915207
1788862322212155000,1.11215478515625,-2.044559955596924,1.2232791185379028,-0.1399429887533188
1788862322222197000,1.122197021484375,-1.9159526824951172,1.0550227165222168,-0.20438669621944427
1788862322232238000,1.132238037109375,-1.7121944427490234,1.330942153930664,-0.1708553582429886
1788862322242280000,1.142280029296875,-1.7018616199493408,1.8164023160934448,-0.46363475918769836
1788862322252321000,1.152321044921875,-1.8253713846206665,1.075849175453186,-0.49226295948028564
1788862322262363000,1.16236279296875,-1.947818636894226,0.32530006766319275,-0.26866793632507324
1788862322272404000,1.172404052734375,-2.1401350498199463,0.4518159329891205,-0.3287573754787445
1788862322282445800,1.18244580078125,-2.050302505493164,0.8855199813842773,-0.746356725692749
1788862322292487000,1.19248681640625,-1.5318795442581177,1.131007432937622,-0.9459433555603027
1788862322302529000,1.202529052734375,-1.0842207670211792,0.9963207840919495,-0.8701937198638916
1788862322312570000,1.212570068359375,-0.7023442983627319,0.8450010418891907,-0.6200078725814819
1788862322322612200,1.2226123046875,-0.6346951723098755,0.595867395401001,-0.3075951039791107
1788862322332653300,1.2326533203125,-0.47834500670433044,0.012633237056434155,-0.16654451191425323
1788862322342695200,1.242695068359375,0.13483823835849762,-0.18246860802173615,-0.031794413924217224
1788862322352736300,1.252736328125,0.5037111043930054,-0.5814256072044373,0.015841813758015633
1788862322362778000,1.262778076171875,1.0259257555007935,-1.0503126382827759,0.192078098654747
1788862322372819200,1.272819091796875,1.3313422203063965,-1.18868887424469,0.31687650084495544
1788862322382861000,1.282861083984375,1.717978596687317,-1.2862932682037354,0.39158880710601807
1788862322392902100,1.292902099609375,2.038543701171875,-1.6108382940292358,0.34812256693840027
1788862322402944000,1.302944091796875,2.741726875305176,-2.764050245285034,-0.09793934971094131
1788862322412985000,1.312985107421875,3.0538129806518555,-1.8203680515289307,0.21331174671649933
1788862322423027200,1.323027099609375,3.7276015281677246,-1.62900710105896,0.22484269738197327
1788862322433068300,1.333068359375,4.261177062988281,-1.9816453456878662,0.04488331824541092
1788862322443110100,1.343110107421875,4.296615123748779,-1.4084793329238892,0.009855027310550213
1788862322453151200,1.353151123046875,4.659590721130371,-1.2905495166778564,0.02695385366678238
1788862322463193000,1.363193115234375,4.654421329498291,-1.8579593896865845,0.09968158602714539
1788862322473234200,1.373234130859375,3.9808132648468018,-2.1725528240203857,0.24404595792293549
1788862322483276000,1.383276123046875,3.3600380420684814,-2.4282636642456055,0.19335241615772247
1788862322493317000,1.393317138671875,2.4483392238616943,-1.5981876850128174,0.29346731305122375
1788862322503359000,1.40335888671875,1.1039178371429443,-1.963863492012024,0.501279354095459
1788862322513400000,1.413400146484375,-0.18213944137096405,-2.6522343158721924,0.889211118221283
1788862322523442200,1.423442138671875,-0.8489606380462646,-3.0879712104797363,0.6597102880477905
1788862322533483300,1.433483154296875,-0.10314182937145233,-2.0888288021087646,0.632999837398529
1788862322543525000,1.443525146484375,1.0284595489501953,-1.7235068082809448,0.71915203332901
1788862322553567200,1.453567138671875,0.815386176109314,-1.4783254861831665,1.128002643585205
1788862322563608000,1.463608154296875,0.18916086852550507,-1.4142255783081055,1.237313151359558
1788862322573649200,1.473649169921875,-1.0401593446731567,-1.2697787284851074,1.2561949491500854
1788862322583691000,1.48369091796875,-1.756614327430725,-0.6834709644317627,1.0459508895874023
1788862322593733000,1.493733154296875,-1.7980399131774902,-0.46193593740463257,0.6329692006111145
1788862322603774000,1.50377392578125,-1.2990479469299316,-0.26575419306755066,0.2986394166946411
1788862322613816300,1.51381640625,-0.6549410820007324,-0.22532713413238525,0.09149902313947678
1788862322623857200,1.523857177734375,-0.06508313119411469,-0.12759897112846375,-0.05493408814072609
1788862322633899300,1.533899169921875,0.43942904472351074,-0.1673375964164734,-0.09111100435256958
1788862322643940000,1.543940185546875,1.1222214698791504,-0.14777188003063202,-0.1532777100801468
1788862322653982200,1.553982177734375,1.7476485967636108,-0.007924235425889492,-0.2458057701587677
1788862322664023000,1.56402294921875,2.0499746799468994,0.02183579094707966,-0.059815663844347
1788862322674065200,1.574065185546875,2.257805347442627,-0.026011360809206963,0.16317027807235718
1788862322684106000,1.58410595703125,2.3716471195220947,-0.40207767486572266,0.14262185990810394
1788862322694148400,1.5941484375,2.2529001235961914,-0.8580590486526489,-0.1345447599887848
1788862322704189200,1.604189208984375,2.093966484069824,-1.2078814506530762,-0.1962089240550995
1788862322714231300,1.614231201171875,1.9903597831726074,-1.8852535486221313,0.19865450263023376
1788862322724272000,1.624272216796875,1.8254605531692505,-2.0745809078216553,0.24217401444911957
1788862322734314200,1.634314208984375,1.6166822910308838,-1.6027209758758545,-0.022897325456142426
1788862322744355300,1.644355224609375,1.335136890411377,-0.7432807683944702,-0.14538249373435974
1788862322754397200,1.654397216796875,0.9254998564720154,-0.171250581741333,-0.17347991466522217
1788862322764438300,1.664438232421875,0.57338947057724,-0.3063623309135437,-0.1498323678970337
1788862322774480100,1.674480224609375,0.4416578412055969,-0.5146178007125854,-0.13521242141723633
1788862322784521200,1.684521240234375,0.3296061158180237,-0.5255032181739807,-0.14519527554512024
1788862322794563300,1.694563232421875,0.1930786520242691,-0.4918038249015808,-0.11617214232683182
1788862322804604400,1.7046044921875,0.10082514584064484,-0.4402911067008972,-0.10055616497993469
1788862322814646300,1.714646240234375,-0.2010556161403656,-0.18462949991226196,-0.092734195291996
1788862322824687400,1.724687255859375,-0.49913763999938965,0.2329413741827011,-0.054847002029418945
1788862322834729200,1.734729248046875,-0.5610473155975342,0.42116641998291016,0.035421907901763916
1788862322844770300,1.744770263671875,-0.7444403171539307,0.3334040641784668,0.15405134856700897
1788862322854812200,1.754812255859375,-0.9999530911445618,-0.07319751381874084,0.32690542936325073
1788862322864853200,1.764853271484375,-1.336095929145813,-0.4384165108203888,0.44648295640945435
1788862322874895000,1.77489501953125,-1.5430645942687988,-0.5546213984489441,0.43943169713020325
1788862322884936200,1.784936279296875,-0.5432137250900269,-1.0615288019180298,0.15303827822208405
1788862322894978300,1.794978271484375,1.0194425582885742,-1.390563726425171,0.1866532415151596
1788862322905019400,1.805019287109375,0.6134945750236511,-1.4747933149337769,0.546996533870697
1788862322915061200,1.815061279296875,1.0176169872283936,-1.3701503276824951,0.6897304654121399
1788862322925102300,1.825102294921875,1.6383795738220215,-1.0300164222717285,0.37364310026168823
1788862322935144200,1.835144287109375,1.2842282056808472,-1.059880018234253,0.1171436682343483
1788862322945185300,1.845185302734375,1.0917881727218628,-1.2756054401397705,0.08763530850410461
1788862322955227100,1.85522705078125,0.9448149800300598,-1.5127573013305664,0.027246268466114998
1788862322965268200,1.865268310546875,0.7410450577735901,-1.8891788721084595,-0.07097750157117844
1788862322975310000,1.87531005859375,0.6750668287277222,-2.2116687297821045,-0.019534286111593246
1788862322985351200,1.88535107421875,0.6341828107833862,-2.3446879386901855,0.14614176750183105
1788862322995393300,1.895393310546875,0.5558062195777893,-2.0349650382995605,0.15961496531963348
1788862323005434400,1.905434326171875,0.4443305730819702,-1.6478972434997559,0.03568395972251892
1788862323015476200,1.915476318359375,0.3563740849494934,-1.3434723615646362,-0.12390569597482681
1788862323025517300,1.925517333984375,0.32118120789527893,-1.1087695360183716,-0.1501048058271408
1788862323035559200,1.93555908203125,0.30481743812561035,-0.9931955337524414,-0.07832596451044083
1788862323045600300,1.945600341796875,0.34650760889053345,-1.0829638242721558,-0.03190600126981735
1788862323055642000,1.95564208984375,0.41994720697402954,-1.2628939151763916,0.03744564205408096
1788862323065683200,1.96568310546875,0.5895394682884216,-1.2303926944732666,-0.011087805032730103
1788862323075725000,1.97572509765625,0.7472984194755554,-1.118283987045288,-0.023076556622982025
1788862323085766100,1.98576611328125,0.823906660079956,-1.288936972618103,0.05686088651418686
1788862323095808300,1.995808349609375,0.7364466190338135,-1.3897615671157837,0.14259496331214905
1788862323105849300,2.005849365234375,0.6236822009086609,-1.25083327293396,0.20903150737285614
1788862323115891200,2.01589111328125,0.6375463604927063,-1.1231708526611328,0.18162278831005096
1788862323125933000,2.02593310546875,0.6733118295669556,-1.0950489044189453,0.10747985541820526
1788862323135974100,2.03597412109375,0.7249595522880554,-1.1256239414215088,0.06862619519233704
1788862323146016000,2.04601611328125,0.7165660858154297,-1.1366944313049316,0.08940710872411728
1788862323156057000,2.05605712890625,0.6995394229888916,-1.0206623077392578,0.1127084419131279
1788862323166099000,2.066098876953125,0.6294234991073608,-0.8889615535736084,0.08597695827484131
1788862323176140000,2.07614013671875,0.5952388644218445,-0.7026353478431702,-0.00788615271449089
1788862323186182100,2.08618212890625,0.5692937970161438,-0.4804196059703827,-0.12955214083194733
1788862323196223200,2.09622314453125,0.4665490686893463,-0.17624133825302124,-0.23624636232852936
1788862323206265000,2.10626513671875,0.40176233649253845,0.11588399112224579,-0.3312714099884033
1788862323216306200,2.11630615234375,0.3723306953907013,-0.09678486734628677,-0.29728493094444275
1788862323226348300,2.126348388671875,0.3873932659626007,0.1729201078414917,-0.2642172574996948
1788862323236389000,2.13638916015625,0.3192341923713684,0.3353915810585022,-0.24936135113239288
1788862323246431200,2.14643115234375,0.204070582985878,0.3008407950401306,-0.16099047660827637
1788862323256472000,2.15647216796875,0.0878230631351471,0.25719210505485535,-0.06843738257884979
1788862323266514200,2.16651416015625,-0.014561898075044155,0.1871808022260666,0.0070919981226325035
1788862323276555300,2.17655517578125,-0.07175381481647491,0.19075743854045868,0.07142943888902664
1788862323286597400,2.186597412109375,-0.0392422117292881,0.36810505390167236,0.0645771250128746
1788862323296638200,2.19663818359375,-0.035718318074941635,0.4290030300617218,0.0038517299108207226
1788862323306680300,2.206680419921875,-0.05344564840197563,0.5034428834915161,-0.06149265542626381
1788862323316721200,2.21672119140625,-0.16004133224487305,0.5663565993309021,-0.0745948776602745
1788862323326763300,2.22676318359375,-0.21863727271556854,0.6521682143211365,-0.10288962721824646
1788862323336804400,2.236804443359375,-0.28250545263290405,0.7990255355834961,-0.1419728547334671
1788862323346846500,2.246846435546875,-0.32676348090171814,0.8157267570495605,-0.1920117884874344
1788862323356887300,2.25688720703125,-0.43678104877471924,0.8394387364387512,-0.22018855810165405
1788862323366929400,2.266929443359375,-0.5261663198471069,1.0308481454849243,-0.22413429617881775
1788862323376970500,2.276970458984375,-0.6019636392593384,1.3105977773666382,-0.24822045862674713
1788862323387012600,2.2870126953125,-0.713928759098053,1.4902561902999878,-0.21401375532150269
1788862323397053400,2.297053466796875,-0.7596656084060669,1.5557688474655151,-0.12597337365150452
1788862323407095600,2.307095458984375,-0.8279576301574707,1.4956786632537842,0.04330939054489136
1788862323417136400,2.317136474609375,-0.8075591325759888,1.5443493127822876,0.3859575390815735
1788862323427178500,2.327178466796875,-0.5944676399230957,1.2870583534240723,0.5559529662132263
1788862323437219300,2.33721923828125,-0.3347119390964508,0.3586159348487854,0.4003061354160309
1788862323447261400,2.347261474609375,-0.13096493482589722,-0.9143286943435669,0.2732381820678711
1788862323457302300,2.35730224609375,-0.04002251848578453,-1.8573391437530518,0.25470179319381714
1788862323467344600,2.3673447265625,-0.04350220412015915,-1.2531241178512573,-0.11528690904378891
1788862323477385500,2.377385498046875,-0.04723941907286644,-0.8430579900741577,-0.2298225462436676
1788862323487427600,2.387427490234375,-0.039498940110206604,-1.0380111932754517,0.019244002178311348
1788862323497468400,2.397468505859375,-0.07435226440429688,-1.041261911392212,0.23252485692501068
1788862323507510500,2.407510498046875,-0.04206276312470436,-0.4450799822807312,0.1447819471359253
1788862323517551400,2.41755126953125,-0.08789070695638657,0.0021877868566662073,0.02165362983942032
1788862323527593500,2.427593505859375,-0.15335999429225922,0.0721876472234726,0.017838384956121445
1788862323537634300,2.43763427734375,-0.11277688294649124,-0.031683359295129776,0.08372978121042252
1788862323547676400,2.447676513671875,-0.08477001637220383,-0.22206635773181915,0.18590915203094482
1788862323557718500,2.457718505859375,-0.09495580941438675,-0.27802762389183044,0.24520283937454224
1788862323567759600,2.467759521484375,-0.0526626780629158,-0.09907332062721252,0.1558694839477539
1788862323577801500,2.477801513671875,-0.05970540642738342,0.03706161305308342,0.020107930526137352
1788862323587842600,2.487842529296875,-0.06173420324921608,0.07604576647281647,-0.08921509981155396
1788862323597884400,2.497884521484375,-0.07219935953617096,0.1072596088051796,-0.17694973945617676
1788862323607925500,2.507925537109375,-0.12285827845335007,0.09827037900686264,-0.1780557483434677
1788862323617967400,2.51796728515625,-0.20555102825164795,-0.02792510762810707,-0.017345434054732323
1788862323628008400,2.528008544921875,-0.22451166808605194,-0.12844373285770416,0.18550941348075867
1788862323638050300,2.53805029296875,-0.21335062384605408,-0.12297945469617844,0.27696529030799866
1788862323648091600,2.548091552734375,-0.21534773707389832,-0.042440399527549744,0.25558143854141235
1788862323658133500,2.558133544921875,-0.18279963731765747,0.008182828314602375,0.1743081510066986
1788862323668174600,2.568174560546875,-0.20346151292324066,-0.012885171920061111,0.08356679975986481
1788862323678216400,2.578216552734375,-0.28190305829048157,-0.28066176176071167,0.08788032084703445
1788862323688257500,2.588257568359375,-0.23980167508125305,-0.7741473913192749,0.12999768555164337
1788862323698299400,2.59829931640625,-0.17225591838359833,-1.2148430347442627,0.1392601579427719
1788862323708340500,2.608340576171875,-0.16551385819911957,-1.3728177547454834,0.08407839387655258
1788862323718382300,2.61838232421875,-0.22203972935676575,-1.1488338708877563,0.03746801242232323
1788862323728423400,2.62842333984375,-0.3260670602321625,-0.5983476042747498,0.057144779711961746
1788862323738465500,2.638465576171875,-0.4154965281486511,-0.028747491538524628,0.10749316960573196
1788862323748506600,2.648506591796875,-0.45153602957725525,0.2793126106262207,0.14361095428466797
1788862323758548500,2.658548583984375,-0.44445574283599854,0.35312265157699585,0.14972078800201416
1788862323768589600,2.668589599609375,-0.40424254536628723,0.28106096386909485,0.13663055002689362
1788862323778631400,2.67863134765625,-0.3452599346637726,0.15425854921340942,0.12800297141075134
1788862323788672500,2.688672607421875,-0.26796141266822815,0.07052742689847946,0.13390560448169708
1788862323798714400,2.69871435546875,-0.21952517330646515,-0.017836254090070724,0.16015957295894623
1788862323808755500,2.70875537109375,-0.18716377019882202,-0.15245531499385834,0.16409066319465637
1788862323818797300,2.71879736328125,-0.1349674016237259,-0.25061091780662537,0.119912289083004
1788862323828838400,2.72883837890625,-0.09321676194667816,-0.2508609890937805,0.04466414079070091
1788862323838880500,2.738880615234375,-0.0734393298625946,-0.17330893874168396,-0.005057076457887888
1788862323848921600,2.748921630859375,-0.07256421446800232,-0.07472670078277588,-0.014451643452048302
1788862323858963500,2.75896337890625,-0.0734316036105156,0.015529158525168896,-0.004326305352151394
1788862323869004500,2.769004638671875,-0.07428541779518127,0.06950610876083374,-0.0012306467397138476
1788862323879046400,2.77904638671875,-0.07661594450473785,0.10427819937467575,-0.0019944412633776665
1788862323889087500,2.78908740234375,-0.08460649847984314,0.10871609300374985,0.005874933209270239
1788862323899129300,2.79912939453125,-0.11994664371013641,0.047871917486190796,0.02226296067237854
1788862323909170400,2.80917041015625,-0.1438618302345276,-0.06341838836669922,0.052570801228284836
1788862323919212300,2.81921240234375,-0.13810354471206665,-0.19667577743530273,0.06674760580062866
1788862323929253400,2.82925341796875,-0.11966913938522339,-0.2781807482242584,0.06863126158714294
1788862323939295500,2.83929541015625,-0.09781257808208466,-0.23717926442623138,0.0656445249915123
1788862323949336600,2.849336669921875,-0.0725594237446785,-0.1060931459069252,0.07410858571529388
1788862323959378400,2.85937841796875,-0.05314817279577255,0.012418586760759354,0.08325280994176865
1788862323969419500,2.86941943359375,-0.016505474224686623,0.07815472036600113,0.05841990187764168
1788862323979461400,2.87946142578125,0.024333301931619644,0.07760238647460938,-0.0024495755787938833
1788862323989502500,2.88950244140625,0.035892754793167114,-0.005279184319078922,-0.057197242975234985
1788862323999544300,2.89954443359375,0.03464692831039429,-0.07213784009218216,-0.05197052285075188
1788862324009585400,2.90958544921875,0.03747280687093735,-0.09164097160100937,0.005902363918721676
1788862324019627300,2.919627197265625,0.02858477272093296,-0.07932838052511215,0.053700514137744904
1788862324029668400,2.92966845703125,0.005889314226806164,-0.02159477397799492,0.05961485952138901
1788862324039710500,2.93971044921875,-0.006695719435811043,-0.023780696094036102,0.06197069212794304
1788862324049752600,2.949752685546875,-0.015078552067279816,-0.08611757308244705,0.0855572447180748
1788862324059793400,2.95979345703125,-0.02311171032488346,-0.13056279718875885,0.11433988809585571
1788862324069835500,2.96983544921875,-0.04200976714491844,-0.12536270916461945,0.11523577570915222
1788862324079876400,2.97987646484375,-0.037165746092796326,-0.052201952785253525,0.09228625148534775
1788862324089918500,2.98991845703125,-0.008349009789526463,0.034204043447971344,0.06776892393827438
1788862324099959300,2.999959228515625,0.031150462105870247,0.07707081735134125,0.06761766225099564
1788862324110001400,3.01000146484375,0.07739998400211334,0.07195860892534256,0.0652538388967514
1788862324120042200,3.020042236328125,0.11082185804843903,0.04201189801096916,0.07256128638982773
1788862324130084600,3.030084716796875,0.13529790937900543,0.03599341958761215,0.08938367664813995
1788862324140125400,3.04012548828125,0.14171212911605835,0.06576383113861084,0.10301559418439865
1788862324150167600,3.05016748046875,0.16302646696567535,0.11802144348621368,0.09918330609798431
1788862324160208400,3.06020849609375,0.17486049234867096,0.13568033277988434,0.08622569590806961
1788862324170250500,3.07025048828125,0.17167988419532776,0.10065443813800812,0.062312908470630646
1788862324180291300,3.080291259765625,0.20370545983314514,0.1475393921136856,0.02749261073768139
1788862324190333400,3.09033349609375,0.16123336553573608,0.014505972154438496,0.022598519921302795
1788862324200374300,3.100374267578125,0.10784390568733215,0.03816656023263931,0.012630308046936989
1788862324210416400,3.11041650390625,0.09452863782644272,0.02701670303940773,0.05988463759422302
1788862324220457500,3.12045751953125,0.057191118597984314,-0.16073881089687347,0.14178989827632904
1788862324230499600,3.13049951171875,0.007167365401983261,-0.2457282692193985,0.18831078708171844
1788862324240540400,3.14054052734375,-0.03453507274389267,-0.09714972227811813,0.21844951808452606
1788862324250582500,3.15058251953125,-0.055391088128089905,0.09232699871063232,0.2574898600578308
1788862324260623400,3.160623291015625,-0.07931160181760788,0.193558007478714,0.3454554080963135
1788862324270665500,3.17066552734375,-0.07520340383052826,0.27980953454971313,0.42538273334503174
1788862324280706300,3.180706298828125,-0.08025862276554108,0.223348930478096,0.4512382745742798
1788862324290748400,3.19074853515625,-0.0800735279917717,0.06390654295682907,0.4082351624965668
1788862324300789200,3.200789306640625,-0.07892091572284698,-0.07691662013530731,0.31750980019569397
1788862324310831600,3.21083154296875,-0.053033389151096344,-0.2868972718715668,0.27056199312210083
1788862324320872200,3.2208720703125,-0.049369413405656815,-0.4950195848941803,0.2592259645462036
1788862324330914000,3.2309140625,-0.0315864235162735,-0.5747783184051514,0.2675648629665375
1788862324340955100,3.240955078125,-0.05660921707749367,-0.5838735699653625,0.22922919690608978
1788862324350997000,3.2509970703125,-0.059725116938352585,-0.428090363740921,0.23651160299777985
1788862324361038000,3.2610380859375,0.08201923221349716,-0.2533736824989319,0.23762640357017517
1788862324371080000,3.271079833984375,0.06877746433019638,-0.17764243483543396,0.21052901446819305
1788862324381121000,3.28112109375,-0.07126405835151672,-0.009069927968084812,0.13659726083278656
1788862324391163000,3.291162841796875,-0.0728108212351799,0.2518881559371948,-0.024565530940890312
1788862324401204000,3.301203857421875,-0.013886786997318268,0.39685681462287903,-0.1665778011083603
1788862324411246000,3.31124609375,-0.03285994380712509,0.4482627511024475,-0.20154856145381927
1788862324421287200,3.321287109375,-0.006046973634511232,0.5183680653572083,-0.22459982335567474
1788862324431329000,3.3313291015625,0.057139985263347626,0.49712562561035156,-0.2276185154914856
1788862324441370000,3.3413701171875,0.04260977730154991,0.257479727268219,-0.1707717478275299
1788862324451412000,3.351411865234375,0.07910360395908356,-0.007617439609020948,-0.09577179700136185
1788862324461453000,3.361453125,0.20607566833496094,-0.11166607588529587,-0.05245788022875786
1788862324471495000,3.371494873046875,0.32463881373405457,-0.01432461105287075,-0.00012064119800925255
1788862324481536000,3.381535888671875,0.31457656621932983,0.17623920738697052,0.08235559612512589
1788862324491577900,3.391577880859375,0.18351496756076813,0.2970186173915863,0.18089255690574646
1788862324501619000,3.401618896484375,0.0663372129201889,0.22013743221759796,0.32593148946762085
1788862324511661000,3.4116611328125,0.006918360013514757,0.08267544209957123,0.43456315994262695
1788862324521702100,3.4217021484375,-0.03419019281864166,-0.022777751088142395,0.46762630343437195
1788862324531744000,3.431743896484375,-0.07832995802164078,-0.1519242823123932,0.490442156791687
1788862324541785000,3.44178515625,-0.11110708117485046,-0.28484052419662476,0.541332483291626
1788862324551827000,3.451826904296875,-0.12449638545513153,-0.421365886926651,0.6114607453346252
1788862324561868000,3.461867919921875,-0.11993306130170822,-0.5224365592002869,0.6751565933227539
1788862324571910000,3.471909912109375,-0.11445387452840805,-0.5895228981971741,0.6898458003997803
1788862324581951000,3.481950927734375,-0.1199362576007843,-0.5977603793144226,0.6286373138427734
1788862324591993000,3.4919931640625,-0.12729856371879578,-0.5505808591842651,0.5233569741249084
1788862324602034200,3.5020341796875,-0.10795842111110687,-0.4744322896003723,0.4234772324562073
1788862324612076000,3.512075927734375,-0.06547381728887558,-0.40564391016960144,0.3344655930995941
1788862324622117000,3.5221171875,-0.019587550312280655,-0.3697777986526489,0.24791686236858368
1788862324632159000,3.532158935546875,-0.003694869577884674,-0.3197513818740845,0.15818564593791962
1788862324642200000,3.542199951171875,-0.02293461002409458,-0.26672837138175964,0.06736572086811066
1788862324652242000,3.552241943359375,-0.06563280522823334,-0.27749258279800415,-0.017483651638031006
1788862324662283000,3.562282958984375,-0.08971204608678818,-0.43655067682266235,-0.11355932056903839
1788862324672324900,3.572324951171875,-0.09461412578821182,-0.7002614140510559,-0.2458081692457199
1788862324682366000,3.582365966796875,-0.08689255267381668,-1.0184398889541626,-0.48221805691719055
1788862324692408000,3.592407958984375,-0.04439862444996834,-1.2509973049163818,-0.8143680095672607
1788862324702449200,3.60244921875,0.021527929231524467,-1.1635010242462158,-1.1590710878372192
1788862324712491000,3.612490966796875,0.09933324158191681,-0.7384386658668518,-1.4487931728363037
1788862324722532000,3.622531982421875,0.16630135476589203,-0.19998688995838165,-1.5543789863586426
1788862324732574000,3.632573974609375,0.1642984002828598,0.23559068143367767,-1.5003509521484375
1788862324742615000,3.642614990234375,0.16867557168006897,0.42795026302337646,-1.4706974029541016
1788862324752657000,3.652656982421875,0.24459536373615265,0.43167924880981445,-1.5745047330856323
1788862324762698000,3.662697998046875,0.3064741790294647,0.46348297595977783,-1.76759934425354
1788862324772739800,3.67273974609375,0.32393839955329895,0.4673703908920288,-1.895518183708191
1788862324782781000,3.682781005859375,0.31574705243110657,0.35708996653556824,-1.8668767213821411
1788862324792823000,3.692822998046875,0.30450156331062317,0.2223169505596161,-1.824601411819458
1788862324802864000,3.702864013671875,0.2739114463329315,0.1675756871700287,-1.8983105421066284
1788862324812906000,3.712906005859375,0.2008737176656723,0.1990627646446228,-2.0505423545837402
1788862324822947000,3.722947021484375,0.0895133689045906,0.28598275780677795,-2.2056925296783447
1788862324832989000,3.732989013671875,0.01170432660728693,0.3955686390399933,-2.273547887802124
1788862324843030000,3.743030029296875,0.02593838982284069,0.46937096118927,-2.2495596408843994
1788862324853072000,3.75307177734375,0.0695527121424675,0.5197523832321167,-2.1966919898986816
1788862324863113000,3.763113037109375,0.10150691866874695,0.6170282959938049,-2.1860320568084717
1788862324873154800,3.77315478515625,0.1298847645521164,0.6874774694442749,-2.2017159461975098
1788862324883196000,3.78319580078125,0.19306187331676483,0.6140123009681702,-2.2115705013275146
1788862324893238000,3.793238037109375,0.2772713005542755,0.37996411323547363,-2.1961355209350586
1788862324903279000,3.803279052734375,0.3325183093547821,0.05806516855955124,-2.1939289569854736
1788862324913321000,3.813321044921875,0.3459499478340149,-0.31522291898727417,-2.2233622074127197
1788862324923362000,3.823362060546875,0.3604862689971924,-0.5949373841285706,-2.280359983444214
1788862324933404000,3.83340380859375,0.35310932993888855,-0.7065573930740356,-2.299525260925293
1788862324943445000,3.843445068359375,0.35573574900627136,-0.6695029735565186,-2.2241013050079346
1788862324953486800,3.85348681640625,0.35270771384239197,-0.6034949421882629,-2.08266019821167
1788862324963528000,3.86352783203125,0.31540241837501526,-0.5572736263275146,-2.00451922416687
1788862324973569800,3.87356982421875,0.2871241867542267,-0.5122776627540588,-2.0224177837371826
1788862324983611000,3.88361083984375,0.2706128656864166,-0.5583754181861877,-2.0397913455963135
1788862324993653000,3.893653076171875,0.2393350899219513,-0.7476281523704529,-2.0221593379974365
1788862325003694000,3.903694091796875,0.17989839613437653,-1.0731079578399658,-1.9762604236602783
1788862325013736000,3.91373583984375,0.13611336052417755,-1.393772006034851,-1.935499668121338
1788862325023777000,3.923777099609375,0.10105178505182266,-1.5295746326446533,-1.9365562200546265
1788862325033819000,3.93381884765625,-0.011547999456524849,-1.5772826671600342,-1.9486205577850342
1788862325043860000,3.94385986328125,-0.10144992172718048,-1.5492897033691406,-1.945352554321289
1788862325053901800,3.95390185546875,-0.14963822066783905,-1.5181019306182861,-1.9586611986160278
1788862325063943000,3.96394287109375,-0.16160914301872253,-1.4825260639190674,-1.9541034698486328
1788862325073984800,3.97398486328125,-0.16341955959796906,-1.4483423233032227,-1.9060392379760742
1788862325084025900,3.98402587890625,-0.1452629268169403,-1.3625965118408203,-1.8855478763580322
1788862325094068000,3.99406787109375,-0.0780671015381813,-1.292603611946106,-1.9420982599258423
1788862325104109000,4.004109130859375,0.018544388934969902,-1.2265651226043701,-1.9364131689071655
1788862325114151000,4.01415087890625,0.0878177359700203,-1.1210720539093018,-1.9028208255767822
1788862325124192000,4.02419189453125,0.14043541252613068,-1.0220533609390259,-1.8484899997711182
1788862325134233900,4.03423388671875,0.18332988023757935,-1.0056655406951904,-1.7721678018569946
1788862325144275000,4.04427490234375,0.21233968436717987,-1.0019344091415405,-1.8510538339614868
1788862325154316800,4.05431689453125,0.24158599972724915,-1.072435736656189,-1.883170485496521
1788862325164358000,4.06435791015625,0.2805749475955963,-1.105752944946289,-1.853657603263855
1788862325174400000,4.07439990234375,0.2645890414714813,-1.0305095911026,-1.768117070198059
1788862325184441000,4.084441162109375,0.22445574402809143,-0.8621440529823303,-1.6303592920303345
1788862325194483000,4.09448291015625,0.23613689839839935,-0.5934449434280396,-1.611504316329956
1788862325204524000,4.10452392578125,0.24752670526504517,-0.5831513404846191,-1.6044893264770508
1788862325214566000,4.11456591796875,0.2656433880329132,-0.6782740950584412,-1.4755390882492065
1788862325224607000,4.12460693359375,0.28590551018714905,-0.552675187587738,-1.3392338752746582
1788862325234648800,4.13464892578125,0.2928560972213745,-0.4567750096321106,-1.1539660692214966
1788862325244690000,4.14468994140625,0.2938896715641022,-0.32660821080207825,-0.9689568281173706
1788862325254731800,4.154731689453125,0.301972359418869,-0.22410047054290771,-0.8112313747406006
1788862325264772900,4.16477294921875,0.30151352286338806,-0.16329677402973175,-0.6987625956535339
1788862325274815000,4.17481494140625,0.3067639172077179,-0.1606045961380005,-0.5880818963050842
1788862325284856000,4.18485595703125,0.3074986934661865,-0.19005835056304932,-0.483161598443985
1788862325294898000,4.19489794921875,0.30974453687667847,-0.2515329122543335,-0.4412420988082886
1788862325304939000,4.20493896484375,0.3199969232082367,-0.3397469222545624,-0.4843461811542511
1788862325314980900,4.21498095703125,0.2940710484981537,-0.48111337423324585,-0.4939253032207489
1788862325325022000,4.22502197265625,0.2101479023694992,-0.38172340393066406,-0.35208773612976074
1788862325335063800,4.235063720703125,0.08257796615362167,-0.17531482875347137,-0.12562450766563416
1788862325345105000,4.24510498046875,-0.027362648397684097,0.012371182441711426,0.059064652770757675
1788862325355147000,4.25514697265625,-0.07251095026731491,-0.018061291426420212,0.14371588826179504
1788862325365187800,4.265187744140625,-0.05176039785146713,-0.12486577033996582,0.0614234134554863
1788862325375230000,4.27522998046875,0.04356292262673378,-0.3832259476184845,-0.16086478531360626
1788862325385270800,4.285270751953125,0.19536736607551575,-0.625160813331604,-0.40284040570259094
1788862325395313200,4.295313232421875,0.3111568093299866,-0.6661961078643799,-0.6297624707221985
1788862325405354000,4.30535400390625,0.3835732340812683,-0.5125916600227356,-0.8731735348701477
1788862325415396000,4.31539599609375,0.360137939453125,-0.36941319704055786,-1.033785104751587
1788862325425437000,4.32543701171875,0.25304052233695984,-0.2350146472454071,-1.161242127418518
1788862325435479000,4.33547900390625,0.1408655047416687,-0.044440433382987976,-1.293721318244934
1788862325445520000,4.345519775390625,0.08391274511814117,0.0954010859131813,-1.3276822566986084
1788862325455562000,4.35556201171875,0.031860727816820145,0.10516902804374695,-1.194717526435852
1788862325465602800,4.365602783203125,0.0024117587599903345,0.1526968628168106,-0.9380044937133789
1788862325475645000,4.37564501953125,0.042500853538513184,0.20490041375160217,-0.9220372438430786
1788862325485685800,4.385685791015625,0.12113255262374878,-0.10041528940200806,-0.8835042119026184
1788862325495728000,4.39572802734375,0.1909307986497879,-0.33195796608924866,-0.7197608351707458
1788862325505769000,4.40576904296875,0.15586230158805847,-0.3141603171825409,-0.5307807922363281
1788862325515811000,4.41581103515625,0.05943722650408745,-0.18164382874965668,-0.4058535099029541
1788862325525852000,4.425851806640625,-0.045038580894470215,-0.14869919419288635,-0.3326714336872101
1788862325535894000,4.43589404296875,-0.13195909559726715,-0.1433025598526001,-0.24162514507770538
1788862325545934800,4.445934814453125,-0.20515874028205872,-0.05094786733388901,-0.15814515948295593
1788862325555977000,4.45597705078125,-0.2941341698169708,0.05090152844786644,-0.045946985483169556
1788862325566017800,4.466017822265625,-0.3584638833999634,0.11438489705324173,0.10952755808830261
1788862325576060000,4.476059814453125,-0.3489619791507721,0.08938394486904144,0.16560201346874237
1788862325586100700,4.486100830078125,-0.2672998905181885,0.003064765827730298,0.15649746358394623
1788862325596143000,4.49614306640625,-0.15270619094371796,-0.01020017359405756,0.16519534587860107
1788862325606184000,4.506183837890625,-0.11586721241474152,0.13071513175964355,0.26732730865478516
1788862325616226000,4.51622607421875,-0.13800634443759918,0.27307599782943726,0.32885032892227173
1788862325626267000,4.526266845703125,-0.1436261385679245,0.3687162399291992,0.2654021084308624
1788862325636309000,4.53630908203125,-0.10754963010549545,0.4914783835411072,0.12317066639661789
1788862325646349800,4.546349853515625,-0.054244063794612885,0.4948590099811554,-0.06641870737075806
1788862325656392000,4.556391845703125,0.0031249532476067543,0.4078865647315979,-0.176780104637146
1788862325666432800,4.566432861328125,0.04850868135690689,0.3077695369720459,-0.19987742602825165
1788862325676475100,4.57647509765625,0.08674447983503342,0.22314466536045074,-0.22553245723247528
1788862325686516000,4.586515869140625,0.12187450379133224,0.16825638711452484,-0.28217098116874695
1788862325696558000,4.59655810546875,0.11986648291349411,0.19783905148506165,-0.3576212525367737
1788862325706599000,4.606598876953125,0.0905757024884224,0.26285025477409363,-0.41800495982170105
1788862325716641000,4.61664111328125,0.024957813322544098,0.1769803762435913,-0.4154938757419586
1788862325726681900,4.626681884765625,-0.03718305379152298,0.004011785611510277,-0.3363652229309082
1788862325736724000,4.636723876953125,-0.09730072319507599,-0.045831404626369476,-0.31098076701164246
1788862325746764800,4.646764892578125,-0.17392998933792114,-0.04171469062566757,-0.26273468136787415
1788862325756807000,4.656806884765625,-0.23930498957633972,0.007442203816026449,-0.2373446375131607
1788862325766847700,4.66684765625,-0.2971203625202179,0.027719246223568916,-0.266593873500824
1788862325776890000,4.67689013671875,-0.35362064838409424,0.06148999184370041,-0.3448899984359741
1788862325786931000,4.686930908203125,-0.33490049839019775,0.2505944073200226,-0.37056395411491394
1788862325796973000,4.69697314453125,-0.29463642835617065,0.32858747243881226,-0.3321257531642914
1788862325807014000,4.707013916015625,-0.25886112451553345,0.4769305884838104,-0.3283941149711609
1788862325817056000,4.717055908203125,-0.25252866744995117,0.7070152163505554,-0.42987361550331116
1788862325827096800,4.727096923828125,-0.2390381544828415,0.8477731347084045,-0.5199853777885437
1788862325837139000,4.737138916015625,-0.2862251102924347,0.7650060653686523,-0.41363391280174255
1788862325847179800,4.7471796875,-0.33624404668807983,0.7476693987846375,-0.25635242462158203
1788862325857222000,4.757221923828125,-0.31880542635917664,0.7350218296051025,-0.21361374855041504
1788862325867262700,4.7672626953125,-0.2097471058368683,0.6916828751564026,-0.3530462086200714
1788862325877305000,4.77730517578125,-0.11467065662145615,0.6700076460838318,-0.45005372166633606
1788862325887346000,4.787345947265625,-0.09425273537635803,0.6114780306816101,-0.45690175890922546
1788862325897388000,4.797387939453125,-0.12481223791837692,0.6038145422935486,-0.3910399377346039
1788862325907428900,4.807428955078125,-0.13952887058258057,0.7917508482933044,-0.2325243204832077
1788862325917471000,4.817470947265625,-0.09234404563903809,0.9899947047233582,-0.10225366801023483
1788862325927511800,4.82751171875,-0.03502456098794937,0.9517341256141663,-0.12824079394340515
1788862325937554000,4.837553955078125,-0.049249038100242615,0.7933719158172607,-0.17374329268932343
1788862325947595000,4.847594970703125,-0.10807320475578308,0.650933027267456,-0.15973587334156036
1788862325957636900,4.857636962890625,-0.12955400347709656,0.5175555348396301,-0.10815656185150146
1788862325967678000,4.867677978515625,-0.1176757663488388,0.5088645815849304,0.018857844173908234
1788862325977720000,4.877719970703125,-0.12838727235794067,0.5026623010635376,0.16133083403110504
1788862325987761000,4.887760986328125,-0.15750759840011597,0.4536726772785187,0.22434495389461517
1788862325997802000,4.897802001953125,-0.1689528077840805,0.4664750397205353,0.2972668409347534
1788862326007844000,4.907843994140625,-0.15029016137123108,0.5405228734016418,0.37591904401779175
1788862326017885000,4.917885009765625,-0.13017238676548004,0.607893705368042,0.4062095582485199
1788862326027927000,4.927927001953125,-0.14183409512043,0.615301787853241,0.4397427439689636
1788862326037968000,4.9379677734375,-0.18860933184623718,0.573005199432373,0.5126560926437378
1788862326048010000,4.948010009765625,-0.23489001393318176,0.5338903069496155,0.5551425814628601
1788862326058050800,4.95805078125,-0.2803858518600464,0.5085122585296631,0.5445213913917542
1788862326068093000,4.968093017578125,-0.32058998942375183,0.4047280550003052,0.5183243751525879
1788862326078133800,4.9781337890625,-0.38421958684921265,0.32833153009414673,0.5263703465461731
1788862326088176000,4.988176025390625,-0.43996724486351013,0.23623357713222504,0.533564567565918
1788862326098217000,4.998217041015625,-0.479686439037323,0.18223825097084045,0.5409817695617676
1788862326108259000,5.008259033203125,-0.5053643584251404,0.22499290108680725,0.5685926079750061
1788862326118300000,5.0182998046875,-0.49435168504714966,0.22259792685508728,0.5501736402511597
1788862326128342000,5.028342041015625,-0.46748703718185425,0.16245043277740479,0.5336476564407349
1788862326138382800,5.0383828125,-0.4549672603607178,0.14234410226345062,0.5495949387550354
1788862326148425000,5.048425048828125,-0.44616711139678955,0.12714676558971405,0.5342245101928711
1788862326158465800,5.0584658203125,-0.4415062963962555,0.1064785048365593,0.5321065187454224
1788862326168508200,5.068508056640625,-0.4519954323768616,0.08773358166217804,0.5614209771156311
1788862326178549000,5.078549072265625,-0.45387136936187744,0.07194343209266663,0.5721543431282043
1788862326188591000,5.088591064453125,-0.4438546597957611,0.07210429012775421,0.5704342126846313
1788862326198632000,5.0986318359375,-0.4330401122570038,0.1092953309416771,0.5954204797744751
1788862326208674000,5.108674072265625,-0.4179527759552002,0.1986377239227295,0.6113898754119873
1788862326218715000,5.11871484375,-0.3759259581565857,0.26174506545066833,0.6232015490531921
1788862326228757000,5.128757080078125,-0.30844545364379883,0.2873881161212921,0.641307532787323
1788862326238797800,5.1387978515625,-0.22063890099525452,0.3450583219528198,0.6946448087692261
1788862326248840000,5.14883984375,-0.14086630940437317,0.41556471586227417,0.7279543280601501
1788862326258880800,5.158880859375,-0.06317124515771866,0.4569816589355469,0.7578299045562744
1788862326268923100,5.168923095703125,-0.004785700235515833,0.5012305974960327,0.8228302001953125
1788862326278964000,5.1789638671875,0.022105569019913673,0.536016047000885,0.9214611649513245
1788862326289006000,5.189006103515625,0.028124045580625534,0.5233926177024841,0.9726359844207764
1788862326299047000,5.199046875,0.04078471288084984,0.45293179154396057,0.9626432657241821
1788862326309089000,5.209089111328125,0.05006023868918419,0.36659929156303406,0.9408231377601624
1788862326319129900,5.2191298828125,0.04001559317111969,0.34695395827293396,0.9298011660575867
1788862326329172700,5.2291728515625,0.013175190426409245,0.3492293655872345,0.9146304726600647
1788862326339213800,5.2392138671875,-0.03281227499246597,0.3341186046600342,0.9007236957550049
1788862326349255700,5.249255615234375,-0.07709798216819763,0.32517436146736145,0.8896742463111877
1788862326359296800,5.259296875,-0.10837201029062271,0.30227944254875183,0.8846467137336731
1788862326369338600,5.269338623046875,-0.10330774635076523,0.25672605633735657,0.858646035194397
1788862326379379700,5.279379638671875,-0.0632127895951271,0.14540086686611176,0.8246755003929138
1788862326389421800,5.289421875,-0.025921078398823738,0.07767003029584885,0.8163148164749146
1788862326399462700,5.299462646484375,-0.007380684372037649,0.0951630026102066,0.833024799823761
1788862326409504800,5.3095048828125,-0.005890113301575184,0.16233883798122406,0.8368514776229858
1788862326419545900,5.3195458984375,-0.04412724822759628,0.2894698977470398,0.8530552387237549
1788862326429588000,5.329587890625,-0.14241227507591248,0.40898749232292175,0.8641640543937683
1788862326439628800,5.33962890625,-0.2668412923812866,0.4497208297252655,0.859173059463501
1788862326449671000,5.3496708984375,-0.37307557463645935,0.37988659739494324,0.7971080541610718
1788862326459711700,5.359711669921875,-0.4300006330013275,0.22917592525482178,0.716839075088501
1788862326469753900,5.36975390625,-0.44761452078819275,0.08424617350101471,0.6820725798606873
1788862326479794700,5.379794677734375,-0.4457026422023773,-0.0010996191995218396,0.692920982837677
1788862326489836800,5.3898369140625,-0.4185226857662201,-0.049367282539606094,0.7016569375991821
1788862326499878000,5.3998779296875,-0.37316054105758667,-0.06761792302131653,0.6831106543540955
1788862326509920000,5.409919921875,-0.3509524166584015,-0.01848047412931919,0.6739925146102905
1788862326519960800,5.4199609375,-0.3372906744480133,0.049547046422958374,0.6503391265869141
1788862326530003000,5.4300029296875,-0.3003832697868347,0.07569263130426407,0.6061064600944519
1788862326540043800,5.440043701171875,-0.25624775886535645,0.09988372027873993,0.6066398620605469
1788862326550086000,5.4500859375,-0.25104954838752747,0.1115928366780281,0.6197689771652222
1788862326560126700,5.460126708984375,-0.2730182111263275,0.12363085895776749,0.6071120500564575
1788862326570167800,5.470167724609375,-0.2946619987487793,0.1330411434173584,0.6027441620826721
1788862326580209700,5.480209716796875,-0.3035084903240204,0.11359740048646927,0.6421773433685303
1788862326590250800,5.490250732421875,-0.2841164171695709,0.12299276888370514,0.6660848259925842
1788862326600292900,5.50029296875,-0.2628169655799866,0.13374102115631104,0.632031261920929
1788862326610334000,5.510333984375,-0.2663421928882599,0.11874715983867645,0.5691766142845154
1788862326620375800,5.520375732421875,-0.27782896161079407,0.16231541335582733,0.5507225394248962
1788862326630417000,5.5304169921875,-0.27718687057495117,0.3397229313850403,0.6063128113746643
1788862326640458800,5.540458740234375,-0.24744094908237457,0.4872681796550751,0.6800301671028137
1788862326650499800,5.550499755859375,-0.1980595588684082,0.4619008004665375,0.6949561238288879
1788862326660541700,5.560541748046875,-0.14128975570201874,0.3179398775100708,0.664093017578125
1788862326670582800,5.570582763671875,-0.09078209847211838,0.16776423156261444,0.6262039542198181
1788862326680624600,5.580624755859375,-0.06017652153968811,0.13854962587356567,0.6261166334152222
1788862326690665700,5.590665771484375,-0.045098766684532166,0.26033809781074524,0.6720015406608582
1788862326700707800,5.600707763671875,-0.03620727360248566,0.39999908208847046,0.7000640630722046
1788862326710749000,5.6107490234375,0.004539091605693102,0.4364606738090515,0.6502501964569092
1788862326720790800,5.620790771484375,0.07464361190795898,0.38028421998023987,0.5860176682472229
1788862326730832000,5.630831787109375,0.15404735505580902,0.3414393663406372,0.5819025635719299
1788862326740873700,5.640873779296875,0.22802917659282684,0.37592756748199463,0.6346720457077026
1788862326750914800,5.650914794921875,0.2954537570476532,0.3961830139160156,0.6636338829994202
1788862326760956700,5.660956787109375,0.34695103764533997,0.3345226049423218,0.6425325870513916
1788862326770997800,5.670997802734375,0.36376863718032837,0.25177285075187683,0.6281328797340393
1788862326781039600,5.68103955078125,0.3491382896900177,0.23981259763240814,0.6340448260307312
1788862326791080700,5.691080810546875,0.3194882571697235,0.29515495896339417,0.6456400156021118
1788862326801122800,5.701122802734375,0.3071484863758087,0.3465190529823303,0.6374862194061279
1788862326811164000,5.711163818359375,0.320425420999527,0.31591561436653137,0.6019364595413208
1788862326821205800,5.721205810546875,0.3485923409461975,0.25371667742729187,0.5650263428688049
1788862326831246800,5.731246826171875,0.3639499843120575,0.2847505211830139,0.5520330667495728
1788862326841288700,5.741288818359375,0.3580297827720642,0.3747166097164154,0.5557665824890137
1788862326851329800,5.751329833984375,0.373140811920166,0.42315366864204407,0.5629310011863708
1788862326861371600,5.76137158203125,0.40975236892700195,0.40704765915870667,0.5533718466758728
1788862326871412700,5.771412841796875,0.43693259358406067,0.3853066861629486,0.5143331289291382
1788862326881454600,5.78145458984375,0.44590291380882263,0.37379196286201477,0.4823048710823059
1788862326891495700,5.79149560546875,0.4481032192707062,0.31807997822761536,0.46564945578575134
1788862326901537800,5.801537841796875,0.4489615559577942,0.2818838953971863,0.4569246768951416
1788862326911579000,5.811578857421875,0.45879554748535156,0.3116723895072937,0.45386549830436707
1788862326921620700,5.821620849609375,0.47201627492904663,0.3432910442352295,0.46801406145095825
1788862326931661800,5.831661865234375,0.5024663209915161,0.3546063005924225,0.47132304310798645
1788862326941703700,5.84170361328125,0.5102459192276001,0.35255885124206543,0.4698372781276703
1788862326951744800,5.851744873046875,0.4919838607311249,0.35022300481796265,0.4834761321544647
1788862326961786600,5.86178662109375,0.4525160789489746,0.3042760193347931,0.503815233707428
1788862326971827700,5.87182763671875,0.42940622568130493,0.266371488571167,0.4925311207771301
1788862326981868800,5.881868896484375,0.426491916179657,0.2420419305562973,0.44914689660072327
1788862326991910700,5.89191064453125,0.44059309363365173,0.22998046875,0.3625025749206543
1788862327001951700,5.90195166015625,0.45006436109542847,0.24203446507453918,0.2813616394996643
1788862327011993900,5.911993896484375,0.43553122878074646,0.2280488759279251,0.2301141619682312
1788862327022035000,5.922034912109375,0.41714581847190857,0.18708360195159912,0.2136686146259308
1788862327032076800,5.932076904296875,0.3868774175643921,0.20731909573078156,0.20996814966201782
1788862327042118000,5.942117919921875,0.33924996852874756,0.3036251366138458,0.20265990495681763
1788862327052159700,5.95215966796875,0.3004285395145416,0.3618788421154022,0.18311043083667755
1788862327062200800,5.962200927734375,0.2674697935581207,0.33358755707740784,0.15246064960956573
1788862327072242700,5.97224267578125,0.23266920447349548,0.2734978497028351,0.10755947977304459
1788862327082283800,5.98228369140625,0.2101638913154602,0.24498392641544342,0.05078195407986641
1788862327092326000,5.992325927734375,0.18506838381290436,0.264870822429657,0.012232697568833828
1788862327102367000,6.002366943359375,0.15740907192230225,0.3063892126083374,-0.000565389113035053
1788862327112408800,6.012408935546875,0.12461329996585846,0.3215508759021759,-0.0065596322529017925
1788862327122450000,6.022449951171875,0.07885034382343292,0.300443172454834,-0.00042317630141042173
1788862327132491800,6.03249169921875,0.03801342844963074,0.2808090150356293,0.003919640555977821
1788862327142532900,6.042532958984375,0.0185885988175869,0.2860565185546875,0.011004714295268059
1788862327152574700,6.05257470703125,0.013435647822916508,0.3124769330024719,0.032159000635147095
1788862327162615800,6.06261572265625,0.015912121161818504,0.3199295401573181,0.051182229071855545
1788862327172657700,6.07265771484375,0.0102592958137393,0.2938167154788971,0.056720536202192307
1788862327182698800,6.08269873046875,0.004127100575715303,0.25605013966560364,0.046186670660972595
1788862327192740900,6.092740966796875,-0.007364172954112291,0.21541857719421387,0.018065553158521652
1788862327202782000,6.102781982421875,-0.018677014857530594,0.16468454897403717,-0.019687684252858162
1788862327212823800,6.11282373046875,-0.024709073826670647,0.1269795149564743,-0.05648031830787659
1788862327222865000,6.122864990234375,-0.024355407804250717,0.0887165516614914,-0.09177546203136444
1788862327232906800,6.13290673828125,-0.018130799755454063,0.043909668922424316,-0.1361546367406845
1788862327242947800,6.14294775390625,-0.012915532104671001,-0.0016445019282400608,-0.17827066779136658
1788862327252989700,6.15298974609375,0.006169212516397238,-0.03718278929591179,-0.22919350862503052
1788862327263030800,6.16303076171875,0.028564266860485077,-0.028073446825146675,-0.2735636234283447
1788862327273072600,6.17307275390625,0.05977358669042587,0.0028061727061867714,-0.3024003505706787
1788862327283113700,6.18311376953125,0.08939512819051743,0.043947484344244,-0.2933692932128906
1788862327293155800,6.19315576171875,0.10402919352054596,0.11013049632310867,-0.24077080190181732
1788862327303197000,6.203197021484375,0.09604690223932266,0.2190745621919632,-0.16595089435577393
1788862327313238800,6.21323876953125,0.06203886866569519,0.3230438232421875,-0.12692493200302124
1788862327323278800,6.22327880859375,0.04067898541688919,0.3834347426891327,-0.14231586456298828
1788862327333321200,6.2333212890625,0.05155160650610924,0.3856201171875,-0.17768104374408722
1788862327343362000,6.243362060546875,0.07426677644252777,0.3141810894012451,-0.22430740296840668
1788862327353404200,6.253404052734375,0.12295148521661758,0.20375792682170868,-0.27358493208885193
1788862327363445000,6.263445068359375,0.17083565890789032,0.0822243019938469,-0.3374115824699402
1788862327373486000,6.273486083984375,0.21892063319683075,-0.036136433482170105,-0.36685869097709656
1788862327383528000,6.28352783203125,0.25750797986984253,-0.08995838463306427,-0.33499422669410706
1788862327393569000,6.293569091796875,0.2568051517009735,-0.04201589152216911,-0.26059165596961975
1788862327403611000,6.30361083984375,0.2342790812253952,0.11140908300876617,-0.19645845890045166
1788862327413652000,6.31365185546875,0.20291875302791595,0.3084225356578827,-0.15896327793598175
1788862327423693800,6.32369384765625,0.17113180458545685,0.4554697871208191,-0.13866813480854034
1788862327433735000,6.33373486328125,0.1438991129398346,0.5097543001174927,-0.1266343742609024
1788862327443777000,6.343777099609375,0.1384364366531372,0.49520042538642883,-0.12739230692386627
1788862327453818000,6.353818115234375,0.13437911868095398,0.4221874475479126,-0.13428643345832825
1788862327463860000,6.36385986328125,0.12418639659881592,0.30396386981010437,-0.20108197629451752
1788862327473901000,6.373901123046875,0.12725435197353363,0.1660773903131485,-0.35187309980392456
1788862327483943000,6.38394287109375,0.1862305998802185,-0.013835920952260494,-0.536465048789978
1788862327493984000,6.39398388671875,0.30299076437950134,-0.23862269520759583,-0.6451550126075745
1788862327504025900,6.40402587890625,0.40399566292762756,-0.3512728214263916,-0.6531141400337219
1788862327514067000,6.41406689453125,0.42526713013648987,-0.2945496141910553,-0.5899807214736938
1788862327524108800,6.42410888671875,0.393688440322876,-0.1742735356092453,-0.5216924548149109
1788862327534150000,6.43414990234375,0.3630490303039551,-0.06378084421157837,-0.4860977232456207
1788862327544192000,6.44419189453125,0.3404260277748108,0.0030341395176947117,-0.5001661777496338
1788862327554233000,6.454233154296875,0.3210190236568451,0.036185167729854584,-0.5957246422767639
1788862327564275000,6.46427490234375,0.30333563685417175,0.047811996191740036,-0.7304880619049072
1788862327574316000,6.47431591796875,0.2593649923801422,0.0498940572142601,-0.7668471336364746
1788862327584358000,6.48435791015625,0.22260218858718872,0.0019089538836851716,-0.7960478663444519
1788862327594399000,6.49439892578125,0.25496092438697815,-0.09177865833044052,-0.8554006814956665
1788862327604440800,6.50444091796875,0.33087992668151855,-0.14417608082294464,-0.8528858423233032
1788862327614482000,6.51448193359375,0.35154658555984497,-0.11851705610752106,-0.7755404710769653
1788862327624523800,6.524523681640625,0.2904909551143646,-0.08813758194446564,-0.6821098327636719
1788862327634564900,6.53456494140625,0.20217573642730713,-0.10844631493091583,-0.63279128074646
1788862327644607000,6.54460693359375,0.13397884368896484,-0.1717160940170288,-0.6456615924835205
1788862327654648000,6.55464794921875,0.09823628515005112,-0.2613346576690674,-0.703916072845459
1788862327664690000,6.56468994140625,0.09399866312742233,-0.3645254969596863,-0.7786979079246521
1788862327674731000,6.57473095703125,0.10080117732286453,-0.46126535534858704,-0.8096888661384583
1788862327684772000,6.584772216796875,0.09187372773885727,-0.5046634078025818,-0.7873476147651672
1788862327694814000,6.59481396484375,0.0750124603509903,-0.4694199562072754,-0.7627455592155457
1788862327704855000,6.60485498046875,0.0641464963555336,-0.3855229318141937,-0.7427026033401489
1788862327714897000,6.61489697265625,0.07146193087100983,-0.353710412979126,-0.7315700650215149
1788862327724938000,6.62493798828125,0.08672397583723068,-0.4025232195854187,-0.7401377558708191
1788862327734979800,6.634979736328125,0.09086465835571289,-0.511817216873169,-0.7486500144004822
1788862327745021000,6.64502099609375,0.08465203642845154,-0.6484235525131226,-0.7519869208335876
1788862327755063000,6.65506298828125,0.07424147427082062,-0.7661712169647217,-0.7644351124763489
1788862327765104000,6.665104248046875,0.06464716792106628,-0.8634855151176453,-0.7979475259780884
1788862327775146000,6.67514599609375,0.0677068755030632,-0.9539405703544617,-0.8065641522407532
1788862327785187000,6.68518701171875,0.0683678686618805,-0.9990673065185547,-0.8040962219238281
1788862327795229000,6.69522900390625,0.07828841358423233,-0.9897411465644836,-0.8180519938468933
1788862327805270000,6.70527001953125,0.09762109816074371,-0.9506512880325317,-0.8421903252601624
1788862327815312000,6.715311767578125,0.1268969625234604,-0.8067317008972168,-0.8844565749168396
1788862327825353000,6.72535302734375,0.1502438336610794,-0.7496734261512756,-0.9470238089561462
1788862327835394800,6.735394775390625,0.1841655820608139,-0.7620813846588135,-0.9936807751655579
1788862327845436200,6.745436279296875,0.20268332958221436,-0.7878051400184631,-0.9825010895729065
1788862327855478000,6.75547802734375,0.19622410833835602,-0.7347927689552307,-0.9314629435539246
1788862327865519000,6.76551904296875,0.16906066238880157,-0.6136655211448669,-0.9226899743080139
1788862327875561000,6.77556103515625,0.15392059087753296,-0.5495637655258179,-0.9609619975090027
1788862327885602000,6.78560205078125,0.15121668577194214,-0.5897554159164429,-0.9910828471183777
1788862327895644000,6.795643798828125,0.13298308849334717,-0.6788557171821594,-1.0372471809387207
1788862327905685000,6.80568505859375,0.1112104132771492,-0.7876269817352295,-1.0718706846237183
1788862327915726800,6.815726806640625,0.12640561163425446,-0.8327398300170898,-1.0868786573410034
1788862327925768000,6.825767822265625,0.1499311774969101,-0.8034887313842773,-1.0939972400665283
1788862327935810000,6.83581005859375,0.1509959101676941,-0.7807741165161133,-1.07345449924469
1788862327945851100,6.84585107421875,0.1462847739458084,-0.7399489283561707,-1.0239266157150269
1788862327955893000,6.85589306640625,0.13084083795547485,-0.697642982006073,-0.9796078205108643
1788862327965934000,6.86593408203125,0.097394198179245,-0.7338593602180481,-0.9366201758384705
1788862327975976000,6.875975830078125,0.08055663108825684,-0.7529022693634033,-0.9009063839912415
1788862327986017000,6.88601708984375,0.08626405149698257,-0.7208271622657776,-0.8834336400032043
1788862327996058000,6.89605810546875,0.12033120542764664,-0.7203331589698792,-0.833469033241272
1788862328006100000,6.906099853515625,0.14427249133586884,-0.7456970810890198,-0.7771631479263306
1788862328016141000,6.91614111328125,0.12263723462820053,-0.7194934487342834,-0.7513541579246521
1788862328026183000,6.926182861328125,0.08296652138233185,-0.688225269317627,-0.7458688616752625
1788862328036224000,6.93622412109375,0.04939471185207367,-0.6778842210769653,-0.7171823382377625
1788862328046266000,6.94626611328125,0.015095063485205173,-0.5952165126800537,-0.6552188396453857
1788862328056307200,6.95630712890625,-0.025794312357902527,-0.4910283088684082,-0.5793842673301697
1788862328066349000,6.96634912109375,-0.05483235418796539,-0.3799513280391693,-0.49789926409721375
1788862328076390100,6.97639013671875,-0.030105171725153923,-0.28028011322021484,-0.4975767731666565
1788862328086432000,6.986431884765625,0.01721680350601673,-0.3249559700489044,-0.5447080731391907
1788862328096473000,6.99647314453125,0.042513638734817505,-0.368655264377594,-0.5471019744873047
1788862328106515000,7.006514892578125,0.032271917909383774,-0.28681206703186035,-0.5460034012794495
1788862328116556000,7.01655615234375,0.028258802369236946,-0.11266475915908813,-0.6013414859771729
1788862328126598000,7.026597900390625,0.04638320952653885,-0.059236425906419754,-0.6944029927253723
1788862328136639000,7.036638916015625,0.08136489987373352,-0.12842348217964172,-0.7538871169090271
1788862328146681000,7.04668115234375,0.10453226417303085,-0.1933838427066803,-0.7975935935974121
1788862328156722200,7.05672216796875,0.12386894971132278,-0.21102088689804077,-0.8049612045288086
1788862328166764000,7.066763916015625,0.11896073818206787,-0.20086891949176788,-0.738427996635437
1788862328176805000,7.07680517578125,0.12837262451648712,-0.18840985000133514,-0.6838070750236511
1788862328186847000,7.086846923828125,0.17380641400814056,-0.09908077865839005,-0.7113990187644958
1788862328196888000,7.09688818359375,0.1823892444372177,0.02009381726384163,-0.6859961748123169
1788862328206930000,7.106929931640625,0.14836710691452026,0.10929719358682632,-0.6605409383773804
1788862328216971000,7.116970947265625,0.09742748737335205,0.20062844455242157,-0.7504289746284485
1788862328227012900,7.127012939453125,0.0359119288623333,0.33800360560417175,-0.8951760530471802
1788862328237054000,7.137053955078125,-0.03762434050440788,0.4416671395301819,-1.0488215684890747
1788862328247096000,7.147095947265625,-0.10959653556346893,0.559403657913208,-1.1449302434921265
1788862328257137200,7.15713720703125,-0.17681178450584412,0.6929324269294739,-1.1757971048355103
1788862328267179000,7.167178955078125,-0.1862417757511139,0.7686303853988647,-1.0732629299163818
1788862328277220000,7.17722021484375,-0.1770821064710617,0.8605469465255737,-0.8922907710075378
1788862328287261000,7.187260986328125,-0.166636124253273,0.806354284286499,-0.7145852446556091
1788862328297303000,7.197302978515625,-0.1488611102104187,0.6299726366996765,-0.6914676427841187
1788862328307344000,7.20734375,-0.15143878757953644,0.6887589693069458,-0.7054468393325806
1788862328317386000,7.217385986328125,-0.144428551197052,0.7365597486495972,-0.6586194634437561
1788862328327427300,7.22742724609375,-0.16815438866615295,0.5337462425231934,-0.5244957208633423
1788862328337469400,7.237469482421875,-0.2652260661125183,0.44289299845695496,-0.38441479206085205
1788862328347510300,7.24751025390625,-0.32460471987724304,0.5566901564598083,-0.23251579701900482
1788862328357552400,7.257552490234375,-0.3010613024234772,0.6298346519470215,-0.10938454419374466
1788862328367593200,7.26759326171875,-0.2663930654525757,0.6080971360206604,-0.05187518149614334
1788862328377635300,7.27763525390625,-0.2836863100528717,0.5481759905815125,0.013064669445157051
1788862328387676200,7.28767626953125,-0.35012951493263245,0.5478745698928833,0.17442293465137482
1788862328397718500,7.297718505859375,-0.42851248383522034,0.5547734498977661,0.33886435627937317
1788862328407759400,7.30775927734375,-0.4752533435821533,0.5316740274429321,0.4552159905433655
1788862328417801500,7.317801513671875,-0.48731347918510437,0.4545169174671173,0.5583229064941406
1788862328427842300,7.32784228515625,-0.4509778320789337,0.3619968295097351,0.5974099040031433
1788862328437884400,7.337884521484375,-0.39982250332832336,0.32999521493911743,0.6375301480293274
1788862328447925200,7.34792529296875,-0.3551362454891205,0.3071436882019043,0.6924530267715454
1788862328457967400,7.35796728515625,-0.31551027297973633,0.2645717263221741,0.7755274176597595
1788862328468008200,7.36800830078125,-0.3008013665676117,0.23615235090255737,0.8677308559417725
1788862328478050300,7.37805029296875,-0.2776172161102295,0.23438426852226257,0.9257752299308777
1788862328488091100,7.388091064453125,-0.2500689625740051,0.2516964077949524,0.9855983853340149
1788862328498133500,7.398133544921875,-0.2335570901632309,0.256203293800354,1.0558578968048096
1788862328508174300,7.40817431640625,-0.24530909955501556,0.25632020831108093,1.1264585256576538
1788862328518216400,7.418216552734375,-0.2562733292579651,0.22519530355930328,1.1964168548583984
1788862328528257300,7.42825732421875,-0.2393108606338501,0.14449593424797058,1.2645719051361084
1788862328538299400,7.43829931640625,-0.1939292550086975,0.10446862131357193,1.324146032333374
1788862328548340200,7.44834033203125,-0.1602461338043213,0.10219188034534454,1.3738476037979126
1788862328558381300,7.45838134765625,-0.15254266560077667,0.12622904777526855,1.4080332517623901
1788862328568423200,7.468423095703125,-0.1651037335395813,0.17719902098178864,1.4051743745803833
1788862328578464300,7.47846435546875,-0.18637999892234802,0.24867506325244904,1.3707727193832397
1788862328588506000,7.488506103515625,-0.2081875503063202,0.26029497385025024,1.3600462675094604
1788862328598547200,7.498547119140625,-0.2340460568666458,0.24770034849643707,1.420366644859314
1788862328608589300,7.50858935546875,-0.2583492696285248,0.2538820803165436,1.491351842880249
1788862328618630400,7.51863037109375,-0.29331842064857483,0.28290441632270813,1.477247714996338
1788862328628672300,7.52867236328125,-0.34114906191825867,0.32132211327552795,1.3864288330078125
1788862328638713300,7.53871337890625,-0.3714558482170105,0.37687644362449646,1.3043302297592163
1788862328648755200,7.548755126953125,-0.3812658488750458,0.39308658242225647,1.2674753665924072
1788862328658796300,7.55879638671875,-0.3738284409046173,0.3903866410255432,1.2568974494934082
1788862328668838100,7.568838134765625,-0.3480764925479889,0.3986235558986664,1.2359882593154907
1788862328678879200,7.578879150390625,-0.30858951807022095,0.4214937090873718,1.2021520137786865
1788862328688921000,7.588921142578125,-0.28207483887672424,0.4045464098453522,1.1732114553451538
1788862328698962200,7.598962158203125,-0.2931772768497467,0.3995378017425537,1.1743419170379639
1788862328709004300,7.60900439453125,-0.3170029819011688,0.4888429343700409,1.2491456270217896
1788862328719045400,7.61904541015625,-0.33342456817626953,0.5887391567230225,1.3261668682098389
1788862328729087200,7.629087158203125,-0.3172208368778229,0.616184651851654,1.345872163772583
1788862328739128300,7.63912841796875,-0.2894006669521332,0.5743951201438904,1.3400288820266724
1788862328749170200,7.649170166015625,-0.27200114727020264,0.4933820068836212,1.3534605503082275
1788862328759211300,7.659211181640625,-0.27893176674842834,0.41924068331718445,1.374434232711792
1788862328769253400,7.66925341796875,-0.2792036831378937,0.376760870218277,1.3850677013397217
1788862328779294200,7.679294189453125,-0.24631549417972565,0.3477103114128113,1.359704613685608
1788862328789336300,7.68933642578125,-0.18393893539905548,0.2895391285419464,1.2843317985534668
1788862328799377200,7.699377197265625,-0.11357689648866653,0.21544227004051208,1.1799582242965698
1788862328809418200,7.709418212890625,-0.04761066287755966,0.1267496943473816,1.085192084312439
1788862328819460400,7.71946044921875,-0.006585198454558849,0.013071327470242977,1.0706712007522583
1788862328829501400,7.72950146484375,-0.0023521038237959146,-0.03659050166606903,1.1654045581817627
1788862328839543300,7.739543212890625,-0.009762882255017757,0.03051663003861904,1.3101886510849
1788862328849584400,7.74958447265625,-0.02563292533159256,0.07905513793230057,1.4056816101074219
1788862328859626200,7.759626220703125,-0.10214421153068542,0.028659608215093613,1.402815341949463
1788862328869667300,7.769667236328125,-0.2272198349237442,-0.08126742392778397,1.3114027976989746
1788862328879709200,7.779709228515625,-0.3463425040245056,-0.13317829370498657,1.1915384531021118
1788862328889750300,7.789750244140625,-0.41997942328453064,-0.04260551556944847,1.099595546722412
1788862328899792100,7.799792236328125,-0.4561512768268585,0.1033085435628891,1.0288805961608887
1788862328909833200,7.809833251953125,-0.4527861177921295,0.22472605109214783,0.9809975028038025
1788862328919875300,7.819875244140625,-0.4272059202194214,0.292107492685318,0.9743902087211609
1788862328929916400,7.82991650390625,-0.39381149411201477,0.3153180181980133,1.013857126235962
1788862328939958300,7.839958251953125,-0.3511654734611511,0.33185437321662903,1.063086748123169
1788862328949999400,7.849999267578125,-0.29076525568962097,0.35110023617744446,1.114926815032959
1788862328960041200,7.860041259765625,-0.21861489117145538,0.3112926483154297,1.1385918855667114
1788862328970082300,7.870082275390625,-0.17356619238853455,0.130063995718956,1.1426113843917847
1788862328980124200,7.880124267578125,-0.1438266783952713,-0.08002985268831253,1.114197850227356
1788862328990165200,7.890165283203125,-0.13276231288909912,-0.17339548468589783,1.056744933128357
1788862329000207400,7.900207275390625,-0.1361120343208313,-0.12222444266080856,0.9826707243919373
1788862329010248400,7.91024853515625,-0.1340201199054718,-0.003614442190155387,0.928363561630249
1788862329020290300,7.920290283203125,-0.11379580944776535,0.0994325801730156,0.8905969858169556
1788862329030331400,7.930331298828125,-0.07628438621759415,0.16350796818733215,0.8742350935935974
1788862329040373200,7.940373291015625,-0.03166445344686508,0.16676607728004456,0.8769736289978027
1788862329050414300,7.950414306640625,0.016174443066120148,0.1095949336886406,0.8560044169425964
1788862329060455400,7.960455322265625,0.060560550540685654,0.07185608148574829,0.7877750396728516
1788862329070497300,7.970497314453125,0.09549269825220108,0.09875640273094177,0.7131751179695129
1788862329080538400,7.980538330078125,0.11929123848676682,0.1450573205947876,0.6487593650817871
1788862329090580200,7.990580322265625,0.1179886907339096,0.1655796468257904,0.6029607057571411
1788862329100621300,8.000621337890625,0.09842457622289658,0.1561105102300644,0.5770883560180664
1788862329110663400,8.010663330078126,0.08947741985321045,0.1477164924144745,0.5398501753807068
1788862329120704500,8.02070458984375,0.08808138966560364,0.13724440336227417,0.4752187132835388
1788862329130746400,8.030746337890625,0.0614393912255764,0.0763978362083435,0.3834581673145294
1788862329140787500,8.040787353515626,0.013542707078158855,-0.01025876309722662,0.2680245339870453
1788862329150829300,8.050829345703125,-0.02839435636997223,-0.08584912866353989,0.14997191727161407
1788862329160870400,8.060870361328124,-0.061642058193683624,-0.11282215267419815,0.048221323639154434
1788862329170912300,8.070912353515626,-0.07225874811410904,-0.03561311960220337,-0.049972619861364365
1788862329180953300,8.080953369140625,-0.09422370046377182,0.16411809623241425,-0.1204204186797142
1788862329190995200,8.0909951171875,-0.10380016267299652,0.41878339648246765,-0.1577771157026291
1788862329201036300,8.101036376953125,-0.10703350603580475,0.6230699419975281,-0.1771492063999176
1788862329211078400,8.111078369140625,-0.11784514039754868,0.6725198030471802,-0.178687185049057
1788862329221119500,8.121119384765626,-0.11091160029172897,0.5693614482879639,-0.17814336717128754
1788862329231161300,8.131161376953125,-0.09246042370796204,0.4044595956802368,-0.2224474549293518
1788862329241202400,8.141202392578125,-0.07926899194717407,0.2805056869983673,-0.2874371111392975
1788862329251244300,8.151244384765626,-0.05127250775694847,0.16862577199935913,-0.35918691754341125
1788862329261285400,8.161285400390625,-0.01942935772240162,0.1132621094584465,-0.41915997862815857
1788862329271326200,8.171326171875,0.008530637249350548,0.12181272357702255,-0.46583160758018494
1788862329281368300,8.181368408203125,0.05157237872481346,0.15725673735141754,-0.4946496784687042
1788862329291409200,8.1914091796875,0.10231092572212219,0.1793319433927536,-0.5082312822341919
1788862329301451300,8.201451171875,0.13694746792316437,0.18044275045394897,-0.5040701031684875
1788862329311492000,8.2114921875,0.16750536859035492,0.18779173493385315,-0.4948590099811554
1788862329321534500,8.221534423828125,0.19577457010746002,0.20405086874961853,-0.4823938012123108
1788862329331574800,8.23157470703125,0.21539805829524994,0.21242544054985046,-0.4880612790584564
1788862329341616600,8.24161669921875,0.22527359426021576,0.1821514219045639,-0.5111857652664185
1788862329351657700,8.25165771484375,0.22778895497322083,0.1835266798734665,-0.5661044120788574
1788862329361699600,8.261699462890626,0.22894449532032013,0.21720901131629944,-0.651380717754364
1788862329371740700,8.27174072265625,0.24598367512226105,0.21410003304481506,-0.7292946577072144
1788862329381782800,8.28178271484375,0.28353822231292725,0.15391765534877777,-0.7711313366889954
1788862329391824000,8.291823974609375,0.32360976934432983,0.052022721618413925,-0.7644654512405396
1788862329401865700,8.30186572265625,0.36604055762290955,-0.04057538881897926,-0.7399536967277527
1788862329411906800,8.31190673828125,0.40180495381355286,-0.05952324718236923,-0.7132635116577148
1788862329421948700,8.32194873046875,0.4130818545818329,-0.012296879664063454,-0.7022777199745178
1788862329431989800,8.33198974609375,0.43248990178108215,0.10356447845697403,-0.6699341535568237
1788862329442031600,8.342031494140626,0.44807764887809753,0.28653377294540405,-0.604093074798584
1788862329452072700,8.35207275390625,0.44185569882392883,0.48806872963905334,-0.559784471988678
1788862329462114600,8.362114501953124,0.43202465772628784,0.6135363578796387,-0.5423426032066345
1788862329472155600,8.37215576171875,0.43545374274253845,0.5745282769203186,-0.5288001894950867
1788862329482197800,8.38219775390625,0.4515717029571533,0.3631960451602936,-0.5204181671142578
1788862329492238800,8.39223876953125,0.46522068977355957,0.07540927082300186,-0.5618268251419067
1788862329502279700,8.40227978515625,0.4849752187728882,-0.22742410004138947,-0.6514819264411926
1788862329512321800,8.41232177734375,0.4983197748661041,-0.5117711424827576,-0.7728354930877686
1788862329522362600,8.422362548828126,0.5147901177406311,-0.7080471515655518,-0.8738278746604919
1788862329532404700,8.43240478515625,0.533639132976532,-0.7276307344436646,-0.9246441721916199
1788862329542445600,8.442445556640624,0.5208996534347534,-0.5904638171195984,-0.9279835224151611
1788862329552487700,8.45248779296875,0.44607973098754883,-0.39289960265159607,-0.9087328910827637
1788862329562528500,8.462528564453125,0.3607427477836609,-0.25111931562423706,-0.9219032526016235
1788862329572571000,8.47257080078125,0.29584071040153503,-0.20831193029880524,-0.9520736932754517
1788862329582611700,8.48261181640625,0.25062796473503113,-0.25945767760276794,-0.9789628386497498
1788862329592653800,8.49265380859375,0.21727479994297028,-0.35539138317108154,-0.9697456359863281
1788862329602694700,8.502694580078124,0.18650969862937927,-0.4528343081474304,-0.9450328350067139
1788862329612736800,8.51273681640625,0.15576456487178802,-0.5506383776664734,-0.9276027083396912
1788862329622777600,8.522777587890625,0.14788773655891418,-0.6616698503494263,-0.9782586693763733
1788862329632819700,8.53281982421875,0.17237229645252228,-0.7874621152877808,-1.0499578714370728
1788862329642860500,8.542860595703125,0.19984200596809387,-0.9114250540733337,-1.0950825214385986
1788862329652902700,8.552902587890625,0.2033110409975052,-0.9833328127861023,-1.0940710306167603
1788862329662943500,8.562943603515626,0.20682108402252197,-0.9933755993843079,-1.0869479179382324
1788862329672984600,8.572984619140625,0.19109725952148438,-0.9654600620269775,-1.0749660730361938
1788862329683026700,8.583026611328124,0.1707557588815689,-0.9428982734680176,-1.0617024898529053
1788862329693067800,8.59306787109375,0.15706072747707367,-0.9759606719017029,-1.0644696950912476
1788862329703109600,8.603109619140625,0.14565493166446686,-1.0290513038635254,-1.0971791744232178
1788862329713150700,8.613150634765624,0.139255091547966,-0.9695469737052917,-1.098889708518982
1788862329723192600,8.623192626953125,0.14174515008926392,-0.8374658823013306,-1.1192477941513062
1788862329733233700,8.633233642578125,0.14246979355812073,-0.7638939023017883,-1.1702637672424316
1788862329743275500,8.643275634765626,0.13997308909893036,-0.7154321074485779,-1.1992411613464355
1788862329753316600,8.653316650390625,0.13136841356754303,-0.6895350217819214,-1.245622158050537
1788862329763358700,8.663358642578125,0.12062148749828339,-0.7038928866386414,-1.3012531995773315
1788862329773399600,8.673399658203126,0.12312139570713043,-0.765993595123291,-1.3486348390579224
1788862329783441700,8.683441650390625,0.15072186291217804,-0.777288019657135,-1.3726986646652222
1788862329793482800,8.693482666015624,0.18466998636722565,-0.6796983480453491,-1.3941669464111328
1788862329803524600,8.703524658203126,0.24171648919582367,-0.5387606620788574,-1.3737343549728394
1788862329813565700,8.713565673828125,0.30723050236701965,-0.37879738211631775,-1.3365622758865356
1788862329823607800,8.72360791015625,0.3355460464954376,-0.2806228697299957,-1.2940387725830078
1788862329833648600,8.733648681640625,0.3268550932407379,-0.2279692441225052,-1.2653743028640747
1788862329843690800,8.743690673828125,0.296590119600296,-0.24683348834514618,-1.273871660232544
1788862329853731600,8.753731689453126,0.26940006017684937,-0.3206395208835602,-1.31941819190979
1788862329863773700,8.763773681640625,0.24176974594593048,-0.4190973937511444,-1.3480322360992432
1788862329873814500,8.773814453125,0.22525815665721893,-0.4755449593067169,-1.3713856935501099
1788862329883857000,8.78385693359375,0.21640686690807343,-0.4996867775917053,-1.3294819593429565
1788862329893897700,8.793897705078125,0.2526642084121704,-0.5495001673698425,-1.3456907272338867
1788862329903938800,8.803938720703124,0.2883066236972809,-0.3943939208984375,-1.330410361289978
1788862329913980700,8.813980712890626,0.2516860365867615,-0.19971470534801483,-1.2807421684265137
1788862329924021800,8.824021728515625,0.21293331682682037,-0.3614753782749176,-1.329811453819275
1788862329934063600,8.834063720703124,0.19851841032505035,-0.5857596397399902,-1.3093732595443726
1788862329944104700,8.844104736328125,0.262637734413147,-0.6020504236221313,-1.254508376121521
1788862329954146600,8.854146484375,0.3354189991950989,-0.4068540334701538,-1.188591718673706
1788862329964187600,8.864187744140626,0.3927595317363739,-0.20729033648967743,-1.1552643775939941
1788862329974229500,8.8742294921875,0.4340406656265259,-0.08517694473266602,-1.098958969116211
1788862329984270600,8.8842705078125,0.44278380274772644,-0.062306515872478485,-1.0748883485794067
1788862329994312700,8.894312744140626,0.43271946907043457,-0.02809581719338894,-1.0703585147857666
1788862330004353800,8.904353759765625,0.4134030342102051,0.12439385801553726,-1.0372601747512817
1788862330014395600,8.914395751953125,0.3927621841430664,0.2529933750629425,-0.9738612771034241
1788862330024436700,8.924436767578126,0.37776246666908264,0.20773695409297943,-0.9241464734077454
1788862330034478600,8.934478515625,0.3421855568885803,0.17513079941272736,-0.887415885925293
1788862330044519700,8.944519775390624,0.2827099859714508,0.2722075581550598,-0.8191031217575073
1788862330054561500,8.9545615234375,0.23976971209049225,0.368470698595047,-0.822859525680542
1788862330064602600,8.9646025390625,0.21079985797405243,0.45605966448783875,-0.7833579182624817
1788862330074644700,8.974644775390624,0.16639962792396545,0.4496534466743469,-0.6665106415748596
1788862330084685800,8.984685791015625,0.1019711047410965,0.4153013229370117,-0.5548632144927979
1788862330094727000,8.994726806640625,0.060866814106702805,0.4949016273021698,-0.4308674931526184
1788862330104768800,9.004768798828126,-0.016218384727835655,0.41332578659057617,-0.2891833484172821
1788862330114809900,9.014809814453125,-0.07847217470407486,0.3576028645038605,-0.16068021953105927
1788862330124851700,9.024851806640624,-0.1334848254919052,0.42128732800483704,-0.015028750523924828
1788862330134892800,9.034892822265626,-0.16214203834533691,0.4653061628341675,0.04844103381037712
1788862330144934700,9.0449345703125,-0.1912519782781601,0.46421748399734497,0.09270277619361877
1788862330154975700,9.054975830078124,-0.23846130073070526,0.5101252794265747,0.21027520298957825
1788862330165017600,9.065017578125,-0.2868163287639618,0.5530847311019897,0.34234270453453064
1788862330175058700,9.07505859375,-0.31745120882987976,0.5435503721237183,0.39594119787216187
1788862330185100800,9.085100830078124,-0.34231072664260864,0.42574384808540344,0.4303801357746124
1788862330195142000,9.095141845703125,-0.369772732257843,0.39098986983299255,0.5021406412124634
1788862330205183700,9.105183837890625,-0.3920503258705139,0.4310046434402466,0.562016487121582
1788862330215224800,9.115224853515626,-0.3986259400844574,0.4536378085613251,0.6176936030387878
1788862330225266700,9.1252666015625,-0.426074355840683,0.4632856249809265,0.7056146264076233
1788862330235307800,9.135307861328124,-0.4377019703388214,0.5522828698158264,0.7927817702293396
1788862330245349600,9.145349609375,-0.42927226424217224,0.6216701865196228,0.85947185754776
1788862330255390700,9.155390625,-0.41400784254074097,0.6631470918655396,0.9102005362510681
1788862330265431600,9.165431640625,-0.40561115741729736,0.6899741888046265,0.9701821208000183
1788862330275473700,9.1754736328125,-0.40198391675949097,0.6663127541542053,1.0046985149383545
1788862330285514500,9.185514404296875,-0.3815750479698181,0.6284381151199341,1.0316343307495117
1788862330295556900,9.195556884765624,-0.3493734300136566,0.6480560302734375,1.1033380031585693
1788862330305597700,9.20559765625,-0.33070868253707886,0.6567323207855225,1.1600662469863892
1788862330315639800,9.215639892578125,-0.3045439124107361,0.6293901801109314,1.173377275466919
1788862330325680600,9.2256806640625,-0.27335458993911743,0.585629940032959,1.2053275108337402
1788862330335722800,9.23572265625,-0.23575261235237122,0.6159076690673828,1.285435676574707
1788862330345763600,9.245763671875,-0.19654127955436707,0.6647796034812927,1.3469531536102295
1788862330355805700,9.2558056640625,-0.14504213631153107,0.671399712562561,1.3848270177841187
1788862330365846500,9.265846435546875,-0.11444002389907837,0.6245970129966736,1.4374678134918213
1788862330375888600,9.275888671875,-0.11229778081178665,0.5635735988616943,1.4963297843933105
1788862330385929500,9.285929443359375,-0.10319216549396515,0.5033459663391113,1.53508460521698
1788862330395971800,9.295971923828125,-0.07301801443099976,0.4583427906036377,1.5358750820159912
1788862330406012700,9.3060126953125,-0.04820987209677696,0.45160314440727234,1.5343661308288574
1788862330416054800,9.3160546875,-0.03606719151139259,0.4638614058494568,1.5670242309570312
1788862330426095600,9.326095703125,-0.027172498404979706,0.47711116075515747,1.6121352910995483
1788862330436137700,9.3361376953125,-0.016775785014033318,0.44151589274406433,1.6204432249069214
1788862330446178600,9.346178466796875,-0.004443218000233173,0.3977399170398712,1.6376192569732666
1788862330456219600,9.3562197265625,0.005772401578724384,0.4139993190765381,1.6674072742462158
1788862330466261500,9.366261474609376,0.02291863225400448,0.4670526683330536,1.659417748451233
1788862330476302600,9.376302490234375,0.04898618534207344,0.49791496992111206,1.6239546537399292
1788862330486344400,9.386344482421874,0.06908240169286728,0.4869067966938019,1.6705894470214844
1788862330496385500,9.396385498046875,0.08063146471977234,0.47208285331726074,1.823555588722229
1788862330506427600,9.406427734375,0.052498627454042435,0.4376348555088043,1.9770617485046387
1788862330516468700,9.41646875,0.006163886282593012,0.3768974840641022,2.0009591579437256
1788862330526510600,9.426510498046875,0.0015819176333025098,0.2603660821914673,1.89012610912323
1788862330536551700,9.4365517578125,0.07909588515758514,0.13271170854568481,1.7287219762802124
1788862330546593800,9.44659375,0.17924751341342926,-0.001651159836910665,1.5920294523239136
1788862330556634600,9.456634521484375,0.24183259904384613,-0.058163437992334366,1.4816735982894897
1788862330566676700,9.4666767578125,0.24641403555870056,-0.0739716961979866,1.3719178438186646
1788862330576717600,9.476717529296875,0.185652956366539,-0.10256525874137878,1.2669626474380493
1788862330586759700,9.486759765625,0.07269550859928131,-0.13662149012088776,1.199364423751831
1788862330596800800,9.49680078125,-0.05317879840731621,-0.08019177615642548,1.2110724449157715
1788862330606843000,9.5068427734375,-0.15604126453399658,0.07285317033529282,1.3182662725448608
1788862330616883700,9.5168837890625,-0.2229374796152115,0.25794845819473267,1.4655276536941528
1788862330626924800,9.5269248046875,-0.2616523802280426,0.35666757822036743,1.5910320281982422
1788862330636966700,9.536966552734375,-0.2701244354248047,0.3413916826248169,1.65520441532135
1788862330647007700,9.5470078125,-0.23377521336078644,0.246399387717247,1.6446559429168701
1788862330657049600,9.557049560546876,-0.17672257125377655,0.08707844465970993,1.567699909210205
1788862330667090700,9.567090576171875,-0.13670378923416138,-0.13161075115203857,1.4506016969680786
1788862330677132500,9.577132568359374,-0.1391933113336563,-0.3605475425720215,1.349254846572876
1788862330687173600,9.587173583984375,-0.1785963773727417,-0.527046263217926,1.3000867366790771
1788862330697215700,9.5972158203125,-0.2193339467048645,-0.5720488429069519,1.297602653503418
1788862330707256800,9.6072568359375,-0.23840005695819855,-0.48523861169815063,1.3115655183792114
1788862330717298700,9.617298583984375,-0.25020450353622437,-0.29129230976104736,1.2844692468643188
1788862330727339800,9.62733984375,-0.2638910412788391,-0.10272717475891113,1.2108296155929565
1788862330737381600,9.637381591796874,-0.2682594060897827,-0.008317052386701107,1.099408507347107
1788862330747422700,9.647422607421875,-0.28002285957336426,-0.015456720255315304,0.9688388109207153
1788862330757464600,9.657464599609375,-0.2990618050098419,-0.06099916994571686,0.8397695422172546
1788862330767505700,9.667505615234376,-0.301405131816864,-0.07872623950242996,0.745522141456604
1788862330777547500,9.677547607421875,-0.2767530381679535,-0.030854584649205208,0.6778985857963562
1788862330787588600,9.687588623046874,-0.22794155776500702,0.08203920722007751,0.6210513114929199
1788862330797629700,9.697629638671875,-0.18542444705963135,0.18993984162807465,0.5560331344604492
1788862330807671800,9.707671875,-0.15462259948253632,0.26035088300704956,0.4928453862667084
1788862330817713000,9.717712890625,-0.13340173661708832,0.2796332538127899,0.43948283791542053
1788862330827754800,9.727754638671875,-0.10458393394947052,0.24056680500507355,0.3887847661972046
1788862330837795800,9.7377958984375,-0.08051774650812149,0.18344439566135406,0.3345540165901184
1788862330847837700,9.747837646484374,-0.056295230984687805,0.15666897594928741,0.24879729747772217
1788862330857878800,9.757878662109375,-0.05367228388786316,0.1583869755268097,0.13558925688266754
1788862330867920600,9.767920654296875,-0.04910656064748764,0.1739337146282196,0.010587397031486034
1788862330877961700,9.777961669921876,-0.04223427176475525,0.19591625034809113,-0.11064395308494568
1788862330888003600,9.788003662109375,-0.013346165418624878,0.19898313283920288,-0.2159045934677124
1788862330898044700,9.798044677734374,0.01290328148752451,0.1827263981103897,-0.2962478995323181
1788862330908086800,9.808086669921876,0.03283890709280968,0.16076891124248505,-0.3494243025779724
1788862330918127900,9.8181279296875,0.05564435198903084,0.17191290855407715,-0.3837639093399048
1788862330928169700,9.828169677734374,0.06559552252292633,0.15074503421783447,-0.4144829511642456
1788862330938210800,9.8382109375,0.06526368856430054,0.09174057096242905,-0.4349924623966217
1788862330948252700,9.848252685546875,0.05975867062807083,0.06690526753664017,-0.4661983251571655
1788862330958293800,9.858293701171876,0.059359729290008545,0.07556000351905823,-0.49023735523223877
1788862330968334600,9.86833447265625,0.07349418848752975,0.08324296027421951,-0.5023643374443054
1788862330978376700,9.878376708984375,0.09038449078798294,0.058093130588531494,-0.518909752368927
1788862330988417500,9.88841748046875,0.1010107696056366,0.03502296656370163,-0.5425288081169128
1788862330998459600,9.898459716796875,0.10760528594255447,0.02839488908648491,-0.5718608498573303
1788862331008500500,9.90850048828125,0.1144711822271347,0.03587996959686279,-0.594521164894104
1788862331018542800,9.91854296875,0.12003666162490845,0.03032035566866398,-0.5906038880348206
1788862331028583700,9.928583740234375,0.1275518387556076,0.03331960737705231,-0.5677475929260254
1788862331038625800,9.938625732421874,0.12784451246261597,0.06717424094676971,-0.5388988852500916
1788862331048666600,9.94866650390625,0.13374315202236176,0.13161395490169525,-0.5171682834625244
1788862331058708700,9.958708740234375,0.14645308256149292,0.224898099899292,-0.5194189548492432
1788862331068749600,9.96874951171875,0.16492290794849396,0.3016035258769989,-0.5382254123687744
1788862331078791700,9.978791748046875,0.1918591856956482,0.3906013071537018,-0.5439426302909851
1788862331088832500,9.98883251953125,0.19433219730854034,0.4871009588241577,-0.5505076050758362
1788862331098874600,9.99887451171875,0.19023998081684113,0.5483576655387878,-0.6022704243659973
1788862331108915500,10.00891552734375,0.19346293807029724,0.5126252174377441,-0.7048343420028687
1788862331118956800,10.018956787109374,0.2193635106086731,0.3197271227836609,-0.8293525576591492
1788862331128998700,10.02899853515625,0.2706855535507202,-0.02889396622776985,-0.9100809693336487
1788862331139039700,10.039039794921875,0.3345910310745239,-0.37266358733177185,-0.896671712398529
1788862331149081600,10.04908154296875,0.36592766642570496,-0.5187113285064697,-0.8051356673240662
1788862331159122700,10.059122802734375,0.3592476546764374,-0.41012120246887207,-0.699434757232666
1788862331169164500,10.06916455078125,0.3228084146976471,-0.17544452846050262,-0.6048635244369507
1788862331179205600,10.07920556640625,0.2656250298023224,0.03833913430571556,-0.5531585216522217
1788862331189247500,10.08924755859375,0.19096089899539948,0.1233174055814743,-0.6001483798027039
1788862331199288600,10.09928857421875,0.1523655652999878,0.07091359049081802,-0.7371355295181274
1788862331209330700,10.10933056640625,0.18086698651313782,-0.06464104354381561,-0.911396324634552
1788862331219371800,10.119371826171875,0.245878204703331,-0.2505611181259155,-1.0626177787780762
1788862331229413600,10.12941357421875,0.3251812756061554,-0.43546199798583984,-1.1586239337921143
1788862331239454700,10.139454833984376,0.39155977964401245,-0.5636825561523438,-1.2049589157104492
1788862331249496600,10.14949658203125,0.41414526104927063,-0.5985896587371826,-1.170893907546997
1788862331259537700,10.15953759765625,0.39181676506996155,-0.5787477493286133,-1.0896095037460327
1788862331269579800,10.169579833984375,0.36223357915878296,-0.5552323460578918,-1.068527340888977
1788862331279620600,10.17962060546875,0.32689422369003296,-0.5438295006752014,-1.1278750896453857
1788862331289661700,10.18966162109375,0.3099954128265381,-0.5632087588310242,-1.2174015045166016
1788862331299703600,10.19970361328125,0.32357698678970337,-0.5944771766662598,-1.3621454238891602
1788862331309744600,10.20974462890625,0.37334081530570984,-0.674994707107544,-1.5035631656646729
1788862331319786800,10.219786865234376,0.41246214509010315,-0.8094757795333862,-1.62563955783844
1788862331329828900,10.229828857421875,0.4136882424354553,-0.8447110056877136,-1.6680176258087158
1788862331339870700,10.23987060546875,0.3603390157222748,-0.8465118408203125,-1.618821620941162
1788862331349911800,10.249911865234376,0.306674987077713,-0.7809759974479675,-1.491125226020813
1788862331359953700,10.25995361328125,0.2423013150691986,-0.7111758589744568,-1.3479669094085693
1788862331369994800,10.269994873046874,0.17261545360088348,-0.6601536870002747,-1.2566272020339966
1788862331380036900,10.280036865234376,0.13934430480003357,-0.7240234613418579,-1.2207341194152832
1788862331390078000,10.290077880859375,0.150254487991333,-0.8880488872528076,-1.269898772239685
1788862331400119800,10.300119873046874,0.18011677265167236,-1.025127649307251,-1.2838263511657715
1788862331410161000,10.310160888671875,0.20600908994674683,-1.083465814590454,-1.3201055526733398
1788862331420202800,10.32020263671875,0.21933262050151825,-1.0666732788085938,-1.355369210243225
1788862331430243800,10.330243896484374,0.22009988129138947,-0.9891379475593567,-1.3562986850738525
1788862331440284700,10.34028466796875,0.2119372934103012,-0.8489992618560791,-1.329297423362732
1788862331450326800,10.350326904296875,0.21364463865756989,-0.7830708026885986,-1.3148324489593506
1788862331460367600,10.36036767578125,0.23706580698490143,-0.7576765418052673,-1.3043267726898193
1788862331470409700,10.37040966796875,0.26189473271369934,-0.7492337822914124,-1.264888882637024
1788862331480450600,10.380450439453124,0.2903548777103424,-0.7143623232841492,-1.2502835988998413
1788862331490493000,10.390492919921876,0.30945852398872375,-0.6598226428031921,-1.2885984182357788
1788862331500533800,10.40053369140625,0.31976014375686646,-0.6508206129074097,-1.3457317352294922
1788862331510575900,10.410575927734374,0.3207380771636963,-0.6378699541091919,-1.3892557621002197
1788862331520616700,10.42061669921875,0.295916885137558,-0.602217435836792,-1.4237115383148193
1788862331530658800,10.430658935546875,0.24494317173957825,-0.5436827540397644,-1.4359676837921143
1788862331540699600,10.44069970703125,0.19565258920192719,-0.47430577874183655,-1.4529964923858643
1788862331550741800,10.45074169921875,0.16227945685386658,-0.43320468068122864,-1.4059655666351318
1788862331560782600,10.460782470703125,0.159127339720726,-0.39447858929634094,-1.3505473136901855
1788862331570824700,10.47082470703125,0.16300863027572632,-0.29854726791381836,-1.2969887256622314
1788862331580865500,10.480865478515625,0.16197505593299866,-0.18418528139591217,-1.2610472440719604
1788862331590908000,10.490907958984375,0.16682040691375732,-0.04044462740421295,-1.2504403591156006
1788862331600948700,10.50094873046875,0.15532700717449188,0.09670683741569519,-1.2055014371871948
1788862331610989800,10.51098974609375,0.1486768275499344,0.144690603017807,-1.1704227924346924
1788862331621031700,10.52103173828125,0.1320677548646927,0.12770070135593414,-1.1281390190124512
1788862331631072800,10.53107275390625,0.11546214669942856,0.07862157374620438,-1.0622859001159668
1788862331641114600,10.541114501953125,0.12949541211128235,0.02737889438867569,-1.0084922313690186
1788862331651155700,10.55115576171875,0.13210797309875488,0.052134573459625244,-0.9773033857345581
1788862331661197600,10.561197509765625,0.12242391705513,0.11863956600427628,-0.9624435305595398
1788862331671238700,10.57123876953125,0.12202151119709015,0.1586913764476776,-0.9250324964523315
1788862331681280500,10.581280517578126,0.13358841836452484,0.1926320344209671,-0.8618476390838623
1788862331691321600,10.591321533203125,0.11637268215417862,0.23542582988739014,-0.7962058186531067
1788862331701363700,10.60136376953125,0.0852041095495224,0.2927093505859375,-0.7012540102005005
1788862331711404800,10.61140478515625,0.07340390980243683,0.33074143528938293,-0.6448764801025391
1788862331721446700,10.62144677734375,0.08116649091243744,0.3968549370765686,-0.6272205114364624
1788862331731487700,10.63148779296875,0.08333457261323929,0.439895898103714,-0.5862328410148621
1788862331741529600,10.641529541015625,0.0697745531797409,0.43712806701660156,-0.4976723790168762
1788862331751570700,10.65157080078125,0.04716058820486069,0.49595195055007935,-0.3231367766857147
1788862331761611800,10.66161181640625,0.0035337484441697598,0.5340247750282288,-0.13161954283714294
1788862331771653600,10.671653564453125,-0.05269410461187363,0.5190269351005554,-0.019063172861933708
1788862331781694700,10.68169482421875,-0.0768180787563324,0.47391989827156067,0.07229150831699371
1788862331791736800,10.69173681640625,-0.0682229995727539,0.4225904047489166,0.19146636128425598
1788862331801778000,10.70177783203125,-0.07737495005130768,0.3753794729709625,0.2993829846382141
1788862331811819800,10.71181982421875,-0.13699780404567719,0.3361082375049591,0.3912005126476288
1788862331821860900,10.72186083984375,-0.22644485533237457,0.30627790093421936,0.5329139828681946
1788862331831902700,10.73190283203125,-0.2907167971134186,0.4270743727684021,0.7158119082450867
1788862331841943800,10.74194384765625,-0.2899159789085388,0.5198184251785278,0.8582145571708679
1788862331851985700,10.751985595703125,-0.263043612241745,0.5104424953460693,0.9367165565490723
1788862331862026800,10.76202685546875,-0.2586805522441864,0.4747369587421417,0.9705182313919067
1788862331872068600,10.772068603515624,-0.26598480343818665,0.4964829981327057,1.002698540687561
1788862331882109700,10.782109619140625,-0.27068981528282166,0.5151687860488892,1.0211917161941528
1788862331892150500,10.792150634765624,-0.2855558395385742,0.5365585088729858,1.0369046926498413
1788862331902193000,10.80219287109375,-0.3024251163005829,0.5161504149436951,1.0336707830429077
1788862331912233700,10.812233642578125,-0.3102899491786957,0.5451762080192566,1.064191222190857
1788862331922275800,10.82227587890625,-0.2981147766113281,0.5947592258453369,1.0948973894119263
1788862331932316700,10.832316650390625,-0.2798241972923279,0.6346344947814941,1.122022032737732
1788862331942358800,10.84235888671875,-0.26955556869506836,0.617236316204071,1.1648839712142944
1788862331952399600,10.852399658203124,-0.27688032388687134,0.6119027733802795,1.2461538314819336
1788862331962441700,10.862441650390625,-0.27616047859191895,0.6441726088523865,1.3448071479797363
1788862331972482600,10.872482666015625,-0.2660287618637085,0.6691884398460388,1.4522666931152344
1788862331982524700,10.882524658203126,-0.25510314106941223,0.6894370317459106,1.5470683574676514
1788862331992565500,10.8925654296875,-0.2670775055885315,0.6875171065330505,1.6146734952926636
1788862332002607900,10.90260791015625,-0.28520485758781433,0.6561267375946045,1.6320825815200806
1788862332012648700,10.912648681640626,-0.31137174367904663,0.5829353332519531,1.6226561069488525
1788862332022690800,10.92269091796875,-0.3305949568748474,0.4808529019355774,1.6265496015548706
1788862332032731600,10.932731689453124,-0.3487454652786255,0.42729541659355164,1.6797499656677246
1788862332042772700,10.942772705078125,-0.3725927472114563,0.4661107063293457,1.7538689374923706
1788862332052814800,10.95281494140625,-0.4050063490867615,0.5390352606773376,1.8102355003356934
1788862332062855700,10.962855712890626,-0.42716729640960693,0.5942063331604004,1.83849036693573
1788862332072897800,10.972897705078125,-0.4440285861492157,0.599608302116394,1.876831293106079
1788862332082938600,10.982938720703125,-0.4455721378326416,0.5950037240982056,1.9025084972381592
1788862332092980700,10.992980712890626,-0.42429855465888977,0.5696160793304443,1.8985880613327026
1788862332103021600,11.003021484375,-0.3922399580478668,0.5036200284957886,1.862713098526001
1788862332113064000,11.01306396484375,-0.3821239471435547,0.4199583828449249,1.8464385271072388
1788862332123104800,11.023104736328126,-0.3923347592353821,0.3758026659488678,1.8654072284698486
1788862332133147000,11.03314697265625,-0.4211517572402954,0.3491577208042145,1.9063969850540161
1788862332143187700,11.043187744140624,-0.4380362033843994,0.29977738857269287,1.9025814533233643
1788862332153229800,11.053229736328126,-0.44998446106910706,0.23015916347503662,1.8598289489746094
1788862332163270700,11.063270751953125,-0.44831493496894836,0.17148414254188538,1.7952924966812134
1788862332173312800,11.073312744140624,-0.4151417911052704,0.13439828157424927,1.7565100193023682
1788862332183353600,11.083353515625,-0.3495721220970154,0.10527129471302032,1.7291295528411865
1788862332193394700,11.093394775390625,-0.2807203531265259,0.05530453473329544,1.6848443746566772
1788862332203436500,11.1034365234375,-0.23109100759029388,0.022964438423514366,1.6204171180725098
1788862332213477600,11.1134775390625,-0.1952107697725296,0.06750047951936722,1.5821843147277832
1788862332223519700,11.123519775390625,-0.17469936609268188,0.21214234828948975,1.5840154886245728
1788862332233560800,11.133560791015626,-0.15528732538223267,0.3699021637439728,1.5874005556106567
1788862332243602700,11.143602783203125,-0.15404842793941498,0.43635520339012146,1.5630278587341309
1788862332253643800,11.153643798828124,-0.1394052952528,0.37780216336250305,1.513841152191162
1788862332263685600,11.163685546875,-0.09542851895093918,0.2694988548755646,1.454293966293335
1788862332273726700,11.173726806640625,-0.025470472872257233,0.22310738265514374,1.3843367099761963
1788862332283768600,11.1837685546875,0.023850470781326294,0.21957336366176605,1.3259249925613403
1788862332293809700,11.1938095703125,0.04613127559423447,0.2065608948469162,1.274516224861145
1788862332303851800,11.203851806640625,0.028381306678056717,0.2053116112947464,1.2556335926055908
1788862332313892900,11.213892822265626,-0.00564164062961936,0.24173273146152496,1.2714426517486572
1788862332323934000,11.223933837890625,-0.032040223479270935,0.30362218618392944,1.2763452529907227
1788862332333975600,11.2339755859375,-0.028012193739414215,0.35060247778892517,1.2406567335128784
1788862332344016600,11.2440166015625,-0.006455236114561558,0.30466827750205994,1.1391229629516602
1788862332354058500,11.25405859375,0.020131099969148636,0.17472626268863678,0.9826291799545288
1788862332364099600,11.264099609375,0.052325256168842316,0.028295287862420082,0.8155614137649536
1788862332374141700,11.2741416015625,0.07588730752468109,-0.06554998457431793,0.6826310157775879
1788862332384182800,11.284182861328125,0.08773943781852722,-0.05032362416386604,0.6004506945610046
1788862332394224600,11.294224609375,0.11042823642492294,0.034815769642591476,0.5532740950584412
1788862332404265700,11.304265625,0.1180238425731659,0.13242514431476593,0.5109343528747559
1788862332414307600,11.3143076171875,0.11831918358802795,0.20386604964733124,0.4472086727619171
1788862332424348700,11.3243486328125,0.1117696762084961,0.2656095623970032,0.3489055335521698
1788862332434390500,11.334390625,0.1101512685418129,0.3041100800037384,0.2310025840997696
1788862332444431600,11.344431640625,0.10371547937393188,0.303199827671051,0.1009945273399353
1788862332454473500,11.354473388671876,0.1186281144618988,0.2503184974193573,-0.03104446828365326
1788862332464514600,11.3645146484375,0.16235534846782684,0.17938733100891113,-0.14892981946468353
1788862332474555400,11.374555419921874,0.2053994983434677,0.13979358971118927,-0.2443586140871048
1788862332484597800,11.38459765625,0.23077915608882904,0.11172786355018616,-0.30743691325187683
1788862332494638600,11.394638671875,0.27059581875801086,0.05272819101810455,-0.3389522135257721
1788862332504680700,11.4046806640625,0.29055488109588623,-0.016292154788970947,-0.3483606278896332
1788862332514721500,11.414721435546875,0.2814447283744812,-0.029858563095331192,-0.35805800557136536
1788862332524763600,11.424763671875,0.2655123770236969,0.016889501363039017,-0.3911493718624115
1788862332534804500,11.434804443359376,0.23179808259010315,0.07292401045560837,-0.4398950934410095
1788862332544846600,11.4448466796875,0.2008095383644104,0.09455367177724838,-0.48764076828956604
1788862332554887400,11.454887451171874,0.18392962217330933,0.08917621523141861,-0.5502855181694031
1788862332564929500,11.464929443359376,0.18178364634513855,0.08052200824022293,-0.6323785185813904
1788862332574970400,11.474970458984375,0.19948861002922058,0.06803151220083237,-0.7028089761734009
1788862332585012700,11.4850126953125,0.24576395750045776,0.04517573490738869,-0.7417106032371521
1788862332595053600,11.495053466796875,0.28372013568878174,0.014260695315897465,-0.730668842792511
1788862332605094700,11.5050947265625,0.30505019426345825,-0.009354885667562485,-0.6861163377761841
1788862332615136500,11.515136474609376,0.31232595443725586,-0.03683870658278465,-0.5952247381210327
1788862332625177600,11.525177490234375,0.3001534342765808,-0.028962675482034683,-0.4922504425048828
1788862332635219500,11.535219482421875,0.2696211040019989,0.07856830954551697,-0.42708608508110046
1788862332645260500,11.545260498046876,0.2350601851940155,0.24521028995513916,-0.4119499921798706
1788862332655302400,11.555302490234375,0.20585063099861145,0.40720611810684204,-0.43014153838157654
1788862332665343500,11.565343505859374,0.18466971814632416,0.534008800983429,-0.42637181282043457
1788862332675385600,11.575385498046876,0.16428375244140625,0.6052784323692322,-0.37350061535835266
1788862332685426700,11.5854267578125,0.13709287345409393,0.5930713415145874,-0.374783992767334
1788862332695468500,11.595468505859374,0.1256205141544342,0.4613809287548065,-0.6452434659004211
1788862332705509600,11.605509521484375,0.1847812980413437,0.10902874916791916,-1.0574778318405151
1788862332715551500,11.615551513671875,0.30603450536727905,-0.4509378969669342,-1.291415810585022
1788862332725592600,11.625592529296876,0.3768855035305023,-0.8362805247306824,-1.3134782314300537
1788862332735633700,11.635633544921875,0.37130698561668396,-0.7528412938117981,-1.184201955795288
1788862332745675500,11.645675537109375,0.26191282272338867,-0.408968061208725,-0.9989125728607178
1788862332755716600,11.655716552734376,0.12084466218948364,-0.09411584585905075,-0.9670068621635437
1788862332765758500,11.665758544921875,0.048952896147966385,-0.021502895280718803,-1.0394096374511719
1788862332775799600,11.675799560546874,0.025901105254888535,-0.14978283643722534,-1.0979830026626587
1788862332785841700,11.685841552734376,0.010231331922113895,-0.33279871940612793,-1.1394106149673462
1788862332795882800,11.6958828125,-0.012555472552776337,-0.5752773880958557,-1.1799081563949585
1788862332805924600,11.705924560546874,-0.0071005201898515224,-0.8076523542404175,-1.2076785564422607
1788862332815965700,11.715965576171875,0.03966964781284332,-0.9052526354789734,-1.2498753070831299
1788862332826007600,11.726007568359375,0.11556574702262878,-0.9174965620040894,-1.2798120975494385
1788862332836048600,11.736048583984376,0.1903318613767624,-0.9365602731704712,-1.2517699003219604
1788862332846090500,11.746090576171875,0.22972747683525085,-0.928810715675354,-1.1951355934143066
1788862332856131600,11.756131591796875,0.23767460882663727,-0.8878310322761536,-1.1661657094955444
1788862332866172700,11.766172607421876,0.2502175569534302,-0.884202241897583,-1.1653910875320435
1788862332876214500,11.776214599609375,0.26096367835998535,-0.8712121248245239,-1.2194262742996216
1788862332886255600,11.786255615234374,0.2633938193321228,-0.8314293026924133,-1.3115767240524292
1788862332896297700,11.796297607421875,0.2809469699859619,-0.9845096468925476,-1.343714714050293
1788862332906338800,11.8063388671875,0.2814183533191681,-1.207486867904663,-1.3612284660339355
1788862332916380700,11.816380615234374,0.2491946518421173,-1.2627370357513428,-1.3593664169311523
1788862332926421800,11.826421875,0.17731299996376038,-1.1252774000167847,-1.3688604831695557
1788862332936463600,11.836463623046875,0.0992666631937027,-0.9396428465843201,-1.3941632509231567
1788862332946504700,11.846504638671876,0.025587119162082672,-0.8843353986740112,-1.428356647491455
1788862332956546600,11.856546630859375,-0.01629801280796528,-0.9407666921615601,-1.46484375
1788862332966587600,11.866587646484374,-0.008973521180450916,-0.9982891082763672,-1.5390005111694336
1788862332976629500,11.87662939453125,0.04114903509616852,-1.0041028261184692,-1.5950806140899658
1788862332986670600,11.886670654296875,0.11105647683143616,-0.9631444215774536,-1.6499507427215576
1788862332996711400,11.89671142578125,0.17104284465312958,-0.8174458146095276,-1.6632444858551025
1788862333006753800,11.90675390625,0.19508719444274902,-0.6707184314727783,-1.6191039085388184
1788862333016794600,11.916794677734375,0.20104922354221344,-0.5656822919845581,-1.6090593338012695
1788862333026836700,11.926836669921874,0.19373111426830292,-0.4919297993183136,-1.6207239627838135
1788862333036877600,11.936877685546875,0.20339812338352203,-0.4511488080024719,-1.6128934621810913
1788862333046919700,11.946919677734375,0.2294238656759262,-0.4233193099498749,-1.6155911684036255
1788862333056960500,11.95696044921875,0.26674219965934753,-0.4059094190597534,-1.6323063373565674
1788862333067002600,11.967002685546875,0.28177815675735474,-0.3741663992404938,-1.6337454319000244
1788862333077043500,11.97704345703125,0.2637605369091034,-0.3155635595321655,-1.589318037033081
1788862333087085600,11.98708544921875,0.24806173145771027,-0.23089872300624847,-1.5647594928741455
1788862333097126400,11.99712646484375,0.2597658038139343,-0.17282849550247192,-1.5672404766082764
1788862333107168800,12.007168701171874,0.2719516158103943,-0.1298069953918457,-1.549027919769287
1788862333117209600,12.017209716796875,0.28155311942100525,-0.03642591834068298,-1.5202466249465942
1788862333127250700,12.027250732421875,0.26721546053886414,-0.012914999388158321,-1.4432942867279053
1788862333137292500,12.03729248046875,0.22571568191051483,-0.02995976246893406,-1.3364287614822388
1788862333147333600,12.047333740234375,0.1698412299156189,-0.04902799800038338,-1.227217674255371
1788862333157375500,12.05737548828125,0.12837155163288116,0.012342952191829681,-1.167023777961731
1788862333167416600,12.06741650390625,0.1481684297323227,0.13082192838191986,-1.1090036630630493
1788862333177458400,12.07745849609375,0.1808834969997406,0.19734635949134827,-1.057316780090332
1788862333187499500,12.08749951171875,0.20206761360168457,0.16829580068588257,-1.0235342979431152
1788862333197541600,12.097541748046876,0.18385158479213715,0.1782083511352539,-0.9751478433609009
1788862333207582700,12.107582763671875,0.17995885014533997,0.2621226906776428,-0.9199080467224121
1788862333217624600,12.11762451171875,0.18027177453041077,0.3676206171512604,-0.847154974937439
1788862333227665700,12.127665771484375,0.17080342769622803,0.4341956675052643,-0.7586230039596558
1788862333237707500,12.13770751953125,0.14173316955566406,0.4274842143058777,-0.6652776002883911
1788862333247748600,12.14774853515625,0.1066201850771904,0.3606540560722351,-0.5645720362663269
1788862333257789700,12.157789794921875,0.08412259817123413,0.39286819100379944,-0.4462406039237976
1788862333267831600,12.16783154296875,0.08206424117088318,0.40890228748321533,-0.3555312156677246
1788862333277872600,12.17787255859375,0.08460196852684021,0.4340667724609375,-0.2884531021118164
1788862333287914500,12.18791455078125,0.07841304689645767,0.459139347076416,-0.22835621237754822
1788862333297955600,12.19795556640625,0.053400639444589615,0.5164444446563721,-0.1088646948337555
1788862333307997700,12.207997802734376,0.03544827178120613,0.46278390288352966,0.01913934014737606
1788862333318038800,12.218038818359375,0.0166157279163599,0.3880353569984436,0.12346574664115906
1788862333328080600,12.22808056640625,0.0016285229939967394,0.4309109151363373,0.2453644871711731
1788862333338121500,12.23812158203125,-0.04939870908856392,0.5172998905181885,0.39827972650527954
1788862333348163300,12.248163330078125,-0.12839658558368683,0.5295815467834473,0.57464998960495
1788862333358204400,12.258204345703126,-0.20291556417942047,0.4830305874347687,0.7266001105308533
1788862333368246300,12.268246337890625,-0.24194206297397614,0.4434266984462738,0.8212631940841675
1788862333378287400,12.278287353515625,-0.2537534534931183,0.47062185406684875,0.9237930774688721
1788862333388328200,12.288328125,-0.2547164559364319,0.5196593999862671,1.0522264242172241
1788862333398370300,12.298370361328125,-0.24064350128173828,0.5798194408416748,1.1919445991516113
1788862333408411400,12.308411376953124,-0.21951717138290405,0.6498813629150391,1.3237215280532837
1788862333418453200,12.318453369140625,-0.20761817693710327,0.6892644166946411,1.4310221672058105
1788862333428494300,12.328494384765625,-0.19444911181926727,0.7080389261245728,1.5282996892929077
1788862333438536400,12.338536376953124,-0.16556526720523834,0.7329890131950378,1.5942507982254028
1788862333448577300,12.348577392578125,-0.14552630484104156,0.7161815166473389,1.6498703956604004
1788862333458619400,12.358619384765625,-0.15653501451015472,0.6645225882530212,1.6678661108016968
1788862333468660500,12.368660400390626,-0.18367822468280792,0.6122967004776001,1.6623563766479492
1788862333478702300,12.378702392578125,-0.20725491642951965,0.5923905968666077,1.6644823551177979
1788862333488743400,12.388743408203124,-0.2262357920408249,0.6109352707862854,1.6688363552093506
1788862333498785300,12.398785400390626,-0.2641621530056,0.5897822976112366,1.6471190452575684
1788862333508826400,12.408826416015625,-0.3041801452636719,0.5199169516563416,1.6403796672821045
1788862333518867200,12.4188671875,-0.2921546399593353,0.4692588448524475,1.6924865245819092
1788862333528909300,12.428909423828125,-0.23338079452514648,0.4748149812221527,1.7852740287780762
1788862333538950100,12.4389501953125,-0.1789732128381729,0.5108217000961304,1.8433303833007812
1788862333548992500,12.448992431640624,-0.15283508598804474,0.49790486693382263,1.867093801498413
1788862333559033300,12.459033447265625,-0.1573113203048706,0.46958985924720764,1.8789706230163574
1788862333569075500,12.469075439453125,-0.20692814886569977,0.47020184993743896,1.873262643814087
