time,seconds_elapsed,z,y,x
1788862570717289200,0.056289306640625,-0.1154182031750679,-0.4934656322002411,2.0704233646392822
1788862570727331000,0.0663310546875,-0.3182200491428375,-0.5748438239097595,2.1974692344665527
1788862570737373400,0.07637353515625,-0.6081810593605042,-0.7858461141586304,2.200133800506592
1788862570747415300,0.086415283203125,-0.9057770371437073,-1.0832107067108154,2.142345905303955
1788862570757457200,0.09645703125,-1.1467869281768799,-1.4084089994430542,2.0930490493774414
1788862570767499300,0.106499267578125,-1.332741141319275,-1.5845696926116943,2.037707805633545
1788862570777541000,0.116541015625,-1.460361361503601,-1.5105262994766235,1.6849015951156616
1788862570787583200,0.126583251953125,-1.398413896560669,-1.754604458808899,1.0446637868881226
1788862570797625300,0.136625244140625,-1.2587913274765015,-1.52974534034729,0.4887068271636963
1788862570807667200,0.146667236328125,-1.08526611328125,-1.0402685403823853,0.06250998377799988
1788862570817709300,0.156709228515625,-0.9031839370727539,-0.4656608998775482,-0.261545330286026
1788862570827751200,0.166751220703125,-0.7053983807563782,0.1783769279718399,-0.41759324073791504
1788862570837793300,0.176793212890625,-0.4529608190059662,0.8167364001274109,-0.4091169238090515
1788862570847835400,0.18683544921875,-0.15261110663414001,1.1790392398834229,-0.39113128185272217
1788862570857877200,0.196877197265625,0.11251908540725708,0.9269872307777405,-0.4431167244911194
1788862570867919000,0.206919189453125,0.2319895625114441,-0.015194132924079895,-0.5598856806755066
1788862570877961200,0.216961181640625,0.20381838083267212,-1.287302017211914,-0.6369447708129883
1788862570888003300,0.22700341796875,0.221800297498703,-2.0139667987823486,-0.5823036432266235
1788862570898045200,0.237045166015625,0.36497610807418823,-2.2165780067443848,-0.443370521068573
1788862570908087300,0.24708740234375,0.5526530742645264,-2.3416125774383545,-0.37115782499313354
1788862570918129200,0.257129150390625,0.7501615881919861,-2.5686752796173096,-0.4189178943634033
1788862570928171300,0.267171142578125,0.925743043422699,-2.94869327545166,-0.5467331409454346
1788862570938213400,0.27721337890625,1.2237489223480225,-3.4405689239501953,-0.6493135690689087
1788862570948255200,0.287255126953125,1.7916202545166016,-3.8141205310821533,-0.504645824432373
1788862570958297300,0.29729736328125,2.3013501167297363,-4.0215229988098145,-0.22724619507789612
1788862570968339200,0.307339111328125,2.5360443592071533,-4.255073547363281,0.08996983617544174
1788862570978381000,0.317381103515625,2.1312150955200195,-4.619506359100342,0.41400277614593506
1788862570988423400,0.32742333984375,1.3575838804244995,-4.842809200286865,0.6868833303451538
1788862570998465300,0.33746533203125,0.8636817932128906,-4.956171035766602,0.9305910468101501
1788862571008507100,0.347507080078125,0.8592926263809204,-5.271738052368164,1.1911611557006836
1788862571018549200,0.35754931640625,1.2833818197250366,-5.701808452606201,1.4865541458129883
1788862571028591000,0.367591064453125,1.7972033023834229,-6.020401477813721,1.833114743232727
1788862571038633500,0.377633544921875,2.1521995067596436,-6.146492004394531,2.1416187286376953
1788862571048675300,0.38767529296875,2.36429500579834,-6.17181921005249,2.334390878677368
1788862571058717200,0.39771728515625,2.586472511291504,-6.259898662567139,2.4099090099334717
1788862571068759300,0.40775927734375,2.8973076343536377,-6.477680206298828,2.4185636043548584
1788862571078801200,0.41780126953125,3.2122745513916016,-6.503407955169678,2.401731014251709
1788862571088843300,0.42784326171875,3.4610166549682617,-6.289538860321045,2.3679511547088623
1788862571098885400,0.437885498046875,3.7022862434387207,-5.862854480743408,2.3200268745422363
1788862571108927200,0.44792724609375,3.9267807006835938,-5.271961688995361,2.1961448192596436
1788862571118969000,0.457968994140625,4.07515811920166,-4.601452350616455,1.8518937826156616
1788862571129011200,0.46801123046875,4.152199745178223,-3.934056520462036,1.3856847286224365
1788862571139053300,0.47805322265625,4.219419002532959,-3.284707546234131,0.9411166310310364
1788862571149095400,0.488095458984375,4.253751277923584,-2.7246177196502686,0.6503458023071289
1788862571159137300,0.49813720703125,4.256779193878174,-2.5109784603118896,0.5571314096450806
1788862571169179100,0.50817919921875,4.176372051239014,-2.44844388961792,0.6263126134872437
1788862571179221200,0.51822119140625,4.034505844116211,-2.362708806991577,0.7457444667816162
1788862571189263400,0.528263427734375,3.860581159591675,-2.233304738998413,0.8274675607681274
1788862571199305200,0.53830517578125,3.658832550048828,-2.0165975093841553,0.8860542178153992
1788862571209347300,0.548347412109375,3.440615177154541,-1.6445776224136353,0.9240918755531311
1788862571219389200,0.55838916015625,3.2067666053771973,-1.199138879776001,0.9262998700141907
1788862571229431000,0.56843115234375,2.9676871299743652,-0.755915105342865,0.8898885846138
1788862571239473400,0.578473388671875,2.729783058166504,-0.38799139857292175,0.800146758556366
1788862571249515300,0.588515380859375,2.5241177082061768,-0.10157615691423416,0.6748138666152954
1788862571259557000,0.59855712890625,2.326409101486206,0.13114602863788605,0.532890260219574
1788862571269599200,0.60859912109375,2.101635694503784,0.2560810446739197,0.419763445854187
1788862571279641000,0.61864111328125,1.8523510694503784,0.227195605635643,0.39031982421875
1788862571289683500,0.628683349609375,1.5719635486602783,0.11586987972259521,0.4918019473552704
1788862571299725300,0.638725341796875,1.311893343925476,0.016758207231760025,0.7109017968177795
1788862571309767200,0.64876708984375,1.0395671129226685,-0.10986844450235367,0.9786198139190674
1788862571319809300,0.658809326171875,0.7425108551979065,-0.2442864328622818,1.1917682886123657
1788862571329851100,0.66885107421875,0.46296340227127075,-0.30185893177986145,1.3312492370605469
1788862571339893200,0.678893310546875,0.24712589383125305,-0.2681654095649719,1.390876293182373
1788862571349935400,0.688935302734375,0.07256954163312912,-0.0679422989487648,1.3739418983459473
1788862571359977200,0.698977294921875,-0.07026803493499756,0.137591153383255,1.2666393518447876
1788862571370019000,0.70901904296875,-0.2006406933069229,0.3212968111038208,1.116215705871582
1788862571380061200,0.719061279296875,-0.28540778160095215,0.4347599744796753,1.0021698474884033
1788862571390103300,0.729103271484375,-0.30200886726379395,0.4921601414680481,0.9674497246742249
1788862571400145400,0.7391455078125,-0.2523893713951111,0.31650310754776,0.9708161950111389
1788862571410187300,0.749187255859375,-0.06052805855870247,-0.1776951551437378,0.9597830176353455
1788862571420229000,0.75922900390625,0.2685305178165436,-1.1486881971359253,0.850130021572113
1788862571430271200,0.769271240234375,0.39950746297836304,-2.1256017684936523,0.7138674855232239
1788862571440313300,0.779313232421875,0.415095716714859,-2.2764437198638916,0.6713671684265137
1788862571450355200,0.789355224609375,0.3727884888648987,-1.5810505151748657,0.7390948534011841
1788862571460397300,0.799397216796875,0.26866793632507324,-0.783033013343811,0.6276974678039551
1788862571470439200,0.809439208984375,0.174222931265831,-0.20195522904396057,0.1630786657333374
1788862571480481000,0.81948095703125,0.06586343795061111,0.4261704981327057,-0.4207187294960022
1788862571490523400,0.8295234375,-0.020378774031996727,1.1051743030548096,-0.919166624546051
1788862571500565200,0.839565185546875,-0.06672416627407074,1.5245108604431152,-1.31404447555542
1788862571510607400,0.849607421875,-0.10003738105297089,1.6805469989776611,-1.5946928262710571
1788862571520649200,0.859649169921875,-0.11890215426683426,1.6613647937774658,-1.7571512460708618
1788862571530690300,0.869690185546875,-0.10011754930019379,1.5163801908493042,-1.808318018913269
1788862571540732200,0.879732177734375,-0.011921640485525131,1.2104206085205078,-1.7225680351257324
1788862571550774300,0.889774169921875,0.15655872225761414,0.8762108683586121,-1.4740923643112183
1788862571560815600,0.899815673828125,0.34162285923957825,0.5727301239967346,-1.0722129344940186
1788862571570857700,0.909857666015625,0.488087922334671,0.2510596513748169,-0.5768508315086365
1788862571580899800,0.91989990234375,0.5779701471328735,-0.03544906899333,-0.0914742574095726
1788862571590941700,0.929941650390625,0.6093866229057312,-0.21798479557037354,0.307311475276947
1788862571600983600,0.939983642578125,0.5904081463813782,-0.35475462675094604,0.565231442451477
1788862571611025700,0.950025634765625,0.5537923574447632,-0.4042385518550873,0.7034846544265747
1788862571621067800,0.96006787109375,0.5183310508728027,-0.3149382472038269,0.7427796125411987
1788862571631109600,0.970109619140625,0.4887228012084961,-0.13755492866039276,0.6843777894973755
1788862571641151700,0.98015185546875,0.4368439018726349,0.09125001728534698,0.5689920783042908
1788862571651193600,0.990193603515625,0.2019621580839157,0.0662597119808197,0.24365021288394928
1788862571661235500,1.0002353515625,-0.24503105878829956,-0.3501018285751343,-0.31657448410987854
1788862571671277800,1.01027783203125,-0.4946235716342926,-0.25248923897743225,-0.6822070479393005
1788862571681319700,1.020319580078125,-0.44451433420181274,0.2499009221792221,-0.8253423571586609
1788862571691361800,1.03036181640625,-0.2314516007900238,0.6903283596038818,-0.9493396878242493
1788862571701403600,1.040403564453125,-0.07949109375476837,0.9022286534309387,-1.0861878395080566
1788862571711445500,1.050445556640625,-0.13785506784915924,1.1192022562026978,-1.0568664073944092
1788862571721488000,1.06048779296875,-0.13556315004825592,1.0973036289215088,-0.9462797045707703
1788862571731529700,1.07052978515625,-0.09115280956029892,0.9936890602111816,-0.8139888048171997
1788862571741571600,1.080571533203125,-0.12087582051753998,0.88868647813797,-0.7033392190933228
1788862571751613700,1.09061376953125,-0.13169971108436584,0.8254883289337158,-0.6727930307388306
1788862571761655600,1.100655517578125,-0.08839883655309677,0.7339029908180237,-0.6957785487174988
1788862571771697700,1.11069775390625,-0.06700300425291061,0.6866052746772766,-0.6961644291877747
1788862571781739800,1.12073974609375,-0.08255506306886673,0.5668128132820129,-0.6377663612365723
1788862571791781600,1.13078173828125,-0.10470324009656906,0.35782870650291443,-0.5347792506217957
1788862571801823700,1.14082373046875,-0.13877306878566742,0.12072668224573135,-0.3965878188610077
1788862571811865600,1.150865478515625,-0.1759108453989029,-0.07223664969205856,-0.2351296991109848
1788862571821907700,1.16090771484375,-0.17727304995059967,-0.21041981875896454,-0.08906249701976776
1788862571831949800,1.17094970703125,-0.16368639469146729,-0.29293787479400635,0.00857457984238863
1788862571841991700,1.18099169921875,-0.13794028759002686,-0.34886452555656433,0.045994121581315994
1788862571852033500,1.191033447265625,-0.0949382334947586,-0.3832653760910034,0.04091067984700203
1788862571862075600,1.20107568359375,-0.047737959772348404,-0.37128913402557373,0.04480874910950661
1788862571872117800,1.21111767578125,-0.019661851227283478,-0.35472986102104187,0.09995003044605255
1788862571882159600,1.22115966796875,-0.02028716169297695,-0.42342209815979004,0.22837671637535095
1788862571892201700,1.23120166015625,-0.08916635811328888,-0.5530663728713989,0.43895259499549866
1788862571902243600,1.24124365234375,-0.18469953536987305,-0.7051690816879272,0.6893299221992493
1788862571912285400,1.251285400390625,-0.28497129678726196,-0.8102646470069885,0.927916944026947
1788862571922327800,1.261327880859375,-0.3738287091255188,-0.9052148461341858,1.1176637411117554
1788862571932369700,1.27136962890625,-0.3940082788467407,-1.132997989654541,1.2181527614593506
1788862571942411800,1.281411865234375,-0.3635920584201813,-1.2047152519226074,1.313469409942627
1788862571952453600,1.29145361328125,-0.3372291624546051,-1.1616178750991821,1.4007567167282104
1788862571962495500,1.30149560546875,-0.40980109572410583,-1.142222285270691,1.4268335103988647
1788862571972537900,1.311537841796875,-0.5159725546836853,-1.1399519443511963,1.4271811246871948
1788862571982579700,1.321579833984375,-0.6795308589935303,-0.9878702759742737,1.4754705429077148
1788862571992621600,1.33162158203125,-0.8388373851776123,-0.8206080794334412,1.5352212190628052
1788862572002663700,1.34166357421875,-0.916706919670105,-0.7059379816055298,1.5731638669967651
1788862572012705500,1.35170556640625,-0.9755997657775879,-0.4606594741344452,1.6286956071853638
1788862572022747600,1.36174755859375,-0.9907486438751221,-0.3902958333492279,1.732845664024353
1788862572032789800,1.371789794921875,-0.9406516551971436,-0.6845312118530273,1.8436083793640137
1788862572042831600,1.38183154296875,-0.8113003373146057,-1.300905466079712,1.9731632471084595
1788862572052873700,1.391873779296875,-0.7216367721557617,-1.8777999877929688,2.2070517539978027
1788862572062915600,1.40191552734375,-0.597740113735199,-2.1924595832824707,2.4477367401123047
1788862572072957700,1.411957763671875,-0.4169061481952667,-2.2864201068878174,2.5734527111053467
1788862572082999800,1.421999755859375,-0.20532572269439697,-2.2174766063690186,2.5098698139190674
1788862572093041700,1.432041748046875,-0.0580688938498497,-1.7916383743286133,2.5882248878479004
1788862572103083500,1.44208349609375,0.26510995626449585,-1.851059913635254,2.5569496154785156
1788862572113125600,1.452125732421875,0.7252458930015564,-2.2675747871398926,2.3457090854644775
1788862572123167700,1.462167724609375,1.3332457542419434,-2.206481695175171,2.2543845176696777
1788862572133209600,1.472209716796875,1.9819297790527344,-1.6390759944915771,2.0753209590911865
1788862572143251700,1.482251708984375,2.5003204345703125,-1.0349863767623901,1.4355894327163696
1788862572153293600,1.49229345703125,2.9833567142486572,-0.2882280647754669,0.17175525426864624
1788862572163335700,1.502335693359375,3.881528854370117,0.8505667448043823,-0.7383305430412292
1788862572173377800,1.512377685546875,4.833935737609863,1.6058714389801025,-0.8536099791526794
1788862572183418600,1.522418701171875,5.300705909729004,2.0872678756713867,-0.7964571714401245
1788862572193460700,1.532460693359375,5.286013603210449,2.2981486320495605,-1.0661118030548096
1788862572203502600,1.542502685546875,5.837968826293945,2.013472557067871,-1.2782094478607178
1788862572213544700,1.552544677734375,6.836309432983398,1.2363815307617188,-0.7335237860679626
1788862572223586600,1.562586669921875,6.1600470542907715,-0.6517165303230286,-0.4167998731136322
1788862572233628700,1.572628662109375,5.973311424255371,-1.208764910697937,0.0664069876074791
1788862572243670800,1.5826708984375,5.86642599105835,-1.4246803522109985,-0.13462518155574799
1788862572253712600,1.592712646484375,5.472229480743408,-0.7970441579818726,-0.591830313205719
1788862572263754500,1.60275439453125,4.724130153656006,0.5214874148368835,-0.7471991181373596
1788862572273796600,1.612796630859375,4.189643859863281,0.15780507028102875,-0.7292142510414124
1788862572283838700,1.622838623046875,3.5671329498291016,-1.0590709447860718,-0.3478919267654419
1788862572293880600,1.632880615234375,2.818051815032959,-2.272754430770874,0.07298365980386734
1788862572303922700,1.642922607421875,2.129315137863159,-2.089909315109253,0.3848917484283447
1788862572313964500,1.652964599609375,1.1669111251831055,-1.3216829299926758,0.330768346786499
1788862572324006700,1.663006591796875,0.20827171206474304,-1.0733364820480347,0.09595742076635361
1788862572334048800,1.673048828125,-0.23394644260406494,-0.8856257200241089,0.10777493566274643
1788862572344090600,1.683090576171875,-0.43700823187828064,-0.7396341562271118,0.3072337210178375
1788862572354132700,1.6931328125,-0.5034404993057251,-0.20008142292499542,0.5330777764320374
1788862572364174600,1.703174560546875,-0.23839499056339264,-0.09098103642463684,0.42457205057144165
1788862572374216400,1.713216552734375,0.41884493827819824,-0.7446914911270142,-0.06247616186738014
1788862572384258800,1.7232587890625,1.2270456552505493,-0.8142391443252563,-0.610595166683197
1788862572394300700,1.73330078125,1.3436497449874878,-0.3463667333126068,-0.6243219375610352
1788862572404342500,1.743342529296875,1.093795895576477,-0.5648508667945862,0.11433110386133194
1788862572414384600,1.753384521484375,0.8988344669342041,-0.48384442925453186,0.8578729033470154
1788862572424426500,1.763426513671875,0.5358309149742126,-0.8157736659049988,0.8929429650306702
1788862572434468900,1.77346875,0.0782679095864296,-1.2475439310073853,0.40910014510154724
1788862572444510700,1.7835107421875,0.009920541197061539,-0.6724010109901428,-0.16575488448143005
1788862572454552600,1.793552490234375,0.07474001497030258,-0.0019353191601112485,-0.6457515954971313
1788862572464594700,1.8035947265625,0.0162386242300272,0.35324355959892273,-0.945614755153656
1788862572474636500,1.813636474609375,0.008106129243969917,0.5246326327323914,-1.093860149383545
1788862572484678700,1.8236787109375,0.12541651725769043,0.3711996376514435,-1.0180500745773315
1788862572494720800,1.833720703125,0.34197279810905457,-0.09718487411737442,-0.38784894347190857
1788862572504762600,1.8437626953125,0.41642171144485474,-0.3368544578552246,0.10177483409643173
1788862572514804500,1.853804443359375,0.6109576225280762,-0.3311355710029602,0.053823016583919525
1788862572524846600,1.8638466796875,1.0511730909347534,-0.16048261523246765,-0.24316151440143585
1788862572534888700,1.873888671875,1.3610132932662964,0.18727454543113708,-0.37763944268226624
1788862572544930800,1.883930908203125,1.1800322532653809,0.2485181987285614,-0.10375595837831497
1788862572554973000,1.893972900390625,0.7678170204162598,0.27373406291007996,-0.08922868221998215
1788862572565014800,1.904014892578125,0.24997441470623016,0.3569251000881195,-0.16344724595546722
1788862572575057000,1.914056884765625,0.03603629767894745,0.23641200363636017,-0.21427421271800995
1788862572585098800,1.9240986328125,0.06958173960447311,0.12591132521629333,-0.10176098346710205
1788862572595140600,1.934140625,-0.06702910363674164,0.05458228662610054,0.028233235701918602
1788862572605183000,1.944182861328125,-0.36076536774635315,-0.03093607723712921,0.10937975347042084
1788862572615223800,1.954223876953125,-0.5704280734062195,-0.015282017178833485,0.20639631152153015
1788862572625266000,1.964265869140625,-0.6404076814651489,-0.050386473536491394,0.16120752692222595
1788862572635307800,1.974307861328125,-0.22056859731674194,-0.329129695892334,0.03347966447472572
1788862572645349600,1.984349609375,0.23023027181625366,-0.5699758529663086,0.0033329459838569164
1788862572655391700,1.994391845703125,0.6489329934120178,-0.4975024461746216,0.044608745723962784
1788862572665433900,2.004433837890625,0.7555601000785828,-0.29266834259033203,-0.06755054742097855
1788862572675475700,2.014475830078125,1.116862416267395,-0.2578776180744171,-0.015538212843239307
1788862572685517800,2.024517822265625,1.3399924039840698,-0.24225524067878723,0.1505863070487976
1788862572695559700,2.0345595703125,1.2846332788467407,-0.10395356267690659,0.47738415002822876
1788862572705601800,2.044601806640625,0.8479195833206177,-0.4917476177215576,0.2837888300418854
1788862572715644000,2.054643798828125,0.8032296299934387,-0.8912215232849121,0.08573514223098755
1788862572725685800,2.064685791015625,0.9043580889701843,-0.938818097114563,0.1133475974202156
1788862572735727900,2.074727783203125,0.9612743854522705,-0.9579158425331116,0.1910722255706787
1788862572745769700,2.084769775390625,0.8550645709037781,-0.8817270994186401,0.17467060685157776
1788862572755811600,2.0948115234375,0.4626299738883972,-0.9918314814567566,0.13152553141117096
1788862572765854000,2.10485400390625,0.4206683933734894,-1.5555318593978882,0.030839139595627785
1788862572775895800,2.114895751953125,0.9993631839752197,-2.988694667816162,-0.4494457244873047
1788862572785937700,2.124937744140625,1.215592622756958,-3.239229917526245,-0.7919687032699585
1788862572795979800,2.134979736328125,0.9945327043533325,-2.3830785751342773,-0.8079324960708618
1788862572806021600,2.145021728515625,0.8657718300819397,-1.8891942501068115,-0.5519713163375854
1788862572816064000,2.15506396484375,1.0382312536239624,-2.1199612617492676,-0.5414350032806396
1788862572826105900,2.16510595703125,1.093494176864624,-1.6338828802108765,-0.2504194378852844
1788862572836147700,2.175147705078125,1.336612343788147,-1.3682754039764404,-0.259756475687027
1788862572846189800,2.18518994140625,1.405451774597168,-1.7673267126083374,-0.31365352869033813
1788862572856231700,2.195231689453125,1.407060146331787,-2.41452693939209,-0.05988037586212158
1788862572866273800,2.205273681640625,1.3798234462738037,-2.917513370513916,0.24202701449394226
1788862572876316000,2.21531591796875,0.9803583025932312,-2.9441781044006348,0.17978760600090027
1788862572886357800,2.225357666015625,0.6304543614387512,-2.5708260536193848,0.22347356379032135
1788862572896399600,2.235399658203125,0.36952292919158936,-2.0507233142852783,0.323040634393692
1788862572906441700,2.245441650390625,0.24436339735984802,-1.5234743356704712,0.3545365035533905
1788862572916483800,2.25548388671875,0.26791906356811523,-1.3607237339019775,0.25205594301223755
1788862572926526000,2.26552587890625,0.2661539316177368,-1.3609176874160767,0.12414351850748062
1788862572936567800,2.27556787109375,0.4527190029621124,-1.1199116706848145,0.08291325718164444
1788862572946609700,2.285609619140625,0.62298983335495,-0.8983113765716553,0.15183480083942413
1788862572956651800,2.29565185546875,0.426595538854599,-0.8014612793922424,0.2215244024991989
1788862572966692600,2.305692626953125,0.4737135171890259,-0.664007842540741,0.23934440314769745
1788862572976735000,2.31573486328125,0.7148702144622803,-0.5439706444740295,0.11277049034833908
1788862572986776800,2.32577685546875,0.7932968139648438,-0.7097300291061401,-0.11178138852119446
1788862572996818700,2.335818603515625,0.619483232498169,-0.7601439356803894,-0.21882422268390656
1788862573006860800,2.34586083984375,0.36321496963500977,-0.762559175491333,-0.0854611024260521
1788862573016902700,2.355902587890625,0.22097179293632507,-0.6553059220314026,-0.02184830792248249
1788862573026944800,2.36594482421875,0.549172580242157,-0.3416774272918701,-0.3261360228061676
1788862573036987000,2.37598681640625,0.6985306143760681,-0.5994482636451721,-0.32487183809280396
1788862573047028700,2.38602880859375,0.6092013120651245,-0.7153988480567932,-0.31227588653564453
1788862573057070800,2.39607080078125,0.6273203492164612,-0.5891734957695007,-0.3263157904148102
1788862573067112700,2.40611279296875,0.5871779918670654,-0.45050299167633057,-0.3157246708869934
1788862573077154800,2.41615478515625,0.4552900195121765,-0.31462639570236206,-0.37895265221595764
1788862573087197000,2.426197021484375,0.3646242916584015,-0.24537061154842377,-0.4040484130382538
1788862573097238800,2.43623876953125,0.4908392131328583,-0.14784006774425507,-0.3421754539012909
1788862573107280600,2.44628076171875,0.7745636105537415,-0.031504929065704346,-0.3359500467777252
1788862573117322800,2.45632275390625,0.9494677782058716,0.3246212303638458,-0.389239102602005
1788862573127364900,2.46636474609375,1.0646042823791504,0.7197741270065308,-0.45951858162879944
1788862573137406700,2.47640673828125,1.1568652391433716,0.8179960250854492,-0.6133971214294434
1788862573147448800,2.48644873046875,1.1377793550491333,0.798947274684906,-0.7995933294296265
1788862573157490700,2.49649072265625,1.0834804773330688,0.784824788570404,-0.8162961602210999
1788862573167532800,2.50653271484375,1.0394551753997803,0.8841835856437683,-0.6718137860298157
1788862573177575000,2.516574951171875,0.9462530612945557,0.8500761985778809,-0.4749625325202942
1788862573187616800,2.52661669921875,0.8188011050224304,0.8442449569702148,-0.3262220621109009
1788862573197659000,2.536658935546875,0.7362894415855408,0.6868255138397217,-0.22374947369098663
1788862573207700700,2.54670068359375,0.6525428891181946,0.6312828660011292,-0.1164160892367363
1788862573217742600,2.55674267578125,0.6967095732688904,0.4731963276863098,-0.01239195466041565
1788862573227785000,2.566784912109375,0.7127364873886108,0.1729893535375595,0.06509937345981598
1788862573237826800,2.576826904296875,0.70174241065979,-0.37814703583717346,0.03712766245007515
1788862573247868700,2.58686865234375,0.7220492959022522,-0.7987134456634521,-0.0024655545130372047
1788862573257910800,2.596910888671875,0.7067409157752991,-0.9575952291488647,-0.030581876635551453
1788862573267952600,2.60695263671875,0.5528578758239746,-0.9515405297279358,-0.05792881175875664
1788862573277994800,2.616994873046875,0.3615368902683258,-1.031691312789917,-0.1348118782043457
1788862573288035800,2.627035888671875,0.25495773553848267,-1.0605453252792358,-0.15412752330303192
1788862573298077700,2.63707763671875,0.17178401350975037,-1.0696234703063965,-0.11162426322698593
1788862573308119800,2.647119873046875,0.1040254682302475,-1.1013283729553223,-0.0046781087294220924
1788862573318161700,2.65716162109375,0.06761925667524338,-1.0897034406661987,0.07927591353654861
1788862573328203800,2.667203857421875,0.031809862703084946,-1.0331206321716309,0.10511736571788788
1788862573338246000,2.677245849609375,0.007968977093696594,-0.9128724932670593,0.10461003333330154
1788862573348287700,2.687287841796875,-0.02046426199376583,-0.7953261733055115,0.09953724592924118
1788862573358329900,2.697329833984375,-0.018804313614964485,-0.6866920590400696,0.11917059868574142
1788862573368371700,2.707371826171875,-0.0226746853441,-0.5143160820007324,0.1757819503545761
1788862573378413600,2.71741357421875,-0.04843331128358841,-0.3753962516784668,0.22895115613937378
1788862573388456000,2.7274560546875,-0.09473290294408798,-0.2251196652650833,0.278467059135437
1788862573398497800,2.737497802734375,-0.1614791750907898,-0.12370756268501282,0.3326394557952881
1788862573408539600,2.74753955078125,-0.23845358192920685,-0.12736141681671143,0.38590988516807556
1788862573418581800,2.757581787109375,-0.29949748516082764,-0.15567241609096527,0.40945807099342346
1788862573428623600,2.76762353515625,-0.39396461844444275,-0.17559978365898132,0.3875538408756256
1788862573438666000,2.777666015625,-0.5186666250228882,-0.18561460077762604,0.33874422311782837
1788862573448707800,2.787707763671875,-0.6226385235786438,-0.03449592366814613,0.31240662932395935
1788862573458749700,2.797749755859375,-0.7310733795166016,0.539600670337677,0.2880120873451233
1788862573468791800,2.807791748046875,-0.8079239726066589,1.0230906009674072,0.34104520082473755
1788862573478833700,2.817833740234375,-0.838771641254425,1.143011212348938,0.33346185088157654
1788862573488875800,2.827875732421875,-0.8487629890441895,0.9392324686050415,0.36975887417793274
1788862573498918000,2.83791796875,-0.6665207743644714,0.4176177382469177,0.44335079193115234
1788862573508959700,2.847959716796875,-0.3767922818660736,-0.3099578619003296,0.39738625288009644
1788862573519001600,2.858001708984375,-0.10523800551891327,-0.642488420009613,0.1904304027557373
1788862573529043700,2.868043701171875,0.028501149266958237,-0.6043031811714172,-0.07060359418392181
1788862573539085800,2.8780859375,0.024820927530527115,-0.40766310691833496,-0.23842935264110565
1788862573549128000,2.8881279296875,0.028743231669068336,-0.18743620812892914,-0.3367018699645996
1788862573559169500,2.89816943359375,0.07086804509162903,-0.11160482466220856,-0.33929896354675293
1788862573569211600,2.908211669921875,0.10869771987199783,-0.05155347287654877,-0.29488784074783325
1788862573579252700,2.918252685546875,0.12631240487098694,-0.07730304449796677,-0.28190359473228455
1788862573589294600,2.928294677734375,0.1291089802980423,-0.20964670181274414,-0.29696401953697205
1788862573599336700,2.938336669921875,0.06028251349925995,-0.2698194980621338,-0.36424851417541504
1788862573609378600,2.948378662109375,0.019173961132764816,-0.24481241405010223,-0.47809067368507385
1788862573619420400,2.95842041015625,0.03425117954611778,-0.15948419272899628,-0.604385256767273
1788862573629462800,2.968462890625,0.08481182903051376,-0.1752743422985077,-0.7439085245132446
1788862573639504600,2.978504638671875,0.2162175178527832,-0.18333467841148376,-0.9553080797195435
1788862573649546500,2.98854638671875,0.21949027478694916,-0.18246355652809143,-1.0769487619400024
1788862573659588600,2.998588623046875,0.030315561220049858,-0.32428672909736633,-1.0817818641662598
1788862573669630500,3.00863037109375,-0.12344923615455627,-0.2443343698978424,-1.1743298768997192
1788862573679672800,3.0186728515625,-0.17087213695049286,-0.0611238069832325,-1.259443759918213
1788862573689714700,3.028714599609375,-0.156832754611969,-0.04490755498409271,-1.3485875129699707
1788862573699756500,3.038756591796875,-0.14161571860313416,-0.19855649769306183,-1.4528052806854248
1788862573709798700,3.048798583984375,-0.18308912217617035,-0.35701271891593933,-1.528805136680603
1788862573719840500,3.058840576171875,-0.2774347960948944,-0.3564590513706207,-1.5960804224014282
1788862573729882600,3.068882568359375,-0.3729884922504425,-0.19438359141349792,-1.637436032295227
1788862573739924700,3.0789248046875,-0.4048076868057251,-0.014377874322235584,-1.6177339553833008
1788862573749966600,3.088966552734375,-0.3458878993988037,0.09922511875629425,-1.6196157932281494
1788862573760008400,3.099008544921875,-0.24306830763816833,-0.025011077523231506,-1.7299766540527344
1788862573770050600,3.109050537109375,-0.1322248876094818,-0.3845234513282776,-1.9500828981399536
1788862573780092700,3.1190927734375,-0.017039436846971512,-0.803061306476593,-2.2176637649536133
1788862573790134800,3.129134765625,0.10478846728801727,-1.0616880655288696,-2.4376437664031982
1788862573800176600,3.1391767578125,0.21833978593349457,-1.0981533527374268,-2.5450966358184814
1788862573810218500,3.149218505859375,0.29685643315315247,-1.0360122919082642,-2.5950942039489746
1788862573820260600,3.159260498046875,0.345752090215683,-0.9432341456413269,-2.6224913597106934
1788862573830302700,3.169302734375,0.3886939585208893,-0.8687553405761719,-2.646697998046875
1788862573840344600,3.179344482421875,0.46054205298423767,-0.8325350284576416,-2.6821048259735107
1788862573850386700,3.18938671875,0.5495722889900208,-0.9689877033233643,-2.6142001152038574
1788862573860427500,3.199427490234375,0.594071626663208,-1.1280934810638428,-2.490058422088623
1788862573870469600,3.2094697265625,0.6088305711746216,-1.3207249641418457,-2.422288656234741
1788862573880511500,3.219511474609375,0.6573051810264587,-1.4059360027313232,-2.386949300765991
1788862573890553600,3.2295537109375,0.7082735300064087,-1.3051968812942505,-2.299041509628296
1788862573900595700,3.239595703125,0.7054665684700012,-1.1696491241455078,-2.2057394981384277
1788862573910637600,3.249637451171875,0.6679927110671997,-1.0669955015182495,-2.1033413410186768
1788862573920679700,3.2596796875,0.5853939652442932,-0.9680576920509338,-2.00373911857605
1788862573930721500,3.269721435546875,0.4799559414386749,-0.8662176132202148,-1.912392020225525
1788862573940763600,3.279763671875,0.39761075377464294,-0.7997467517852783,-1.779378056526184
1788862573950805800,3.2898056640625,0.3166376054286957,-0.7657304406166077,-1.644228219985962
1788862573960847600,3.29984765625,0.24798662960529327,-0.7591939568519592,-1.5165435075759888
1788862573970889500,3.309889404296875,0.19746246933937073,-0.7360466122627258,-1.3652104139328003
1788862573980931600,3.319931640625,0.11967287212610245,-0.7591226100921631,-1.1433427333831787
1788862573990973700,3.3299736328125,0.04236263781785965,-0.6704095005989075,-0.8901458978652954
1788862574001015600,3.340015625,-0.019706327468156815,-0.6378236413002014,-0.6083621382713318
1788862574011057700,3.3500576171875,-0.09909462183713913,-0.5913301706314087,-0.283403217792511
1788862574021099500,3.360099609375,-0.16403314471244812,-0.4136456251144409,0.053465623408555984
1788862574031141600,3.3701416015625,-0.20416298508644104,-0.2505888044834137,0.2393401563167572
1788862574041183700,3.380183837890625,-0.2530924379825592,-0.18312162160873413,0.25260961055755615
1788862574051225600,3.3902255859375,-0.2796633243560791,-0.14042928814888,0.2093617469072342
1788862574061267700,3.400267822265625,-0.32573947310447693,-0.06575024873018265,0.2571902573108673
1788862574071309600,3.4103095703125,-0.4078045189380646,0.024817997589707375,0.4090240001678467
1788862574081351400,3.420351318359375,-0.5114814043045044,0.08693596720695496,0.6359327435493469
1788862574091393800,3.430393798828125,-0.5899394750595093,0.08848486095666885,0.9216873049736023
1788862574101435600,3.440435546875,-0.6298072338104248,0.11338354647159576,1.1236108541488647
1788862574111476700,3.450476806640625,-0.659978985786438,0.18181240558624268,1.0684133768081665
1788862574121518600,3.4605185546875,-0.646905779838562,0.23880352079868317,0.7923415303230286
1788862574131560400,3.470560546875,-0.5951760411262512,0.1871962547302246,0.5336748361587524
1788862574141602600,3.4806025390625,-0.6178797483444214,0.10077667981386185,0.44990405440330505
1788862574151644700,3.490644775390625,-0.6960523128509521,0.07830145955085754,0.5335124135017395
1788862574161686800,3.500686767578125,-0.7987176775932312,0.20275497436523438,0.7176731824874878
1788862574171728600,3.510728759765625,-0.8719689846038818,0.27764812111854553,0.9810861945152283
1788862574181770500,3.5207705078125,-0.8742249608039856,0.30909234285354614,1.1588026285171509
1788862574191812600,3.5308125,-0.8387868404388428,0.47627148032188416,1.0714962482452393
1788862574201854700,3.540854736328125,-0.7791274785995483,0.6026962399482727,0.7633200287818909
1788862574211896600,3.550896484375,-0.6163414716720581,0.5061593055725098,0.32652777433395386
1788862574221938700,3.560938720703125,-0.4236266314983368,0.2249622792005539,0.011959457769989967
1788862574231980500,3.57098046875,-0.26964372396469116,-0.08500064164400101,-0.096535325050354
1788862574242022400,3.5810224609375,-0.19547230005264282,-0.07061877846717834,0.03828294202685356
1788862574252064800,3.591064697265625,-0.1842670440673828,0.2888917326927185,0.21903833746910095
1788862574262106600,3.601106689453125,-0.16662679612636566,0.5644655227661133,0.34370970726013184
1788862574272148700,3.611148681640625,-0.1861000955104828,0.5788231492042542,0.36774498224258423
1788862574282190600,3.621190673828125,-0.264392226934433,0.5041971206665039,0.29381272196769714
1788862574292232400,3.631232421875,-0.3404798209667206,0.33725419640541077,0.1734868288040161
1788862574302274800,3.64127490234375,-0.37321779131889343,0.08075530081987381,0.08018910884857178
1788862574312316700,3.651316650390625,-0.36083969473838806,-0.12549108266830444,0.04236236959695816
1788862574322358500,3.661358642578125,-0.3430534899234772,-0.1401376724243164,0.06736412644386292
1788862574332400600,3.671400634765625,-0.2929048538208008,-0.07614962756633759,0.1610749065876007
1788862574342442500,3.6814423828125,-0.20556513965129852,0.004496481269598007,0.28172993659973145
1788862574352483600,3.691483642578125,-0.08853679150342941,0.09778621792793274,0.38213032484054565
1788862574362525700,3.701525634765625,0.0187196247279644,0.14090865850448608,0.4583257734775543
1788862574372567600,3.711567626953125,0.10396022349596024,0.07508169859647751,0.5270795226097107
1788862574382609700,3.721609619140625,0.15876248478889465,0.004318848252296448,0.6232531666755676
1788862574392651500,3.731651611328125,0.1771625280380249,0.0029800771735608578,0.7386437058448792
1788862574402693600,3.741693603515625,0.14142583310604095,0.03520698845386505,0.8593463897705078
1788862574412735700,3.75173583984375,0.05650082603096962,0.06048278510570526,1.0017539262771606
1788862574422777600,3.761777587890625,-0.08133693039417267,0.0847199484705925,1.1459273099899292
1788862574432819700,3.77181982421875,-0.21850250661373138,0.10138574242591858,1.2318408489227295
1788862574442861600,3.781861572265625,-0.34449321031570435,0.10449391603469849,1.2194896936416626
1788862574452903400,3.7919033203125,-0.4670731723308563,0.05106611177325249,1.1334360837936401
1788862574462945800,3.80194580078125,-0.5846533179283142,-0.03881557285785675,1.0285234451293945
1788862574472987600,3.811987548828125,-0.6724686622619629,-0.06376726180315018,0.954374372959137
1788862574483029500,3.822029541015625,-0.750690758228302,-0.017846109345555305,0.9152413606643677
1788862574493071600,3.832071533203125,-0.8378669619560242,0.12217225134372711,0.9156099557876587
1788862574503113500,3.842113525390625,-0.8911266922950745,0.29920828342437744,0.946895182132721
1788862574513155600,3.852155517578125,-0.8531495332717896,0.4206843674182892,0.9390284419059753
1788862574523197700,3.86219775390625,-0.697181224822998,0.4038872718811035,0.8184189796447754
1788862574533239600,3.872239501953125,-0.49812430143356323,0.2720200717449188,0.6102513670921326
1788862574543281700,3.88228173828125,-0.3418385684490204,0.1403547078371048,0.45859473943710327
1788862574553323500,3.892323486328125,-0.2485954314470291,0.08944359421730042,0.4125420153141022
1788862574563366000,3.902365966796875,-0.2344934642314911,0.08303283154964447,0.42686423659324646
1788862574573408000,3.912407958984375,-0.31385940313339233,0.13907159864902496,0.4719960391521454
1788862574583449900,3.922449951171875,-0.4352204501628876,0.2465844750404358,0.5314117074012756
1788862574593491000,3.932490966796875,-0.5803642868995667,0.3662179410457611,0.6134871244430542
1788862574603532800,3.94253271484375,-0.7268869280815125,0.4334542453289032,0.6930178999900818
1788862574613575000,3.952574951171875,-0.8565067052841187,0.44129884243011475,0.7559617161750793
1788862574623617000,3.962616943359375,-0.9638432860374451,0.4092088043689728,0.8113394975662231
1788862574633659000,3.972658935546875,-1.0291253328323364,0.36226314306259155,0.8501638174057007
1788862574643700700,3.98270068359375,-1.0471317768096924,0.35372504591941833,0.8686001300811768
1788862574653742800,3.992742919921875,-1.0049246549606323,0.37495923042297363,0.8477190732955933
1788862574663785000,4.002784912109375,-0.8974661231040955,0.45918142795562744,0.7850005626678467
1788862574673826800,4.012826904296875,-0.7757468819618225,0.588632345199585,0.6816413998603821
1788862574683869000,4.022868896484375,-0.6475092768669128,0.6459449529647827,0.5830307006835938
1788862574693910800,4.032910888671875,-0.5035449266433716,0.5723029375076294,0.5118563771247864
1788862574703953000,4.042952880859375,-0.3408167064189911,0.511138379573822,0.45080021023750305
1788862574713995000,4.0529951171875,-0.18700264394283295,0.5638630986213684,0.3800879418849945
1788862574724036900,4.063036865234375,-0.08085916191339493,0.695390522480011,0.3191055655479431
1788862574734079000,4.073078857421875,-0.03882143273949623,0.8121395111083984,0.2816852033138275
1788862574744120800,4.083120849609375,-0.031502265483140945,0.8089396953582764,0.28267884254455566
1788862574754162700,4.09316259765625,-0.012527509592473507,0.706224799156189,0.3008384108543396
1788862574764205000,4.103205078125,0.001210939371958375,0.5766931772232056,0.3222709894180298
1788862574774247000,4.113246826171875,0.011652128770947456,0.4672928750514984,0.33808615803718567
1788862574784288800,4.123288818359375,0.027109382674098015,0.4443660080432892,0.3286242187023163
1788862574794331000,4.133330810546875,0.04825461283326149,0.5090216994285583,0.28554973006248474
1788862574804372700,4.143372802734375,0.07127098739147186,0.5873165130615234,0.20588631927967072
1788862574814413800,4.153413818359375,0.09107451885938644,0.5992794036865234,0.11797697097063065
1788862574824456000,4.1634560546875,0.11442217975854874,0.5261311531066895,0.022338328883051872
1788862574834498000,4.173498046875,0.12845171988010406,0.40065819025039673,-0.08653462678194046
1788862574844540000,4.183539794921875,0.11460008472204208,0.3006487786769867,-0.22279898822307587
1788862574854581800,4.193581787109375,0.06632229685783386,0.2380479872226715,-0.33875781297683716
1788862574864623900,4.203623779296875,0.025229988619685173,0.15604393184185028,-0.3812562823295593
1788862574874666000,4.213666015625,0.011211908422410488,0.16623371839523315,-0.34365084767341614
1788862574884707800,4.223707763671875,-0.01519706193357706,0.3253101706504822,-0.2684580981731415
1788862574894750000,4.23375,-0.06935590505599976,0.5478891730308533,-0.1998569220304489
1788862574904791800,4.243791748046875,-0.15274986624717712,0.7416280508041382,-0.1277121603488922
1788862574914833700,4.253833740234375,-0.22771358489990234,0.8087921738624573,-0.04741198942065239
1788862574924876000,4.2638759765625,-0.26642635464668274,0.6690515875816345,-0.030581876635551453
1788862574934918000,4.27391796875,-0.27414020895957947,0.3212131857872009,-0.06675985455513
1788862574944960000,4.2839599609375,-0.29711076617240906,-0.0975116416811943,-0.0802258625626564
1788862574955001900,4.294001953125,-0.3209090530872345,-0.28184154629707336,-0.035416048020124435
1788862574965044000,4.3040439453125,-0.2917431592941284,-0.08284508436918259,0.02468270994722843
1788862574975086000,4.314086181640625,-0.23133789002895355,0.3132378160953522,0.055257394909858704
1788862574985128000,4.3241279296875,-0.1701568216085434,0.6206709742546082,0.06314541399478912
1788862574995169800,4.334169677734375,-0.06596756726503372,0.7613652348518372,0.04208087548613548
1788862575005212000,4.3442119140625,0.055871788412332535,0.7090514302253723,-0.015323828905820847
1788862575015252700,4.354252685546875,0.1522931307554245,0.5253838896751404,-0.10485770553350449
1788862575025295000,4.364295166015625,0.18762636184692383,0.34114640951156616,-0.18991880118846893
1788862575035337000,4.3743369140625,0.20231102406978607,0.22091160714626312,-0.2660479247570038
1788862575045378800,4.38437890625,0.262743204832077,0.17353956401348114,-0.29139244556427
1788862575055421000,4.3944208984375,0.3254159092903137,0.2645072937011719,-0.2694929838180542
1788862575065462800,4.404462890625,0.35399243235588074,0.31188440322875977,-0.24860022962093353
1788862575075505000,4.4145048828125,0.38880473375320435,0.2918880581855774,-0.23798459768295288
1788862575085547000,4.424547119140625,0.4116133749485016,0.36109402775764465,-0.2579908072948456
1788862575095588900,4.4345888671875,0.38949182629585266,0.49202752113342285,-0.2917306423187256
1788862575105631000,4.444630859375,0.32336100935935974,0.5914265513420105,-0.3135310113430023
1788862575115672800,4.4546728515625,0.24019315838813782,0.6015905141830444,-0.3089466691017151
1788862575125715000,4.46471484375,0.17521309852600098,0.49014812707901,-0.2883385717868805
1788862575135757000,4.474757080078125,0.16800232231616974,0.28010061383247375,-0.2423953264951706
1788862575145799000,4.484798828125,0.1882346272468567,0.14345143735408783,-0.20095734298229218
1788862575155840800,4.4948408203125,0.2130289226770401,0.1247778832912445,-0.2122368961572647
1788862575165883000,4.5048828125,0.2125980108976364,0.21928387880325317,-0.2853933870792389
1788862575175925000,4.514925048828125,0.1959543228149414,0.28566211462020874,-0.37195438146591187
1788862575185966800,4.524966796875,0.1621292531490326,0.33181843161582947,-0.39558595418930054
1788862575196009000,4.535009033203125,0.12076876312494278,0.38638338446617126,-0.3681516647338867
1788862575206050800,4.54505078125,0.12916144728660583,0.38820260763168335,-0.33768776059150696
1788862575216092000,4.555091796875,0.14664483070373535,0.30158060789108276,-0.33264026045799255
1788862575226133800,4.5651337890625,0.09295684099197388,0.18866339325904846,-0.36572498083114624
1788862575236176100,4.575176025390625,-0.012117116712033749,0.13702230155467987,-0.4366931617259979
1788862575246218000,4.585218017578125,-0.11132945120334625,0.1881970763206482,-0.5306697487831116
1788862575256259800,4.595259765625,-0.16441237926483154,0.3943188190460205,-0.6079245805740356
1788862575266302000,4.605302001953125,-0.1900959014892578,0.6188105344772339,-0.6168181896209717
1788862575276343800,4.61534375,-0.17468419671058655,0.7264203429222107,-0.5735807418823242
1788862575286386000,4.625385986328125,-0.1235930472612381,0.7217829823493958,-0.5046900510787964
1788862575296428000,4.635427978515625,-0.08039870113134384,0.6830899119377136,-0.41675832867622375
1788862575306470000,4.645469970703125,-0.03446503356099129,0.5852850675582886,-0.28380057215690613
1788862575316511700,4.65551171875,-0.029618345201015472,0.4284008741378784,-0.12230886518955231
1788862575326553900,4.665553955078125,-0.04298342019319534,0.26374801993370056,0.04453391209244728
1788862575336596000,4.675595947265625,-0.0635070726275444,0.07958723604679108,0.17307724058628082
1788862575346638000,4.68563818359375,-0.07184276729822159,-0.13813737034797668,0.22932159900665283
1788862575356680000,4.695679931640625,-0.07898802310228348,-0.36425864696502686,0.20466020703315735
1788862575366721800,4.7057216796875,-0.07248325645923615,-0.4799357056617737,0.09429241716861725
1788862575376764000,4.715763916015625,-0.07666308432817459,-0.40035778284072876,-0.07977472245693207
1788862575386806000,4.725805908203125,-0.08760068565607071,-0.17290572822093964,-0.26976171135902405
1788862575396847900,4.735847900390625,-0.07789213210344315,0.07091385126113892,-0.4371240735054016
1788862575406890000,4.745889892578125,-0.02701164409518242,0.2320641279220581,-0.5374277830123901
1788862575416931800,4.755931884765625,0.05114787071943283,0.3321608901023865,-0.5503382682800293
1788862575426973000,4.765972900390625,0.13350479304790497,0.38886865973472595,-0.5226491093635559
1788862575437014800,4.776014892578125,0.20534995198249817,0.3745634853839874,-0.4968217611312866
1788862575447057000,4.786056884765625,0.2514665722846985,0.2794329822063446,-0.48178473114967346
1788862575457099000,4.79609912109375,0.26268622279167175,0.12801308929920197,-0.4735947251319885
1788862575467140900,4.806140869140625,0.24945244193077087,-0.05294204503297806,-0.4739425480365753
1788862575477183000,4.816182861328125,0.23504208028316498,-0.21968895196914673,-0.47396036982536316
1788862575487224800,4.826224853515625,0.2139706164598465,-0.32567769289016724,-0.4830401539802551
1788862575497267000,4.836266845703125,0.19612716138362885,-0.3287387490272522,-0.49161019921302795
1788862575507309000,4.84630908203125,0.1842566579580307,-0.2558453679084778,-0.48599332571029663
1788862575517351000,4.856350830078125,0.17245778441429138,-0.13152819871902466,-0.4530734717845917
1788862575527392800,4.866392822265625,0.15690971910953522,-0.017770208418369293,-0.39302530884742737
1788862575537435000,4.876434814453125,0.13747210800647736,0.06067826226353645,-0.327190637588501
1788862575547477000,4.88647705078125,0.11196168512105942,0.06199998781085014,-0.2546549141407013
1788862575557518600,4.8965185546875,0.09559895843267441,0.001659948262386024,-0.18790945410728455
1788862575567560400,4.906560546875,0.08730267733335495,-0.11516547203063965,-0.13468830287456512
1788862575577602300,4.916602294921875,0.07642260193824768,-0.23701708018779755,-0.109115831553936
1788862575587644700,4.926644775390625,0.042928557842969894,-0.3124378025531769,-0.13023816049098969
1788862575597686500,4.9366865234375,0.007475226651877165,-0.3383399546146393,-0.20217254757881165
1788862575607728400,4.946728271484375,-0.013166667893528938,-0.36172226071357727,-0.29636773467063904
1788862575617769500,4.95676953125,-0.01317865215241909,-0.40324997901916504,-0.383744478225708
1788862575627811300,4.966811279296875,0.0009265137487091124,-0.4215286076068878,-0.43911850452423096
1788862575637853400,4.976853515625,0.02375965751707554,-0.3428710699081421,-0.4715923070907593
1788862575647895600,4.9868955078125,0.04027099162340164,-0.16181659698486328,-0.47285836935043335
1788862575657937400,4.9969375,0.04863891005516052,-0.0025566346012055874,-0.43861091136932373
1788862575667979500,5.0069794921875,0.06264074146747589,0.16307733952999115,-0.3979087471961975
1788862575678021400,5.017021484375,0.0696571096777916,0.28757184743881226,-0.3475033640861511
1788862575688063500,5.0270634765625,0.06681817770004272,0.2821454107761383,-0.2978000044822693
1788862575698105600,5.037105712890625,0.046357911080121994,0.18344466388225555,-0.28391000628471375
1788862575708147500,5.0471474609375,0.028721394017338753,0.02672029472887516,-0.31061938405036926
1788862575718189600,5.057189453125,0.005114600993692875,-0.13848544657230377,-0.3759821355342865
1788862575728231400,5.0672314453125,-0.030464164912700653,-0.2692069709300995,-0.45149874687194824
1788862575738273300,5.077273193359375,-0.06472866237163544,-0.35078758001327515,-0.5174234509468079
1788862575748315600,5.087315673828125,-0.09795239567756653,-0.37213975191116333,-0.560829222202301
1788862575758357500,5.097357421875,-0.12391528487205505,-0.35294419527053833,-0.5684261918067932
1788862575768399400,5.1073994140625,-0.14722087979316711,-0.3168778121471405,-0.5218389630317688
1788862575778441500,5.11744140625,-0.1746588945388794,-0.27760204672813416,-0.4469490051269531
1788862575788483300,5.1274833984375,-0.18665137887001038,-0.23389798402786255,-0.37416666746139526
1788862575798525700,5.137525634765625,-0.18010824918746948,-0.18457171320915222,-0.3399091064929962
1788862575808566500,5.14756640625,-0.16874854266643524,-0.14532017707824707,-0.3483886122703552
1788862575818608600,5.157608642578125,-0.1536335051059723,-0.13026879727840424,-0.39507433772087097
1788862575828650500,5.167650390625,-0.1406756192445755,-0.13635997474193573,-0.456788569688797
1788862575838692400,5.1776923828125,-0.12803146243095398,-0.18083849549293518,-0.5091615319252014
1788862575848734500,5.187734375,-0.11176221817731857,-0.24826359748840332,-0.5511667728424072
1788862575858776600,5.197776611328125,-0.1132834181189537,-0.29614296555519104,-0.5924715995788574
1788862575868818400,5.207818359375,-0.12120765447616577,-0.28813645243644714,-0.6244966387748718
1788862575878860500,5.217860595703125,-0.14240054786205292,-0.2338005155324936,-0.6517838835716248
1788862575888902400,5.22790234375,-0.17420534789562225,-0.20426419377326965,-0.6522324085235596
1788862575898944300,5.2379443359375,-0.18849427998065948,-0.18103396892547607,-0.606402575969696
1788862575908986600,5.247986572265625,-0.20134057104587555,-0.19155745208263397,-0.5378562808036804
1788862575919028500,5.258028564453125,-0.2192620486021042,-0.23481890559196472,-0.49374741315841675
1788862575929070600,5.268070556640625,-0.21651579439640045,-0.29951000213623047,-0.49825480580329895
1788862575939112400,5.278112548828125,-0.20382370054721832,-0.3836190402507782,-0.5344106554985046
1788862575949154300,5.288154296875,-0.17738650739192963,-0.48689642548561096,-0.5555902719497681
1788862575959196700,5.29819677734375,-0.14385516941547394,-0.5667710304260254,-0.540361762046814
1788862575969238500,5.308238525390625,-0.11699053645133972,-0.5960401892662048,-0.4954129457473755
1788862575979280400,5.3182802734375,-0.11523444950580597,-0.5604284405708313,-0.45306333899497986
1788862575989321500,5.328321533203125,-0.1278463751077652,-0.5041363835334778,-0.4858599007129669
1788862575999363300,5.33836328125,-0.12679283320903778,-0.4761795997619629,-0.5868470072746277
1788862576009405400,5.348405517578125,-0.10977230221033096,-0.463997483253479,-0.6883272528648376
1788862576019447600,5.358447509765625,-0.08250632882118225,-0.4835914373397827,-0.743654727935791
1788862576029489400,5.368489501953125,-0.08460995554924011,-0.4768933057785034,-0.7048279643058777
1788862576039531500,5.378531494140625,-0.10966577380895615,-0.40313440561294556,-0.5841590762138367
1788862576049573400,5.388573486328125,-0.14967817068099976,-0.279403954744339,-0.47311508655548096
1788862576059615500,5.398615478515625,-0.1620432287454605,-0.19588375091552734,-0.45405271649360657
1788862576069657600,5.40865771484375,-0.1325572431087494,-0.2105950564146042,-0.5389630794525146
1788862576079699500,5.418699462890625,-0.07511872053146362,-0.29777124524116516,-0.6527165174484253
1788862576089741600,5.428741455078125,-0.026916835457086563,-0.4347197711467743,-0.711093008518219
1788862576099783400,5.438783447265625,-0.008268848992884159,-0.5797744393348694,-0.7197166085243225
1788862576109825300,5.4488251953125,-0.01390036940574646,-0.70607590675354,-0.7041704058647156
1788862576119867600,5.45886767578125,-0.0394054614007473,-0.7766494154930115,-0.7243180274963379
1788862576129909500,5.468909423828125,-0.08393537998199463,-0.6872196793556213,-0.7581992745399475
1788862576139951400,5.478951416015625,-0.12206944823265076,-0.464185506105423,-0.7702569961547852
1788862576149993500,5.488993408203125,-0.13829076290130615,-0.33133745193481445,-0.813743531703949
1788862576160035300,5.499035400390625,-0.12752333283424377,-0.32927563786506653,-0.8668975234031677
1788862576170076400,5.509076416015625,-0.11422217637300491,-0.3763994574546814,-0.9130772948265076
1788862576180118500,5.519118408203125,-0.10757546126842499,-0.41302111744880676,-0.979550838470459
1788862576190160600,5.52916064453125,-0.10127042979001999,-0.4867355525493622,-1.0931626558303833
1788862576200202500,5.539202392578125,-0.0820075199007988,-0.5822692513465881,-1.1836885213851929
1788862576210244400,5.549244384765625,-0.06600804626941681,-0.5870344638824463,-1.2110594511032104
1788862576220286500,5.559286376953125,-0.05026476830244064,-0.5029483437538147,-1.2219674587249756
1788862576230328600,5.56932861328125,-0.06614333391189575,-0.4856870770454407,-1.211318850517273
1788862576240370400,5.579370361328125,-0.11813942342996597,-0.5197268128395081,-1.1624157428741455
1788862576250412500,5.58941259765625,-0.17787812650203705,-0.49761536717414856,-1.1511926651000977
1788862576260454400,5.599454345703125,-0.1798829436302185,-0.4845842719078064,-1.1710814237594604
1788862576270496300,5.609496337890625,-0.1623992919921875,-0.46506649255752563,-1.1476261615753174
1788862576280538600,5.61953857421875,-0.15753157436847687,-0.4255062937736511,-1.1086859703063965
1788862576290580500,5.62958056640625,-0.16509202122688293,-0.5097319483757019,-1.088197946548462
1788862576300622300,5.639622314453125,-0.1937500238418579,-0.5168409943580627,-1.0258989334106445
1788862576310664400,5.64966455078125,-0.22502538561820984,-0.4578128457069397,-1.0019267797470093
1788862576320706300,5.659706298828125,-0.2700549066066742,-0.4956773817539215,-0.9973903298377991
1788862576330748700,5.669748779296875,-0.2796313762664795,-0.43961066007614136,-1.0024747848510742
1788862576340790500,5.67979052734375,-0.2600526213645935,-0.38785186409950256,-1.0791687965393066
1788862576350831600,5.68983154296875,-0.21327872574329376,-0.44833117723464966,-1.1132756471633911
1788862576360873500,5.69987353515625,-0.1388407051563263,-0.46759435534477234,-1.0620944499969482
1788862576370915300,5.709915283203125,-0.08225439488887787,-0.3582489490509033,-0.9961090683937073
1788862576380957700,5.719957763671875,-0.016050072386860847,-0.15469130873680115,-0.9170951843261719
1788862576390999600,5.72999951171875,0.06898519396781921,0.012910472229123116,-0.8213226199150085
1788862576401041400,5.74004150390625,0.180011585354805,0.10007147490978241,-0.8104494214057922
1788862576411083500,5.75008349609375,0.2820553779602051,0.08894718438386917,-0.8065130114555359
1788862576421125400,5.76012548828125,0.37846314907073975,0.15639466047286987,-0.8085730075836182
1788862576431167500,5.77016748046875,0.4594658613204956,0.20343434810638428,-0.8429551720619202
1788862576441209600,5.780209716796875,0.5019741654396057,0.2653627097606659,-0.9080894589424133
1788862576451251500,5.79025146484375,0.5305014252662659,0.2629503905773163,-0.9518819451332092
1788862576461293600,5.80029345703125,0.5240512490272522,0.19403472542762756,-0.9159463047981262
1788862576471335400,5.81033544921875,0.49672746658325195,0.14725282788276672,-0.8486996293067932
1788862576481377500,5.82037744140625,0.47914981842041016,0.20613932609558105,-0.8456394076347351
1788862576491419600,5.830419677734375,0.4987592101097107,0.2611764669418335,-0.8789238333702087
1788862576501461500,5.84046142578125,0.5399380922317505,0.3269336521625519,-0.9220976829528809
1788862576511503400,5.85050341796875,0.5659480690956116,0.3324362635612488,-0.9716354012489319
1788862576521545500,5.86054541015625,0.5394898653030396,0.28405487537384033,-0.9889936447143555
1788862576531586300,5.87058642578125,0.47698360681533813,0.19451941549777985,-1.0651520490646362
1788862576541628700,5.880628662109375,0.4060353934764862,0.07118362933397293,-1.0856504440307617
1788862576551670500,5.89067041015625,0.33962708711624146,-0.05561638996005058,-1.0206495523452759
1788862576561713200,5.900713134765625,0.29133516550064087,-0.11452977359294891,-0.9119566082954407
1788862576571755300,5.91075537109375,0.2623450756072998,-0.12454059720039368,-0.797164261341095
1788862576581797000,5.920797119140625,0.2131490260362625,-0.020314592868089676,-0.7741971611976624
1788862576591839000,5.9308388671875,0.1543767899274826,0.09925627708435059,-0.788275957107544
1788862576601881300,5.94088134765625,0.07290510088205338,0.12422075122594833,-0.7853574156761169
1788862576611923200,5.950923095703125,0.01375469472259283,0.1252298206090927,-0.7743945121765137
1788862576621965000,5.960965087890625,-0.025741316378116608,0.14109507203102112,-0.7100536227226257
1788862576632007200,5.971007080078125,-0.09279412031173706,0.2867968678474426,-0.5689920783042908
1788862576642049000,5.981049072265625,-0.1740945726633072,0.41093745827674866,-0.41999727487564087
1788862576652091400,5.99109130859375,-0.2257460504770279,0.4623876214027405,-0.3292282223701477
1788862576662133200,6.00113330078125,-0.23064519464969635,0.49231940507888794,-0.23832814395427704
1788862576672175000,6.011175048828125,-0.2175602912902832,0.511588990688324,-0.10572616010904312
1788862576682217200,6.02121728515625,-0.20825067162513733,0.5868040919303894,-0.03290442004799843
1788862576692259000,6.031259033203125,-0.2089518904685974,0.7134440541267395,0.06760220974683762
1788862576702300200,6.041300048828125,-0.21395809948444366,0.7478808760643005,0.22121787071228027
1788862576712342300,6.05134228515625,-0.21554507315158844,0.7590437531471252,0.35103899240493774
1788862576722384100,6.061384033203125,-0.2382889986038208,0.8031755685806274,0.45184361934661865
1788862576732426200,6.07142626953125,-0.27613145112991333,0.8043556213378906,0.4742101728916168
1788862576742468000,6.081468017578125,-0.28399282693862915,0.7581630945205688,0.4960995018482208
1788862576752510000,6.091510009765625,-0.26752784848213196,0.6497881412506104,0.5069382786750793
1788862576762552300,6.10155224609375,-0.25154274702072144,0.5340002775192261,0.5317957401275635
1788862576772594200,6.11159423828125,-0.2521589994430542,0.39873406291007996,0.6033077239990234
1788862576782636300,6.12163623046875,-0.2582744359970093,0.3136511445045471,0.7223307490348816
1788862576792678100,6.13167822265625,-0.2480958253145218,0.3030022084712982,0.8421146869659424
1788862576802720000,6.141719970703125,-0.2131604701280594,0.30482542514801025,0.9147835969924927
1788862576812762400,6.151762451171875,-0.1643812209367752,0.3339438736438751,0.9487207531929016
1788862576822804200,6.16180419921875,-0.10809158533811569,0.34778088331222534,0.9616472125053406
1788862576832846000,6.17184619140625,-0.0707002654671669,0.3587768077850342,0.9847139120101929
1788862576842888200,6.18188818359375,-0.07166752964258194,0.2963706851005554,1.0179322957992554
1788862576852930000,6.191929931640625,-0.0742792934179306,0.21872355043888092,1.0152558088302612
1788862576862972200,6.20197216796875,-0.05648617818951607,0.15857073664665222,1.0117146968841553
1788862576873013200,6.21201318359375,-0.007411044556647539,0.11195210367441177,1.0298614501953125
1788862576883055000,6.22205517578125,0.050279147922992706,0.06695613265037537,1.033951759338379
1788862576893097200,6.23209716796875,0.09448469430208206,0.0747850239276886,1.0146985054016113
1788862576903139000,6.24213916015625,0.1193157434463501,0.11643100529909134,0.9902080297470093
1788862576913181200,6.25218115234375,0.14196886122226715,0.09762375801801682,0.9685802459716797
1788862576923223300,6.262223388671875,0.15285852551460266,0.10912968218326569,0.9662819504737854
1788862576933265200,6.27226513671875,0.11265570670366287,0.19708670675754547,0.999269425868988
1788862576943307300,6.282307373046875,0.053578007966279984,0.3082776665687561,1.0305554866790771
1788862576953349000,6.29234912109375,-0.006089583970606327,0.3689090609550476,1.0136619806289673
1788862576963391000,6.302390869140625,-0.05193856358528137,0.33582621812820435,0.9667719602584839
1788862576973433300,6.312433349609375,-0.09813402593135834,0.31365540623664856,0.9704468250274658
1788862576983475200,6.32247509765625,-0.1535717099905014,0.36145859956741333,1.0394970178604126
1788862576993517000,6.33251708984375,-0.21825723350048065,0.4269561171531677,1.1127773523330688
1788862577003559200,6.34255908203125,-0.26914945244789124,0.45795291662216187,1.1707018613815308
1788862577013601000,6.35260107421875,-0.2925650179386139,0.46839091181755066,1.2327288389205933
1788862577023643100,6.36264306640625,-0.28026866912841797,0.5055558681488037,1.3070054054260254
1788862577033684200,6.372684326171875,-0.22625337541103363,0.5309166312217712,1.3734753131866455
1788862577043726000,6.38272607421875,-0.13186189532279968,0.4992569386959076,1.410345435142517
1788862577053768200,6.392768310546875,-0.024765800684690475,0.41012999415397644,1.4189809560775757
1788862577063810000,6.40281005859375,0.06644054502248764,0.3061700463294983,1.4344440698623657
1788862577073852200,6.41285205078125,0.13539457321166992,0.23663944005966187,1.48098623752594
1788862577083894300,6.422894287109375,0.18805618584156036,0.19394950568675995,1.5213611125946045
1788862577093936000,6.43293603515625,0.2406347095966339,0.0994376391172409,1.5086586475372314
1788862577103978200,6.442978271484375,0.2740451395511627,0.02901034615933895,1.4317041635513306
1788862577114020000,6.45302001953125,0.2821379601955414,-0.0033249566331505775,1.3666831254959106
1788862577124062000,6.46306201171875,0.2718091309070587,-0.038065891712903976,1.34850013256073
1788862577134104300,6.473104248046875,0.2680375874042511,-0.03015683777630329,1.3621746301651
1788862577144146200,6.483146240234375,0.2876725196838379,0.0326911024749279,1.377264380455017
1788862577154188000,6.49318798828125,0.31758755445480347,0.10747373104095459,1.3767591714859009
1788862577164230100,6.503230224609375,0.34551212191581726,0.1602669060230255,1.373171329498291
1788862577174272000,6.51327197265625,0.3500882387161255,0.16560520231723785,1.3927088975906372
1788862577184314400,6.523314453125,0.3407607674598694,0.1554335355758667,1.4478533267974854
1788862577194356200,6.533356201171875,0.3161401152610779,0.18464814126491547,1.5227081775665283
1788862577204397300,6.543397216796875,0.2695387899875641,0.17914098501205444,1.5755013227462769
1788862577214439200,6.553439208984375,0.2122582048177719,0.14991545677185059,1.5841618776321411
1788862577224481000,6.56348095703125,0.15578506886959076,0.09979743510484695,1.568166732788086
1788862577234523100,6.573523193359375,0.10553601384162903,0.08550771325826645,1.5431934595108032
1788862577244565200,6.583565185546875,0.07473894953727722,0.04126834496855736,1.4978797435760498
1788862577254607000,6.593607177734375,0.0345635712146759,-0.07621593773365021,1.423671007156372
1788862577264649200,6.603649169921875,-0.023559920489788055,-0.17553800344467163,1.337956428527832
1788862577274691000,6.613691162109375,-0.08379263430833817,-0.1458141952753067,1.2991615533828735
1788862577284733200,6.623733154296875,-0.12595979869365692,-0.003989947959780693,1.339820384979248
1788862577294775300,6.633775390625,-0.1512955129146576,0.15604925155639648,1.3889127969741821
1788862577304817200,6.643817138671875,-0.13370905816555023,0.24027119576931,1.3946588039398193
1788862577314859300,6.653859375,-0.08570504933595657,0.23550066351890564,1.3500628471374512
1788862577324901000,6.663901123046875,-0.029929935932159424,0.22232654690742493,1.3047478199005127
1788862577334943000,6.67394287109375,0.017298562452197075,0.22653727233409882,1.2706713676452637
1788862577344985300,6.6839853515625,0.06271851062774658,0.21758851408958435,1.2325788736343384
1788862577355026200,6.694026123046875,0.10551710426807404,0.18061238527297974,1.16874098777771
1788862577365068300,6.704068359375,0.12850791215896606,0.12612465023994446,1.08265221118927
1788862577375110100,6.714110107421875,0.12360156327486038,0.10806494951248169,0.9971886873245239
1788862577385152000,6.724152099609375,0.11895248293876648,0.12256453186273575,0.9445353746414185
1788862577395194000,6.734194091796875,0.12596619129180908,0.07695230841636658,0.9255379438400269
1788862577405236200,6.744236328125,0.1332874894142151,-0.06424157321453094,0.9154059290885925
1788862577415278000,6.754278076171875,0.12442022562026978,-0.2135743349790573,0.8736252188682556
1788862577425320200,6.7643203125,0.0936945304274559,-0.28976285457611084,0.7863308191299438
1788862577435362000,6.774362060546875,0.06739448755979538,-0.2677909731864929,0.6745922565460205
1788862577445404200,6.784404052734375,0.04851453751325607,-0.2083047330379486,0.5665276050567627
1788862577455446300,6.7944462890625,0.051727376878261566,-0.1220577284693718,0.49031004309654236
1788862577465488100,6.804488037109375,0.06145723536610603,0.03911944106221199,0.4219728112220764
1788862577475530200,6.8145302734375,0.06545250862836838,0.2484329789876938,0.36971360445022583
1788862577485572000,6.824572021484375,0.06964672356843948,0.4200308322906494,0.33138352632522583
1788862577495614000,6.834614013671875,0.08224800229072571,0.500674307346344,0.3209114372730255
1788862577505655000,6.844655029296875,0.10076868534088135,0.49026185274124146,0.32008054852485657
1788862577515697200,6.854697265625,0.12822933495044708,0.3811241686344147,0.3244401216506958
1788862577525739300,6.8647392578125,0.16281075775623322,0.18981413543224335,0.3186086118221283
1788862577535781000,6.874781005859375,0.17033684253692627,0.013251090422272682,0.3067871034145355
1788862577545823000,6.884822998046875,0.140956848859787,-0.11007670313119888,0.28679874539375305
1788862577555865000,6.894864990234375,0.10009517520666122,-0.1954994648694992,0.2729295492172241
1788862577565906200,6.90490625,0.0548563227057457,-0.2908717691898346,0.24359294772148132
1788862577575948300,6.9149482421875,0.009251022711396217,-0.3635060489177704,0.17515291273593903
1788862577585990100,6.924990234375,-0.01685754396021366,-0.3686288893222809,0.06374222785234451
1788862577596032300,6.9350322265625,-0.034328680485486984,-0.2623243033885956,-0.0852496474981308
1788862577606074400,6.945074462890625,-0.04799575358629227,-0.05672266706824303,-0.25904062390327454
1788862577616116200,6.9551162109375,-0.047080691903829575,0.15561223030090332,-0.43096551299095154
1788862577626158300,6.965158447265625,-0.03190227225422859,0.254975289106369,-0.5671944618225098
1788862577636200200,6.9752001953125,-0.006599579472094774,0.24103498458862305,-0.6450269222259521
1788862577646242300,6.9852421875,0.02215483784675598,0.16544274985790253,-0.6733483076095581
1788862577656283400,6.995283447265625,0.03711860626935959,0.08151642978191376,-0.6718809008598328
1788862577666325200,7.0053251953125,0.037628334015607834,0.038186002522706985,-0.6479619741439819
1788862577676367400,7.015367431640625,0.029925407841801643,0.05284297466278076,-0.611480176448822
1788862577686409200,7.0254091796875,0.022644059732556343,0.11913331598043442,-0.5619509816169739
1788862577696451000,7.035451171875,0.015395201742649078,0.23436109721660614,-0.5228374004364014
1788862577706493400,7.045493408203125,0.022281337529420853,0.33652183413505554,-0.5049060583114624
1788862577716535300,7.055535400390625,0.02708275057375431,0.4188430607318878,-0.4999903738498688
1788862577726577400,7.065577392578125,0.03338751941919327,0.4779106378555298,-0.5134965777397156
1788862577736619300,7.075619384765625,0.040950894355773926,0.4668068587779999,-0.5671385526657104
1788862577746661000,7.0856611328125,0.06460802257061005,0.36537984013557434,-0.6638879776000977
1788862577756703500,7.095703369140625,0.09790046513080597,0.17909039556980133,-0.7650178074836731
1788862577766745300,7.105745361328125,0.1297191083431244,-0.05288558453321457,-0.8134452104568481
1788862577776787200,7.115787109375,0.1554226130247116,-0.22171907126903534,-0.816889226436615
1788862577786829300,7.125829345703125,0.15984319150447845,-0.2582523226737976,-0.7985312938690186
1788862577796871200,7.13587109375,0.13192661106586456,-0.13606595993041992,-0.7660204768180847
1788862577806912300,7.145912353515625,0.08484537899494171,0.1008262112736702,-0.7411990165710449
1788862577816954400,7.155954345703125,0.04333202913403511,0.30767419934272766,-0.7268205881118774
1788862577826996200,7.165996337890625,0.015166169963777065,0.3755949139595032,-0.7122339606285095
1788862577837038300,7.176038330078125,-0.008792959153652191,0.308767706155777,-0.7239776849746704
1788862577847080200,7.186080078125,-0.01979207992553711,0.1911313384771347,-0.7956185936927795
1788862577857122300,7.196122314453125,-0.010181264951825142,0.06456860899925232,-0.9053434729576111
1788862577867164400,7.206164306640625,0.013170929625630379,-0.031564317643642426,-1.0178111791610718
1788862577877206300,7.216206298828125,0.041201766580343246,-0.07486359030008316,-1.0986047983169556
1788862577887248400,7.226248291015625,0.08957409113645554,-0.08464697748422623,-1.1327332258224487
1788862577897290200,7.236290283203125,0.1532561331987381,-0.06718462705612183,-1.1158146858215332
1788862577907332000,7.24633203125,0.22138911485671997,-0.05210474506020546,-1.0593527555465698
1788862577917374500,7.25637451171875,0.25147563219070435,-0.014372548088431358,-0.9890002608299255
1788862577927416300,7.266416259765625,0.22745846211910248,0.022228339686989784,-0.9558524489402771
1788862577937458200,7.276458251953125,0.17319469153881073,0.047933969646692276,-0.958407998085022
1788862577947499300,7.286499267578125,0.13383343815803528,0.027693146839737892,-1.0015171766281128
1788862577957541000,7.296541015625,0.12265773862600327,-0.015980031341314316,-1.0695701837539673
1788862577967583200,7.306583251953125,0.12954068183898926,-0.07721968740224838,-1.1401705741882324
1788862577977625300,7.316625244140625,0.14868880808353424,-0.13123445212841034,-1.18032705783844
1788862577987667200,7.326667236328125,0.166342630982399,-0.18418315052986145,-1.1780232191085815
1788862577997709300,7.336709228515625,0.1783582866191864,-0.22340646386146545,-1.1952484846115112
1788862578007751200,7.346751220703125,0.18424254655838013,-0.2817017138004303,-1.2379099130630493
1788862578017793300,7.356793212890625,0.18344013392925262,-0.3520570993423462,-1.2538255453109741
1788862578027835400,7.36683544921875,0.1746051013469696,-0.4000872075557709,-1.2095569372177124
1788862578037877200,7.376877197265625,0.15514858067035675,-0.38970354199409485,-1.1425080299377441
1788862578047919400,7.38691943359375,0.12698377668857574,-0.34403353929519653,-1.1146512031555176
1788862578057961200,7.396961181640625,0.1135939359664917,-0.3406084477901459,-1.1467225551605225
1788862578068003000,7.407003173828125,0.12464845180511475,-0.401309072971344,-1.2017735242843628
1788862578078045400,7.41704541015625,0.15463298559188843,-0.46345314383506775,-1.23955237865448
1788862578088087300,7.42708740234375,0.17367751896381378,-0.4433859586715698,-1.2469232082366943
1788862578098128400,7.43712841796875,0.15433605015277863,-0.3747698664665222,-1.2185709476470947
1788862578108170200,7.447170166015625,0.13877812027931213,-0.3398326635360718,-1.2005295753479004
1788862578118212000,7.457212158203125,0.12201192229986191,-0.37735074758529663,-1.2291250228881836
1788862578128254200,7.467254150390625,0.11869469285011292,-0.486407995223999,-1.2936680316925049
1788862578138296300,7.47729638671875,0.10347818583250046,-0.5348636507987976,-1.3434568643569946
1788862578148338400,7.48733837890625,0.08654315024614334,-0.5046064257621765,-1.3716392517089844
1788862578158380300,7.49738037109375,0.0869428887963295,-0.5102443695068359,-1.4585461616516113
1788862578168422100,7.507422119140625,0.10929000377655029,-0.696803867816925,-1.4897056818008423
1788862578178464300,7.51746435546875,0.1214422732591629,-0.8880704641342163,-1.5148030519485474
1788862578188506400,7.52750634765625,0.08033132553100586,-0.8944524526596069,-1.5691696405410767
1788862578198548200,7.53754833984375,0.028975458815693855,-0.7139684557914734,-1.566904067993164
1788862578208590300,7.54759033203125,-0.0062552327290177345,-0.588771402835846,-1.4870585203170776
1788862578218632200,7.557632080078125,-0.016397083178162575,-0.5338583588600159,-1.4202710390090942
1788862578228674000,7.567674072265625,-0.008037686347961426,-0.5390815734863281,-1.4200749397277832
1788862578238715100,7.577715087890625,0.0178194772452116,-0.5717082619667053,-1.413946509361267
1788862578248757200,7.58775732421875,0.0673031434416771,-0.5602614283561707,-1.3940141201019287
1788862578258799400,7.59779931640625,0.12009098380804062,-0.5086073279380798,-1.3613104820251465
1788862578268841200,7.60784130859375,0.14908163249492645,-0.3867005705833435,-1.3454962968826294
1788862578278883300,7.61788330078125,0.17481282353401184,-0.21439218521118164,-1.3527289628982544
1788862578288925200,7.62792529296875,0.16683052480220795,-0.15060575306415558,-1.3611112833023071
1788862578298967300,7.63796728515625,0.1532002091407776,-0.1882101148366928,-1.4062025547027588
1788862578309009400,7.648009521484375,0.14833034574985504,-0.24443131685256958,-1.4433294534683228
1788862578319051300,7.65805126953125,0.15672516822814941,-0.25309112668037415,-1.4578678607940674
1788862578329093000,7.668093017578125,0.1835317462682724,-0.18252959847450256,-1.5093332529067993
1788862578339135200,7.67813525390625,0.20146706700325012,-0.12976199388504028,-1.5228583812713623
1788862578349177300,7.68817724609375,0.1910943239927292,-0.08760335296392441,-1.4453015327453613
1788862578359219200,7.69821923828125,0.15445294976234436,0.002734533743932843,-1.3143938779830933
1788862578369261300,7.70826123046875,0.14047083258628845,0.07152052223682404,-1.2568519115447998
1788862578379302100,7.71830224609375,0.1610107272863388,0.1656763106584549,-1.2014204263687134
1788862578389344300,7.72834423828125,0.1773417592048645,0.26870444416999817,-1.1127488613128662
1788862578399386000,7.73838623046875,0.20315365493297577,0.2555513381958008,-0.9991562366485596
1788862578409428500,7.748428466796875,0.19353324174880981,0.1943223476409912,-0.8879343867301941
1788862578419470300,7.75847021484375,0.1639830768108368,0.18417170643806458,-0.7441849112510681
1788862578429512200,7.76851220703125,0.15225771069526672,0.17292331159114838,-0.6108942627906799
1788862578439554300,7.77855419921875,0.13934484124183655,0.31827810406684875,-0.5182274580001831
1788862578449596200,7.78859619140625,0.11054888367652893,0.3670895993709564,-0.4546431303024292
1788862578459638300,7.79863818359375,0.09473183751106262,0.282471626996994,-0.3890489637851715
1788862578469680400,7.808680419921875,0.06691724807024002,0.2607375979423523,-0.3316567540168762
1788862578479722200,7.81872216796875,0.02472212351858616,0.31091099977493286,-0.17956896126270294
1788862578489764000,7.82876416015625,-0.02431252971291542,0.35557806491851807,0.031496405601501465
1788862578499806200,7.83880615234375,-0.06216616928577423,0.40076979994773865,0.1867581605911255
1788862578509847000,7.848846923828125,-0.11262454837560654,0.4271811544895172,0.3325880765914917
1788862578519889400,7.858889404296875,-0.16835838556289673,0.4308494031429291,0.49344831705093384
1788862578529931300,7.86893115234375,-0.20965389907360077,0.5082389712333679,0.6589131951332092
1788862578539973400,7.878973388671875,-0.22072705626487732,0.5698419213294983,0.7845454216003418
1788862578550015200,7.88901513671875,-0.22963905334472656,0.5507989525794983,0.9311279058456421
1788862578560058000,7.89905810546875,-0.24219585955142975,0.5404001474380493,1.0634909868240356
1788862578570100000,7.909099853515625,-0.2480526864528656,0.5432563424110413,1.150587797164917
1788862578580142000,7.91914208984375,-0.23949061334133148,0.5231401920318604,1.2024779319763184
1788862578590184000,7.929183837890625,-0.2438211888074875,0.5044434666633606,1.2329686880111694
1788862578600226000,7.93922607421875,-0.27546247839927673,0.5092379450798035,1.2957133054733276
1788862578610268200,7.94926806640625,-0.29933902621269226,0.5500796437263489,1.350524663925171
1788862578620310000,7.95931005859375,-0.28590577840805054,0.6125640869140625,1.373062252998352
1788862578630352100,7.96935205078125,-0.2379814088344574,0.6322581171989441,1.3879050016403198
1788862578640394000,7.97939404296875,-0.18340177834033966,0.6482354998588562,1.4453374147415161
1788862578650435000,7.98943505859375,-0.12674222886562347,0.665216863155365,1.5136984586715698
1788862578660477000,7.999476806640625,-0.07460100203752518,0.6901211738586426,1.5678945779800415
1788862578670519000,8.00951904296875,-0.03345995396375656,0.6792166233062744,1.6015989780426025
1788862578680561200,8.01956103515625,-0.004704740364104509,0.6073655486106873,1.627996802330017
1788862578690603000,8.02960302734375,0.023935159668326378,0.5397817492485046,1.6760090589523315
1788862578700644900,8.039644775390625,0.051961202174425125,0.5166412591934204,1.7404066324234009
1788862578710687000,8.04968701171875,0.0779816135764122,0.47090014815330505,1.7583938837051392
1788862578720729000,8.05972900390625,0.10899359732866287,0.42714598774909973,1.7310397624969482
1788862578730771000,8.06977099609375,0.14286500215530396,0.42936840653419495,1.7200126647949219
1788862578740813000,8.07981298828125,0.1778581440448761,0.41280195116996765,1.7519186735153198
1788862578750855000,8.08985498046875,0.21789903938770294,0.3554356098175049,1.7635021209716797
1788862578760897000,8.09989697265625,0.23271366953849792,0.2987701892852783,1.7474116086959839
1788862578770939100,8.109939208984375,0.20374460518360138,0.24779808521270752,1.7368452548980713
1788862578780981000,8.11998095703125,0.15905995666980743,0.1954515278339386,1.7228643894195557
1788862578791022000,8.13002197265625,0.1171410009264946,0.15988872945308685,1.710945725440979
1788862578801064000,8.14006396484375,0.0737871378660202,0.13236629962921143,1.7063459157943726
1788862578811106000,8.15010595703125,0.04469263553619385,0.09792257100343704,1.7157961130142212
1788862578821148000,8.16014794921875,0.016517192125320435,0.06684108078479767,1.745542049407959
1788862578831190000,8.17018994140625,-0.00021598236344289035,0.04446893185377121,1.806217908859253
1788862578841232100,8.180232177734375,-0.013463610783219337,0.01774171181023121,1.866806983947754
1788862578851274000,8.19027392578125,-0.02334899827837944,0.008563128300011158,1.887667179107666
1788862578861315800,8.20031591796875,-0.02521001547574997,0.046056441962718964,1.8950839042663574
1788862578871358000,8.21035791015625,-0.02130795083940029,0.06698036193847656,1.8818048238754272
1788862578881400000,8.220400146484375,-0.022278141230344772,0.041980206966400146,1.8388922214508057
1788862578891442200,8.230442138671876,-0.02683960273861885,0.001885784324258566,1.7868421077728271
1788862578901484000,8.240484130859375,-0.018607772886753082,-0.04884503781795502,1.757426381111145
1788862578911526000,8.25052587890625,-0.017977667972445488,-0.12664343416690826,1.760110855102539
1788862578921567000,8.26056689453125,-0.03394678235054016,-0.19224028289318085,1.7715576887130737
1788862578931608800,8.27060888671875,-0.03368818759918213,-0.20635583996772766,1.7769025564193726
1788862578941651200,8.280651123046875,-0.05113668739795685,-0.22564217448234558,1.7491012811660767
1788862578951693000,8.290693115234374,-0.10355968028306961,-0.21626704931259155,1.7134267091751099
1788862578961735000,8.30073486328125,-0.16840578615665436,-0.1686454713344574,1.6981595754623413
1788862578971777000,8.310777099609375,-0.23850205540657043,-0.11168445646762848,1.6933799982070923
1788862578981819000,8.32081884765625,-0.28259947896003723,-0.052865345031023026,1.6791802644729614
1788862578991861000,8.330861083984376,-0.30556389689445496,-0.017837852239608765,1.6451810598373413
1788862579001903000,8.340903076171875,-0.30273163318634033,-0.07623511552810669,1.5750802755355835
1788862579011945000,8.350945068359374,-0.26859551668167114,-0.19447015225887299,1.4730556011199951
1788862579021987000,8.360987060546876,-0.23262952268123627,-0.3148370385169983,1.3631727695465088
1788862579032029000,8.37102880859375,-0.2139572948217392,-0.3404878079891205,1.2699565887451172
1788862579042071000,8.381071044921875,-0.21396048367023468,-0.2415660172700882,1.2046082019805908
1788862579052112100,8.391112060546876,-0.23093707859516144,-0.06616144627332687,1.1536140441894531
1788862579062154000,8.401154052734375,-0.2359480857849121,0.042932555079460144,1.0902481079101562
1788862579072196000,8.411196044921875,-0.222412571310997,0.007601194549351931,0.9832611680030823
1788862579082238000,8.421238037109376,-0.2099979668855667,-0.11321310698986053,0.8292747735977173
1788862579092279800,8.43127978515625,-0.21694615483283997,-0.21183155477046967,0.6374651789665222
1788862579102322200,8.441322265625,-0.23210912942886353,-0.15544524788856506,0.4513133764266968
1788862579112364000,8.451364013671874,-0.23437336087226868,-0.009443302638828754,0.31129130721092224
1788862579122406000,8.461406005859375,-0.225309818983078,0.12225986272096634,0.2152681052684784
1788862579132448000,8.471447998046875,-0.20309560000896454,0.22397664189338684,0.16484060883522034
1788862579142489900,8.48148974609375,-0.16334258019924164,0.32854539155960083,0.14044445753097534
1788862579152532200,8.4915322265625,-0.09504502266645432,0.4076197147369385,0.1279449164867401
1788862579162574000,8.501573974609375,-0.025733858346939087,0.446323424577713,0.09702587872743607
1788862579172615200,8.511615234375,0.03302186727523804,0.3752545714378357,0.05060192570090294
1788862579182657000,8.521656982421876,0.030481476336717606,0.21576744318008423,-0.018543057143688202
1788862579192699000,8.531698974609375,-0.005601426586508751,0.006638994440436363,-0.09121087193489075
1788862579202741200,8.5417412109375,-0.029643379151821136,-0.17826853692531586,-0.16707554459571838
1788862579212783000,8.551783203125,-0.06704481691122055,-0.26602795720100403,-0.25145354866981506
1788862579222825000,8.561824951171875,-0.11202161014080048,-0.248229518532753,-0.3252926170825958
1788862579232867000,8.5718671875,-0.1353975087404251,-0.1547381728887558,-0.38860446214675903
1788862579242909000,8.581908935546876,-0.14909254014492035,-0.0009715211344882846,-0.42678406834602356
1788862579252951000,8.591950927734375,-0.17279228568077087,0.20603865385055542,-0.4572583734989166
1788862579262993200,8.6019931640625,-0.1961527317762375,0.4196886122226715,-0.5027400851249695
1788862579273035000,8.612034912109374,-0.19642090797424316,0.5997974276542664,-0.5637235641479492
1788862579283077000,8.6220771484375,-0.18471285700798035,0.7134110331535339,-0.6298892498016357
1788862579293119000,8.632118896484375,-0.16849766671657562,0.7217033505439758,-0.6906620860099792
1788862579303160000,8.64216015625,-0.1393943727016449,0.6187940239906311,-0.7379462122917175
1788862579313202200,8.6522021484375,-0.08643342554569244,0.4001396894454956,-0.7693536877632141
1788862579323244000,8.662244140625,-0.029226062819361687,0.1521860659122467,-0.7856687307357788
1788862579333286100,8.6722861328125,0.008683502674102783,-0.01619894430041313,-0.8033488988876343
1788862579343328000,8.682327880859376,0.03160532936453819,-0.043049734085798264,-0.8329324126243591
1788862579353369900,8.692369873046875,0.049437325447797775,0.036802489310503006,-0.8592409491539001
1788862579363412200,8.702412109375,0.07578583806753159,0.20253846049308777,-0.8643038868904114
1788862579373454000,8.7124541015625,0.10673043876886368,0.44226983189582825,-0.8546347618103027
1788862579383496000,8.722495849609375,0.1400894671678543,0.6497505903244019,-0.8450034260749817
1788862579393538000,8.7325380859375,0.16295509040355682,0.7454792261123657,-0.8751738667488098
1788862579403580000,8.742579833984376,0.1728881597518921,0.6969476342201233,-0.9568199515342712
1788862579413622000,8.7526220703125,0.2061917781829834,0.5231111645698547,-1.0563346147537231
1788862579423663000,8.7626630859375,0.28198322653770447,0.20742535591125488,-1.1581642627716064
1788862579433705200,8.772705322265624,0.3732396364212036,-0.1600852757692337,-1.227753758430481
1788862579443747000,8.7827470703125,0.44402405619621277,-0.4245840311050415,-1.2094849348068237
1788862579453789000,8.792788818359375,0.46674641966819763,-0.4837520122528076,-1.088476300239563
1788862579463831000,8.8028310546875,0.4241086542606354,-0.35393545031547546,-0.9846361875534058
1788862579473873200,8.812873046875,0.3522842824459076,-0.10394823551177979,-0.9604336023330688
1788862579483915000,8.8229150390625,0.26760587096214294,0.10110664367675781,-1.0068464279174805
1788862579493957000,8.83295703125,0.19170765578746796,0.15265744924545288,-1.0854692459106445
1788862579503999000,8.8429990234375,0.1278514415025711,0.10539140552282333,-1.188443899154663
1788862579514040800,8.853040771484375,0.07728440314531326,0.03543389216065407,-1.3243615627288818
1788862579524083200,8.863083251953125,0.05694957077503204,-0.06253155320882797,-1.4365772008895874
1788862579534125000,8.873125,0.06518912315368652,-0.17917561531066895,-1.477244257926941
1788862579544166100,8.883166259765625,0.07420258969068527,-0.2662260830402374,-1.4314123392105103
1788862579554208000,8.8932080078125,0.07181000709533691,-0.32959336042404175,-1.3662389516830444
1788862579564249600,8.90324951171875,0.07122357934713364,-0.339407354593277,-1.3595356941223145
1788862579574291500,8.91329150390625,0.066610187292099,-0.36213716864585876,-1.426360845565796
1788862579584333300,8.923333251953125,0.047563791275024414,-0.4393685758113861,-1.5006872415542603
1788862579594375400,8.93337548828125,0.03897722810506821,-0.5364581346511841,-1.5412216186523438
1788862579604417300,8.943417236328125,0.036490898579359055,-0.5867398977279663,-1.5724536180496216
1788862579614459400,8.95345947265625,0.034512169659137726,-0.5541108846664429,-1.583017349243164
1788862579624501500,8.96350146484375,0.03268870338797569,-0.4834787845611572,-1.5370301008224487
1788862579634543400,8.97354345703125,0.04114929959177971,-0.4836529493331909,-1.5211496353149414
1788862579644585500,8.98358544921875,0.0660993903875351,-0.56718510389328,-1.53208589553833
1788862579654627300,8.99362744140625,0.07911985367536545,-0.6487782597541809,-1.5469911098480225
1788862579664668400,9.00366845703125,0.08240299671888351,-0.6371796727180481,-1.5503679513931274
1788862579674710500,9.01371044921875,0.096498042345047,-0.5946599245071411,-1.5923136472702026
1788862579684752400,9.02375244140625,0.12953722476959229,-0.5579391717910767,-1.650382161140442
1788862579694794500,9.03379443359375,0.16615702211856842,-0.5482894778251648,-1.678139328956604
1788862579704836400,9.04383642578125,0.2003469467163086,-0.6066028475761414,-1.696215271949768
1788862579714878200,9.053878173828124,0.22000613808631897,-0.7169538736343384,-1.7020843029022217
1788862579724920600,9.063920654296876,0.2218857854604721,-0.8024953603744507,-1.7020275592803955
1788862579734962400,9.07396240234375,0.21945007145404816,-0.8258494138717651,-1.73353910446167
1788862579745004300,9.08400439453125,0.2297903150320053,-0.8604641556739807,-1.7500011920928955
1788862579755046400,9.09404638671875,0.2349155694246292,-0.920595645904541,-1.7409824132919312
1788862579765088300,9.104088134765625,0.22345386445522308,-0.9524561166763306,-1.7065597772598267
1788862579775130600,9.114130615234375,0.21021927893161774,-0.8822035193443298,-1.6983779668807983
1788862579785171500,9.12417138671875,0.2133048176765442,-0.7632899284362793,-1.6733434200286865
1788862579795213600,9.134213623046875,0.21175885200500488,-0.6183463335037231,-1.637815237045288
1788862579805255400,9.14425537109375,0.20521759986877441,-0.4598642587661743,-1.6096491813659668
1788862579815297300,9.15429736328125,0.18371443450450897,-0.3868979215621948,-1.5958415269851685
1788862579825339400,9.16433935546875,0.15615898370742798,-0.36450472474098206,-1.5576616525650024
1788862579835381500,9.174381591796875,0.12864185869693756,-0.36648479104042053,-1.526406168937683
1788862579845423400,9.18442333984375,0.089922696352005,-0.36277341842651367,-1.494644284248352
1788862579855465500,9.194465576171876,0.04845142364501953,-0.28011953830718994,-1.4377155303955078
1788862579865507300,9.20450732421875,0.02142992429435253,-0.18227019906044006,-1.3635072708129883
1788862579875549400,9.214549560546875,0.000898550555575639,-0.11343148350715637,-1.2964593172073364
1788862579885591600,9.224591552734376,-0.030728351324796677,0.016894560307264328,-1.2279540300369263
1788862579895633400,9.23463330078125,-0.06577182561159134,0.22453217208385468,-1.1696076393127441
1788862579905674500,9.244674560546875,-0.09623545408248901,0.3381554186344147,-1.0474364757537842
1788862579915716400,9.25471630859375,-0.11301283538341522,0.315154492855072,-0.9451505541801453
1788862579925758500,9.264758544921875,-0.13330692052841187,0.24462252855300903,-0.8619789481163025
1788862579935800300,9.27480029296875,-0.1534302979707718,0.21220546960830688,-0.7724677324295044
1788862579945842400,9.284842529296874,-0.16123628616333008,0.20401358604431152,-0.7069557905197144
1788862579955884500,9.294884521484375,-0.1637316793203354,0.21958722174167633,-0.6234363913536072
1788862579965926400,9.304926513671875,-0.14927789568901062,0.2999989688396454,-0.5204303860664368
1788862579975968300,9.31496826171875,-0.12614302337169647,0.3909783959388733,-0.40678346157073975
1788862579986010400,9.32501025390625,-0.11496173590421677,0.44679293036460876,-0.2717723846435547
1788862579996052500,9.335052490234375,-0.12398239970207214,0.3835516571998596,-0.08797033876180649
1788862580006094300,9.34509423828125,-0.13063231110572815,0.2692261338233948,0.10184220969676971
1788862580016136400,9.355136474609376,-0.14389193058013916,0.3397751450538635,0.27364087104797363
1788862580026177300,9.36517724609375,-0.16474154591560364,0.3740556240081787,0.44300833344459534
1788862580036219400,9.375219482421874,-0.16768114268779755,0.35678502917289734,0.587643027305603
1788862580046261200,9.38526123046875,-0.13041526079177856,0.29725563526153564,0.7062415480613708
1788862580056303600,9.3953037109375,-0.08389303833246231,0.30150365829467773,0.7879399061203003
1788862580066345500,9.405345458984375,-0.05447309464216232,0.3762865364551544,0.7985443472862244
1788862580076387300,9.41538720703125,-0.02612161450088024,0.36912664771080017,0.7705348134040833
1788862580086429400,9.425429443359375,0.011424162425100803,0.3403136432170868,0.7896046042442322
1788862580096471300,9.43547119140625,0.010759437456727028,0.38723987340927124,0.8960999250411987
1788862580106513400,9.445513427734374,-0.062371499836444855,0.47221866250038147,1.0519672632217407
1788862580116555500,9.455555419921875,-0.13899196684360504,0.49483102560043335,1.2298914194107056
1788862580126597400,9.465597412109375,-0.16351675987243652,0.5471272468566895,1.3784981966018677
1788862580136638500,9.475638427734374,-0.12170939147472382,0.6360371708869934,1.468424916267395
1788862580146680300,9.485680419921875,-0.06016560271382332,0.6772665977478027,1.5323724746704102
1788862580156722400,9.495722412109375,-0.010374610312283039,0.7098357677459717,1.5775871276855469
1788862580166764500,9.5057646484375,0.06331585347652435,0.7026793360710144,1.629310965538025
1788862580176806400,9.515806396484376,0.12222098559141159,0.6526973843574524,1.7161720991134644
1788862580186848500,9.5258486328125,0.13183127343654633,0.6194142699241638,1.8434799909591675
1788862580196890400,9.535890380859374,0.1427512913942337,0.6176453828811646,1.9733262062072754
1788862580206932200,9.54593212890625,0.15068191289901733,0.5602403879165649,2.0949251651763916
1788862580216974600,9.555974609375,0.1366896778345108,0.4753337800502777,2.198160409927368
1788862580227016400,9.566016357421875,0.0892782136797905,0.4464416801929474,2.264493227005005
1788862580237058300,9.576058349609376,0.018849587067961693,0.48169925808906555,2.2929749488830566
1788862580247100400,9.586100341796875,-0.055749546736478806,0.5085324645042419,2.2720720767974854
1788862580257141200,9.596141357421875,-0.11740119755268097,0.4939255714416504,2.225458860397339
1788862580267183400,9.606183349609376,-0.16117078065872192,0.4414210915565491,2.1660516262054443
1788862580277225500,9.6162255859375,-0.17551083862781525,0.34512755274772644,2.065654754638672
1788862580287267300,9.626267333984375,-0.1775452196598053,0.2687414586544037,1.973662257194519
1788862580297309400,9.636309326171874,-0.18298153579235077,0.2966039776802063,1.9561173915863037
1788862580307351300,9.646351318359375,-0.19536656141281128,0.3558633029460907,2.017674207687378
1788862580317393400,9.656393310546875,-0.19070523977279663,0.3273991644382477,2.1010684967041016
1788862580327435500,9.666435546875,-0.16083095967769623,0.2537345290184021,2.1614763736724854
1788862580337477400,9.676477294921876,-0.13290904462337494,0.2142619639635086,2.2090818881988525
1788862580347519500,9.68651953125,-0.1005532369017601,0.1786818653345108,2.2239065170288086
1788862580357561300,9.696561279296875,-0.0612172856926918,0.16934162378311157,2.213109254837036
1788862580367602400,9.7066025390625,-0.044562675058841705,0.2522120177745819,2.2253475189208984
1788862580377644300,9.716644287109375,-0.06625918298959732,0.3770498037338257,2.233661413192749
1788862580387686400,9.726686279296874,-0.07710730284452438,0.3981391191482544,2.218683958053589
1788862580397728500,9.736728515625,-0.015120362862944603,0.16242726147174835,2.176133394241333
1788862580407770400,9.746770263671875,0.007163370493799448,-0.2939770221710205,2.101863384246826
1788862580417812200,9.756812255859375,-0.006481335032731295,-0.5504714250564575,2.008985757827759
1788862580427854300,9.766854248046876,0.000984570593573153,-0.536087691783905,1.9577066898345947
1788862580437896400,9.776896484375,0.0013616742799058557,-0.4081574082374573,1.9183167219161987
1788862580447938600,9.7869384765625,-0.02263207547366619,-0.1831115037202835,1.8598318099975586
1788862580457980400,9.79698046875,-0.021624602377414703,0.05533968657255173,1.7524491548538208
1788862580468022300,9.807022216796875,0.0041579934768378735,0.19432979822158813,1.6339433193206787
1788862580478063400,9.8170634765625,0.061651114374399185,0.16457083821296692,1.5171120166778564
1788862580488105200,9.827105224609374,0.12585806846618652,-0.00902731716632843,1.387955904006958
1788862580498147600,9.837147705078126,0.15847592055797577,-0.1776842474937439,1.2661943435668945
1788862580508189400,9.847189453125,0.1606069952249527,-0.23518775403499603,1.1682946681976318
1788862580518231300,9.857231201171874,0.15249872207641602,-0.2119082659482956,1.0892387628555298
1788862580528273400,9.8672734375,0.13326644897460938,-0.16282540559768677,0.9895102977752686
1788862580538315300,9.877315185546875,0.08202029764652252,-0.10544333606958389,0.9014142155647278
1788862580548357400,9.887357421875,0.002496713539585471,-0.002126800362020731,0.8526320457458496
1788862580558399500,9.8973994140625,-0.05717380717396736,0.1047208160161972,0.8578049540519714
1788862580568441600,9.907441650390625,-0.0924266055226326,0.14587198197841644,0.8494418263435364
1788862580578483700,9.917483642578125,-0.1188688650727272,0.13247814774513245,0.8137525916099548
1788862580588524800,9.92752490234375,-0.14624562859535217,0.14847628772258759,0.7791804671287537
1788862580598566700,9.937566650390625,-0.1596093624830246,0.20067425072193146,0.771532416343689
1788862580608608800,9.94760888671875,-0.14013633131980896,0.245484858751297,0.7788872718811035
1788862580618650600,9.957650634765624,-0.07668066024780273,0.19928620755672455,0.7753806710243225
1788862580628692700,9.967692626953125,0.015547534450888634,0.0444691963493824,0.7201866507530212
1788862580638734800,9.97773486328125,0.12114240229129791,-0.1979900449514389,0.5814106464385986
1788862580648776700,9.987776611328124,0.22641237080097198,-0.5304345488548279,0.3468727469444275
1788862580658818800,9.99781884765625,0.29225850105285645,-0.8882821798324585,0.038486406207084656
1788862580668860700,10.007860595703125,0.3192743957042694,-1.016229271888733,-0.30397453904151917
1788862580678902500,10.017902587890624,0.30219873785972595,-0.7178742289543152,-0.6307188272476196
1788862580688945000,10.02794482421875,0.2410064935684204,-0.11552499979734421,-0.8845953345298767
1788862580698985700,10.03798583984375,0.13569392263889313,0.4452959895133972,-1.02140212059021
1788862580709027800,10.04802783203125,0.03993862867355347,0.7593977451324463,-1.0809741020202637
1788862580719069700,10.058069580078126,-0.046474557369947433,0.8057268857955933,-1.0761325359344482
1788862580729111600,10.068111572265625,-0.13002164661884308,0.6739195585250854,-1.0054911375045776
1788862580739153700,10.078153564453125,-0.19975732266902924,0.4785713851451874,-0.9172453880310059
1788862580749195800,10.08819580078125,-0.22566615045070648,0.37671157717704773,-0.8568307757377625
1788862580759238000,10.09823779296875,-0.22626082599163055,0.3228182792663574,-0.8224858641624451
1788862580769279700,10.10827978515625,-0.19598521292209625,0.22584564983844757,-0.7972455024719238
1788862580779321600,10.118321533203124,-0.11050813645124435,0.04531262069940567,-0.7696687579154968
1788862580789363700,10.12836376953125,0.007982026785612106,-0.17142900824546814,-0.7247244119644165
1788862580799405800,10.13840576171875,0.12686926126480103,-0.35743242502212524,-0.6384955048561096
1788862580809447000,10.148447021484374,0.24145282804965973,-0.5239489674568176,-0.5520410537719727
1788862580819488800,10.15848876953125,0.326366662979126,-0.6531540751457214,-0.5688059329986572
1788862580829530600,10.168530517578125,0.3240443766117096,-0.5440606474876404,-0.7133215665817261
1788862580839572700,10.17857275390625,0.2523752450942993,-0.22034834325313568,-0.910796582698822
1788862580849614600,10.188614501953126,0.1495942920446396,0.07382575422525406,-1.0561095476150513
1788862580859656700,10.19865673828125,0.028323249891400337,0.21789903938770294,-1.1084771156311035
1788862580869698800,10.20869873046875,-0.08599373698234558,0.34722480177879333,-1.0516124963760376
1788862580879740700,10.21874072265625,-0.14080531895160675,0.5244733691215515,-0.952055037021637
1788862580889782800,10.22878271484375,-0.09933058172464371,0.5908542275428772,-0.862758219242096
1788862580899824600,10.23882470703125,-0.017129717394709587,0.5730430483818054,-0.8235820531845093
1788862580909865700,10.24886572265625,0.04723302647471428,0.4759787917137146,-0.8571485280990601
1788862580919907800,10.258907958984375,0.08002293109893799,0.2667355537414551,-0.9492645859718323
1788862580929949700,10.26894970703125,0.08566057682037354,-0.1427997648715973,-1.0850751399993896
1788862580939991800,10.27899169921875,0.08225332945585251,-0.6539381146430969,-1.2263318300247192
1788862580950033700,10.28903369140625,0.06692976504564285,-1.0719801187515259,-1.340513825416565
1788862580960075500,10.299075439453125,0.049908436834812164,-1.2848159074783325,-1.4095243215560913
1788862580970118000,10.309117919921874,0.044859349727630615,-1.1552760601043701,-1.4534939527511597
1788862580980159700,10.31915966796875,0.04550809785723686,-0.7587739825248718,-1.5200178623199463
1788862580990201600,10.32920166015625,0.053771086037158966,-0.16875652968883514,-1.6422041654586792
1788862581000243700,10.33924365234375,0.06642163544893265,0.35707342624664307,-1.808167815208435
1788862581010284500,10.349284423828125,0.10197989642620087,0.5907000303268433,-1.9829167127609253
1788862581020327000,10.359326904296875,0.1780560165643692,0.6422402262687683,-2.196681499481201
1788862581030368800,10.36936865234375,0.2596089243888855,0.6050033569335938,-2.4947617053985596
1788862581040411000,10.379410888671876,0.3378278315067291,0.3682302236557007,-2.750527858734131
1788862581050452700,10.38945263671875,0.37473607063293457,0.1905401200056076,-2.8428375720977783
1788862581060494600,10.39949462890625,0.31577154994010925,0.16830672323703766,-2.784735918045044
1788862581070537000,10.409536865234376,0.2424674928188324,0.038844868540763855,-2.4966025352478027
1788862581080578800,10.419578857421875,0.2229105830192566,-0.08832640200853348,-2.106934070587158
1788862581090620700,10.42962060546875,0.22678761184215546,-0.002162753138691187,-1.7398793697357178
1788862581100662800,10.439662841796874,0.23666100203990936,0.12296480685472488,-1.5244951248168945
1788862581110704600,10.44970458984375,0.29571688175201416,0.12994948029518127,-1.4939755201339722
1788862581120745700,10.459745849609375,0.3701745867729187,-0.1241227462887764,-1.497649908065796
1788862581130787800,10.469787841796874,0.32359403371810913,-0.4851078391075134,-1.4693013429641724
1788862581140829700,10.47982958984375,0.21894167363643646,-0.8221529722213745,-1.481642246246338
1788862581150871800,10.489871826171875,0.1715690940618515,-1.143721103668213,-1.4814893007278442
1788862581160913700,10.49991357421875,0.15470463037490845,-1.4297728538513184,-1.4209591150283813
1788862581170955800,10.509955810546876,0.10602550208568573,-1.5496809482574463,-1.340194582939148
1788862581180998000,10.519997802734375,0.010350641794502735,-1.5198441743850708,-1.3016847372055054
1788862581191039700,10.530039794921874,-0.09417976438999176,-1.3608242273330688,-1.2980636358261108
1788862581201081900,10.540081787109376,-0.1671927124261856,-1.253767728805542,-1.3516136407852173
1788862581211123700,10.550123779296875,-0.17952075600624084,-1.2295295000076294,-1.4246686697006226
1788862581221164800,10.560164794921874,-0.1384662687778473,-1.2278549671173096,-1.4297353029251099
1788862581231206700,10.57020654296875,-0.06523626297712326,-1.1981724500656128,-1.4076616764068604
1788862581241248800,10.580248779296875,0.018384866416454315,-0.9986121654510498,-1.446469783782959
1788862581251291000,10.590290771484375,0.10160332173109055,-0.6609789729118347,-1.4741251468658447
1788862581261332700,10.600332763671876,0.19185759127140045,-0.41619694232940674,-1.4741102457046509
1788862581271374600,10.61037451171875,0.26058951020240784,-0.2944833040237427,-1.5008087158203125
1788862581281416700,10.620416748046875,0.28316378593444824,-0.15511953830718994,-1.5210226774215698
1788862581291458800,10.630458740234374,0.28740647435188293,-0.03695109486579895,-1.5195717811584473
1788862581301500700,10.640500732421875,0.30318304896354675,0.020296482369303703,-1.583115816116333
1788862581311542800,10.650542724609375,0.31798648834228516,0.22841985523700714,-1.6438614130020142
1788862581321584600,10.660584716796874,0.27845585346221924,0.5540871620178223,-1.549203634262085
1788862581331625700,10.670625732421875,0.2753807008266449,0.4317798912525177,-1.571966290473938
1788862581341667600,10.68066748046875,0.30367574095726013,0.1568058580160141,-1.4856715202331543
1788862581351710000,10.6907099609375,0.32610487937927246,0.1650954782962799,-1.274915099143982
1788862581361751800,10.700751708984376,0.32302677631378174,0.2980436682701111,-1.135245680809021
1788862581371793700,10.710793701171875,0.31027159094810486,0.30491089820861816,-0.9792941212654114
1788862581381835800,10.720835693359374,0.24769261479377747,0.24828997254371643,-0.7996791005134583
1788862581391877600,10.730877685546876,0.14145299792289734,0.12766315042972565,-0.5913274884223938
1788862581401919700,10.740919677734375,0.04226037114858627,0.032221585512161255,-0.37932655215263367
1788862581411961900,10.7509619140625,-0.021925538778305054,0.006268548313528299,-0.18162252008914948
1788862581422003700,10.761003662109376,-0.05509920418262482,-0.03681367263197899,0.03599049150943756
1788862581432044800,10.771044921875,-0.06956975907087326,-0.0964445173740387,0.21752139925956726
1788862581442086700,10.781086669921875,-0.08223548531532288,-0.1297532021999359,0.3726249635219574
1788862581452128800,10.791128662109376,-0.10127335786819458,-0.051656536757946014,0.530647873878479
1788862581462171000,10.8011708984375,-0.13444915413856506,0.07184436172246933,0.6378787159919739
1788862581472212700,10.811212646484375,-0.15616190433502197,0.02720179408788681,0.7393763661384583
1788862581482254800,10.8212548828125,-0.20514249801635742,-0.012705675326287746,0.815242350101471
1788862581492296700,10.831296630859375,-0.28944113850593567,-0.04304040968418121,0.8350197672843933
1788862581502338600,10.841338623046875,-0.3661652207374573,-0.04669879749417305,0.9145841002464294
1788862581512381000,10.851380859375,-0.393757164478302,0.10233942419290543,1.052399754524231
1788862581522422800,10.8614228515625,-0.3597240746021271,0.2248552143573761,1.1632282733917236
1788862581532463900,10.8714638671875,-0.3016807436943054,0.24267123639583588,1.220666527748108
1788862581542505700,10.881505615234374,-0.2778414785861969,0.3048211634159088,1.3208259344100952
1788862581552547600,10.891547607421876,-0.27714958786964417,0.4684359133243561,1.4112178087234497
1788862581562590000,10.90158984375,-0.29485347867012024,0.5676833987236023,1.509079098701477
1788862581572631800,10.9116318359375,-0.3301584720611572,0.5929621458053589,1.6079926490783691
1788862581582673700,10.921673583984376,-0.3699184060096741,0.6777097582817078,1.6856698989868164
1788862581592716000,10.931716064453125,-0.38165467977523804,0.7624377012252808,1.748525857925415
1788862581602758000,10.9417578125,-0.39066070318222046,0.7529405951499939,1.8167402744293213
1788862581612800000,10.951800048828124,-0.4125971496105194,0.7074136137962341,1.8668212890625
1788862581622841900,10.961841796875,-0.3907128870487213,0.6891767978668213,1.8649197816848755
1788862581632883000,10.971883056640625,-0.32307499647140503,0.6990097165107727,1.8621999025344849
1788862581642924800,10.9819248046875,-0.3083721995353699,0.7088384032249451,1.8989667892456055
1788862581652967000,10.991966796875,-0.38200753927230835,0.6994667649269104,1.9034488201141357
1788862581663009000,11.002009033203125,-0.44644567370414734,0.620529055595398,1.8769501447677612
1788862581673051000,11.01205078125,-0.44419583678245544,0.5522679686546326,1.8740978240966797
1788862581683092700,11.0220927734375,-0.39509111642837524,0.49420973658561707,1.9049029350280762
1788862581693134800,11.032134765625,-0.3209090530872345,0.44420620799064636,1.9727216958999634
1788862581703177000,11.042177001953124,-0.2568797171115875,0.4284141957759857,2.074584722518921
1788862581713218800,11.05221875,-0.20495820045471191,0.4538559019565582,2.1526687145233154
1788862581723260000,11.062260009765625,-0.14927923679351807,0.4394756257534027,2.188910484313965
1788862581733301800,11.0723017578125,-0.0989510789513588,0.34522610902786255,2.196195125579834
1788862581743343900,11.08234375,-0.06600005179643631,0.26179033517837524,2.2111971378326416
1788862581753386000,11.092385986328125,-0.06271184980869293,0.24918505549430847,2.2750191688537598
1788862581763428000,11.102427978515625,-0.082823246717453,0.2855590581893921,2.35858154296875
1788862581773470000,11.112469970703126,-0.09556833654642105,0.3077823221683502,2.4015066623687744
1788862581783511800,11.12251171875,-0.09427297115325928,0.32761460542678833,2.400631904602051
1788862581793554000,11.132553955078125,-0.1010962575674057,0.38453009724617004,2.378570318222046
1788862581803596000,11.142595947265624,-0.10027200728654861,0.39160025119781494,2.3255128860473633
1788862581813638000,11.152637939453125,-0.06483732163906097,0.30909737944602966,2.259058713912964
1788862581823679000,11.162678955078125,-0.0376533679664135,0.19480463862419128,2.202139377593994
1788862581833720800,11.172720947265624,-0.03840517997741699,0.13699433207511902,2.17814564704895
1788862581843763000,11.182762939453125,-0.04093118757009506,0.11520621925592422,2.1541311740875244
1788862581853804800,11.1928046875,-0.03380723297595978,0.09312328696250916,2.1052887439727783
1788862581863847000,11.202846923828124,-0.033364880830049515,0.040643833577632904,2.0208308696746826
1788862581873889000,11.212888916015626,-0.04297356680035591,-0.04737124219536781,1.9007585048675537
1788862581883931000,11.222930908203125,-0.04734274744987488,-0.14725708961486816,1.7756741046905518
1788862581893973000,11.232972900390624,-0.040943972766399384,-0.18331469595432281,1.6652830839157104
1788862581904014800,11.243014892578126,-0.016031164675951004,-0.09502318501472473,1.5628036260604858
1788862581914057000,11.253056884765625,0.027413781732320786,-0.035655733197927475,1.4781001806259155
1788862581924098000,11.26309814453125,0.07426916807889938,-0.029352562502026558,1.415880799293518
1788862581934140000,11.273139892578126,0.10678769648075104,-0.0010695254895836115,1.3755972385406494
1788862581944182000,11.28318212890625,0.12930606305599213,0.053936999291181564,1.3352296352386475
1788862581954223900,11.293223876953125,0.10794777423143387,0.13237614929676056,1.270480990409851
1788862581964265700,11.303265625,0.07575654238462448,0.1948981136083603,1.1669015884399414
1788862581974308000,11.31330810546875,0.04427345469594002,0.18704737722873688,1.0324082374572754
1788862581984350000,11.323349853515625,0.0178756695240736,0.16855306923389435,0.8712102770805359
1788862581994391800,11.333391845703124,0.0149224903434515,0.1594618260860443,0.6968539357185364
1788862582004434000,11.343433837890625,0.003087668912485242,0.1531493365764618,0.5125778317451477
1788862582014474800,11.353474853515625,0.01161404512822628,0.16342328488826752,0.3349559009075165
1788862582024516900,11.363516845703124,0.028075842186808586,0.18635496497154236,0.19483420252799988
1788862582034559000,11.37355908203125,0.05082403123378754,0.21411415934562683,0.08786780387163162
1788862582044601000,11.38360107421875,0.07400711625814438,0.19937542080879211,0.010876350104808807
1788862582054643000,11.393642822265624,0.10549873113632202,0.1329553872346878,-0.050728689879179
1788862582064684800,11.403684814453126,0.12486071139574051,0.04003103822469711,-0.11693967133760452
1788862582074727000,11.413726806640625,0.14359231293201447,0.002049835165962577,-0.20038077235221863
1788862582084769000,11.42376904296875,0.13100221753120422,0.05127916485071182,-0.31739580631256104
1788862582094811000,11.433810791015626,0.10564786940813065,0.13455381989479065,-0.44794103503227234
1788862582104852000,11.44385205078125,0.08158168196678162,0.1839732974767685,-0.5657888650894165
1788862582114893800,11.453893798828124,0.07999097555875778,0.1935737282037735,-0.6617640852928162
1788862582124936000,11.46393603515625,0.08672957122325897,0.18366064131259918,-0.7365171909332275
1788862582134977800,11.473977783203125,0.0991247221827507,0.18099695444107056,-0.788409948348999
1788862582145020000,11.48402001953125,0.11736417561769485,0.17430895566940308,-0.80156010389328
1788862582155062000,11.49406201171875,0.14061224460601807,0.17439816892147064,-0.7917657494544983
1788862582165103900,11.504103759765625,0.1568375527858734,0.20422077178955078,-0.781849205493927
1788862582175146000,11.51414599609375,0.14778919517993927,0.2911977469921112,-0.7848434448242188
1788862582185187800,11.524187744140624,0.1377062052488327,0.4724857807159424,-0.8295669555664062
1788862582195230000,11.53422998046875,0.11840147525072098,0.7209187746047974,-0.8927717804908752
1788862582205271000,11.54427099609375,0.07528463751077652,0.9353892803192139,-0.9549927711486816
1788862582215313000,11.55431298828125,0.06562401354312897,1.017654538154602,-1.0530765056610107
1788862582225355000,11.56435498046875,0.14841850101947784,0.8592193722724915,-1.2055294513702393
1788862582235396900,11.57439697265625,0.29484307765960693,0.43517568707466125,-1.2955527305603027
1788862582245438700,11.584438720703124,0.4081321060657501,-0.041136518120765686,-1.1885133981704712
1788862582255481000,11.594481201171876,0.40930867195129395,-0.29634830355644226,-1.1270843744277954
1788862582265523000,11.60452294921875,0.38681215047836304,-0.315829336643219,-1.1744630336761475
1788862582275564800,11.614564697265624,0.38800951838493347,-0.30372846126556396,-1.181293249130249
1788862582285607000,11.62460693359375,0.35784655809402466,-0.2575377821922302,-1.0984623432159424
1788862582295647700,11.634647705078125,0.2546045780181885,-0.07268911600112915,-1.0352988243103027
1788862582305689900,11.64468994140625,0.11477025598287582,0.14050784707069397,-1.0850093364715576
1788862582315732000,11.65473193359375,0.01846769079566002,0.20726743340492249,-1.2173048257827759
1788862582325774000,11.664774169921875,-0.022484801709651947,0.08674900978803635,-1.3540080785751343
1788862582335816000,11.67481591796875,-0.025681661441922188,-0.05365390703082085,-1.446150541305542
1788862582345857800,11.68485791015625,0.0016109461430460215,-0.1160523071885109,-1.4524675607681274
1788862582355900000,11.69489990234375,0.03298191726207733,-0.1370587795972824,-1.4097416400909424
1788862582365942000,11.70494189453125,0.06534358859062195,-0.1800595223903656,-1.4130852222442627
1788862582375983900,11.71498388671875,0.11462005227804184,-0.23244629800319672,-1.475144624710083
1788862582386025000,11.72502490234375,0.17218855023384094,-0.27506113052368164,-1.5392309427261353
1788862582396066800,11.73506689453125,0.20720937848091125,-0.24685372412204742,-1.5451250076293945
1788862582406109000,11.74510888671875,0.2008148580789566,-0.21820583939552307,-1.5201389789581299
1788862582416150800,11.75515087890625,0.19714955985546112,-0.28207215666770935,-1.5208485126495361
1788862582426193000,11.76519287109375,0.18468515574932098,-0.3686368763446808,-1.5744184255599976
1788862582436235000,11.775235107421874,0.17842620611190796,-0.41975492238998413,-1.6310820579528809
1788862582446276900,11.78527685546875,0.16894641518592834,-0.4581630527973175,-1.6340967416763306
1788862582456319000,11.795319091796875,0.14503468573093414,-0.4420812726020813,-1.6441367864608765
1788862582466360800,11.80536083984375,0.1285228282213211,-0.41613250970840454,-1.682468295097351
1788862582476402000,11.81540185546875,0.11016672104597092,-0.4305814802646637,-1.7590469121932983
1788862582486444000,11.825444091796875,0.10903806984424591,-0.5008715987205505,-1.767289400100708
1788862582496486000,11.83548583984375,0.13255910575389862,-0.6098548173904419,-1.6889817714691162
1788862582506528000,11.845528076171876,0.1691908836364746,-0.6946296095848083,-1.6141661405563354
1788862582516569900,11.85556982421875,0.1818923056125641,-0.7151327729225159,-1.5593186616897583
1788862582526611700,11.86561181640625,0.17556330561637878,-0.6845229268074036,-1.5565431118011475
1788862582536654000,11.875654052734374,0.16258971393108368,-0.7619636654853821,-1.630846381187439
1788862582546696000,11.885696044921875,0.14366795122623444,-0.8512881994247437,-1.6838486194610596
1788862582556737800,11.89573779296875,0.14145246148109436,-0.8658010959625244,-1.6777243614196777
1788862582566779100,11.905779052734376,0.16082537174224854,-0.8302710652351379,-1.6731061935424805
1788862582576821000,11.915821044921875,0.20422051846981049,-0.8152998685836792,-1.7306419610977173
1788862582586863000,11.925863037109375,0.24961036443710327,-0.7964881062507629,-1.8022977113723755
1788862582596905000,11.935905029296874,0.2969411313533783,-0.8067460656166077,-1.8413939476013184
1788862582606947000,11.945947021484375,0.31528764963150024,-0.8795185089111328,-1.8708035945892334
1788862582616989200,11.9559892578125,0.31390172243118286,-0.9104894995689392,-1.8868399858474731
1788862582627031000,11.966031005859374,0.25563549995422363,-0.8179489374160767,-1.890041708946228
1788862582637073200,11.9760732421875,0.2073313444852829,-0.7094951272010803,-1.8517427444458008
1788862582647115000,11.986114990234375,0.1979389190673828,-0.6274804472923279,-1.8051025867462158
1788862582657156400,11.99615625,0.20669139921665192,-0.6064196228981018,-1.7204707860946655
1788862582667198200,12.0061982421875,0.2156880795955658,-0.4954369068145752,-1.6336562633514404
1788862582677240000,12.016239990234375,0.2278352975845337,-0.4140224754810333,-1.5430866479873657
1788862582687282200,12.0262822265625,0.22469915449619293,-0.3723706305027008,-1.4156767129898071
1788862582697324000,12.036323974609376,0.20120421051979065,-0.2022833228111267,-1.2895704507827759
1788862582707366100,12.0463662109375,0.17399843037128448,-0.0363638661801815,-1.2334084510803223
1788862582717408300,12.056408203125,0.14019572734832764,0.0594678558409214,-1.1972312927246094
1788862582727450000,12.0664501953125,0.08916129916906357,0.09456086158752441,-1.1131099462509155
1788862582737492000,12.076491943359375,0.019055183976888657,0.24942633509635925,-1.0320161581039429
1788862582747533000,12.086532958984375,-0.00851572398096323,0.4555315673351288,-0.9552692174911499
1788862582757575000,12.096574951171876,-0.01629801280796528,0.4399622082710266,-0.9067224264144897
1788862582767617300,12.1066171875,-0.04514004662632942,0.4067786931991577,-0.7963916659355164
1788862582777659100,12.1166591796875,-0.10099559277296066,0.34206146001815796,-0.6024461984634399
1788862582787701200,12.126701171875,-0.17166362702846527,0.2745756208896637,-0.35524970293045044
1788862582797743000,12.1367431640625,-0.22061467170715332,0.40543457865715027,-0.10502069443464279
1788862582807785000,12.146784912109375,-0.20650869607925415,0.6775494813919067,0.06811513751745224
1788862582817827300,12.156827392578125,-0.16254577040672302,0.7051365971565247,0.1749339997768402
1788862582827869200,12.166869140625,-0.13626836240291595,0.5514338612556458,0.24147626757621765
1788862582837910300,12.17691015625,-0.1536950170993805,0.4481154680252075,0.3373519480228424
1788862582847952100,12.1869521484375,-0.22582274675369263,0.4466344714164734,0.6155939698219299
1788862582857994000,12.196993896484376,-0.3468247950077057,0.4928549826145172,0.9717576503753662
1788862582868036000,12.2070361328125,-0.4768267273902893,0.5745330452919006,1.1885589361190796
1788862582878078200,12.217078125,-0.5272124409675598,0.5556632280349731,1.3408153057098389
1788862582888120000,12.2271201171875,-0.4908333718776703,0.5474047660827637,1.4530431032180786
1788862582898162200,12.237162109375,-0.4135068953037262,0.5846115350723267,1.4987492561340332
1788862582908204000,12.2472041015625,-0.3373095989227295,0.5870453715324402,1.5167341232299805
1788862582918246100,12.25724609375,-0.2684740722179413,0.5832951068878174,1.5321307182312012
1788862582928287000,12.267286865234375,-0.20860567688941956,0.5629094243049622,1.559589147567749
1788862582938329300,12.277329345703125,-0.15881973505020142,0.5168202519416809,1.630037546157837
1788862582948371200,12.28737109375,-0.1001439094543457,0.42980384826660156,1.7230905294418335
1788862582958413000,12.2974130859375,-0.04705486074090004,0.3830786645412445,1.808597445487976
1788862582968455200,12.307455078125,-0.03521817550063133,0.37344443798065186,1.8526027202606201
1788862582978497000,12.3174970703125,-0.0389426052570343,0.35107919573783875,1.8552876710891724
1788862582988539100,12.3275390625,-0.031322769820690155,0.3326874077320099,1.8278862237930298
1788862582998581200,12.337581298828125,-0.01284522470086813,0.3043076992034912,1.8143903017044067
1788862583008622000,12.3476220703125,0.0080912159755826,0.2636779844760895,1.8056186437606812
1788862583018664200,12.357664306640626,0.050218429416418076,0.27164164185523987,1.8190425634384155
1788862583028706000,12.3677060546875,0.11347782611846924,0.2964133024215698,1.8461216688156128
1788862583038748000,12.377747802734374,0.17488312721252441,0.3402300179004669,1.9093594551086426
1788862583048790300,12.387790283203126,0.2184135615825653,0.3853476941585541,2.0279293060302734
1788862583058832100,12.39783203125,0.23968316614627838,0.38792404532432556,2.1499764919281006
1788862583068874200,12.407874267578125,0.22962839901447296,0.3654722571372986,2.228358745574951
1788862583078916000,12.417916015625,0.17834097146987915,0.3622085452079773,2.2680130004882812
1788862583088958000,12.4279580078125,0.11371005326509476,0.3414779603481293,2.260356903076172
1788862583098999000,12.4379990234375,0.06103432551026344,0.2670769691467285,2.210474967956543
1788862583109041200,12.448041259765626,0.006981743033975363,0.17981530725955963,2.143777370452881
1788862583119083300,12.458083251953125,-0.061296913772821426,0.13591043651103973,2.114989995956421
1788862583129125000,12.468125,-0.11222107708454132,0.10640820115804672,2.1437599658966064
1788862583139167000,12.4781669921875,-0.15987248718738556,0.032154738903045654,2.212172746658325
