time,seconds_elapsed,z,y,x
1788861596036832800,0.047832763671875,-0.1406560093164444,-0.6807205080986023,-0.5663607120513916
1788861596046838800,0.0578388671875,0.025434136390686035,-0.6011683344841003,-0.5559130311012268
1788861596056845000,0.067844970703125,0.1811850219964981,-0.33386552333831787,-0.4256202280521393
1788861596066851800,0.077851806640625,0.2579762041568756,0.041815172880887985,-0.23998723924160004
1788861596076857900,0.08785791015625,0.25714290142059326,0.44210371375083923,-0.015195940621197224
1788861596086864000,0.09786376953125,0.14897620677947998,0.638214111328125,0.26119497418403625
1788861596096871000,0.107870849609375,-0.0607263557612896,0.5012249946594238,0.555191159248352
1788861596106877000,0.117876953125,-0.34503957629203796,0.025045953691005707,0.8280935287475586
1788861596116882700,0.127882568359375,-0.6942644119262695,-0.8096219897270203,1.0006409883499146
1788861596126888700,0.137888671875,-0.9216887950897217,-1.7155739068984985,1.0737338066101074
1788861596136896000,0.14789599609375,-0.8846487402915955,-2.1749322414398193,1.0663925409317017
1788861596146901800,0.15790185546875,-0.6324281692504883,-2.0045957565307617,0.9746448993682861
1788861596156907800,0.16790771484375,-0.2846178710460663,-1.403444766998291,0.8549658060073853
1788861596166914800,0.177914794921875,-0.06186947226524353,-0.7627835869789124,0.7073803544044495
1788861596176920800,0.1879208984375,-0.10016971826553345,-0.42168566584587097,0.557000994682312
1788861596186926800,0.1979267578125,-0.3114631772041321,-0.35314130783081055,0.4291785657405853
1788861596196932900,0.207932861328125,-0.5659976005554199,-0.39801734685897827,0.29942360520362854
1788861596206940000,0.21793994140625,-0.7461508512496948,-0.43393436074256897,0.1383468061685562
1788861596216946000,0.22794580078125,-0.7686783075332642,-0.31181612610816956,-0.00602934043854475
1788861596226952000,0.237951904296875,-0.6501646637916565,-0.04804973676800728,-0.09172853082418442
1788861596236959000,0.247958984375,-0.44662266969680786,0.19246594607830048,-0.12228476256132126
1788861596246965000,0.257965087890625,-0.1925743967294693,0.19433894753456116,-0.1020340844988823
1788861596256971000,0.267970947265625,0.04636828601360321,0.09675882756710052,-0.034870922565460205
1788861596266977800,0.277977783203125,0.22121760249137878,0.07804585993289948,0.09775343537330627
1788861596276984000,0.287984130859375,0.35501107573509216,0.19961223006248474,0.20807035267353058
1788861596286989800,0.29798974609375,0.4048738479614258,0.25032204389572144,0.2791951596736908
1788861596296995800,0.307995849609375,0.3912738561630249,0.2094845473766327,0.35200467705726624
1788861596307003000,0.3180029296875,0.3482646048069,0.03836474195122719,0.41648218035697937
1788861596317009000,0.3280087890625,0.26437440514564514,-0.07176358997821808,0.42370837926864624
1788861596327015000,0.338014892578125,0.19957223534584045,0.0792594850063324,0.38746488094329834
1788861596337022000,0.34802197265625,0.1990153044462204,0.4841510057449341,0.3512879014015198
1788861596347027700,0.35802783203125,0.23582524061203003,0.9426448345184326,0.33835503458976746
1788861596357034000,0.368033935546875,0.25627443194389343,1.2007604837417603,0.31271302700042725
1788861596367040000,0.3780400390625,0.24545827507972717,1.094307541847229,0.2580031752586365
1788861596377046800,0.388046875,0.24025632441043854,0.6776597499847412,0.21027879416942596
1788861596387052800,0.398052734375,0.33206355571746826,0.15785551071166992,0.2261502593755722
1788861596397059000,0.40805908203125,0.3938628137111664,-0.15966330468654633,0.23479096591472626
1788861596407065900,0.41806591796875,0.40906333923339844,-0.28171011805534363,0.21297220885753632
1788861596417071900,0.42807177734375,0.39276689291000366,-0.3207857012748718,0.1515699028968811
1788861596427078000,0.438077880859375,0.3657262325286865,-0.24723771214485168,0.0620349645614624
1788861596437084000,0.448083984375,0.3408038914203644,-0.23745828866958618,-0.05200764164328575
1788861596447091000,0.458091064453125,0.3503230810165405,-0.27225571870803833,-0.1351344883441925
1788861596457096700,0.4680966796875,0.3807092010974884,-0.345522403717041,-0.12311604619026184
1788861596467102700,0.478102783203125,0.39201778173446655,-0.39650461077690125,-0.042385783046483994
1788861596477110000,0.488110107421875,0.3770425021648407,-0.4566744565963745,0.0880756676197052
1788861596487115800,0.49811572265625,0.34034547209739685,-0.4902215003967285,0.21439020335674286
1788861596497121800,0.508121826171875,0.3073835074901581,-0.4936479330062866,0.29307490587234497
1788861596507128800,0.51812890625,0.3027186989784241,-0.45716556906700134,0.31170687079429626
1788861596517134800,0.528134765625,0.3472582995891571,-0.17124992609024048,0.25206369161605835
1788861596527140900,0.538140869140625,0.4325864911079407,0.17315299808979034,0.14432097971439362
1788861596537147000,0.54814697265625,0.5211553573608398,0.29484760761260986,0.023225700482726097
1788861596547154000,0.55815380859375,0.5942362546920776,0.26393789052963257,-0.05857701972126961
1788861596557160000,0.568159912109375,0.6527944803237915,0.21672417223453522,-0.10684839636087418
1788861596567166000,0.578166015625,0.6537351608276367,0.2037215679883957,-0.15886498987674713
1788861596577172700,0.5881728515625,0.5890195369720459,0.20679324865341187,-0.21797224879264832
1788861596587179000,0.598178955078125,0.5016098618507385,0.23342984914779663,-0.280834823846817
1788861596597185000,0.60818505859375,0.43090081214904785,0.09719246625900269,-0.2952200174331665
1788861596607191800,0.61819189453125,0.38453996181488037,-0.2435307651758194,-0.23301123082637787
1788861596617197800,0.62819775390625,0.4553389251232147,-0.5504494905471802,-0.10353269428014755
1788861596627203800,0.638203857421875,0.6166988015174866,-0.6367369890213013,0.06158968806266785
1788861596637209900,0.6482099609375,0.7552984952926636,-0.4498422145843506,0.1728975623846054
1788861596647217000,0.658216796875,0.8006364107131958,-0.10305014997720718,0.18747490644454956
1788861596657222700,0.66822265625,0.7527042031288147,0.239103764295578,0.072880320250988
1788861596667229000,0.67822900390625,0.6717965602874756,0.4138801097869873,-0.16909903287887573
1788861596677236000,0.688236083984375,0.6194087266921997,0.39417406916618347,-0.4480075538158417
1788861596687241700,0.69824169921875,0.544675886631012,0.06680100411176682,-0.6218065023422241
1788861596697248000,0.708248046875,0.4396284818649292,-0.3199656009674072,-0.6083281636238098
1788861596707254000,0.71825390625,0.34675341844558716,-0.4815763533115387,-0.439851850271225
1788861596717260800,0.7282607421875,0.270684152841568,-0.3448621928691864,-0.22085192799568176
1788861596727266800,0.738266845703125,0.25025156140327454,0.035291530191898346,-0.04917044937610626
1788861596737273000,0.748273193359375,0.2599188983440399,0.3503146767616272,0.0229203999042511
1788861596747280000,0.75827978515625,0.2824830412864685,0.4480132758617401,-0.03849795460700989
1788861596757286000,0.768285888671875,0.33047062158584595,0.37963613867759705,-0.20321018993854523
1788861596767292000,0.7782919921875,0.36383068561553955,0.19650201499462128,-0.3688686788082123
1788861596777299000,0.788298828125,0.30338579416275024,0.06179153546690941,-0.4571138918399811
1788861596787305000,0.798304931640625,0.2315020114183426,0.12204635143280029,-0.42990943789482117
1788861596797310700,0.808310791015625,0.15368232131004333,0.2339225560426712,-0.33300843834877014
1788861596807316700,0.818316650390625,0.09111081808805466,0.24025902152061462,-0.2268737554550171
1788861596817324000,0.828323974609375,0.06659679859876633,0.14634455740451813,-0.11428660899400711
1788861596827329800,0.838329833984375,0.0899370089173317,0.049432650208473206,0.04578961804509163
1788861596837336300,0.84833642578125,0.13199995458126068,-0.008452238515019417,0.1837121844291687
1788861596847343000,0.858343017578125,0.12480195611715317,-0.109293632209301,0.24726930260658264
1788861596857349000,0.86834912109375,0.06966681033372879,-0.2622234523296356,0.2148231565952301
1788861596867355100,0.878355224609375,0.04486851394176483,-0.35850685834884644,0.13691265881061554
1788861596877362200,0.888362060546875,0.04599801078438759,-0.29411327838897705,0.07842711359262466
1788861596887368200,0.8983681640625,0.06525000184774399,-0.20578765869140625,0.0403769314289093
1788861596897374200,0.908374267578125,0.08458193391561508,-0.1869857758283615,0.05992681160569191
1788861596907381200,0.91838134765625,0.09923464804887772,-0.1904579997062683,0.19536639750003815
1788861596917387300,0.92838720703125,0.08724858611822128,-0.23941375315189362,0.36942628026008606
1788861596927393300,0.938393310546875,0.08207779377698898,-0.3465290069580078,0.5025968551635742
1788861596937399000,0.94839892578125,0.026967136189341545,-0.6668550968170166,0.572995126247406
1788861596947406300,0.95840625,-0.10156340897083282,-1.1518681049346924,0.580766499042511
1788861596957412400,0.968412353515625,-0.2400643527507782,-1.6713054180145264,0.5917341113090515
1788861596967418000,0.978418212890625,-0.3319151997566223,-1.8473116159439087,0.55015629529953
1788861596977425200,0.988425048828125,-0.29498904943466187,-1.7507421970367432,0.44139713048934937
1788861596987431200,0.99843115234375,-0.14535827934741974,-1.5080991983413696,0.22809818387031555
1788861596997437200,1.008437255859375,0.1940084993839264,-1.7614414691925049,-0.00031916936859488487
1788861597007444200,1.0184443359375,0.5668348073959351,-2.2008087635040283,-0.02135521173477173
1788861597017450000,1.028449951171875,0.8821075558662415,-2.388075828552246,0.11183380335569382
1788861597027456300,1.038456298828125,1.1497819423675537,-2.3717920780181885,0.277288019657135
1788861597037462300,1.048462158203125,1.4830424785614014,-2.0836310386657715,0.4070635735988617
1788861597047469000,1.058468994140625,1.877922534942627,-1.8875658512115479,0.3487744629383087
1788861597057475000,1.06847509765625,2.1819398403167725,-2.089848041534424,0.0598130039870739
1788861597067481300,1.0784814453125,2.4920358657836914,-2.349924325942993,-0.23255281150341034
1788861597077488000,1.088488037109375,2.8139290809631348,-2.7649450302124023,-0.4531586468219757
1788861597087494100,1.098494140625,3.1208302974700928,-3.247018575668335,-0.4866015315055847
1788861597097500200,1.108500244140625,3.4300684928894043,-3.788651943206787,-0.2861317992210388
1788861597107507200,1.118507080078125,3.7485556602478027,-4.278806686401367,0.024407949298620224
1788861597117513200,1.12851318359375,3.988252639770508,-4.908023357391357,0.31433364748954773
1788861597127519200,1.138519287109375,4.249571323394775,-5.468765735626221,0.5615612864494324
1788861597137526300,1.1485263671875,4.559255123138428,-5.57352352142334,0.6441179513931274
1788861597147532300,1.1585322265625,4.858188629150391,-5.292263507843018,0.4743957221508026
1788861597157538000,1.1685380859375,5.196435928344727,-4.830372333526611,0.15855468809604645
1788861597167544000,1.1785439453125,5.394766330718994,-4.257490634918213,-0.33425313234329224
1788861597177551400,1.18855126953125,5.3229451179504395,-3.5989043712615967,-0.922707200050354
1788861597187557000,1.19855712890625,5.1311469078063965,-3.4178757667541504,-1.4366145133972168
1788861597197563100,1.208563232421875,4.997287750244141,-3.7039387226104736,-1.6834917068481445
1788861597207570400,1.2185703125,4.991274356842041,-4.242676258087158,-1.4811292886734009
1788861597217576200,1.228576171875,5.02891731262207,-4.825787544250488,-0.9350557327270508
1788861597227582200,1.238582275390625,4.911904811859131,-4.946865558624268,-0.3703124523162842
1788861597237589200,1.24858935546875,4.582433223724365,-4.405853271484375,-0.10660511255264282
1788861597247595300,1.25859521484375,4.1243157386779785,-3.506920099258423,-0.16083160042762756
1788861597257601300,1.268601318359375,3.625092029571533,-2.5629537105560303,-0.45172926783561707
1788861597267608000,1.278608154296875,3.0519988536834717,-1.8411751985549927,-0.8988620042800903
1788861597277614000,1.288614013671875,2.390871286392212,-1.5814948081970215,-1.2384036779403687
1788861597287620400,1.298620361328125,1.8500365018844604,-1.8598934412002563,-1.2366276979446411
1788861597301379300,1.31237939453125,1.3177268505096436,-2.4495670795440674,-0.8285067081451416
1788861597312010200,1.32301025390625,1.0411823987960815,-2.7762951850891113,-0.42956307530403137
1788861597322017300,1.333017333984375,0.970162034034729,-3.0349879264831543,-0.07828860729932785
1788861597332023000,1.34302294921875,1.0749763250350952,-3.190112829208374,0.22437965869903564
1788861597342029000,1.353029052734375,1.1773953437805176,-3.2285995483398438,0.4439013600349426
1788861597352036400,1.363036376953125,1.2365676164627075,-3.206416130065918,0.6026883721351624
1788861597362042000,1.3730419921875,1.233072280883789,-3.0569472312927246,0.7258254289627075
1788861597372048100,1.383048095703125,1.0812345743179321,-2.7550628185272217,0.7823087573051453
1788861597382055200,1.39305517578125,0.6299692392349243,-2.6630256175994873,0.560900092124939
1788861597392061200,1.403061279296875,0.1417260617017746,-2.3992419242858887,0.12502528727054596
1788861597402067200,1.413067138671875,-0.1312713772058487,-2.0118234157562256,-0.2901860177516937
1788861597412074000,1.423073974609375,-0.2298661321401596,-1.6146293878555298,-0.6072142720222473
1788861597422080300,1.433080322265625,-0.14415068924427032,-1.4962202310562134,-0.9062763452529907
1788861597432086300,1.443086181640625,0.20771782100200653,-1.7735857963562012,-1.097693920135498
1788861597442092300,1.45309228515625,0.46047335863113403,-1.7866719961166382,-0.9543188810348511
1788861597452099000,1.46309912109375,0.36357423663139343,-1.563358187675476,-0.5846790671348572
1788861597462105300,1.473105224609375,0.09107846021652222,-1.5487526655197144,-0.2281324714422226
1788861597472111000,1.483111083984375,-0.20807336270809174,-1.584669589996338,0.12112085521221161
1788861597482118100,1.4931181640625,-0.3506828546524048,-1.619876742362976,0.4295333921909332
1788861597492124200,1.503124267578125,-0.36560294032096863,-1.5319311618804932,0.6241768598556519
1788861597502130200,1.513130126953125,-0.40507763624191284,-1.1529697179794312,0.6962409615516663
1788861597512137200,1.52313720703125,-0.6090081334114075,-0.8522419333457947,0.5482807755470276
1788861597522143200,1.533143310546875,-0.7742893099784851,-0.7359664440155029,0.1723949909210205
1788861597532149200,1.543149169921875,-0.7732053995132446,-0.7544538378715515,-0.222988560795784
1788861597542156300,1.55315625,-0.7421582937240601,-0.6488049030303955,-0.4208481013774872
1788861597552162000,1.563162109375,-0.7626481056213379,-0.5526189804077148,-0.43113961815834045
1788861597562168000,1.57316796875,-0.7308659553527832,-0.5270246863365173,-0.2240021526813507
1788861597572175400,1.58317529296875,-0.6247562766075134,-0.48273128271102905,0.08475746959447861
1788861597582181000,1.59318115234375,-0.48563897609710693,-0.5121704339981079,0.30149662494659424
1788861597592187100,1.603187255859375,-0.3782920241355896,-0.4933410882949829,0.43424054980278015
1788861597602194400,1.6131943359375,-0.35031643509864807,-0.36938759684562683,0.4756142497062683
1788861597612200200,1.6232001953125,-0.3700379431247711,-0.4524475932121277,0.36179739236831665
1788861597622206200,1.633206298828125,-0.5055550932884216,-0.44537317752838135,0.11971785128116608
1788861597632213000,1.643212890625,-0.4596796929836273,-0.36960333585739136,-0.01889088749885559
1788861597642219300,1.65321923828125,-0.37981534004211426,-0.6555615663528442,-0.02456551603972912
1788861597652225300,1.663225341796875,-0.43486180901527405,-1.2109742164611816,0.20760886371135712
1788861597662231300,1.673231201171875,-0.6049667000770569,-1.5818737745285034,0.4499821662902832
1788861597672238000,1.683238037109375,-0.6989251375198364,-1.6011929512023926,0.7039550542831421
1788861597682244400,1.693244384765625,-0.7086355090141296,-1.316635251045227,0.8493385910987854
1788861597692250400,1.70325048828125,-0.7575686573982239,-1.0062891244888306,0.8641114234924316
1788861597702257200,1.713257080078125,-0.8592349290847778,-0.7119945287704468,0.8914293050765991
1788861597712263200,1.72326318359375,-1.0866081714630127,1.0654641389846802,2.737679958343506
1788861597722269200,1.733269287109375,-0.7177199721336365,0.7635224461555481,3.7755966186523438
1788861597732276200,1.743276123046875,-0.5273697376251221,-0.4443715810775757,3.192826747894287
1788861597742282200,1.7532822265625,-0.6350506544113159,-1.1649675369262695,1.9185432195663452
1788861597752288000,1.7632880859375,-0.5933173298835754,-1.2369294166564941,1.0258426666259766
1788861597762295300,1.77329541015625,-0.32103031873703003,-1.1036455631256104,0.6943170428276062
1788861597772301300,1.78330126953125,-0.10672814399003983,-1.2192188501358032,0.5456942915916443
1788861597782307000,1.79330712890625,-0.029885776340961456,-1.2662627696990967,0.5154533386230469
1788861597792314400,1.803314453125,0.059538647532463074,-1.291363000869751,0.5591952204704285
1788861597802320100,1.813320068359375,0.28215956687927246,-1.3707727193832397,0.5887323617935181
1788861597812326100,1.823326171875,0.7877111434936523,-1.4566184282302856,0.5770253539085388
1788861597822333200,1.833333251953125,1.4941284656524658,-1.404029130935669,0.43933767080307007
1788861597832339000,1.8433388671875,2.341996669769287,-1.202742338180542,0.11955433338880539
1788861597842345000,1.853344970703125,3.2726707458496094,-0.9561110138893127,-0.450155645608902
1788861597852352000,1.86335205078125,4.209416389465332,-0.6269783973693848,-1.2511188983917236
1788861597862357800,1.873357666015625,4.5793023109436035,0.039277657866477966,-1.6842764616012573
1788861597872364000,1.883364013671875,1.777302622795105,-2.0666613578796387,1.7091119289398193
1788861597882371000,1.89337109375,1.5671948194503784,-1.792555570602417,1.09235680103302
1788861597892376800,1.903376953125,2.047126054763794,-0.9590676426887512,0.8193548321723938
1788861597902382800,1.9133828125,2.4651060104370117,-0.05099683254957199,0.326677143573761
1788861597912390000,1.923389892578125,2.999279499053955,0.894050121307373,-0.6581904292106628
1788861597922396000,1.93339599609375,2.3408303260803223,1.355070948600769,-1.211094856262207
1788861597932402000,1.94340185546875,1.9415061473846436,0.5328935384750366,-1.2223213911056519
1788861597942409000,1.953408935546875,1.8451623916625977,0.21484601497650146,-1.2643259763717651
1788861597952415000,1.9634150390625,1.800179362297058,0.22478041052818298,-1.182957649230957
1788861597962421000,1.9734208984375,1.5729352235794067,-0.043384697288274765,-1.2598797082901
1788861597972427800,1.983427734375,1.2524116039276123,0.04914630204439163,-1.188015103340149
1788861597982434000,1.99343408203125,0.8895263671875,0.33303579688072205,-0.9596045613288879
1788861597992440000,2.003440185546875,0.5180249810218811,0.429799884557724,-0.6578476428985596
1788861598004323000,2.015322998046875,-0.0017942555714398623,0.6020569205284119,-0.5262401103973389
1788861598014328800,2.025328857421875,-0.0691959336400032,0.9425252676010132,-0.4629897177219391
1788861598024336000,2.0353359375,0.10936155915260315,1.4565054178237915,-0.3993303179740906
1788861598034342100,2.045342041015625,0.24866388738155365,1.883522868156433,-0.24158068001270294
1788861598044348000,2.055347900390625,0.43644383549690247,1.4342769384384155,0.12734167277812958
1788861598054355000,2.06535498046875,0.15155243873596191,0.9082802534103394,0.5746102929115295
1788861598064361000,2.07536083984375,-0.3407967984676361,0.8066886067390442,0.9787251353263855
1788861598074367000,2.085366943359375,-0.5187846422195435,0.0747363418340683,0.8432354927062988
1788861598084374000,2.0953740234375,-0.05621868744492531,-0.470857709646225,0.6856235265731812
1788861598094379800,2.1053798828125,1.2582992315292358,0.022268090397119522,1.2255724668502808
1788861598104387000,2.115386962890625,2.594148874282837,0.9375041127204895,1.6026920080184937
1788861598114393000,2.12539306640625,2.82889986038208,1.7278403043746948,1.2728270292282104
1788861598124398800,2.13539892578125,2.177421808242798,1.5219273567199707,0.582643985748291
1788861598134406000,2.145406005859375,1.4619606733322144,1.171716332435608,-0.14106233417987823
1788861598144412200,2.155412109375,1.3265246152877808,1.1393626928329468,-0.445178359746933
1788861598154418000,2.16541796875,1.506591796875,0.9513182640075684,-0.5523895025253296
1788861598164425000,2.175425048828125,1.44280207157135,0.5728942155838013,-0.6279347538948059
1788861598174430700,2.1854306640625,1.1563016176223755,0.2965489327907562,-0.42294642329216003
1788861598184437000,2.19543701171875,0.9504737257957458,0.5043988227844238,-0.1578618884086609
1788861598194444000,2.205444091796875,1.0397098064422607,1.0504546165466309,0.0775008350610733
1788861598204449800,2.21544970703125,1.5415315628051758,1.4770829677581787,0.41503122448921204
1788861598214455800,2.225455810546875,2.3100340366363525,1.479900598526001,0.9124913215637207
1788861598224463000,2.235463134765625,2.9371824264526367,0.9421249628067017,1.5196393728256226
1788861598234468900,2.24546875,3.3142459392547607,-0.3992363214492798,2.2479636669158936
1788861598244475000,2.255474853515625,3.784869432449341,-1.7366468906402588,2.352774143218994
1788861598254482000,2.26548193359375,3.70619535446167,-1.46412193775177,2.7413997650146484
1788861598264488000,2.275488037109375,4.01785945892334,-2.7382044792175293,3.3198893070220947
1788861598274494000,2.285493896484375,4.707372188568115,-3.787247657775879,4.022530555725098
1788861598284500700,2.295500732421875,4.925646781921387,-3.826869487762451,4.221437931060791
1788861598294507000,2.305507080078125,4.530611038208008,-3.2830727100372314,3.2707812786102295
1788861598304513000,2.315512939453125,3.233750104904175,-2.7432665824890137,0.6407914161682129
1788861598314519800,2.325519775390625,1.0491118431091309,-2.4872632026672363,-1.8835220336914062
1788861598324525800,2.33552587890625,-0.5156190395355225,-2.4290828704833984,-2.65590238571167
1788861598334532000,2.345531982421875,-0.7223016023635864,-2.93520450592041,-2.4700756072998047
1788861598344539000,2.355538818359375,-0.353677898645401,-2.5666048526763916,-1.5306529998779297
1788861598354545000,2.365544921875,-0.08327943831682205,-1.103364109992981,-0.8483444452285767
1788861598364551000,2.375551025390625,-0.0414545014500618,0.47637227177619934,-0.7571821212768555
1788861598374558000,2.385557861328125,-0.3059535324573517,1.989214539527893,-1.1573678255081177
1788861598384564000,2.39556396484375,-0.7980260252952576,3.0177905559539795,-1.5643004179000854
1788861598394570000,2.405570068359375,-1.2139084339141846,2.2542037963867188,-1.4491318464279175
1788861598404577000,2.415576904296875,-0.9380242824554443,1.4703015089035034,-1.5419175624847412
1788861598414583000,2.4255830078125,-0.15300536155700684,0.6730749011039734,-2.083961248397827
1788861598424588800,2.4355888671875,-0.87892746925354,-1.2435081005096436,-0.43386346101760864
1788861598434596000,2.44559619140625,-2.1382811069488525,-1.7279205322265625,0.9044889211654663
1788861598444602000,2.45560205078125,-2.737095355987549,-1.89935302734375,1.7241674661636353
1788861598454608000,2.46560791015625,-3.222196340560913,-2.4401941299438477,1.1726726293563843
1788861598464615000,2.475614990234375,-3.6169722080230713,-2.058777093887329,-1.074967384338379
1788861598474621200,2.48562109375,-3.3283259868621826,-0.636093258857727,-2.3092856407165527
1788861598484628000,2.4956279296875,-3.31593656539917,1.0684353113174438,-2.5257084369659424
1788861598494634000,2.505634033203125,-2.097561836242676,2.0755863189697266,-1.6832075119018555
1788861598504639700,2.5156396484375,0.04429101571440697,1.827152132987976,-1.7744460105895996
1788861598514647000,2.52564697265625,1.5427886247634888,0.8825117945671082,-2.0610575675964355
1788861598524653000,2.535653076171875,2.285069465637207,-0.39797621965408325,-2.0946147441864014
1788861598534658800,2.545658935546875,1.914795994758606,-0.5967537760734558,-1.728167176246643
1788861598544666000,2.555666015625,1.199643611907959,0.25847434997558594,-0.9962599873542786
1788861598554672000,2.565672119140625,0.6498551964759827,1.8429995775222778,-0.12292879074811935
1788861598564678000,2.575677978515625,-0.18120230734348297,2.577481508255005,0.13012635707855225
1788861598574685000,2.585684814453125,-0.7480337619781494,1.5364584922790527,-0.08310389518737793
1788861598584691000,2.59569091796875,-0.6647732257843018,0.11239966005086899,-0.8841286897659302
1788861598594697000,2.605697021484375,-0.7266752123832703,-0.09653650969266891,-1.4819109439849854
1788861598604704000,2.6157041015625,-0.9702730178833008,0.4761207103729248,-1.6855621337890625
1788861598614709800,2.625709716796875,-1.2185696363449097,0.5922073125839233,-1.683717131614685
1788861598624716000,2.635716064453125,-1.4319922924041748,0.18564116954803467,-1.6308152675628662
1788861598634723000,2.64572314453125,-1.6127139329910278,-0.1253446787595749,-1.6415038108825684
1788861598644728800,2.655728759765625,-1.7777951955795288,-0.11742497980594635,-1.7455815076828003
1788861598654734800,2.66573486328125,-1.8371572494506836,-0.04959985613822937,-1.9054920673370361
1788861598664742000,2.675741943359375,-1.7600890398025513,-0.16653244197368622,-2.0856029987335205
1788861598674748000,2.685747802734375,-1.6009670495986938,-0.45191144943237305,-2.135575771331787
1788861598684755000,2.6957548828125,-1.5015556812286377,-0.747509241104126,-2.071042060852051
1788861598694761000,2.705760986328125,-1.4296205043792725,-0.881183922290802,-2.0199620723724365
1788861598704767000,2.71576708984375,-1.2904490232467651,-0.8405264616012573,-2.036167621612549
1788861598714774000,2.72577392578125,-1.1085258722305298,-0.9045645594596863,-2.114586353302002
1788861598724779800,2.73577978515625,-0.8106743097305298,-1.2881985902786255,-2.140434741973877
1788861598734786000,2.7457861328125,-0.6445585489273071,-1.4255074262619019,-2.164191484451294
1788861598744792800,2.755792724609375,-0.5866000056266785,-1.2172503471374512,-2.065537691116333
1788861598754798800,2.765798828125,-0.583490252494812,-0.8425995111465454,-2.1105945110321045
1788861598764804900,2.775804931640625,-0.46934980154037476,-0.6445364952087402,-2.0561580657958984
1788861598774812000,2.78581201171875,-0.2213463932275772,-0.7005779147148132,-1.8758070468902588
1788861598784818000,2.79581787109375,-0.02505568414926529,-0.7932851910591125,-1.8116668462753296
1788861598794824000,2.805823974609375,-0.09320118278265,-0.6644750237464905,-1.7105062007904053
1788861598804831000,2.8158310546875,-0.30103278160095215,-0.14499586820602417,-1.5466469526290894
1788861598814837000,2.8258369140625,-0.2898706793785095,0.19384290277957916,-1.2870744466781616
1788861598824843000,2.835843017578125,0.04326445236802101,0.07346609979867935,-1.1728649139404297
1788861598834849800,2.845849853515625,0.2892656922340393,-0.3189661204814911,-1.0048778057098389
1788861598844856300,2.855856201171875,0.33661144971847534,-0.3912820816040039,-0.7974006533622742
1788861598854863000,2.865863037109375,0.32247939705848694,-0.1975775957107544,-0.5710450410842896
1788861598864869400,2.875869384765625,0.3638002276420593,-0.05776134878396988,-0.3460043668746948
1788861598874875400,2.88587548828125,0.4080374538898468,0.11523439735174179,-0.2492261677980423
1788861598884882200,2.895882080078125,0.4481797516345978,0.29283151030540466,-0.14476722478866577
1788861598894888200,2.90588818359375,0.48105916380882263,0.4425104856491089,0.04124552756547928
1788861598904894500,2.91589453125,0.48968321084976196,0.5775613188743591,0.17761141061782837
1788861598914901200,2.9259013671875,0.5420675277709961,0.6402812004089355,0.31277990341186523
1788861598924907300,2.9359072265625,0.6396028995513916,0.5495606660842896,0.4846424162387848
1788861598934913300,2.945913330078125,0.7960410118103027,0.3516105115413666,0.6076815128326416
1788861598944920300,2.95592041015625,0.9601898789405823,0.23361167311668396,0.6799923181533813
1788861598954926300,2.96592626953125,1.0912631750106812,0.20305056869983673,0.7580047845840454
1788861598964932000,2.97593212890625,1.2242698669433594,0.2103094607591629,0.831134557723999
1788861598974939400,2.985939453125,1.3635390996932983,0.2634879946708679,0.9064493179321289
1788861598984945400,2.9959453125,1.5176777839660645,0.31169629096984863,0.9736131429672241
1788861598994951200,3.005951171875,1.6407667398452759,0.3447394371032715,1.0413943529129028
1788861599004958200,3.015958251953125,1.7123661041259766,0.3403919041156769,1.1068534851074219
1788861599014964200,3.025964111328125,1.7819857597351074,0.30675777792930603,1.2046016454696655
1788861599024971300,3.03597119140625,1.8760863542556763,0.30455344915390015,1.2736084461212158
1788861599034977300,3.045977294921875,1.956810474395752,0.2530457675457001,1.2883871793746948
1788861599044983000,3.055983154296875,2.018059253692627,0.10466672480106354,1.271710753440857
1788861599054990300,3.065990234375,2.0372121334075928,-0.043932609260082245,1.2656360864639282
1788861599064996400,3.075996337890625,1.996017575263977,-0.10572671890258789,1.2381705045700073
1788861599075002000,3.086002197265625,1.9197819232940674,-0.1317865401506424,1.2680916786193848
1788861599085009400,3.096009521484375,1.877571702003479,-0.20482008159160614,1.350948691368103
1788861599095015200,3.10601513671875,1.915319561958313,-0.3251153230667114,1.3591909408569336
1788861599105021200,3.116021240234375,2.0313360691070557,-0.4559139907360077,1.3285658359527588
1788861599115028200,3.1260283203125,2.1578431129455566,-0.4837009012699127,1.3128507137298584
1788861599125034200,3.1360341796875,2.242347240447998,-0.43573227524757385,1.417668104171753
1788861599135040300,3.146040283203125,2.2681636810302734,-0.33720117807388306,1.5888421535491943
1788861599145047300,3.15604736328125,2.2215919494628906,-0.28946879506111145,1.7313416004180908
1788861599155053000,3.166052978515625,2.0894663333892822,-0.30034834146499634,1.873305082321167
1788861599165060400,3.176060302734375,1.9140877723693848,-0.2999800145626068,2.0572047233581543
1788861599175066000,3.186066162109375,1.7747282981872559,-0.09523165225982666,2.251948833465576
1788861599185072000,3.196072021484375,1.663901448249817,0.19281017780303955,2.364042282104492
1788861599195079400,3.206079345703125,1.5148930549621582,0.25635531544685364,2.2985622882843018
1788861599205085200,3.216085205078125,1.2977521419525146,0.10410131514072418,2.0934250354766846
1788861599215091200,3.22609130859375,1.057875394821167,-0.0027673416770994663,1.8697572946548462
1788861599225098200,3.23609814453125,0.8690202832221985,-0.01714489236474037,1.6708112955093384
1788861599235104300,3.246104248046875,0.7254807353019714,-0.028598617762327194,1.475062370300293
1788861599245110300,3.2561103515625,0.5782116651535034,-0.01790725812315941,1.2664432525634766
1788861599255117000,3.266116943359375,0.40495598316192627,0.05941922217607498,1.0633883476257324
1788861599265123000,3.276123046875,0.21490268409252167,0.1615486592054367,0.8236115574836731
1788861599275129300,3.28612939453125,0.06892097741365433,0.11105725169181824,0.5131413340568542
1788861599285136100,3.29613623046875,-0.014587778598070145,-0.1247384324669838,0.22068437933921814
1788861599295142100,3.30614208984375,-0.028088407590985298,-0.3332005441188812,-0.06383071094751358
1788861599305149400,3.3161494140625,-0.1353948712348938,-0.36879003047943115,-0.3008042871952057
1788861599315155200,3.3261552734375,-0.31891193985939026,-0.263302206993103,-0.475543349981308
1788861599325161200,3.3361611328125,-0.5460191369056702,-0.16424506902694702,-0.6529697775840759
1788861599335168000,3.34616796875,-0.8098933696746826,-0.12016042321920395,-0.8612928986549377
1788861599345174300,3.35617431640625,-1.0374423265457153,-0.05850166454911232,-1.0647450685501099
1788861599355180300,3.36618017578125,-1.1595131158828735,0.11836712062358856,-1.224565863609314
1788861599365187000,3.37618701171875,-1.1625194549560547,0.2815707325935364,-1.3065825700759888
1788861599375193300,3.386193359375,-1.0949684381484985,0.35910066962242126,-1.291382074356079
1788861599385199400,3.396199462890625,-1.0109082460403442,0.3484688103199005,-1.1977356672286987
1788861599395206100,3.4062060546875,-0.9864321947097778,0.23873008787631989,-1.0320618152618408
1788861599405212200,3.416212158203125,-1.0634841918945312,0.15712232887744904,-0.9127280712127686
1788861599415219200,3.42621923828125,-1.1730421781539917,0.09933093190193176,-0.9181596040725708
1788861599425225200,3.43622509765625,-1.2621397972106934,0.04838062822818756,-0.9208333492279053
1788861599435231200,3.446231201171875,-1.3471788167953491,0.01816200464963913,-0.9040868878364563
1788861599445238300,3.45623828125,-1.3915759325027466,-0.06721632927656174,-0.8466898798942566
1788861599455244300,3.466244384765625,-1.4051553010940552,-0.16304245591163635,-0.6917740106582642
1788861599465250300,3.476250244140625,-1.400213360786438,-0.1721530556678772,-0.49524548649787903
1788861599475257000,3.486257080078125,-1.4202184677124023,-0.08254780620336533,-0.3975551426410675
1788861599485263400,3.496263427734375,-1.5030125379562378,0.044189147651195526,-0.4493742883205414
1788861599495269400,3.506269287109375,-1.6093597412109375,0.06250050663948059,-0.5459138751029968
1788861599505276200,3.516276123046875,-1.6933170557022095,-0.007440080866217613,-0.5848419070243835
1788861599515282200,3.5262822265625,-1.725251317024231,-0.09112165868282318,-0.5860845446586609
1788861599525288400,3.536288330078125,-1.7179940938949585,-0.28648871183395386,-0.5650060772895813
1788861599535295200,3.546295166015625,-1.6286773681640625,-0.4915406405925751,-0.5829323530197144
1788861599545301200,3.55630126953125,-1.4759067296981812,-0.6156591176986694,-0.6550512313842773
1788861599555308300,3.566308349609375,-1.3497774600982666,-0.6452953219413757,-0.7264249920845032
1788861599565314300,3.576314208984375,-1.2743968963623047,-0.6180862784385681,-0.7604604959487915
1788861599575320300,3.5863203125,-1.2344223260879517,-0.4970583915710449,-0.7482680082321167
1788861599585327000,3.5963271484375,-1.2238898277282715,-0.2666216790676117,-0.7606741189956665
1788861599595333400,3.60633349609375,-1.2258437871932983,-0.11095193773508072,-0.829083263874054
1788861599605339400,3.61633935546875,-1.2079533338546753,-0.10045510530471802,-0.9071059226989746
1788861599615346200,3.62634619140625,-1.1894835233688354,-0.14125660061836243,-0.9840997457504272
1788861599625352200,3.636352294921875,-1.1978554725646973,-0.21303921937942505,-0.9897226095199585
1788861599635359200,3.646359130859375,-1.2057064771652222,-0.24244211614131927,-0.9397252202033997
1788861599645365200,3.656365234375,-1.206384539604187,-0.27547383308410645,-0.9154635667800903
1788861599655371300,3.666371337890625,-1.193111538887024,-0.3691888749599457,-0.9269481301307678
1788861599665378300,3.67637841796875,-1.133599877357483,-0.4644980728626251,-0.9593219757080078
1788861599675384300,3.68638427734375,-1.0225354433059692,-0.5712237358093262,-1.066306710243225
1788861599685390300,3.696390380859375,-0.8544847369194031,-0.8444712162017822,-1.331089735031128
1788861599695397000,3.706397216796875,-0.6696435213088989,-1.2236933708190918,-1.659023404121399
1788861599705403400,3.7164033203125,-0.6021839380264282,-0.9522113800048828,-1.727524757385254
1788861599715409200,3.7264091796875,-0.7856224179267883,-0.07006809860467911,-1.5246895551681519
1788861599725416200,3.736416259765625,-0.9927183389663696,0.464319109916687,-1.3109126091003418
1788861599735422200,3.746422119140625,-0.7398085594177246,-0.33139294385910034,-1.4280214309692383
1788861599745429200,3.75642919921875,-0.4648437798023224,-0.9828988313674927,-1.3996814489364624
1788861599755435300,3.766435302734375,-0.6345534920692444,-0.30314749479293823,-1.0774706602096558
1788861599765441300,3.776441162109375,-0.7606062889099121,0.29569679498672485,-1.0426870584487915
1788861599775448300,3.7864482421875,-0.6940722465515137,0.07129032909870148,-0.973834753036499
1788861599785454300,3.796454345703125,-0.5558336973190308,-0.16597308218479156,-0.7992903590202332
1788861599795460400,3.80646044921875,-0.5433027148246765,0.006723855156451464,-0.5546766519546509
1788861599805467100,3.816467041015625,-0.5611791610717773,0.4987305998802185,-0.2526610493659973
1788861599815473400,3.826473388671875,-0.4726637005805969,0.6501163840293884,0.09594514966011047
1788861599825480200,3.836480224609375,-0.38983243703842163,0.7590389251708984,0.2793503999710083
1788861599835486200,3.846486328125,-0.2576863765716553,0.9555812478065491,0.42425939440727234
1788861599845492000,3.856491943359375,-0.10418939590454102,0.9980766773223877,0.5119703412055969
1788861599855499000,3.8664990234375,0.06803590059280396,0.9582539200782776,0.6593331694602966
1788861599865505000,3.876505126953125,0.24337616562843323,0.7489042282104492,0.7652076482772827
1788861599875511000,3.886510986328125,0.4622986614704132,0.5764017105102539,0.845295786857605
1788861599885518000,3.89651806640625,0.6888913512229919,0.5359304547309875,0.9172581434249878
1788861599895524000,3.906524169921875,0.87015700340271,0.6035419702529907,1.0132139921188354
1788861599905531000,3.91653076171875,1.0357574224472046,0.6741554737091064,1.1608588695526123
1788861599915537000,3.926536865234375,1.2081323862075806,0.6566401720046997,1.2726385593414307
1788861599925543200,3.936543212890625,1.341525912284851,0.7011975049972534,1.3997524976730347
1788861599935550000,3.946550048828125,1.4700322151184082,0.8211830258369446,1.5307585000991821
1788861599945556000,3.956555908203125,1.597509503364563,0.8694418668746948,1.5676060914993286
1788861599955562000,3.96656201171875,1.709076166152954,0.7625335454940796,1.616973876953125
1788861599965569000,3.976569091796875,1.7998372316360474,0.5772190690040588,1.5935686826705933
1788861599975575000,3.986574951171875,1.8789842128753662,0.37929773330688477,1.6000508069992065
1788861599985581800,3.996581787109375,1.997344732284546,0.23221799731254578,1.5659445524215698
1788861599995588000,4.006588134765625,2.1214818954467773,0.13231323659420013,1.5039114952087402
1788861600005594000,4.016593994140625,2.1479697227478027,0.1560337096452713,1.5064172744750977
1788861600015601000,4.026600830078125,2.13059139251709,0.1449669450521469,1.5747358798980713
1788861600025607000,4.03660693359375,2.119399309158325,0.08884795010089874,1.5752707719802856
1788861600035613200,4.04661328125,2.1137278079986572,0.03444782271981239,1.641156792640686
1788861600045620000,4.056619873046875,2.1318447589874268,0.024129271507263184,1.7510154247283936
1788861600055626000,4.0666259765625,2.15498948097229,0.0522778183221817,1.829392671585083
1788861600065633000,4.076633056640625,2.1772921085357666,0.18266183137893677,1.8575485944747925
1788861600075639000,4.08663916015625,2.193343162536621,0.2570923864841461,1.85378098487854
1788861600085645000,4.09664501953125,2.1741786003112793,0.2548849880695343,1.8401819467544556
1788861600095652000,4.106652099609375,2.1012868881225586,0.2263667732477188,1.7973124980926514
1788861600105658000,4.116658203125,1.9467401504516602,0.09538909792900085,1.6739544868469238
1788861600115665000,4.126664794921875,1.8058009147644043,0.1309090107679367,1.575832724571228
1788861600125671000,4.1366708984375,1.6881356239318848,0.2448502480983734,1.549644112586975
1788861600135677200,4.14667724609375,1.5644800662994385,0.25369352102279663,1.4634884595870972
1788861600145684000,4.15668408203125,1.4019273519515991,0.21586230397224426,1.265472650527954
1788861600155690000,4.16668994140625,1.191138744354248,0.28344935178756714,1.0242528915405273
1788861600165697000,4.176697021484375,0.9892649054527283,0.36968836188316345,0.8352543115615845
1788861600175703000,4.186703125,0.8142099976539612,0.41333410143852234,0.7185436487197876
1788861600185709000,4.196708984375,0.6228981614112854,0.4042143225669861,0.49297547340393066
1788861600195715800,4.2067158203125,0.43264004588127136,0.42887890338897705,0.21912235021591187
1788861600205722000,4.21672216796875,0.2454034984111786,0.5083747506141663,-0.011398633942008018
1788861600215728000,4.22672802734375,0.03088000789284706,0.480619877576828,-0.2678277790546417
1788861600225735000,4.23673486328125,-0.15861576795578003,0.31153231859207153,-0.5760809183120728
1788861600235741000,4.246740966796875,-0.28592339158058167,0.08006954193115234,-0.8831079602241516
1788861600245748000,4.256748046875,-0.400143027305603,-0.1256904900074005,-1.1073391437530518
1788861600255754000,4.26675390625,-0.5232399106025696,-0.17890125513076782,-1.2200387716293335
1788861600265760000,4.276760009765625,-0.6514707803726196,-0.0815630629658699,-1.270754337310791
1788861600275767000,4.28676708984375,-0.7824586629867554,0.09409398585557938,-1.2923853397369385
1788861600285773000,4.29677294921875,-0.9367432594299316,0.21283218264579773,-1.2757019996643066
1788861600295779800,4.30677978515625,-1.1015018224716187,0.42902442812919617,-1.2202842235565186
1788861600305785900,4.316785888671875,-1.2332686185836792,0.743486225605011,-1.1433426141738892
1788861600315792100,4.326792236328125,-1.3455018997192383,0.960394561290741,-1.1680940389633179
1788861600325799000,4.336798828125,-1.4000126123428345,0.9652962684631348,-1.2854406833648682
1788861600335805000,4.346804931640625,-1.3883600234985352,0.776776909828186,-1.3077843189239502
1788861600345811000,4.35681103515625,-1.3097524642944336,0.5860834717750549,-1.2583434581756592
1788861600355818000,4.36681787109375,-1.2053149938583374,0.33142992854118347,-1.1944105625152588
1788861600365824000,4.376823974609375,-1.149076223373413,0.048110850155353546,-1.122446060180664
1788861600375830800,4.386830810546875,-1.1459859609603882,-0.1330011487007141,-1.0526608228683472
1788861600385837000,4.396837158203125,-1.1397253274917603,-0.233575701713562,-0.9485983848571777
1788861600395843000,4.406843017578125,-1.158018946647644,-0.22598542273044586,-0.8484169244766235
1788861600405849900,4.416849853515625,-1.2229167222976685,-0.030937369912862778,-0.8695983290672302
1788861600415855900,4.42685595703125,-1.3349164724349976,0.11460438370704651,-1.0061266422271729
1788861600425863000,4.43686279296875,-1.431495189666748,0.029176602140069008,-1.1395115852355957
1788861600435869000,4.446868896484375,-1.4713925123214722,-0.26438015699386597,-1.268001914024353
1788861600445875000,4.456875,-1.4638968706130981,-0.6149861216545105,-1.4295849800109863
1788861600455882000,4.466882080078125,-1.4452078342437744,-0.8175554871559143,-1.5475252866744995
1788861600465888000,4.476887939453125,-1.4348735809326172,-0.8536108732223511,-1.56342613697052
1788861600475895000,4.48689501953125,-1.3949999809265137,-0.8206156492233276,-1.5567834377288818
1788861600485900800,4.49690087890625,-1.3177399635314941,-0.736965000629425,-1.5911109447479248
1788861600495907000,4.506906982421875,-1.2422153949737549,-0.5744296312332153,-1.6626207828521729
1788861600505913900,4.516913818359375,-1.1807655096054077,-0.4807888865470886,-1.7472323179244995
1788861600515920000,4.526919921875,-1.1221219301223755,-0.491968035697937,-1.7857147455215454
1788861600525927200,4.53692724609375,-1.0798559188842773,-0.5067675113677979,-1.7645494937896729
1788861600535933000,4.546932861328125,-1.0716962814331055,-0.45423051714897156,-1.7059961557388306
1788861600545939000,4.55693896484375,-1.0481746196746826,-0.36585667729377747,-1.6754660606384277
1788861600555946000,4.566946044921875,-0.9802868962287903,-0.503936767578125,-1.7013288736343384
1788861600565952000,4.576951904296875,-0.9314302206039429,-1.03069269657135,-1.8219339847564697
1788861600575959000,4.586958984375,-0.9352036118507385,-1.0562858581542969,-1.8909868001937866
1788861600585964800,4.59696484375,-1.0956132411956787,-0.5247723460197449,-1.6957170963287354
1788861600595971000,4.60697119140625,-1.2145748138427734,0.012923618778586388,-1.5484964847564697
1788861600605978000,4.61697802734375,-0.9698272943496704,-0.32038217782974243,-1.423634648323059
1788861600615983900,4.62698388671875,-0.766254186630249,-0.8502023816108704,-1.204076886177063
1788861600625991200,4.6369912109375,-0.7762916088104248,-0.5498063564300537,-1.0316917896270752
1788861600635997200,4.6469970703125,-0.7347759008407593,-0.2372865229845047,-0.9623711109161377
1788861600646003000,4.6570029296875,-0.5801538228988647,-0.5161809325218201,-0.7251542210578918
1788861600656010000,4.667010009765625,-0.3990689516067505,-0.6137330532073975,-0.4783564507961273
1788861600666016000,4.67701611328125,-0.3254488408565521,-0.41539472341537476,-0.14870992302894592
1788861600676023000,4.68702294921875,-0.2751918137073517,-0.004217289388179779,0.10823797434568405
1788861600686029000,4.697029052734375,-0.1531762033700943,0.13407324254512787,0.3012629747390747
1788861600696034800,4.707034912109375,-0.06708606332540512,0.18690051138401031,0.497562438249588
1788861600706042000,4.7170419921875,0.015763357281684875,0.2710740566253662,0.7251233458518982
1788861600716048100,4.727048095703125,0.15759453177452087,0.4129078686237335,0.9690579771995544
1788861600726055000,4.737054931640625,0.4021705090999603,0.38605332374572754,1.190517544746399
1788861600736061200,4.747061279296875,0.683020293712616,0.4133547246456146,1.3640848398208618
1788861600746067000,4.75706689453125,0.8765929341316223,0.5394172668457031,1.4762498140335083
1788861600756074000,4.767073974609375,1.0287739038467407,0.577442467212677,1.5901415348052979
1788861600766080000,4.777080078125,1.1657745838165283,0.5174891352653503,1.6473910808563232
1788861600776087000,4.787087158203125,1.2752257585525513,0.33023831248283386,1.7486096620559692
1788861600786093000,4.797093017578125,1.352545142173767,0.12786249816417694,1.8184633255004883
1788861600796099000,4.80709912109375,1.3917557001113892,-0.026323873549699783,1.8228352069854736
1788861600806106000,4.817106201171875,1.4581711292266846,-0.10638062655925751,1.9137821197509766
1788861600816112000,4.827112060546875,1.5747395753860474,-0.0006272988393902779,1.9999723434448242
1788861600826119000,4.837118896484375,1.733940839767456,0.21470768749713898,2.0336227416992188
1788861600836125000,4.847125,1.9359866380691528,0.4145987033843994,2.045933723449707
1788861600846132200,4.85713232421875,2.0903608798980713,0.5490604043006897,2.0766055583953857
1788861600856138200,4.86713818359375,2.1930994987487793,0.5265111327171326,2.1010875701904297
1788861600866144300,4.877144287109375,2.26564621925354,0.3919364809989929,2.0286288261413574
1788861600876151000,4.887151123046875,2.2943146228790283,0.22954492270946503,1.9308124780654907
1788861600886157300,4.8971572265625,2.270686388015747,0.011473818682134151,1.8236466646194458
1788861600896164000,4.9071640625,2.188392400741577,-0.16458404064178467,1.7607793807983398
1788861600906170000,4.917170166015625,2.0820565223693848,-0.12651777267456055,1.7480676174163818
1788861600916176100,4.927176025390625,1.9814682006835938,-0.007157023064792156,1.7585681676864624
1788861600926183200,4.93718310546875,1.8972834348678589,0.10356128215789795,1.7639997005462646
1788861600936189200,4.947189208984375,1.8124231100082397,0.22744542360305786,1.7416023015975952
1788861600946196000,4.957196044921875,1.7087740898132324,0.33393028378486633,1.7061576843261719
1788861600956202200,4.9672021484375,1.5959662199020386,0.35845425724983215,1.6636762619018555
1788861600966208300,4.977208251953125,1.4820690155029297,0.21149013936519623,1.5621567964553833
1788861600976215000,4.987215087890625,1.3355417251586914,0.06108039990067482,1.4325289726257324
1788861600986221300,4.99722119140625,1.1092424392700195,0.026322215795516968,1.316255807876587
1788861600996228000,5.00722802734375,0.8384514451026917,0.16177697479724884,1.244605541229248
1788861601006234000,5.017234130859375,0.5839126110076904,0.3773140609264374,1.1504210233688354
1788861601016241400,5.027241455078125,0.3507520854473114,0.5503990054130554,0.8839693665504456
1788861601026247200,5.0372470703125,0.14896781742572784,0.5923014879226685,0.5004091858863831
1788861601036253200,5.047253173828125,-0.009600510820746422,0.37045055627822876,0.06727640330791473
1788861601046260200,5.05726025390625,-0.1428627371788025,-0.11786089092493057,-0.41960015892982483
1788861601056266200,5.067266357421875,-0.2607438266277313,-0.4651871621608734,-0.8411687016487122
1788861601066273300,5.077273193359375,-0.3851320445537567,-0.3962932825088501,-1.1317507028579712
1788861601076279000,5.087279052734375,-0.5391048789024353,-0.043319519609212875,-1.2575058937072754
1788861601086285000,5.09728515625,-0.6960559487342834,0.34504207968711853,-1.1894631385803223
1788861601096292400,5.107292236328125,-0.8282070755958557,0.6266193985939026,-1.0252915620803833
1788861601106298000,5.117298095703125,-0.8983360528945923,0.7034682035446167,-0.9230668544769287
1788861601116305200,5.12730517578125,-0.905214786529541,0.545724093914032,-0.8619992733001709
1788861601126311400,5.1373115234375,-0.9429094791412354,0.307958722114563,-0.7894695401191711
1788861601136318200,5.147318115234375,-1.091023564338684,0.1561630666255951,-0.7680625319480896
1788861601146324200,5.15732421875,-1.3048155307769775,0.08195400983095169,-0.8961547613143921
1788861601156330000,5.167330078125,-1.5129019021987915,0.030171772465109825,-1.070395827293396
1788861601166337300,5.177337158203125,-1.6538524627685547,0.02489841729402542,-1.0814645290374756
1788861601176343300,5.18734326171875,-1.7123740911483765,-0.00641529681161046,-0.9703625440597534
1788861601186350000,5.19735009765625,-1.7219789028167725,-0.07421957701444626,-0.9091683030128479
1788861601196356400,5.2073564453125,-1.730094075202942,-0.06482261419296265,-0.8991998434066772
1788861601206363100,5.217363037109375,-1.7203229665756226,0.08009273558855057,-0.941245973110199
1788861601216369200,5.227369140625,-1.6719608306884766,0.23096241056919098,-1.0083372592926025
1788861601226375200,5.237375244140625,-1.6249825954437256,0.19299423694610596,-1.04342782497406
1788861601236382200,5.24738232421875,-1.6025270223617554,0.04104066267609596,-1.1205720901489258
1788861601246388200,5.25738818359375,-1.5739524364471436,-0.18586419522762299,-1.2579166889190674
1788861601256395000,5.26739501953125,-1.5542477369308472,-0.3536244332790375,-1.396975040435791
1788861601266401300,5.2774013671875,-1.565546989440918,-0.38801345229148865,-1.4742281436920166
1788861601276407300,5.2874072265625,-1.5503935813903809,-0.3543708026409149,-1.555359959602356
1788861601286414000,5.2974140625,-1.5114930868148804,-0.3516189754009247,-1.6120705604553223
1788861601296420000,5.307420166015625,-1.4589399099349976,-0.40339240431785583,-1.6457853317260742
1788861601306427100,5.31742724609375,-1.4058805704116821,-0.431037038564682,-1.6796376705169678
1788861601316433200,5.32743310546875,-1.3788058757781982,-0.456260085105896,-1.6905124187469482
1788861601326440200,5.337440185546875,-1.3500908613204956,-0.49238213896751404,-1.6835205554962158
1788861601336446200,5.3474462890625,-1.304934024810791,-0.5016427636146545,-1.712510585784912
1788861601346452200,5.3574521484375,-1.229082465171814,-0.6323845982551575,-1.803390383720398
1788861601356459300,5.367459228515625,-1.134656310081482,-0.9812096953392029,-2.0001344680786133
1788861601366465000,5.377465087890625,-1.0146349668502808,-1.2591623067855835,-2.099064350128174
1788861601376472300,5.387472412109375,-1.0282071828842163,-0.9101612567901611,-1.9890544414520264
1788861601386478000,5.39747802734375,-1.1829675436019897,-0.09788774698972702,-1.8061087131500244
1788861601396485000,5.407485107421875,-1.2444804906845093,0.2237938791513443,-1.6893051862716675
1788861601406491400,5.417491455078125,-1.0628373622894287,-0.47612491250038147,-1.5919978618621826
1788861601416497200,5.4274970703125,-0.8368425369262695,-0.9411061406135559,-1.551927924156189
1788861601426504200,5.437504150390625,-0.8036617040634155,-0.7303392887115479,-1.3301810026168823
1788861601436510200,5.44751025390625,-0.8356995582580566,-0.39077243208885193,-0.9751242995262146
1788861601446517200,5.457517333984375,-0.6900685429573059,-0.3242104947566986,-0.8400007486343384
1788861601456523300,5.467523193359375,-0.4838426411151886,-0.3895104229450226,-0.7348160147666931
1788861601466530000,5.477530029296875,-0.3009979724884033,-0.3468920588493347,-0.4516367018222809
1788861601476536300,5.487536376953125,-0.07646845281124115,-0.10000396519899368,-0.18127524852752686
1788861601486542300,5.497542236328125,0.1488133817911148,0.2189485728740692,0.0852837786078453
1788861601496549000,5.507549072265625,0.3283000588417053,0.4579523503780365,0.34143221378326416
1788861601506555100,5.51755517578125,0.5186662673950195,0.5948907732963562,0.5259743332862854
1788861601516562200,5.527562255859375,0.7300682663917542,0.7095552682876587,0.6983413100242615
1788861601526568200,5.537568115234375,0.9301363825798035,0.6897279620170593,0.8478623032569885
1788861601536575000,5.547574951171875,1.1081515550613403,0.5784403085708618,1.0088847875595093
1788861601546581200,5.557581298828125,1.2666503190994263,0.4861468970775604,1.1660420894622803
1788861601556587300,5.567587158203125,1.4035650491714478,0.4350986182689667,1.341495394706726
1788861601566594000,5.577593994140625,1.5273994207382202,0.31525930762290955,1.477352499961853
1788861601576600300,5.587600341796875,1.6541235446929932,0.26836130023002625,1.5750737190246582
1788861601586607000,5.597607177734375,1.736380934715271,0.3253801465034485,1.6708341836929321
1788861601596613000,5.607613037109375,1.795853614807129,0.3356887102127075,1.7368807792663574
1788861601606620400,5.617620361328125,1.8334214687347412,0.3193317949771881,1.8025344610214233
1788861601616626200,5.627626220703125,1.8942277431488037,0.3432789444923401,1.9287126064300537
1788861601626632200,5.637632080078125,1.9860066175460815,0.21895015239715576,2.0237486362457275
1788861601636639200,5.64763916015625,2.063967704772949,0.02787313424050808,2.090061902999878
1788861601646645200,5.657645263671875,2.085634231567383,-0.10609830915927887,2.1664950847625732
1788861601656652300,5.66765234375,2.063601493835449,-0.16740214824676514,2.2866597175598145
1788861601666658000,5.677657958984375,2.0341269969940186,-0.17285969853401184,2.3873987197875977
1788861601676665300,5.687665283203125,2.029496908187866,-0.15246441960334778,2.474504232406616
1788861601686671400,5.69767138671875,2.015159845352173,-0.1521424949169159,2.495088577270508
1788861601696678100,5.70767822265625,1.9600248336791992,-0.2066938877105713,2.4783217906951904
1788861601706684200,5.71768408203125,1.8820827007293701,-0.3153284192085266,2.4471938610076904
1788861601716690200,5.727690185546875,1.8238470554351807,-0.4808870255947113,2.3648929595947266
1788861601726697200,5.737697265625,1.7559618949890137,-0.5497260689735413,2.254979372024536
1788861601736703200,5.747703125,1.6392731666564941,-0.5010861158370972,2.1375679969787598
1788861601746710300,5.757710205078125,1.4923890829086304,-0.4395720660686493,2.010240316390991
1788861601756716300,5.76771630859375,1.3315660953521729,-0.3382129669189453,1.8619132041931152
1788861601766723000,5.77772314453125,1.1790258884429932,-0.21020255982875824,1.6337330341339111
1788861601776729000,5.78772900390625,1.0296363830566406,-0.0729440376162529,1.3299782276153564
1788861601786735400,5.7977353515625,0.8537057042121887,0.03306468948721886,1.0080567598342896
1788861601796742100,5.8077421875,0.6817334294319153,-0.03510450944304466,0.6644887328147888
1788861601806748200,5.817748046875,0.4914276897907257,-0.21340949833393097,0.32604092359542847
1788861601816755200,5.827755126953125,0.27710554003715515,-0.2369646281003952,0.08951999247074127
1788861601826761200,5.83776123046875,0.061456143856048584,-0.11802089959383011,-0.0705275684595108
1788861601836768300,5.847768310546875,-0.1285390853881836,-0.06944750249385834,-0.23432208597660065
1788861601846774300,5.857774169921875,-0.28531721234321594,-0.09303600341081619,-0.4092493951320648
1788861601856781300,5.86778125,-0.410016268491745,-0.06471967697143555,-0.5734883546829224
1788861601866787300,5.877787353515625,-0.5309832692146301,-0.05348294600844383,-0.7007102370262146
1788861601876793300,5.88779345703125,-0.6871206760406494,-0.02405155450105667,-0.7885721325874329
1788861601886800400,5.89780029296875,-0.8435578346252441,0.08349855244159698,-0.8515248894691467
1788861601896806100,5.90780615234375,-0.9730005264282227,0.18415406346321106,-0.8923975229263306
1788861601906813400,5.9178134765625,-1.094218134880066,0.30436766147613525,-0.8777227997779846
1788861601916819500,5.9278193359375,-1.2023541927337646,0.5072038769721985,-0.7840088605880737
1788861601926826200,5.937826171875,-1.3191092014312744,0.6910604238510132,-0.7198948860168457
1788861601936832500,5.94783251953125,-1.4423656463623047,0.7744019627571106,-0.7586755752563477
1788861601946839300,5.95783935546875,-1.5112873315811157,0.6026638150215149,-0.7986572980880737
1788861601956845300,5.96784521484375,-1.4883625507354736,0.27890250086784363,-0.83929044008255
1788861601966851300,5.977851318359375,-1.4510223865509033,0.10405635088682175,-0.9432893395423889
1788861601976858400,5.9878583984375,-1.5016461610794067,0.10761833190917969,-1.0189518928527832
1788861601986864400,5.997864501953125,-1.6277586221694946,0.10768545418977737,-0.9223512411117554
1788861601996871200,6.00787109375,-1.7753255367279053,0.11089136451482773,-0.7842828631401062
1788861602006877400,6.01787744140625,-1.925529956817627,0.26307231187820435,-0.7629843950271606
1788861602016884200,6.02788427734375,-2.0359346866607666,0.418137788772583,-0.9247269630432129
1788861602026890200,6.03789013671875,-2.042074680328369,0.4282624125480652,-1.149240255355835
1788861602036897500,6.0478974609375,-1.9461909532546997,0.29201534390449524,-1.3450627326965332
1788861602046903300,6.0579033203125,-1.7901604175567627,0.03375300019979477,-1.4533013105392456
1788861602056909300,6.067909423828125,-1.6384526491165161,-0.20590460300445557,-1.5339535474777222
1788861602066916400,6.077916259765625,-1.5230748653411865,-0.32880789041519165,-1.656775712966919
1788861602076922400,6.08792236328125,-1.4586328268051147,-0.4583562910556793,-1.7703512907028198
1788861602086929400,6.097929443359375,-1.4287991523742676,-0.6141912937164307,-1.8712544441223145
1788861602096935200,6.10793505859375,-1.399247646331787,-0.7406647801399231,-1.8911324739456177
1788861602106942500,6.1179423828125,-1.3404631614685059,-0.736526370048523,-1.8560476303100586
1788861602116948500,6.127948486328125,-1.282167911529541,-0.6565149426460266,-1.7968250513076782
1788861602126955300,6.137955322265625,-1.2684438228607178,-0.5912087559700012,-1.84828782081604
1788861602136961300,6.147961181640625,-1.2381130456924438,-0.6678544878959656,-2.0139734745025635
1788861602146968300,6.15796826171875,-1.184154987335205,-0.7800834774971008,-2.111208915710449
1788861602156974300,6.167974365234375,-1.1876211166381836,-0.6361140608787537,-2.0178189277648926
1788861602166980400,6.17798046875,-1.2455767393112183,-0.37346139550209045,-1.799122929573059
1788861602176987400,6.1879873046875,-1.242004156112671,-0.3726789653301239,-1.644614815711975
1788861602186993400,6.197993408203125,-1.1036908626556396,-0.5515924692153931,-1.633399248123169
1788861602197000200,6.208000244140625,-0.9284258484840393,-0.5881571769714355,-1.623619556427002
1788861602207006200,6.218006103515625,-0.825792670249939,-0.5180944800376892,-1.5289885997772217
1788861602217013200,6.22801318359375,-0.7257701754570007,-0.4101530909538269,-1.302255392074585
1788861602227019300,6.238019287109375,-0.5504528880119324,-0.32256484031677246,-1.045763373374939
1788861602237026300,6.2480263671875,-0.33401617407798767,-0.32554998993873596,-0.7796960473060608
1788861602247032300,6.2580322265625,-0.17190434038639069,-0.20470969378948212,-0.49178996682167053
1788861602257038300,6.268038330078125,0.00028766877949237823,-0.03830819949507713,-0.25258058309555054
1788861602267045400,6.27804541015625,0.21260635554790497,0.15473882853984833,-0.03849133476614952
1788861602277051100,6.288051025390625,0.41766706109046936,0.3634912371635437,0.18611034750938416
1788861602287058400,6.298058349609375,0.6184372305870056,0.5659889578819275,0.3647472858428955
1788861602297064200,6.308064208984375,0.8300000429153442,0.6773391366004944,0.48277032375335693
1788861602307071200,6.3180712890625,1.0250388383865356,0.719885528087616,0.617542028427124
1788861602317077500,6.328077392578125,1.2030744552612305,0.6746799945831299,0.7694658041000366
1788861602327084300,6.338084228515625,1.3805623054504395,0.5368281006813049,0.9063442349433899
1788861602337090300,6.34809033203125,1.58591890335083,0.4313642382621765,1.105563759803772
1788861602347097300,6.358097412109375,1.8013790845870972,0.4527241587638855,1.304159164428711
1788861602357103400,6.368103271484375,1.9614958763122559,0.4473206102848053,1.4457461833953857
1788861602367109400,6.378109375,2.066831111907959,0.36133357882499695,1.5329030752182007
1788861602377116200,6.3881162109375,2.113953113555908,0.2180243730545044,1.6156740188598633
1788861602387122400,6.398122314453125,2.124924421310425,0.07775108516216278,1.680763840675354
1788861602397129200,6.408129150390625,2.0988876819610596,-0.01552080549299717,1.779217004776001
1788861602407135200,6.41813525390625,2.0898220539093018,-0.012304711155593395,1.8777291774749756
1788861602417142300,6.428142333984375,2.0878591537475586,0.0032566715963184834,1.955708622932434
1788861602427148300,6.438148193359375,2.0873570442199707,-0.1274488866329193,2.073685884475708
1788861602437155300,6.4481552734375,2.0935680866241455,-0.2289976179599762,2.274629592895508
1788861602447161300,6.458161376953125,2.1338748931884766,-0.14915737509727478,2.4479291439056396
1788861602457168400,6.46816845703125,2.2147750854492188,0.009193379431962967,2.559638500213623
1788861602467174400,6.47817431640625,2.274906635284424,0.12544463574886322,2.60538387298584
1788861602477181400,6.488181396484375,2.2573747634887695,0.1197393387556076,2.5937492847442627
1788861602487187500,6.4981875,2.1111247539520264,0.057463523000478745,2.55199933052063
1788861602497193200,6.508193115234375,1.8901677131652832,-0.06374252587556839,2.449954032897949
1788861602507200300,6.5182001953125,1.6751679182052612,-0.24280554056167603,2.329482316970825
1788861602517206500,6.52820654296875,1.5153074264526367,-0.4122808575630188,2.2248077392578125
1788861602527213300,6.53821337890625,1.3952875137329102,-0.4095604121685028,2.1175503730773926
1788861602537219300,6.54821923828125,1.2792415618896484,-0.32478347420692444,1.9595552682876587
1788861602547226400,6.558226318359375,1.134791612625122,-0.2592279613018036,1.7194463014602661
1788861602557232400,6.568232421875,0.9412551522254944,-0.22800716757774353,1.4282948970794678
1788861602567239200,6.5782392578125,0.7010567784309387,-0.20543304085731506,1.1262577772140503
1788861602577245200,6.5882451171875,0.4352077841758728,-0.14709331095218658,0.8082910776138306
1788861602587252500,6.59825244140625,0.17934800684452057,-0.025651074945926666,0.4928642809391022
1788861602597258200,6.60825830078125,-0.041637372225522995,0.14973805844783783,0.22160401940345764
1788861602607265300,6.618265380859375,-0.20013286173343658,0.2812215983867645,0.029876990243792534
1788861602617271300,6.628271240234375,-0.31687653064727783,0.20434916019439697,-0.1340959668159485
1788861602627277300,6.63827734375,-0.40539780259132385,-0.01337278913706541,-0.297130823135376
1788861602637284400,6.648284423828125,-0.48020946979522705,-0.14424265921115875,-0.4718032777309418
1788861602647290000,6.6582900390625,-0.5437841415405273,-0.15209928154945374,-0.6483895182609558
1788861602657297400,6.66829736328125,-0.6325529217720032,-0.0837511271238327,-0.77666836977005
1788861602667303400,6.678303466796875,-0.7704511880874634,0.05236658826470375,-0.8268932700157166
1788861602677310200,6.688310302734375,-0.9414064288139343,0.21413204073905945,-0.8334880471229553
1788861602687316500,6.69831640625,-1.0879333019256592,0.37141168117523193,-0.7948141694068909
1788861602697323300,6.7083232421875,-1.1994746923446655,0.44027623534202576,-0.7991082668304443
1788861602707329300,6.718329345703125,-1.3064173460006714,0.4556880593299866,-0.9061554074287415
1788861602717336300,6.72833642578125,-1.3976138830184937,0.5857800245285034,-1.03164541721344
1788861602727342300,6.73834228515625,-1.4797128438949585,0.645792543888092,-1.024320125579834
1788861602737349400,6.748349365234375,-1.5366251468658447,0.573470413684845,-0.9350022673606873
1788861602747355100,6.758355224609375,-1.5650628805160522,0.4653114974498749,-0.8720886707305908
1788861602757362400,6.768362548828125,-1.5797702074050903,0.3578111529350281,-0.8985527753829956
1788861602767368200,6.7783681640625,-1.5897603034973145,0.22773459553718567,-0.9408456087112427
1788861602777374200,6.788374267578125,-1.592856526374817,0.03745359927415848,-0.9351709485054016
1788861602787381500,6.798381591796875,-1.6025387048721313,-0.15963709354400635,-0.9421441555023193
1788861602797387300,6.80838720703125,-1.6488466262817383,-0.23510681092739105,-0.9826471209526062
1788861602807394300,6.818394287109375,-1.717110276222229,-0.19340378046035767,-1.0907022953033447
1788861602817400300,6.828400390625,-1.7791837453842163,-0.18040037155151367,-1.2584795951843262
1788861602827407400,6.838407470703125,-1.8105367422103882,-0.18499746918678284,-1.4597551822662354
1788861602837413400,6.848413330078125,-1.7771883010864258,-0.32317984104156494,-1.6431248188018799
1788861602847420000,6.858419921875,-1.6680934429168701,-0.584010660648346,-1.7991180419921875
1788861602857426000,6.868426025390625,-1.510579228401184,-0.7716947793960571,-1.9002686738967896
1788861602867433000,6.878432861328125,-1.367272973060608,-0.7662844061851501,-1.9318726062774658
1788861602877439000,6.88843896484375,-1.2782256603240967,-0.7219094634056091,-1.928214430809021
1788861602887446000,6.898446044921875,-1.2108778953552246,-0.7695167064666748,-1.929844856262207
1788861602897451800,6.90845166015625,-1.1635124683380127,-0.7705953121185303,-1.9153929948806763
1788861602907459000,6.918458984375,-1.1493268013000488,-0.6976369023323059,-1.8808791637420654
1788861602917465000,6.928465087890625,-1.1668037176132202,-0.6966081261634827,-1.8567147254943848
1788861602927470800,6.938470947265625,-1.1857138872146606,-0.7390351891517639,-1.8532543182373047
1788861602937478100,6.94847802734375,-1.187606930732727,-0.779592752456665,-1.9004271030426025
1788861602947484000,6.95848388671875,-1.14931321144104,-0.8801636695861816,-1.9974021911621094
1788861602957491000,6.968490966796875,-1.0951745510101318,-0.9981342554092407,-2.0602059364318848
1788861602967497000,6.9784970703125,-1.0461907386779785,-0.9048946499824524,-2.0088136196136475
1788861602977504000,6.98850390625,-1.0164165496826172,-0.5218652486801147,-1.7614595890045166
1788861602987510000,6.998510009765625,-0.956073522567749,-0.18690834939479828,-1.4903485774993896
1788861602997516800,7.008516845703125,-0.7545151114463806,-0.06946587562561035,-1.3082069158554077
1788861603007523000,7.018523193359375,-0.4955652058124542,-0.07700256258249283,-1.1757228374481201
1788861603017529900,7.02852978515625,-0.29021310806274414,-0.11655529588460922,-0.9538512229919434
1788861603027536000,7.038535888671875,-0.1547229140996933,-0.16506463289260864,-0.6594402194023132
1788861603037543200,7.048543212890625,-0.03240019828081131,-0.0372917503118515,-0.4397161304950714
1788861603047549000,7.058548828125,0.09302259236574173,0.18159306049346924,-0.2062603384256363
1788861603057556000,7.068555908203125,0.28073522448539734,0.28294071555137634,0.08149421960115433
1788861603067562000,7.07856201171875,0.5403043031692505,0.34857645630836487,0.33940398693084717
1788861603077569000,7.088569091796875,0.775016188621521,0.4933546781539917,0.5605382323265076
1788861603087575000,7.098574951171875,0.9600755572319031,0.6867957711219788,0.7872079610824585
1788861603097582000,7.10858203125,1.140836238861084,0.8175209760665894,1.0582250356674194
1788861603107588000,7.118588134765625,1.310563325881958,0.811565637588501,1.3039032220840454
1788861603117595000,7.128594970703125,1.4486165046691895,0.8350344896316528,1.4990029335021973
1788861603127601000,7.138600830078125,1.618471384048462,0.8355641961097717,1.6494027376174927
1788861603137607200,7.148607177734375,1.8303961753845215,0.6873555183410645,1.7330530881881714
1788861603147614000,7.158614013671875,1.9636369943618774,0.5187049508094788,1.7886404991149902
1788861603157620000,7.168619873046875,2.0082576274871826,0.4379986822605133,1.8528615236282349
1788861603167627000,7.178626953125,2.025350332260132,0.41032660007476807,1.9498088359832764
1788861603177633000,7.188633056640625,2.030515193939209,0.4329046308994293,2.0519301891326904
1788861603187640000,7.19864013671875,2.050553321838379,0.42066559195518494,2.1654131412506104
1788861603197645800,7.208645751953125,2.1028833389282227,0.34170472621917725,2.2981057167053223
1788861603207653000,7.218653076171875,2.1707448959350586,0.19063115119934082,2.3497040271759033
1788861603217659000,7.228658935546875,2.239452362060547,-0.05290428176522255,2.3051397800445557
1788861603227666000,7.238666015625,2.293215274810791,-0.23514854907989502,2.2415904998779297
1788861603237672200,7.248672119140625,2.320472478866577,-0.18878798186779022,2.232447862625122
1788861603247679000,7.258678955078125,2.238990306854248,-0.059769779443740845,2.237626791000366
1788861603257685000,7.26868505859375,2.0489745140075684,-0.012509588152170181,2.250495433807373
1788861603267692000,7.278692138671875,1.890754222869873,-0.039848729968070984,2.2218048572540283
1788861603277698000,7.288697998046875,1.8480358123779297,-0.11692247539758682,2.1369616985321045
1788861603287704800,7.298704833984375,1.8379499912261963,-0.14640428125858307,2.0180118083953857
1788861603297710800,7.3087109375,1.7950578927993774,-0.10140804946422577,1.8916585445404053
1788861603307718100,7.31871826171875,1.7180602550506592,-0.06715960055589676,1.7750767469406128
1788861603317724000,7.328723876953125,1.6160848140716553,-0.06192941218614578,1.6257237195968628
1788861603327731000,7.33873095703125,1.4414570331573486,0.004620710387825966,1.4293487071990967
1788861603337737000,7.348737060546875,1.1872540712356567,0.03690062090754509,1.1868066787719727
1788861603347744000,7.358743896484375,0.8954921364784241,-0.04320512339472771,0.8987789750099182
1788861603357750000,7.36875,0.6251922249794006,-0.15874609351158142,0.5999608635902405
1788861603367757000,7.378757080078125,0.3773379325866699,-0.21877290308475494,0.3002135753631592
1788861603377763000,7.38876318359375,0.145978182554245,-0.1114557757973671,0.0705084502696991
1788861603387769900,7.398769775390625,-0.06375029683113098,0.014535557478666306,-0.07063903659582138
1788861603397776000,7.40877587890625,-0.2315233200788498,-0.07052474468946457,-0.1942392736673355
1788861603407782100,7.4187822265625,-0.3786197900772095,-0.19969330728054047,-0.3164834976196289
1788861603417789000,7.428788818359375,-0.5455225110054016,-0.19595183432102203,-0.470392644405365
1788861603427795000,7.438794921875,-0.708109438419342,-0.1302868276834488,-0.6309786438941956
1788861603437802000,7.448802001953125,-0.8681685924530029,-0.051765382289886475,-0.7045609951019287
1788861603447808000,7.45880810546875,-1.0104351043701172,-0.014880177564918995,-0.7100098729133606
1788861603457815000,7.46881494140625,-1.1082967519760132,-0.009416436776518822,-0.68839430809021
1788861603467820800,7.47882080078125,-1.1669944524765015,0.006738988682627678,-0.6490205526351929
1788861603477828000,7.488828125,-1.2484991550445557,0.08178527653217316,-0.6180216670036316
1788861603487833900,7.498833740234375,-1.3683452606201172,0.14467480778694153,-0.6694817543029785
1788861603497841000,7.5088408203125,-1.5060954093933105,0.14056341350078583,-0.7521763443946838
1788861603507847200,7.51884716796875,-1.6169815063476562,0.103830985724926,-0.7634078860282898
1788861603517854000,7.52885400390625,-1.6824759244918823,0.17394483089447021,-0.8281986117362976
1788861603527860000,7.53885986328125,-1.7237495183944702,0.2749837338924408,-0.9580748081207275
1788861603537867000,7.548866943359375,-1.7599916458129883,0.30470433831214905,-1.0074028968811035
1788861603547873000,7.558873046875,-1.8010921478271484,0.16796305775642395,-0.9659426212310791
1788861603557879800,7.5688798828125,-1.8423155546188354,-0.03701566159725189,-0.918208122253418
1788861603567885800,7.5788857421875,-1.8681998252868652,-0.0657423734664917,-0.9398154020309448
1788861603577893000,7.58889306640625,-1.8740053176879883,0.0746980533003807,-1.053589940071106
1788861603587899000,7.59889892578125,-1.8380796909332275,0.15113885700702667,-1.1975055932998657
1788861603597906000,7.608906005859375,-1.7662467956542969,0.00047638965770602226,-1.326606035232544
1788861603607912000,7.618911865234375,-1.6529451608657837,-0.27952179312705994,-1.5110300779342651
1788861603617919000,7.6289189453125,-1.5443748235702515,-0.5348299741744995,-1.6648825407028198
1788861603627925000,7.638925048828125,-1.4960973262786865,-0.6352218389511108,-1.7147836685180664
1788861603637932000,7.64893212890625,-1.4953045845031738,-0.6071750521659851,-1.7296388149261475
1788861603647938000,7.65893798828125,-1.5026549100875854,-0.5343868136405945,-1.7651970386505127
1788861603657944800,7.66894482421875,-1.466461420059204,-0.528976559638977,-1.8180315494537354
1788861603667951000,7.678951171875,-1.4010260105133057,-0.5713080763816833,-1.834322214126587
1788861603677958000,7.6889580078125,-1.3314186334609985,-0.6768720149993896,-1.8367499113082886
1788861603687964000,7.6989638671875,-1.294236183166504,-0.7073159217834473,-1.8266876935958862
1788861603697971200,7.70897119140625,-1.2634471654891968,-0.6246466040611267,-1.8371888399124146
1788861603707977000,7.71897705078125,-1.2225563526153564,-0.6653085350990295,-1.866123080253601
1788861603717984000,7.72898388671875,-1.1374614238739014,-0.9199570417404175,-1.915816307067871
1788861603727990000,7.738989990234375,-1.0628383159637451,-1.0820331573486328,-1.9075192213058472
1788861603737997000,7.7489970703125,-1.008879542350769,-1.0051524639129639,-1.82729971408844
1788861603748003000,7.759003173828125,-0.9368739724159241,-0.8004919290542603,-1.7320473194122314
1788861603758009900,7.769009765625,-0.8052701354026794,-0.6276364922523499,-1.587348461151123
1788861603768016100,7.77901611328125,-0.6340519785881042,-0.6271507143974304,-1.4470093250274658
1788861603778023000,7.78902294921875,-0.49433451890945435,-0.5351813435554504,-1.3582760095596313
1788861603788029000,7.79902880859375,-0.4030570387840271,-0.27353620529174805,-1.2146308422088623
1788861603798036200,7.8090361328125,-0.3028433620929718,-0.06645119190216064,-0.9546453356742859
1788861603808042000,7.8190419921875,-0.16376344859600067,0.012487748637795448,-0.6788595914840698
1788861603818049000,7.829049072265625,0.001538946758955717,0.05268416926264763,-0.4370560348033905
1788861603828054800,7.8390546875,0.18425191938877106,0.058373190462589264,-0.20718897879123688
1788861603838062000,7.84906201171875,0.3846457600593567,0.17031916975975037,0.038916394114494324
1788861603848068000,7.859068115234375,0.5881932973861694,0.2839829623699188,0.2632875442504883
1788861603858075000,7.869074951171875,0.7683883309364319,0.36122289299964905,0.46439191699028015
1788861603868081200,7.8790810546875,0.9632531404495239,0.4697594940662384,0.7109312415122986
1788861603878088000,7.889087890625,1.1649631261825562,0.6021952629089355,0.9540677666664124
1788861603888094000,7.899093994140625,1.376402735710144,0.6408191919326782,1.1347306966781616
1788861603898101000,7.90910107421875,1.582851529121399,0.5774425864219666,1.2953485250473022
1788861603908107000,7.91910693359375,1.7181360721588135,0.6007167100906372,1.475885033607483
1788861603918113000,7.929113037109375,1.796099066734314,0.6658514738082886,1.6334115266799927
1788861603928119800,7.939119873046875,1.8656957149505615,0.6883890628814697,1.7246229648590088
1788861603938126000,7.9491259765625,1.9447526931762695,0.6682614684104919,1.7941997051239014
1788861603948132900,7.9591328125,2.016686201095581,0.6237483024597168,1.8795479536056519
1788861603958139000,7.969138916015625,2.0692975521087646,0.5749906301498413,1.9803835153579712
1788861603968146200,7.979146240234375,2.077831268310547,0.492695152759552,2.092125654220581
1788861603978152000,7.98915185546875,2.0304906368255615,0.4389456510543823,2.170260190963745
1788861603988159000,7.999158935546875,1.9794096946716309,0.4323227107524872,2.2709457874298096
1788861603998165000,8.0091650390625,1.9805117845535278,0.3995741009712219,2.3768253326416016
1788861604008172000,8.019172119140626,2.0116970539093018,0.2776624262332916,2.4447031021118164
1788861604018178000,8.029177978515625,2.046138286590576,0.1234869658946991,2.4696009159088135
1788861604028184800,8.039184814453124,2.070056200027466,-0.06807883828878403,2.4800243377685547
1788861604038191000,8.049191162109375,2.067995071411133,-0.3781767785549164,2.4300293922424316
1788861604048198000,8.059197998046875,2.0260167121887207,-0.684715211391449,2.3193776607513428
1788861604058204000,8.069203857421876,1.9086127281188965,-0.7865267992019653,2.2263293266296387
1788861604068211200,8.079211181640625,1.7186628580093384,-0.6878420114517212,2.1552741527557373
1788861604078217000,8.089217041015624,1.5186223983764648,-0.4718327224254608,2.0609354972839355
1788861604088224000,8.09922412109375,1.3515456914901733,-0.2837008237838745,1.874890923500061
1788861604098229800,8.109229736328125,1.2669272422790527,-0.17998217046260834,1.5959551334381104
1788861604108237000,8.119237060546874,1.2187522649765015,-0.09442318230867386,1.3195736408233643
1788861604118243000,8.1292431640625,1.0863885879516602,-0.04793930426239967,1.0958199501037598
1788861604128249900,8.139249755859375,0.8706525564193726,-0.055793724954128265,0.8710940480232239
1788861604138256100,8.149256103515626,0.6513378024101257,-0.09115811437368393,0.6238453388214111
1788861604148263000,8.159262939453125,0.45031607151031494,-0.019053339958190918,0.4521103799343109
1788861604158269000,8.16926904296875,0.27722951769828796,0.09894653409719467,0.37203285098075867
1788861604168276000,8.17927587890625,0.11126228421926498,0.08977492898702621,0.2531588077545166
1788861604178282000,8.189281982421875,-0.020418517291545868,-0.05429915338754654,0.006902975961565971
1788861604188289000,8.1992890625,-0.13273589313030243,-0.1842930018901825,-0.28179556131362915
1788861604198294800,8.209294677734375,-0.29307469725608826,-0.2490762621164322,-0.4920279085636139
1788861604208302000,8.219302001953125,-0.4716334044933319,-0.268128365278244,-0.6177955865859985
1788861604218308000,8.22930810546875,-0.6199243068695068,-0.1781182885169983,-0.6891393065452576
1788861604228315000,8.23931494140625,-0.7609445452690125,-0.08764991909265518,-0.7429504990577698
1788861604238322000,8.249322021484375,-0.9016066193580627,-0.034478843212127686,-0.7667418122291565
1788861604248328000,8.259327880859376,-1.0521106719970703,-0.003017052775248885,-0.7340269088745117
1788861604258334000,8.269333984375,-1.2199428081512451,0.024803658947348595,-0.6906152367591858
1788861604268341000,8.279341064453124,-1.3805147409439087,0.05357087403535843,-0.6849944591522217
1788861604278348000,8.28934814453125,-1.4979134798049927,0.15714919567108154,-0.7211066484451294
1788861604288353800,8.299353759765625,-1.5574532747268677,0.31918177008628845,-0.7768927216529846
1788861604298359800,8.30935986328125,-1.5758919715881348,0.4667550027370453,-0.8497546911239624
1788861604308367000,8.3193671875,-1.5721845626831055,0.5126795768737793,-0.9177598357200623
1788861604318374000,8.329373779296875,-1.5744951963424683,0.3330364227294922,-0.9215390682220459
1788861604328380000,8.3393798828125,-1.5805463790893555,0.06157425791025162,-0.9083951711654663
1788861604338387000,8.349386962890625,-1.586308479309082,-0.08387801051139832,-0.9093142747879028
1788861604348393000,8.35939306640625,-1.5810266733169556,-0.08663275837898254,-0.9683813452720642
1788861604358400000,8.36939990234375,-1.5893064737319946,-0.014493051916360855,-1.09490966796875
1788861604368406000,8.379406005859375,-1.6014573574066162,0.015731461346149445,-1.2517989873886108
1788861604378413000,8.3894130859375,-1.6254851818084717,-0.03672056272625923,-1.4460464715957642
1788861604389045000,8.400044921875,-1.6435422897338867,-0.10440749675035477,-1.6102567911148071
1788861604399051000,8.410051025390626,-1.6634092330932617,-0.11630038172006607,-1.7296985387802124
1788861604409058000,8.42005810546875,-1.6697407960891724,-0.14156930148601532,-1.817100167274475
1788861604419064000,8.43006396484375,-1.6433794498443604,-0.2656499445438385,-1.8519381284713745
1788861604429070800,8.44007080078125,-1.5817323923110962,-0.49959325790405273,-1.8470277786254883
1788861604439076900,8.450076904296875,-1.506184697151184,-0.7376617789268494,-1.8141732215881348
1788861604449084200,8.460084228515624,-1.4575272798538208,-0.8549849390983582,-1.8159838914871216
1788861604459090000,8.47008984375,-1.4567285776138306,-0.8588262796401978,-1.8430548906326294
1788861604469097000,8.480096923828125,-1.473502278327942,-0.8442371487617493,-1.8883005380630493
1788861604479103000,8.49010302734375,-1.465936541557312,-0.8184489607810974,-1.9034286737442017
1788861604489110000,8.500110107421875,-1.3710002899169922,-0.8748552203178406,-1.8677366971969604
1788861604499116000,8.510115966796874,-1.2205532789230347,-0.9118981957435608,-1.7892565727233887
1788861604509123000,8.520123046875,-1.0837433338165283,-0.881401777267456,-1.730672001838684
1788861604519129000,8.530129150390625,-1.0234493017196655,-0.7521952986717224,-1.6980384588241577
1788861604529135900,8.540135986328124,-1.0167920589447021,-0.6227773427963257,-1.6089979410171509
1788861604539142000,8.550141845703125,-1.0111002922058105,-0.5456538200378418,-1.4532920122146606
1788861604549149000,8.56014892578125,-0.9443256258964539,-0.5018653869628906,-1.3077456951141357
1788861604559156000,8.570156005859374,-0.79120934009552,-0.47324225306510925,-1.2109062671661377
1788861604569162000,8.580161865234375,-0.5850479006767273,-0.3496260941028595,-1.094873070716858
1788861604579169000,8.5901689453125,-0.37970811128616333,-0.23483692109584808,-0.9475653767585754
1788861604589175000,8.600175048828126,-0.19852420687675476,-0.059328123927116394,-0.7290987372398376
1788861604599181800,8.610181884765625,-0.06331392377614975,0.1652195006608963,-0.4353139400482178
1788861604609188000,8.62018798828125,0.03678356856107712,0.2901983857154846,-0.13831022381782532
1788861604619195000,8.63019482421875,0.1759667545557022,0.2826952040195465,0.115097276866436
1788861604629201000,8.640200927734375,0.37956738471984863,0.257516086101532,0.3198360204696655
1788861604639208200,8.650208251953124,0.5797422528266907,0.27772921323776245,0.4776482880115509
1788861604649214000,8.6602138671875,0.7321517467498779,0.36607134342193604,0.636185884475708
1788861604659221000,8.670220947265625,0.8738327026367188,0.47218021750450134,0.7980530858039856
1788861604669227000,8.68022705078125,1.0214427709579468,0.5444579124450684,0.9666675329208374
1788861604679234000,8.690234130859375,1.192429542541504,0.5795022249221802,1.1509087085723877
1788861604689240000,8.700239990234374,1.3811005353927612,0.6300308704376221,1.3683419227600098
1788861604699246800,8.710246826171876,1.5601063966751099,0.6729828715324402,1.5777814388275146
1788861604709253000,8.720253173828125,1.706552267074585,0.7108617424964905,1.7324156761169434
1788861604719260000,8.730260009765624,1.8033150434494019,0.7355199456214905,1.8685245513916016
1788861604729266000,8.740265869140625,1.8655718564987183,0.7509847283363342,2.023329973220825
1788861604739273000,8.75027294921875,1.9006339311599731,0.7280845046043396,2.1349053382873535
1788861604749279000,8.760279052734376,1.92423415184021,0.6521899104118347,2.187901258468628
1788861604759286000,8.7702861328125,1.9592808485031128,0.5404301285743713,2.2459681034088135
1788861604769291800,8.780291748046874,2.0002756118774414,0.36184486746788025,2.3247721195220947
1788861604779299000,8.790299072265626,2.0412192344665527,0.19009679555892944,2.407017230987549
1788861604789305000,8.80030517578125,2.0699570178985596,0.0916299819946289,2.4442977905273438
1788861604799312000,8.810311767578124,2.0865321159362793,0.039577968418598175,2.443512439727783
1788861604809318100,8.820318115234375,2.087521553039551,-0.0055320290848612785,2.458143472671509
1788861604819325000,8.830324951171875,2.0763790607452393,-0.02080419287085533,2.451539993286133
1788861604829331000,8.8403310546875,2.044079542160034,0.01368937361985445,2.4041504859924316
1788861604839338000,8.850337890625,1.9970568418502808,0.007334539666771889,2.316774845123291
1788861604849344300,8.86034423828125,1.9629051685333252,-0.12259424477815628,2.2320148944854736
1788861604859351300,8.870351318359376,1.9657342433929443,-0.30136239528656006,2.1044504642486572
1788861604869357300,8.880357421875,1.9320441484451294,-0.39082396030426025,1.9257545471191406
1788861604879364400,8.8903642578125,1.792407512664795,-0.39269110560417175,1.7448928356170654
1788861604889370400,8.900370361328125,1.5290404558181763,-0.3397309482097626,1.5767440795898438
1788861604899377400,8.91037744140625,1.1955335140228271,-0.1977144181728363,1.392462968826294
1788861604909383400,8.920383544921876,0.8877055644989014,-0.10955137014389038,1.1390504837036133
1788861604919390500,8.930390380859375,0.6774716377258301,-0.06761644035577774,0.8335866928100586
1788861604929396500,8.940396484375,0.5450506210327148,0.010070658288896084,0.5192306041717529
1788861604939403300,8.9504033203125,0.4213100075721741,0.210951030254364,0.3527370095252991
1788861604949409300,8.9604091796875,0.2939472198486328,0.4729566276073456,0.343244731426239
1788861604959416300,8.970416259765624,0.14322535693645477,0.48768630623817444,0.2957685589790344
1788861604969422300,8.98042236328125,-0.015393245033919811,0.17799098789691925,0.08100996911525726
1788861604979429000,8.99042919921875,-0.1747663915157318,-0.08828303962945938,-0.21998156607151031
1788861604989436400,9.0004365234375,-0.3347545564174652,-0.07089395821094513,-0.46855857968330383
1788861604999442400,9.0104423828125,-0.4760192632675171,0.005850093439221382,-0.6330311298370361
1788861605009449500,9.020449462890625,-0.6315709352493286,0.010885090567171574,-0.7182691097259521
1788861605019455500,9.03045556640625,-0.8020246624946594,0.010446734726428986,-0.7632855772972107
1788861605029462300,9.040462158203125,-0.9582218527793884,0.03058747388422489,-0.7860791087150574
1788861605039468300,9.05046826171875,-1.067500352859497,0.07763221859931946,-0.7645008563995361
1788861605049475300,9.060475341796876,-1.1374703645706177,0.13282166421413422,-0.724612832069397
1788861605059481300,9.0704814453125,-1.2164112329483032,0.14601895213127136,-0.6777822375297546
1788861605069488400,9.08048828125,-1.3283591270446777,0.13110682368278503,-0.6041275858879089
1788861605079494400,9.090494384765625,-1.4396185874938965,0.2606666684150696,-0.6136225461959839
1788861605089501400,9.10050146484375,-1.516402244567871,0.5262733101844788,-0.7125396132469177
1788861605099507500,9.110507568359376,-1.5594149827957153,0.7054873108863831,-0.848285436630249
1788861605109514500,9.120514404296875,-1.6038848161697388,0.6417064070701599,-0.9568148255348206
1788861605119520500,9.1305205078125,-1.6307801008224487,0.48682737350463867,-0.977623462677002
1788861605129527300,9.14052734375,-1.6108094453811646,0.4242006838321686,-0.9444887638092041
1788861605139533300,9.150533203125,-1.5869977474212646,0.4457187354564667,-0.9393800497055054
1788861605149540400,9.160540283203124,-1.5806840658187866,0.4552401602268219,-1.0025168657302856
1788861605159546400,9.17054638671875,-1.6057316064834595,0.38256970047950745,-1.0970708131790161
1788861605169553200,9.18055322265625,-1.6533222198486328,0.22072863578796387,-1.2456966638565063
1788861605179559400,9.190559326171876,-1.6842628717422485,0.049223463982343674,-1.419890284538269
1788861605189566500,9.20056640625,-1.7012065649032593,-0.0952911227941513,-1.5677716732025146
1788861605199572200,9.210572265625,-1.6935741901397705,-0.19298279285430908,-1.636626124382019
1788861605209579500,9.22057958984375,-1.6509029865264893,-0.2736467123031616,-1.662165641784668
1788861605219585500,9.23058544921875,-1.603981614112854,-0.4625282287597656,-1.7227871417999268
1788861605229592300,9.24059228515625,-1.5257149934768677,-0.679900586605072,-1.8144633769989014
1788861605239598300,9.250598388671875,-1.4612404108047485,-0.7902771830558777,-1.910282015800476
1788861605249605400,9.26060546875,-1.4643269777297974,-0.8021401166915894,-1.9316935539245605
1788861605259611400,9.270611328125,-1.4814119338989258,-0.8402563333511353,-1.8812676668167114
1788861605269618200,9.2806181640625,-1.447983741760254,-0.9682009220123291,-1.831522822380066
1788861605279625500,9.29062548828125,-1.346062183380127,-1.078039526939392,-1.841011643409729
1788861605289631500,9.300631591796876,-1.2245893478393555,-1.0728185176849365,-1.8670200109481812
1788861605299638300,9.31063818359375,-1.1687731742858887,-1.0146859884262085,-1.85158109664917
1788861605309644500,9.32064453125,-1.1461790800094604,-1.023536205291748,-1.8506883382797241
1788861605319651300,9.3306513671875,-1.1035770177841187,-1.0551042556762695,-1.8345205783843994
1788861605329657300,9.3406572265625,-1.00357186794281,-0.9455404281616211,-1.7328664064407349
1788861605339664400,9.350664306640626,-0.8905702233314514,-0.6976246237754822,-1.614799976348877
1788861605349670400,9.36067041015625,-0.8002511262893677,-0.5378522872924805,-1.5590029954910278
1788861605359677400,9.370677490234375,-0.7071448564529419,-0.3656594753265381,-1.4568157196044922
1788861605369683200,9.38068310546875,-0.5830696225166321,-0.2559760808944702,-1.2817271947860718
1788861605379690500,9.3906904296875,-0.4228823781013489,-0.1992262601852417,-1.0822378396987915
1788861605389696300,9.4006962890625,-0.2540392577648163,-0.12173821777105331,-0.821305513381958
1788861605399703300,9.410703369140625,-0.059435147792100906,-0.06521901488304138,-0.5305972695350647
1788861605409709600,9.42070947265625,0.1215284913778305,0.020472580567002296,-0.26234808564186096
1788861605419716400,9.43071630859375,0.27438223361968994,0.15776732563972473,-0.02998916059732437
1788861605429722400,9.440722412109375,0.4365362524986267,0.37244394421577454,0.23314712941646576
1788861605439729400,9.4507294921875,0.6379852294921875,0.6126781105995178,0.5089880228042603
1788861605449735400,9.4607353515625,0.8831020593643188,0.7277081608772278,0.719205915927887
1788861605459742200,9.4707421875,1.121050238609314,0.7223576307296753,0.875665009021759
1788861605469748200,9.480748291015624,1.3164279460906982,0.7111432552337646,1.0106775760650635
1788861605479755500,9.490755615234375,1.4447073936462402,0.7438229322433472,1.1279922723770142
1788861605489761300,9.50076123046875,1.5410397052764893,0.7316215634346008,1.2656688690185547
1788861605499768300,9.510768310546876,1.6490389108657837,0.6687576174736023,1.4086850881576538
1788861605509774300,9.5207744140625,1.7605054378509521,0.5544324517250061,1.5230026245117188
1788861605519781400,9.530781494140625,1.8647812604904175,0.45007410645484924,1.634758472442627
1788861605529787400,9.540787353515626,1.9364690780639648,0.3776460587978363,1.7250021696090698
1788861605539794400,9.55079443359375,1.9631667137145996,0.279484361410141,1.8340933322906494
1788861605549801500,9.560801513671874,1.9790279865264893,0.19328534603118896,1.9507794380187988
1788861605559807200,9.57080712890625,1.9950754642486572,0.16280946135520935,2.061377763748169
1788861605569814500,9.580814453125,2.0135862827301025,0.15089574456214905,2.1729915142059326
1788861605579820300,9.5908203125,2.028927803039551,0.06663679331541061,2.2862234115600586
1788861605589827300,9.600827392578125,2.0364348888397217,-0.07727907598018646,2.4062037467956543
1788861605599833300,9.610833251953125,2.0289411544799805,-0.216920867562294,2.4708173274993896
1788861605609840400,9.62084033203125,2.016737937927246,-0.3312368392944336,2.484650135040283
1788861605619846400,9.630846435546875,1.987069845199585,-0.391207218170166,2.473907709121704
1788861605629853200,9.640853271484374,1.9166810512542725,-0.4097323715686798,2.4384446144104004
1788861605639859500,9.650859375,1.8233513832092285,-0.3889176547527313,2.393376111984253
1788861605649866200,9.6608662109375,1.7594473361968994,-0.3861887753009796,2.32292103767395
1788861605659872300,9.670872314453124,1.7309110164642334,-0.3654842972755432,2.207801580429077
1788861605669879600,9.680879638671875,1.733789324760437,-0.17700138688087463,2.0603628158569336
1788861605679885300,9.69088525390625,1.7271796464920044,0.15047740936279297,1.8847109079360962
1788861605689892400,9.700892333984376,1.6714739799499512,0.4085249602794647,1.6581729650497437
1788861605699898400,9.7108984375,1.5554925203323364,0.38593655824661255,1.3927135467529297
1788861605709905400,9.720905517578124,1.3584108352661133,0.05256113409996033,1.1297101974487305
1788861605719911400,9.730911376953125,1.0745368003845215,-0.31391221284866333,0.9107818007469177
1788861605729918500,9.74091845703125,0.7509253621101379,-0.46632301807403564,0.7428906559944153
1788861605739924500,9.750924560546874,0.41292494535446167,-0.3301990032196045,0.6000949144363403
1788861605749931300,9.76093115234375,0.12335695326328278,-0.047271694988012314,0.4447672367095947
1788861605759937300,9.770937255859375,-0.0717984214425087,0.12299804389476776,0.2563216984272003
1788861605769944300,9.7809443359375,-0.1815299242734909,0.1693330854177475,0.08248080313205719
1788861605779951400,9.790951416015625,-0.2606319189071655,0.20676034688949585,-0.030361320823431015
1788861605789957400,9.800957275390624,-0.34868255257606506,0.18725800514221191,-0.13438470661640167
1788861605799964400,9.81096435546875,-0.47538110613822937,0.18306778371334076,-0.2707161605358124
1788861605809970400,9.820970458984375,-0.6020693182945251,0.2618548274040222,-0.4011281430721283
1788861605819977200,9.830977294921874,-0.7235941290855408,0.2840226888656616,-0.5009175539016724
1788861605829983500,9.8409833984375,-0.84857577085495,0.20899951457977295,-0.5801774263381958
1788861605839990000,9.850989990234375,-0.961985170841217,0.08408847451210022,-0.610577404499054
1788861605849995800,9.860995849609376,-1.0769968032836914,0.008165795356035233,-0.6515415906906128
1788861605860003000,9.871003173828125,-1.1958214044570923,-0.014434056356549263,-0.6967067122459412
1788861605870008800,9.8810087890625,-1.3265812397003174,0.040632665157318115,-0.6842804551124573
1788861605880016000,9.891015869140626,-1.4805409908294678,0.22907128930091858,-0.6972284913063049
1788861605890022100,9.901022216796875,-1.6031312942504883,0.49456101655960083,-0.7460271120071411
1788861605900029000,9.91102880859375,-1.6521531343460083,0.7169584035873413,-0.788762092590332
1788861605910035000,9.921034912109375,-1.6416535377502441,0.713614284992218,-0.7927234172821045
1788861605920042000,9.9310419921875,-1.6025694608688354,0.47654789686203003,-0.8747178912162781
1788861605930048000,9.941048095703126,-1.5518802404403687,0.24116584658622742,-0.9564362168312073
1788861605940054800,9.9510546875,-1.5361124277114868,0.11698558181524277,-0.977898359298706
1788861605950060800,9.961060791015624,-1.5639177560806274,0.08458389341831207,-0.965772271156311
1788861605960068000,9.971068115234376,-1.598617434501648,0.1092144101858139,-0.9632436037063599
1788861605970073900,9.981073974609375,-1.6237223148345947,0.19421449303627014,-1.0713715553283691
1788861605980081000,9.991080810546874,-1.6194508075714111,0.2831944227218628,-1.2615950107574463
1788861605990087000,10.0010869140625,-1.5971554517745972,0.19972503185272217,-1.4799093008041382
1788861606000094000,10.011093994140625,-1.5662885904312134,-0.1058008074760437,-1.6430803537368774
1788861606010100700,10.021100830078124,-1.5097829103469849,-0.41357117891311646,-1.7070503234863281
1788861606020107000,10.03110693359375,-1.4386296272277832,-0.5294738411903381,-1.713052749633789
1788861606030114000,10.041114013671875,-1.3552027940750122,-0.5081512928009033,-1.7545650005340576
1788861606040119800,10.051119873046876,-1.285508394241333,-0.5386649966239929,-1.8322080373764038
1788861606050127000,10.061127197265625,-1.242526888847351,-0.674613356590271,-1.8640214204788208
1788861606060132900,10.0711328125,-1.25553297996521,-0.7323275208473206,-1.8641383647918701
1788861606070140000,10.081139892578125,-1.2908746004104614,-0.683813750743866,-1.8640377521514893
1788861606080146000,10.09114599609375,-1.2966454029083252,-0.6589933633804321,-1.8913716077804565
1788861606090153000,10.101153076171874,-1.2688413858413696,-0.7931681275367737,-1.9547252655029297
1788861606100159000,10.111158935546875,-1.2322982549667358,-0.9589328765869141,-1.9969336986541748
1788861606110165800,10.121165771484375,-1.1904057264328003,-1.0524473190307617,-1.9671376943588257
1788861606120172000,10.131172119140626,-1.1565742492675781,-1.0520423650741577,-1.8772950172424316
1788861606130178800,10.1411787109375,-1.1115493774414062,-1.0006320476531982,-1.7695963382720947
1788861606140184800,10.151184814453124,-1.0447384119033813,-0.9063119888305664,-1.6865785121917725
1788861606150192000,10.161192138671876,-0.9727778434753418,-0.72683185338974,-1.5798498392105103
1788861606160198000,10.171197998046875,-0.9175601005554199,-0.5933041572570801,-1.444193959236145
1788861606170205000,10.181204833984374,-0.82269686460495,-0.5158659815788269,-1.3118046522140503
1788861606180211000,10.1912109375,-0.6340076327323914,-0.46008819341659546,-1.1781959533691406
1788861606190218000,10.201218017578125,-0.44067129492759705,-0.3258046805858612,-0.9782240390777588
1788861606200224800,10.211224853515626,-0.2956608235836029,-0.1534043848514557,-0.7508580088615417
1788861606210231000,10.22123095703125,-0.13266247510910034,0.06614099442958832,-0.48921099305152893
1788861606220238000,10.231238037109375,0.0451677143573761,0.2358487993478775,-0.2426089495420456
1788861606230243800,10.241243896484375,0.20242120325565338,0.37554705142974854,-0.021291811019182205
1788861606240251100,10.251251220703125,0.39007768034935,0.4145684838294983,0.24199841916561127
1788861606250257000,10.2612568359375,0.6272472143173218,0.44810065627098083,0.47609829902648926
1788861606260264000,10.271263916015625,0.8536649346351624,0.5550124049186707,0.6136956214904785
1788861606270270000,10.28127001953125,1.0433032512664795,0.6565238833427429,0.7119502425193787
1788861606280277000,10.291277099609376,1.2124993801116943,0.7609823346138,0.8657267689704895
1788861606290283000,10.301282958984375,1.3905580043792725,0.8063362836837769,1.049113392829895
1788861606300289800,10.311289794921874,1.553773283958435,0.7546828985214233,1.2175580263137817
1788861606310296000,10.321296142578126,1.6986373662948608,0.6396772265434265,1.4036589860916138
1788861606320302800,10.331302734375,1.8295344114303589,0.5705402493476868,1.5267153978347778
1788861606330308900,10.341308837890624,1.9224488735198975,0.5115547180175781,1.5818960666656494
1788861606340316200,10.351316162109375,1.9868379831314087,0.46125051379203796,1.6566435098648071
1788861606350322000,10.361322021484375,2.010873556137085,0.39658764004707336,1.7684451341629028
1788861606360329000,10.371328857421876,2.008326530456543,0.3067149817943573,1.890660047531128
1788861606370335000,10.3813349609375,2.0212104320526123,0.2249508947134018,1.9875106811523438
1788861606380342000,10.391342041015625,2.0440971851348877,0.19341054558753967,2.096938133239746
1788861606390348000,10.40134814453125,2.082941770553589,0.17501477897167206,2.2093398571014404
1788861606400354800,10.411354736328125,2.098421573638916,0.11966072022914886,2.2832906246185303
1788861606410362000,10.421362060546874,2.106597661972046,0.025024760514497757,2.3650100231170654
1788861606420368000,10.431367919921875,2.1163644790649414,-0.030332237482070923,2.448199510574341
1788861606430375000,10.441375,2.1132619380950928,-0.060355741530656815,2.4933922290802
1788861606440381000,10.451380859375,2.0841715335845947,-0.11480459570884705,2.512171745300293
1788861606450388000,10.461387939453125,2.033604383468628,-0.19421392679214478,2.48984694480896
1788861606460394000,10.47139404296875,1.9492920637130737,-0.2951807379722595,2.4067606925964355
1788861606470401000,10.481401123046876,1.8522088527679443,-0.42087069153785706,2.290644884109497
1788861606480407000,10.491406982421875,1.753829002380371,-0.4393783509731293,2.201901435852051
1788861606490413800,10.501413818359374,1.6417702436447144,-0.2439284324645996,2.1303341388702393
1788861606500419800,10.511419921875,1.5111528635025024,0.01834952086210251,1.9966315031051636
1788861606510427000,10.521427001953125,1.3596720695495605,0.1514924019575119,1.745461344718933
1788861606520433000,10.531432861328126,1.1768434047698975,0.13518986105918884,1.4266105890274048
1788861606530440000,10.54143994140625,0.9524776935577393,0.15798702836036682,1.1352275609970093
1788861606540446000,10.551446044921875,0.7286355495452881,0.21779708564281464,0.8878268599510193
1788861606550453000,10.561452880859376,0.546579122543335,0.176751047372818,0.6323553919792175
1788861606560459000,10.571458984375,0.3796662986278534,0.06132005900144577,0.3494725525379181
1788861606570466000,10.581466064453124,0.21493062376976013,0.03931528329849243,0.16856025159358978
1788861606580472000,10.59147216796875,0.04759170114994049,0.10516221076250076,0.10295513272285461
1788861606590478800,10.601478759765625,-0.12528479099273682,0.013213429600000381,-0.018474407494068146
1788861606600486100,10.611486083984374,-0.3010355830192566,-0.027322012931108475,-0.22563743591308594
1788861606610492000,10.621491943359375,-0.45551037788391113,0.04898754507303238,-0.45917078852653503
1788861606620499000,10.6314990234375,-0.5903633236885071,0.09732445329427719,-0.6411352753639221
1788861606630505000,10.6415048828125,-0.7011613249778748,0.09237872809171677,-0.6921460628509521
1788861606640512000,10.651511962890625,-0.8148601651191711,0.11324192583560944,-0.7206423878669739
1788861606650518000,10.66151806640625,-0.933093249797821,0.2168334573507309,-0.8150246143341064
1788861606660524800,10.67152490234375,-1.052682638168335,0.3740273416042328,-0.9004697799682617
1788861606670531000,10.681531005859375,-1.1570428609848022,0.4842072129249573,-0.9525507092475891
1788861606680537900,10.691537841796874,-1.229546308517456,0.5160769820213318,-1.0050376653671265
1788861606690543900,10.7015439453125,-1.3029347658157349,0.439308762550354,-1.0106109380722046
1788861606700551000,10.711551025390625,-1.362423062324524,0.3571709990501404,-0.9691470861434937
1788861606710557000,10.721556884765626,-1.3864846229553223,0.3088223934173584,-0.9682971835136414
1788861606720564000,10.73156396484375,-1.4033938646316528,0.2941448986530304,-1.0221061706542969
1788861606730569700,10.74156982421875,-1.4502121210098267,0.3226526081562042,-1.027475357055664
1788861606740577000,10.751576904296876,-1.5460944175720215,0.30240514874458313,-0.9876432418823242
1788861606750583000,10.7615830078125,-1.656967282295227,0.23999617993831635,-0.9370684027671814
1788861606760589800,10.77158984375,-1.7224143743515015,0.31684356927871704,-0.975577712059021
1788861606770596900,10.781596923828126,-1.7042796611785889,0.5066832304000854,-1.1308165788650513
1788861606780603000,10.791602783203125,-1.645695447921753,0.5674799680709839,-1.276292085647583
1788861606790610000,10.80160986328125,-1.6145678758621216,0.3002661168575287,-1.3747670650482178
1788861606800616000,10.811615966796875,-1.6182862520217896,-0.10945722460746765,-1.5024060010910034
1788861606810623000,10.821623046875,-1.6155389547348022,-0.4079386293888092,-1.6204304695129395
1788861606820629000,10.83162890625,-1.5991765260696411,-0.5197263956069946,-1.7052350044250488
1788861606830636000,10.841635986328125,-1.5719819068908691,-0.5559446811676025,-1.747390627861023
1788861606840642800,10.851642822265624,-1.5102834701538086,-0.5458792448043823,-1.8203845024108887
1788861606850649900,10.86164990234375,-1.4698679447174072,-0.6179811954498291,-1.8844801187515259
1788861606860655900,10.87165576171875,-1.4310636520385742,-0.7509725093841553,-1.8930484056472778
1788861606870662700,10.88166259765625,-1.397660255432129,-0.8283191919326782,-1.8825291395187378
1788861606880668700,10.891668701171875,-1.3658287525177002,-0.8933749198913574,-1.8555119037628174
1788861606890675700,10.90167578125,-1.3325836658477783,-0.9864553213119507,-1.8385233879089355
1788861606900681700,10.911681640625,-1.2952810525894165,-1.1593703031539917,-1.836103916168213
1788861606910688500,10.9216884765625,-1.2420238256454468,-1.3075937032699585,-1.854726791381836
1788861606920694800,10.93169482421875,-1.1850827932357788,-1.281398057937622,-1.8623197078704834
1788861606930701800,10.941701904296876,-1.1455388069152832,-1.1124635934829712,-1.7976727485656738
1788861606940708600,10.95170849609375,-1.134774923324585,-0.9315475225448608,-1.7041771411895752
1788861606950715000,10.96171484375,-1.1050740480422974,-0.7796674966812134,-1.6424766778945923
1788861606960721700,10.9717216796875,-1.0455185174942017,-0.5876847505569458,-1.5792089700698853
1788861606970727700,10.981727783203125,-0.9299854636192322,-0.4855179488658905,-1.4999374151229858
1788861606980734700,10.991734619140624,-0.7637637257575989,-0.38510292768478394,-1.3634270429611206
1788861606990740700,11.00174072265625,-0.550410270690918,-0.34502312541007996,-1.1711195707321167
1788861607000747800,11.011747802734375,-0.3282206654548645,-0.36172008514404297,-0.9681731462478638
1788861607010753500,11.02175341796875,-0.19397839903831482,-0.19718699157238007,-0.7761337161064148
1788861607020760800,11.0317607421875,-0.08936277776956558,-0.00038764066994190216,-0.5118480324745178
1788861607030766800,11.041766845703124,0.03685682639479637,0.17961864173412323,-0.1871790587902069
1788861607040773600,11.051773681640626,0.23415417969226837,0.2849503755569458,0.08640535175800323
1788861607050780000,11.06177978515625,0.4899817407131195,0.34606635570526123,0.30756086111068726
1788861607060786700,11.07178662109375,0.7106062769889832,0.44104987382888794,0.48021918535232544
1788861607070792700,11.081792724609375,0.8749701976776123,0.604426920413971,0.6199045181274414
1788861607080799700,11.0917998046875,1.0216752290725708,0.7160173654556274,0.7716503739356995
1788861607090805800,11.1018056640625,1.1874099969863892,0.6827600598335266,0.933369517326355
1788861607100812800,11.111812744140625,1.364591360092163,0.5942070484161377,1.0782606601715088
1788861607110818600,11.121818603515624,1.528090000152588,0.5449093580245972,1.201949119567871
1788861607120825900,11.131825927734376,1.6406117677688599,0.5374825596809387,1.3232643604278564
1788861607130832600,11.14183251953125,1.7314317226409912,0.5192801356315613,1.4555367231369019
1788861607140838700,11.151838623046874,1.8325517177581787,0.46517670154571533,1.604784607887268
1788861607150845700,11.161845703125,1.9357467889785767,0.41538774967193604,1.7375191450119019
1788861607160851700,11.171851806640625,2.0155646800994873,0.37231138348579407,1.827770709991455
1788861607170858500,11.1818583984375,2.0557281970977783,0.3266533613204956,1.8949452638626099
1788861607180864800,11.19186474609375,2.073878288269043,0.2354222685098648,2.0041279792785645
1788861607190871800,11.201871826171875,2.0697336196899414,0.15785780549049377,2.095398187637329
1788861607200877600,11.211877685546876,2.088970899581909,0.08094145357608795,2.202395439147949
1788861607210884900,11.221884765625,2.1068923473358154,0.06248846277594566,2.2881505489349365
1788861607220891000,11.231890869140624,2.098008632659912,0.059977106750011444,2.333965539932251
1788861607230897700,11.241897705078125,2.0771021842956543,-0.0010073977755382657,2.374250650405884
1788861607240904000,11.251904052734375,2.04374098777771,-0.0842737928032875,2.3906967639923096
1788861607250910700,11.26191064453125,1.9737284183502197,-0.2061738520860672,2.3707973957061768
1788861607260916700,11.271916748046875,1.8929550647735596,-0.3817257285118103,2.331453323364258
1788861607270923800,11.281923828125,1.813162922859192,-0.5060209631919861,2.2931339740753174
1788861607280929800,11.2919296875,1.7159266471862793,-0.5172608494758606,2.2629599571228027
1788861607290936800,11.301936767578125,1.6185412406921387,-0.4378449022769928,2.234008312225342
1788861607300944000,11.31194384765625,1.5303537845611572,-0.3087601363658905,2.26410174369812
1788861607310950000,11.321949951171876,1.3798314332962036,-0.1752159744501114,2.214289665222168
1788861607320956700,11.331956787109375,1.1695806980133057,-0.025800921022892,1.9095789194107056
1788861607330962700,11.341962646484374,0.9472096562385559,0.07936842739582062,1.4676371812820435
1788861607340969700,11.3519697265625,0.6975806355476379,0.10339227318763733,1.0689287185668945
1788861607350975700,11.361975830078125,0.43959400057792664,0.09369247406721115,0.7760174870491028
1788861607360982800,11.371982666015626,0.23654420673847198,0.10208303481340408,0.5734323859214783
1788861607370988800,11.38198876953125,0.12376555055379868,0.17304427921772003,0.4510003924369812
1788861607380995800,11.391995849609375,0.043954066932201385,0.2593975365161896,0.32637110352516174
1788861607391001600,11.402001708984375,-0.025541752576828003,0.24547956883907318,0.10452446341514587
1788861607401009000,11.4120087890625,-0.10832131654024124,0.09450683742761612,-0.14063096046447754
1788861607411015000,11.422014892578124,-0.1973646879196167,-0.13895297050476074,-0.30926308035850525
1788861607421021700,11.432021728515625,-0.2969472110271454,-0.35335075855255127,-0.3916650116443634
1788861607431027700,11.44202783203125,-0.3991430401802063,-0.4664531648159027,-0.4370458722114563
1788861607441034800,11.45203466796875,-0.5271002054214478,-0.3867814838886261,-0.5033122301101685
1788861607451041800,11.462041748046875,-0.6890164613723755,-0.20627211034297943,-0.6025658845901489
1788861607461047600,11.472047607421874,-0.87307208776474,-0.019415687769651413,-0.7018384337425232
1788861607471054800,11.482054931640626,-1.040467619895935,0.17511595785617828,-0.726515531539917
1788861607481060900,11.492060791015625,-1.1791878938674927,0.3445909917354584,-0.7048464417457581
1788861607491067600,11.502067626953124,-1.2933906316757202,0.4140460193157196,-0.650417685508728
1788861607501074000,11.512073974609375,-1.4200348854064941,0.4466058015823364,-0.6453092098236084
1788861607511080700,11.522080810546875,-1.4955525398254395,0.600346565246582,-0.7837449908256531
1788861607521086700,11.532086669921876,-1.4965895414352417,0.801857590675354,-0.9314196705818176
1788861607531093800,11.54209375,-1.480776309967041,0.8376873135566711,-0.9687713980674744
1788861607541099800,11.552099853515625,-1.4905635118484497,0.6334071755409241,-0.9624501466751099
1788861607551106800,11.56210693359375,-1.5253047943115234,0.2612689435482025,-0.9128097891807556
1788861607561112600,11.572112548828125,-1.5546529293060303,0.014404835179448128,-0.9086613655090332
1788861607571119900,11.582119873046874,-1.5605252981185913,0.0005830484442412853,-1.0033332109451294
1788861607581125600,11.592125732421875,-1.5386292934417725,0.06905797868967056,-1.1625005006790161
1788861607591132700,11.602132568359375,-1.5137885808944702,0.12202291190624237,-1.319506049156189
1788861607601139000,11.612138916015626,-1.5131092071533203,0.14311568439006805,-1.439487338066101
1788861607611145700,11.622145751953125,-1.529546856880188,0.11254767328500748,-1.5057892799377441
1788861607621152500,11.632152587890625,-1.5421491861343384,0.016140175983309746,-1.605478048324585
1788861607631158800,11.64215869140625,-1.5438940525054932,-0.08870191127061844,-1.6976529359817505
1788861607641165800,11.652165771484375,-1.5237586498260498,-0.1733289211988449,-1.7403346300125122
1788861607651171600,11.662171630859374,-1.4909731149673462,-0.35012492537498474,-1.7593265771865845
1788861607661179000,11.672178955078126,-1.4326804876327515,-0.5726243257522583,-1.789254903793335
1788861607671185000,11.682184814453125,-1.349536418914795,-0.7579168677330017,-1.8095688819885254
1788861607681191700,11.692191650390624,-1.2946289777755737,-0.7803601026535034,-1.7921278476715088
1788861607691197700,11.70219775390625,-1.275231957435608,-0.6726652383804321,-1.8098012208938599
1788861607701204700,11.712204833984375,-1.2373902797698975,-0.5997129678726196,-1.8723407983779907
1788861607711210800,11.722210693359376,-1.1649577617645264,-0.6994954943656921,-1.9007242918014526
1788861607721217500,11.732217529296875,-1.091363787651062,-1.0012346506118774,-1.8639357089996338
1788861607731223800,11.742223876953124,-1.0448853969573975,-1.081184983253479,-1.7718440294265747
1788861607741230800,11.75223095703125,-0.992700457572937,-0.9568628072738647,-1.661994218826294
1788861607751236600,11.762236572265625,-0.9463627338409424,-0.7535935640335083,-1.6102685928344727
1788861607761244000,11.772243896484374,-0.902898371219635,-0.6437528133392334,-1.5702780485153198
1788861607771249700,11.782249755859375,-0.8574351072311401,-0.6313692927360535,-1.4798170328140259
1788861607781256700,11.792256591796875,-0.814553439617157,-0.5530375242233276,-1.3040835857391357
1788861607791263700,11.802263671875,-0.7248551845550537,-0.47611984610557556,-1.1618083715438843
1788861607801269800,11.812269775390625,-0.5705601572990417,-0.39408063888549805,-1.0584540367126465
1788861607811276800,11.82227685546875,-0.41492515802383423,-0.28137150406837463,-0.9240298867225647
1788861607821282600,11.832282470703126,-0.30858221650123596,-0.13117507100105286,-0.7163164019584656
1788861607831289900,11.842289794921875,-0.18847545981407166,-0.03105337545275688,-0.5110273361206055
1788861607841295000,11.852295166015624,-0.011522508226335049,0.05597873032093048,-0.32946309447288513
1788861607851302100,11.86230224609375,0.21835733950138092,0.13811524212360382,-0.1534711867570877
1788861607861308200,11.87230810546875,0.4448695778846741,0.18953768908977509,0.04138803854584694
1788861607871315000,11.88231494140625,0.6183299422264099,0.274728924036026,0.267879843711853
1788861607881321000,11.892321044921875,0.7656392455101013,0.42271679639816284,0.4981718957424164
1788861607891328000,11.902327880859374,0.9428540468215942,0.5684070587158203,0.7621233463287354
1788861607901334000,11.912333984375,1.158300518989563,0.5520288944244385,1.009221076965332
1788861607911341300,11.92234130859375,1.364380955696106,0.5144391059875488,1.308700680732727
1788861607921347000,11.93234716796875,1.4438339471817017,0.6398841142654419,1.5742510557174683
1788861607931354000,11.94235400390625,1.38528311252594,0.8827303051948547,1.6762418746948242
1788861607941359900,11.95235986328125,1.3042508363723755,0.9649210572242737,1.731459379196167
1788861607951367200,11.9623671875,1.2815217971801758,0.8647115230560303,1.7915587425231934
1788861607961374000,11.9723740234375,1.3434134721755981,0.7224656939506531,1.7806719541549683
1788861607971380000,11.9823798828125,1.5099399089813232,0.5077072381973267,1.7352596521377563
1788861607981387300,11.99238720703125,1.7077709436416626,0.39498835802078247,1.7476502656936646
1788861607991393000,12.00239306640625,1.864965796470642,0.3749622106552124,1.7599077224731445
1788861608001400000,12.012400146484374,1.9916038513183594,0.2648356854915619,1.7168182134628296
1788861608011406000,12.022406005859375,2.0864670276641846,-0.002966419095173478,1.6601924896240234
1788861608021413000,12.0324130859375,2.144611120223999,-0.28640374541282654,1.6992127895355225
1788861608031419100,12.042419189453126,2.1822257041931152,-0.49592527747154236,1.86851966381073
1788861608041426200,12.05242626953125,2.200246572494507,-0.4989018738269806,2.068558692932129
1788861608051432200,12.06243212890625,2.1882970333099365,-0.312049925327301,2.209451675415039
1788861608061439000,12.07243896484375,2.1591262817382812,-0.11284893751144409,2.303680658340454
1788861608071445000,12.082445068359375,2.112070322036743,-0.05290878564119339,2.343238115310669
1788861608081452000,12.0924521484375,2.0374221801757812,-0.15273472666740417,2.3280787467956543
1788861608091458000,12.1024580078125,1.9452604055404663,-0.32015252113342285,2.313964605331421
1788861608101465000,12.112465087890625,1.8597623109817505,-0.43286362290382385,2.2795615196228027
1788861608111471000,12.12247119140625,1.7822388410568237,-0.3985646963119507,2.2009618282318115
1788861608121478100,12.13247802734375,1.6933308839797974,-0.2614406645298004,2.039903163909912
1788861608131485000,12.14248486328125,1.546478509902954,-0.11233767122030258,1.789194107055664
1788861608141491200,12.1524912109375,1.3293341398239136,0.01692098379135132,1.4901634454727173
1788861608151498000,12.162498046875,1.0475776195526123,0.10401434451341629,1.1933938264846802
1788861608161504000,12.17250390625,0.7439641356468201,0.13433602452278137,0.889751672744751
1788861608171511300,12.18251123046875,0.4600130617618561,0.10591694712638855,0.6218127012252808
1788861608181517000,12.19251708984375,0.26029491424560547,0.18477074801921844,0.4677219092845917
1788861608191524000,12.202524169921874,0.13358812034130096,0.3385200500488281,0.38603076338768005
1788861608201529900,12.21252978515625,0.020654646679759026,0.3890160024166107,0.20940911769866943
1788861608211537200,12.222537109375,-0.07889222353696823,0.27730581164360046,-0.08638281375169754
1788861608221543200,12.232543212890626,-0.1728011518716812,0.14888256788253784,-0.36505305767059326
1788861608231550000,12.242550048828125,-0.30337923765182495,0.11771579831838608,-0.5412190556526184
1788861608241556200,12.25255615234375,-0.46034568548202515,0.07986002415418625,-0.6086764335632324
1788861608251563000,12.26256298828125,-0.6040593981742859,0.0048687332309782505,-0.6595146656036377
1788861608261569000,12.272569091796875,-0.7083892822265625,-0.045540645718574524,-0.6989728808403015
1788861608271576000,12.282576171875,-0.7497682571411133,-0.11050567775964737,-0.6987053751945496
1788861608281582000,12.29258203125,-0.7867640852928162,-0.14532917737960815,-0.6585321426391602
1788861608291589000,12.302589111328125,-0.8899836540222168,-0.137290358543396,-0.6312962174415588
1788861608301596200,12.31259619140625,-1.0861080884933472,-0.03968096897006035,-0.720417857170105
1788861608311602200,12.322602294921875,-1.3266828060150146,0.1933058798313141,-0.863465428352356
1788861608321609000,12.33260888671875,-1.551770806312561,0.5212345123291016,-0.9627978801727295
1788861608331615000,12.342614990234376,-1.692291259765625,0.7281321883201599,-0.9495113492012024
1788861608341622000,12.3526220703125,-1.7215814590454102,0.6633124947547913,-0.8971789479255676
1788861608351628000,12.3626279296875,-1.6687442064285278,0.46789076924324036,-0.9115804433822632
1788861608361635000,12.372635009765625,-1.586477518081665,0.44436919689178467,-1.0483691692352295
1788861608371641000,12.38264111328125,-1.5431139469146729,0.5374883413314819,-1.183335542678833
1788861608381648100,12.392648193359374,-1.5453029870986938,0.5677274465560913,-1.2784266471862793
1788861608391654000,12.40265380859375,-1.548606276512146,0.4401678740978241,-1.2909069061279297
1788861608401661200,12.4126611328125,-1.5513081550598145,0.26896601915359497,-1.3206515312194824
1788861608411667200,12.422667236328126,-1.5697500705718994,0.12118224054574966,-1.4399784803390503
1788861608421674000,12.432674072265625,-1.582401156425476,0.0035149953328073025,-1.5291436910629272
1788861608431680000,12.442679931640624,-1.5727286338806152,-0.10317829251289368,-1.5449843406677246
1788861608441687000,12.45268701171875,-1.569337010383606,-0.1816512644290924,-1.539040207862854
1788861608451694000,12.462694091796875,-1.582650899887085,-0.16659614443778992,-1.5610498189926147
1788861608461699800,12.472699951171874,-1.5855462551116943,-0.20252485573291779,-1.602281093597412
1788861608471707100,12.48270703125,-1.562269926071167,-0.3669411540031433,-1.6103962659835815
1788861608481713200,12.492713134765625,-1.5268096923828125,-0.5804324150085449,-1.5826677083969116
1788861608491720000,12.502719970703126,-1.483149766921997,-0.7642417550086975,-1.6060192584991455
1788861608501726200,12.512726318359375,-1.4415104389190674,-0.9361434578895569,-1.6896289587020874
1788861608511733000,12.52273291015625,-1.4085595607757568,-1.119573950767517,-1.787419080734253
1788861608521739000,12.532739013671875,-1.3860901594161987,-1.2550921440124512,-1.834958553314209
