time,seconds_elapsed,z,y,x
1789635554330765000,0.05176513671875,9.985915849304199,4.075529776000976,1.2572551467895507
1789635554340805000,0.06180517578125,9.268104264068603,3.873219735717773,1.674594423675537
1789635554350845000,0.071844970703125,9.361328491210937,3.9495349136352536,1.5593734687805174
1789635554360885000,0.081885009765625,8.328529750061035,4.368220928955078,1.5970821449279784
1789635554370925000,0.091925048828125,7.769184387207031,4.080767092132568,1.6172832214355468
1789635554380964000,0.101964111328125,9.2565821685791,2.6267384963989255,1.2406453727722166
1789635554391004000,0.11200390625,9.732579386138916,1.2316671165466309,0.3978863883972168
1789635554401044000,0.1220439453125,9.913191973876952,0.9347861106872558,-0.46148236999511716
1789635554411084000,0.132083984375,8.431779696655273,2.13862063293457,-0.6536170532226562
1789635554421124000,0.1421240234375,7.850736881256103,3.8509237327575683,0.318578458404541
1789635554431164000,0.152163818359375,7.904905693817138,4.980986916351318,1.9632453613281249
1789635554441204000,0.162203857421875,7.517643575286865,5.212925202178955,3.235613906097412
1789635554451243000,0.172242919921875,6.705410662078857,4.178929360198975,2.7543793724060057
1789635554461283000,0.182282958984375,5.245546199798584,1.8528128097534178,-0.37843349990844727
1789635554471323100,0.1923232421875,3.7618893585205075,2.8803742347717285,-0.5481225425720214
1789635554481363000,0.202363037109375,3.611653204345703,1.3298293846130371,1.5095441467285156
1789635554491402800,0.21240283203125,4.20721086730957,0.49739539489746093,3.341706967163086
1789635554501442800,0.22244287109375,5.3968298171997064,0.7381622993469238,3.5501521492004393
1789635554511483000,0.23248291015625,5.617246007537841,0.8090905235290526,4.13089568939209
1789635554521522000,0.24252197265625,5.322459928131103,0.2920926025390625,4.828955110931396
1789635554531561700,0.252561767578125,2.951452096557617,-0.6619967590332031,5.26709401473999
1789635554541601800,0.262601806640625,0.43350013809204097,-1.401356159210205,5.7140615371704095
1789635554551641900,0.272641845703125,4.06685079498291,0.6069301208496093,5.336376225280762
1789635554561682000,0.282681884765625,8.910620028686523,2.4250270065307618,4.453065450286865
1789635554571722000,0.292721923828125,9.90181951599121,-2.695422156524658,2.7578210372924805
1789635554581762000,0.302761962890625,7.001693117523193,-5.975179155731201,0.20605098037719724
1789635554591800800,0.31280078125,4.813093524932861,-5.380818593597412,0.8176198669433593
1789635554601841000,0.3228408203125,4.713883793640137,-4.60928710861206,3.1208418640136717
1789635554611881000,0.332880859375,4.613776236724854,-3.9796120719909664,4.682010984039306
1789635554621921000,0.342921142578125,4.2874166229248045,-4.069095359039307,6.094440325927734
1789635554631960800,0.3529609375,3.6827310661315917,-4.061912754058838,6.5674447914123535
1789635554642001000,0.3630009765625,3.075352032470703,-3.9297827499389646,6.960842051696777
1789635554652041000,0.373041015625,3.162141842651367,-4.049492832946777,7.749731498718261
1789635554662080000,0.383080078125,2.8842648124694823,-4.074931225585937,8.54789847717285
1789635554672119800,0.393119873046875,2.633472188568115,-3.4090438888549803,9.993996279907225
1789635554682159900,0.403159912109375,2.245312244415283,-2.4904186393737793,11.471966892242431
1789635554692200000,0.413199951171875,0.3687070556640625,-1.619078872680664,12.706327485656738
1789635554702240000,0.423239990234375,-1.11075993270874,-1.174056639099121,13.792097938537596
1789635554712280000,0.433280029296875,-0.4504091873168945,-1.0808324119567871,15.20138489074707
1789635554722320000,0.44331982421875,1.138891802215576,-0.6380547424316406,16.680702241516112
1789635554732359000,0.45335888671875,1.7881693649291992,0.5693710823059082,17.949629121398925
1789635554742399000,0.46339892578125,-0.03755903854370117,2.0087351928710935,18.54114656906128
1789635554752439000,0.47343896484375,-2.25997672958374,2.967463320159912,18.382979621887205
1789635554762479000,0.48347900390625,-3.5685575744628903,3.3981203437805174,17.74282995300293
1789635554772519000,0.493518798828125,-4.5042415107727045,3.642927463531494,16.90007096862793
1789635554782559000,0.50355908203125,-4.661211357116699,3.694552436828613,15.893458808135986
1789635554792599000,0.51359912109375,-5.49708701171875,3.6360441337585447,15.120281309509277
1789635554802639000,0.52363916015625,-10.159345832061767,4.849904375457763,16.15861664199829
1789635554812678000,0.533677978515625,-19.540576124572752,8.773402346038818,20.854543923187254
1789635554822718000,0.543718017578125,-17.7485161819458,7.1607578903198235,19.873968705749512
1789635554832758000,0.553758056640625,-4.0167221977233885,3.749319799804687,17.59483836288452
1789635554842798000,0.563798095703125,1.025316860961914,4.15618444442749,15.745616855621337
1789635554852838100,0.573838134765625,-1.2702736183166503,3.649810793304443,10.616787986755371
1789635554862878000,0.5838779296875,-3.6788404884338375,2.117072817993164,4.923376438903809
1789635554872918000,0.59391796875,-3.382408395385742,-0.28431144714355466,1.3159130874633789
1789635554882957000,0.60395703125,-1.6651672546386718,-3.6323031936645505,-0.9035118515014647
1789635554892997000,0.6139970703125,-0.8417115211486816,-4.554968658447265,1.1225813034057617
1789635554903037200,0.624037109375,-3.0515596534729004,-4.994454300689697,3.6495115180969235
1789635554913077000,0.634076904296875,-1.396867031097412,-4.985476044464111,7.849390142822265
1789635554923116800,0.64411669921875,0.010773907470703125,-5.414487054443359,11.362282528686523
1789635554933156900,0.654156982421875,3.1880291481018066,-3.667767305755615,10.78318500213623
1789635554943197000,0.664197021484375,4.077175789642334,-2.640056243133545,13.686004877471923
1789635554953237000,0.674237060546875,-3.283946852111816,-1.6693571075439453,13.332560857391357
1789635554963276000,0.684276123046875,-7.829937254333496,-0.634014527130127,8.78432589111328
1789635554973315800,0.69431591796875,-2.858676782226562,-4.230853608703613,10.359112033081054
1789635554983356000,0.70435595703125,-0.11985972061157225,-9.923816243743897,11.085752236938475
1789635554993396000,0.71439599609375,1.6603788513183593,-10.52820252532959,11.47899985961914
1789635555003435800,0.724435791015625,-0.411802685546875,-11.308861904144287,11.457601682281494
1789635555013475800,0.734475830078125,-3.4281975021362303,-13.261183720397948,8.731503816986084
1789635555023516000,0.744515869140625,-3.229778039550781,-13.779229104614258,7.678653636932372
1789635555033555000,0.754554931640625,-1.7265186721801757,-13.288417764282226,7.119906824493408
1789635555043595000,0.764594970703125,-0.5424363136291503,-12.823942642211913,7.107786178588867
1789635555053634800,0.774634765625,-1.2618939125061035,-11.547084969329834,6.755539259338378
1789635555063675000,0.7846748046875,-1.7962497955322265,-9.012223961639403,5.761347019958496
1789635555073715000,0.79471484375,-0.5659294174194336,-8.550741591644286,4.73079284286499
1789635555083755000,0.804755126953125,-0.6566098052978515,-9.942520944213866,1.9838953506469725
1789635555093795000,0.814795166015625,-2.6140193000793457,-9.433453816223144,2.6809073089599607
1789635555103833900,0.824833740234375,-3.117400199127197,-7.915081050872803,6.278644216156006
1789635555113874000,0.8348740234375,1.3299790222167969,-7.341520115661621,6.907122151947021
1789635555123914000,0.8449140625,-5.987748714447021,-6.726958477020263,5.071816941833496
1789635555133954000,0.8549541015625,-6.42274522857666,-9.83897172241211,1.2551602203369139
1789635555143993900,0.864993896484375,0.7302315063476562,-8.208670029449463,3.7576995056152342
1789635555154034000,0.875033935546875,-3.1401451148986816,-4.88372247390747,5.448305152893066
1789635555164074000,0.885073974609375,-2.6589105812072753,-4.7375265350341795,4.5498809799194335
1789635555174114000,0.895114013671875,-2.67507144241333,-5.153818348693847,4.42418539276123
1789635555184152800,0.90515283203125,-1.636885747528076,-6.274753638458251,4.726902265167236
1789635555194193000,0.91519287109375,-0.5099649536132812,-7.159860064697265,5.281159949493408
1789635555204233000,0.92523291015625,-0.2088940948486328,-7.859864775085449,4.83942974319458
1789635555214273000,0.93527294921875,-2.25369195022583,-7.550414210510254,4.0066964782714845
1789635555224313000,0.94531298828125,-6.871508402252197,-7.06723438796997,3.42849677734375
1789635555234353200,0.955353271484375,-5.625775350952148,-7.566126158905029,3.97736750793457
1789635555244393000,0.96539306640625,-3.0557495063781737,-6.449979272460937,5.590460876464843
1789635555254432000,0.975431884765625,-2.8348844032287595,-7.294084995269775,5.399822569274902
1789635555264472000,0.98547216796875,-2.8259061470031734,-7.920318367004394,6.143671097564697
1789635555274512100,0.99551220703125,-3.1540614120483395,-7.175123100280762,6.76122548828125
1789635555284552000,1.005552001953125,-2.0106804817199704,-6.4089785690307615,6.444143405914306
1789635555294592000,1.015592041015625,-2.708739903259277,-6.928221054077148,4.802768530273437
1789635555304632000,1.025632080078125,-3.9309798507690425,-7.420977683258056,3.83057301864624
1789635555314671900,1.035671875,-3.7952585441589353,-7.588871074676513,3.806331726837158
1789635555324711700,1.045711669921875,-2.4542063392639157,-7.726088757324218,3.9261914474487303
1789635555334751000,1.0557509765625,-1.945288848876953,-7.050026063537597,4.8698061767578125
1789635555344791000,1.065791015625,-2.5384523101806638,-6.3509191787719725,5.606023187255859
1789635555354831000,1.0758310546875,-3.730315824127197,-6.302436595153808,5.185541520690918
1789635555364871000,1.085870849609375,-3.5606267814636228,-5.521178665924072,4.7295957420349115
1789635555374910700,1.09591064453125,-2.9644705680847165,-5.782745197296142,4.78825368270874
1789635555384950800,1.10595068359375,-3.3054946670532224,-6.97790073852539,4.389619106292725
1789635555394990800,1.115990966796875,-3.8717233596801757,-6.44174920425415,3.370287749481201
1789635555405031000,1.126031005859375,-4.228459407043457,-8.581417300415039,-0.18570026626586913
1789635555415069700,1.136069580078125,-3.211971164703369,-7.227945174407958,-0.11417349166870117
1789635555425109800,1.14610986328125,-1.8546084609985352,-4.65402875213623,0.8901941047668457
1789635555435149800,1.15614990234375,-1.444152513885498,-2.728492066955566,0.9368810371398926
1789635555445190000,1.16618994140625,-2.3039701850891112,-4.57741429901123,1.3862427612304686
1789635555455229700,1.176229736328125,-3.3304841468811035,-6.171054779052734,2.246658982849121
1789635555465269800,1.186269775390625,-3.886687120056152,-7.15671767501831,3.9641993988037107
1789635555475309800,1.196309814453125,-2.680757671356201,-7.29079296798706,4.97365467376709
1789635555485350000,1.206349853515625,-5.580135881805419,-7.513453722381591,5.714510449981689
1789635555495389000,1.216388916015625,-8.149712813568115,-2.3732523956298825,2.8947394447326658
1789635555505428700,1.2264287109375,-3.505410505676269,-3.6655227416992187,0.6851905876159667
1789635555515468800,1.23646875,-1.652896971130371,-10.103531005859374,3.253271143341064
1789635555525508900,1.2465087890625,-5.723039793395996,-6.858190655517578,7.274183193969726
1789635555535549000,1.256548828125,-8.451531860351562,-7.295431733703613,3.792864342498779
1789635555545589000,1.266589111328125,-5.89242956085205,-9.275586144256591,0.8101379867553711
1789635555555628800,1.27662890625,-2.4007857147216796,-8.566004627227782,1.9117700256347656
1789635555565668900,1.2866689453125,-0.6868366012573242,-9.313594095611572,5.097704247283935
1789635555575708000,1.2967080078125,-3.331980522918701,-11.956792728424071,8.766668653869628
1789635555585748000,1.306748046875,-5.380668955993652,-13.437307180023193,10.34205334625244
1789635555595787800,1.316787841796875,-4.808754034423828,-13.587692971801758,7.299172673797607
1789635555605827800,1.326827880859375,-4.581454514312744,-9.984419473266602,3.715052788543701
1789635555615868000,1.336867919921875,-5.710619872283935,-7.562834131622314,2.639906605529785
1789635555625908000,1.346907958984375,-5.237465769195556,-5.558288791656494,4.123713084411621
1789635555635948000,1.356947998046875,-3.85616104888916,-6.040570788574218,2.0081366424560545
1789635555645986800,1.36698681640625,-6.890811653137207,-16.348806036376953,1.368735161590576
1789635555656027000,1.37702685546875,-6.4266358062744136,-15.090204151153564,2.018162361907959
1789635555666067000,1.38706689453125,-4.949862294769287,-12.684330757904052,1.3346177879333496
1789635555676107000,1.39710693359375,-3.6611832511901854,-13.321338037109374,-1.123030216217041
1789635555686147000,1.40714697265625,-1.449838742828369,-12.690316262054443,-2.4105121589660645
1789635555696187000,1.417186767578125,-2.3503578422546387,-12.45613341217041,-2.0144214218139647
1789635555706227000,1.42722705078125,-4.637718253326415,-10.441113439941406,0.07422025146484375
1789635555716266800,1.437266845703125,-6.472125637817382,-8.463802143859862,1.0896610305786132
1789635555726306000,1.44730615234375,-6.595277385711669,-8.220491400146484,0.3842693664550781
1789635555736345900,1.457345947265625,-6.158036307525634,-9.279027809143066,-0.7897872726440429
1789635555746386000,1.467385986328125,-5.7332151504516595,-10.600627125549316,-1.6255132896423339
1789635555756426000,1.477426025390625,-5.880608190155029,-10.656591589355468,-2.627636322021484
1789635555766465800,1.4874658203125,-5.543025756072998,-10.969483818817139,-1.8478747688293455
1789635555776505900,1.497505859375,-5.237316131591797,-10.580874961853027,-0.816572403717041
1789635555786546000,1.5075458984375,-5.326649781036377,-9.433902729034424,-0.34656069030761716
1789635555796585700,1.517585693359375,-5.013907189178466,-8.384045301055908,0.2753331909179687
1789635555806624800,1.527624755859375,-4.843619596099853,-7.932887925720214,-0.229843359375
1789635555816664800,1.537664794921875,-3.8353614219665526,-9.045443509674072,-0.2614168937683105
1789635555826705000,1.547704833984375,-4.511873028564453,-8.445845631408691,1.2304700157165527
1789635555836744700,1.55774462890625,-4.965574243164062,-8.642619080352782,1.3453916954040526
1789635555846784800,1.56778466796875,-5.635352157592773,-8.317755842590332,1.1363479629516602
1789635555856824800,1.577824951171875,-6.405387266540527,-8.118438554382324,0.3532943824768066
1789635555866865000,1.587864990234375,-6.584353840637207,-7.050026063537597,0.9412205276489257
1789635555876905000,1.597905029296875,-4.944475341033935,-5.910086798095703,2.3307553161621093
1789635555886943700,1.60794384765625,-3.704727793884277,-6.506243011474609,1.688660358428955
1789635555896983800,1.61798388671875,-3.745578859710693,-7.574954777526855,0.999130280303955
1789635555907024000,1.62802392578125,-3.73480495223999,-7.755268090057372,0.7459434547424316
1789635555917064000,1.63806396484375,-5.034108265686035,-7.723544918060302,0.36107553787231444
1789635555927103700,1.648103759765625,-4.988618434143066,-7.377582778167724,0.29074586410522457
1789635555937143800,1.658143798828125,-5.0291702247619625,-7.416937467956543,0.6355109031677245
1789635555947183900,1.668183837890625,-5.800701709747314,-7.620743884277343,0.7107786178588866
1789635555957224000,1.678223876953125,-5.687575681304931,-7.576301515960693,1.1071686302185058
1789635555967263000,1.688262939453125,-5.163395155334472,-8.545803550720214,0.42661680831909177
1789635555977302800,1.698302734375,-5.888838258361816,-9.567828384399414,0.0743698890686035
1789635555987342800,1.7083427734375,-6.237044962310791,-9.803058697509766,0.21188684692382811
1789635555997383000,1.7183828125,-6.001665011596679,-9.9721491897583,-0.06733692169189452
1789635556007423000,1.728423095703125,-5.957821193695068,-9.80006594543457,-0.23074118499755858
1789635556017463000,1.738463134765625,-4.4285248832702635,-9.513659571838378,-0.5811924530029297
1789635556027502800,1.7485029296875,-4.553023369598389,-10.139144755554199,-1.285835929107666
1789635556037543000,1.75854296875,-5.089474179077148,-10.752808568572997,-0.9757868141174316
1789635556047582000,1.76858203125,-4.776731587219238,-11.132738444519042,-0.3525461944580078
1789635556057622000,1.7786220703125,-5.049371301269531,-11.476007107543944,0.05626373901367187
1789635556067661800,1.788661865234375,-6.001814649200439,-11.435455316925049,-1.31516489944458
1789635556077702000,1.798701904296875,-6.675333503723144,-7.074566630554199,-1.682225941467285
1789635556087742000,1.808741943359375,-6.033837096405029,-1.886630908203125,1.0773907470703123
1789635556097782000,1.818781982421875,-5.717802477264404,1.482459740447998,4.223072453308105
1789635556107821800,1.82882177734375,-4.488978475189208,0.02528875503540039,4.553322644805908
1789635556117862000,1.83886181640625,-3.7831378982543944,-4.758176524353027,0.8870517150878906
1789635556127901000,1.84890087890625,-2.360682836914062,-9.077465956878662,-0.5470750793457031
1789635556137941000,1.85894091796875,-3.4235587364196776,-12.269236045074463,0.2275987953186035
1789635556147981000,1.86898095703125,-4.564545465087891,-12.239757437133788,0.7564180870056152
1789635556158020900,1.879020751953125,-5.268590390777588,-10.413580120849609,0.715716658782959
1789635556168060700,1.889060791015625,-4.8883612396240235,-8.879794682312012,0.6232406196594238
1789635556178100700,1.899100830078125,-4.574870459747314,-8.291718899536132,0.31393969268798827
1789635556188140800,1.909140869140625,-4.8904561660766594,-7.76319888305664,0.13033435287475587
1789635556198180900,1.919180908203125,-4.723759875488281,-8.008305278015136,0.36272155151367186
1789635556208221000,1.929220947265625,-4.317942694091797,-8.22961929397583,0.5732616600036621
1789635556218259700,1.939259765625,-4.088847522735596,-8.213757707977294,0.5153519073486328
1789635556228299800,1.9492998046875,-3.8085762908935545,-8.361001110076904,0.3651157531738281
1789635556238339800,1.95933984375,-3.3979707061767574,-8.805873706054687,0.13123217849731444
1789635556248380000,1.9693798828125,-3.3066917678833008,-9.404873033905028,-0.2593219673156738
1789635556258420000,1.979419921875,-3.6180876213073727,-9.622296472167967,-0.7257423782348632
1789635556268459800,1.989459716796875,-4.0638580429077145,-9.435548742675781,-0.9934440513610839
1789635556278499800,1.999499755859375,-4.472967251586914,-9.134627521514892,-0.9982324546813964
1789635556288540000,2.009539794921875,-4.64145919342041,-9.077316319274901,-0.8611644096374511
1789635556298579000,2.019578857421875,-4.571578432464599,-9.126846366119384,-0.7559691741943358
1789635556308618800,2.02961865234375,-4.594472985839843,-9.129090930175781,-0.6691793640136718
1789635556318658300,2.039658203125,-4.697124382019043,-9.05935980682373,-0.619948592376709
1789635556328698400,2.049698486328125,-4.798877952575683,-9.013570700073242,-0.45774142990112304
1789635556338738400,2.059738525390625,-4.731840306091308,-8.885331273651122,-0.12898761444091797
1789635556348778500,2.069778564453125,-4.413112210083008,-8.698134631347656,0.20545242996215818
1789635556358818300,2.079818359375,-4.140322858428955,-8.636035025787352,0.4255693450927734
1789635556368858400,2.0898583984375,-4.089146797943115,-8.812008847808837,0.16909049224853515
1789635556378897400,2.0998974609375,-4.3430818115234375,-9.023746057128905,-0.3625719139099121
1789635556388937500,2.1099375,-4.483741159057617,-9.173982211303711,-0.6350619903564453
1789635556398977300,2.119977294921875,-3.9092823982238767,-9.479691835784912,-0.5470750793457031
1789635556409017300,2.130017333984375,-3.348440659332275,-9.61406640396118,-0.9389759635925292
1789635556419057400,2.140057373046875,-3.5577836669921874,-9.540743978118895,-0.8420107963562011
1789635556429097500,2.150097412109375,-4.043956241607666,-9.482534950256348,-0.7249941902160644
1789635556439137500,2.160137451171875,-4.619612103271484,-8.772803795623778,-0.5581482620239258
1789635556449177300,2.17017724609375,-5.234323379516601,-8.36339531173706,0.21263503494262695
1789635556459217400,2.180217529296875,-5.416282705688476,-8.216002272033691,1.163881282043457
1789635556469256400,2.19025634765625,-4.976198513031005,-7.876624186706542,2.1187188316345216
1789635556479296500,2.200296630859375,-4.451569074249267,-7.677456536102294,3.292476195526123
1789635556489336600,2.210336669921875,-4.189553630065918,-7.902062579345703,3.6682162185668945
1789635556499376400,2.22037646484375,-4.266916271209716,-8.145373323059081,3.1733646629333494
1789635556509416400,2.23041650390625,-4.572476258087158,-8.51707313079834,2.583942141723633
1789635556519456500,2.24045654296875,-4.764760578918457,-8.801384577941894,2.093430076599121
1789635556529496300,2.250496337890625,-5.020790518951416,-8.945485590362548,1.9672855766296387
1789635556539536400,2.260536376953125,-4.702660973358154,-8.953117108154297,1.3497311859130858
1789635556549575400,2.270575439453125,-4.562749813842773,-9.349956033325196,0.5615899269104003
1789635556559615500,2.280615478515625,-4.7664065925598145,-9.699958388519287,0.430956298828125
1789635556569655300,2.2906552734375,-4.857386255645752,-9.612869303131102,-0.05850830307006836
1789635556579695400,2.3006953125,-5.168782109069824,-9.31464155883789,-0.4752490295410156
1789635556589735200,2.310735107421875,-5.415534517669677,-8.974515285491943,-0.21009119567871093
1789635556599775200,2.320775146484375,-4.951807583618164,-8.480262280273436,0.16445172653198242
1789635556609815300,2.330815185546875,-4.331110803222656,-8.285284482574463,0.3356371452331543
1789635556619855400,2.34085546875,-3.7261259712219235,-8.468889822387695,0.17821838607788085
1789635556629895400,2.3508955078125,-3.231274415588379,-8.819341090393065,-0.3983353012084961
1789635556639934200,2.360934326171875,-3.200598706817627,-9.096918845367432,-1.0983400115966797
1789635556649974300,2.370974365234375,-3.681982878112793,-9.066692049407958,-1.5553332534790039
1789635556660014300,2.381014404296875,-4.225017742156982,-8.913014230346679,-1.3447931449890136
1789635556670054400,2.391054443359375,-4.6718356269836425,-8.75948604888916,-0.5699696327209473
1789635556680094500,2.401094482421875,-4.817433015441894,-8.456320263671875,0.12285247268676758
1789635556690134300,2.41113427734375,-4.709693940734863,-7.94246473236084,0.6747159553527832
1789635556700174300,2.42117431640625,-4.758775074768066,-7.5917141891479485,1.0140940406799315
1789635556710214400,2.43121435546875,-4.718522559356689,-8.220641037750244,1.1993453941345213
1789635556720253400,2.44125341796875,-4.452915812683105,-9.527426231384277,1.4704887321472166
1789635556730293200,2.451293212890625,-4.28981082458496,-10.349684864044189,1.6268600280761718
1789635556740333300,2.461333251953125,-3.951180927276611,-10.33606784210205,0.9482534950256347
1789635556750373400,2.471373291015625,-3.7529111022949215,-9.801113408660887,-0.18944120635986328
1789635556760413400,2.481413330078125,-3.873219735717773,-8.353818505096434,-0.4080617454528808
1789635556770453500,2.49145361328125,-3.7421371948242186,-7.416787830352782,-0.6766612442016601
1789635556780493300,2.501493408203125,-4.378097010803223,-7.558644278717041,-0.18136077575683593
1789635556790533400,2.511533447265625,-4.796034838104248,-8.527398125457763,0.632667788696289
1789635556800573400,2.521573486328125,-4.751742107391357,-9.47475379486084,1.506102481842041
1789635556810612500,2.531612548828125,-4.543895475769043,-9.643844287109374,1.652298420715332
1789635556820652500,2.541652587890625,-4.004751189422607,-9.020005117034911,0.9533411735534667
1789635556830692400,2.5516923828125,-3.9659950500488277,-8.446893094635008,0.6209960556030273
1789635556840732400,2.561732421875,-4.248959758758545,-7.887398094177246,0.5874772323608398
1789635556850772500,2.5717724609375,-4.372410781860351,-7.783848872375488,0.8891466415405272
1789635556860812500,2.5818125,-4.597765013122558,-8.156596143341064,1.3226467796325683
1789635556870852400,2.591852294921875,-5.1702784851074215,-8.637531401824951,1.9128174888610838
1789635556880892200,2.60189208984375,-5.611110865783691,-8.692598040008544,2.684049698638916
1789635556890931500,2.611931396484375,-5.569062699127197,-8.504802847290039,3.105429190826416
1789635556900971500,2.621971435546875,-5.1602527656555175,-8.199991048431396,2.7256489524841307
1789635556911011600,2.632011474609375,-4.913949269866943,-8.040926275634765,1.604414387512207
1789635556921051100,2.642051025390625,-4.905419926452637,-8.028506354522705,0.38801030654907226
1789635556931091200,2.65209130859375,-4.940435125732422,-8.251765659332275,-0.45025954971313475
1789635556941131300,2.66213134765625,-4.895843119812011,-8.749460329437255,-0.5051765502929687
1789635556951171300,2.67217138671875,-4.704755899810791,-9.420285707092285,0.008828618621826172
1789635556961211400,2.68221142578125,-4.2226235404968255,-9.904662630462646,0.5093664031982421
1789635556971251500,2.69225146484375,-3.90060341720581,-10.135553453063965,0.6690297264099121
1789635556981290200,2.702290283203125,-4.216338761138916,-10.164732785797119,0.539443561553955
1789635556991330300,2.712330322265625,-4.789750058746337,-9.846453602600096,0.27249007644653317
1789635557001370400,2.722370361328125,-5.141398427581787,-9.337985025024414,0.19003975677490234
1789635557011410400,2.732410400390625,-4.901529348754883,-8.809165733337402,0.2876034744262695
1789635557021450200,2.7424501953125,-4.234444911193847,-8.259546814727782,0.45938744354248046
1789635557031490300,2.752490234375,-3.5708021385192867,-7.770830400848388,0.5015852478027344
1789635557041530400,2.7625302734375,-3.0418332092285154,-7.611615990447998,0.3541922080993652
1789635557051570400,2.7725703125,-2.6222493682861328,-7.894131786346435,0.37888241271972656
1789635557061610500,2.782610595703125,-2.7320833694458004,-8.311321425628662,1.011849476623535
1789635557071649300,2.792649169921875,-3.075800945281982,-8.635735750579833,1.877652651977539
1789635557081689300,2.802689453125,-3.3259950187683103,-8.863633821105957,2.3569418968200684
1789635557091729400,2.8127294921875,-3.6489129676818846,-8.955960222625732,2.3249194496154786
1789635557101769500,2.82276953125,-4.159775746917725,-9.022249681091308,1.9882348411560058
1789635557111809500,2.8328095703125,-4.659864618682861,-9.202114080810546,1.5958850440979002
1789635557121849300,2.842849365234375,-4.631732749176025,-9.374197325134277,1.3037924415588378
1789635557131889400,2.852889404296875,-4.083161293792724,-9.324517640686034,1.0088567245483397
1789635557141929500,2.862929443359375,-3.688267657470703,-9.079710520935057,0.6649895111083984
1789635557151969500,2.872969482421875,-3.852719384002685,-8.856451216125487,0.3678092300415039
1789635557162008300,2.88300830078125,-4.419546627044677,-8.747664678192137,0.1283890640258789
1789635557172048400,2.89304833984375,-4.9549499732971185,-8.756942209625244,0.1883937431335449
1789635557182088400,2.90308837890625,-5.358223315429687,-8.734945481872558,0.510114591217041
1789635557192128500,2.91312841796875,-5.47149898147583,-8.623914379882812,0.9900023864746094
1789635557202168600,2.92316845703125,-5.08214193649292,-8.536526019287109,1.4615104759216309
1789635557212208400,2.93320849609375,-4.321533996582031,-8.578424548339843,1.8445827415466307
1789635557222248200,2.943248291015625,-3.483862690734863,-8.686013985443115,1.9259855979919434
1789635557232288300,2.953288330078125,-3.024325609588623,-8.926930527496337,1.862988166809082
1789635557242328300,2.963328369140625,-3.2290298515319824,-9.351302771759032,1.670853483581543
1789635557252367400,2.973367431640625,-3.750816175842285,-9.86381156463623,1.4745289474487304
1789635557262407400,2.983407470703125,-4.477306742095947,-10.27262149810791,1.3832500091552733
1789635557272447200,2.993447265625,-4.969614458465576,-10.435127935791016,1.3211504035949706
1789635557282487300,3.0034873046875,-5.287295091247558,-10.294767863464354,1.1061211669921875
1789635557292527400,3.01352734375,-5.1219455390930175,-10.141090044403075,0.7838017684936524
1789635557302567400,3.0235673828125,-4.177582621765136,-9.806949275207518,0.3597287994384765
1789635557312607200,3.033607177734375,-3.246986363983154,-9.457994383239745,-0.017357962036132813
1789635557322647800,3.043647705078125,-2.7549779228210447,-9.2190231300354,-0.018555062866210937
1789635557332688000,3.05368798828125,-2.622099730682373,-9.432855265808104,0.40626609420776366
1789635557342727000,3.063726806640625,-2.6505308753967283,-10.006715476226805,0.7549217109680175
1789635557352766700,3.0737666015625,-3.188777336120605,-10.436624311828613,0.3462614151000976
1789635557362806800,3.083806884765625,-4.050839571380615,-10.222343263244628,-0.0618003303527832
1789635557372846800,3.093846923828125,-4.764461303710937,-9.473257418823241,0.14829086532592772
1789635557382887000,3.103886962890625,-5.484816728210449,-8.57348650741577,0.7921814743041992
1789635557392927000,3.113927001953125,-6.152499716186523,-8.149862451171874,1.4321815055847167
1789635557402966800,3.123966796875,-6.4095771194458,-8.329876488494872,1.7507599639892577
1789635557413006800,3.1340068359375,-6.245125392913818,-8.702923034667968,1.5984288833618163
1789635557423046000,3.1440458984375,-6.114940677642822,-9.02808554763794,1.5870564254760742
1789635557433086000,3.1540859375,-5.941361057281494,-9.105148913574219,1.8321628204345701
1789635557443125800,3.164125732421875,-5.166387907409668,-9.013421062469481,1.893514237976074
1789635557453165800,3.174165771484375,-4.2603322166442865,-8.903287786102295,1.8445827415466307
1789635557463206000,3.184205810546875,-4.297292704772949,-8.829666085052489,2.1453543251037597
1789635557473246000,3.194245849609375,-4.900332247924805,-8.61329011001587,2.7259482276916502
1789635557483286000,3.2042861328125,-5.110722718811035,-8.435370999145507,2.9064111778259276
1789635557493325800,3.214325927734375,-5.026327110290527,-8.526350662231446,2.3956980361938474
1789635557503365600,3.22436572265625,-4.939387662506103,-8.607154968261717,1.60246909866333
1789635557513405000,3.234405029296875,-4.98023872833252,-8.514080378723143,0.7996633544921875
1789635557523445000,3.244445068359375,-5.250484240722656,-8.410082244110107,0.3489548919677734
1789635557533485000,3.254485107421875,-5.593154353332519,-8.377012333679199,0.18106150054931638
1789635557543524900,3.26452490234375,-6.121674369812012,-8.41487064743042,0.4125508735656738
1789635557553564700,3.274564697265625,-6.6522893127441405,-8.551938692474364,0.9675567459106444
1789635557563604700,3.284604736328125,-7.012766300201416,-8.68257232055664,1.5716437522888183
1789635557573644800,3.294644775390625,-7.26520493774414,-8.723273748779297,2.079813054656982
1789635557583684900,3.304684814453125,-6.8779428192138665,-8.546851013946533,2.085349645996094
1789635557593724700,3.314724609375,-6.504148085021972,-8.18412946243286,1.829020430755615
1789635557603764700,3.3247646484375,-6.759878749847411,-8.035988234710693,1.6383821235656737
1789635557613803800,3.3348037109375,-6.375160470581054,-8.097190014648437,1.4876970565795897
1789635557623843800,3.34484375,-5.659743087005615,-8.221838138580322,1.4254478134155273
1789635557633883600,3.354883544921875,-5.137507849884033,-8.536526019287109,1.4490905548095703
1789635557643923700,3.364923828125,-4.895543844604492,-8.89386061706543,1.4872481437683105
1789635557653963800,3.3749638671875,-4.986673145294189,-9.165602505493164,1.29601128616333
1789635557664003800,3.38500390625,-5.6112605033874505,-9.271845204162597,0.7691372833251953
1789635557674044000,3.3950439453125,-6.48664048538208,-9.14225903930664,0.06464344482421874
1789635557684084000,3.405083984375,-7.408258486938476,-8.315960191345214,-0.5811924530029297
1789635557694123800,3.415123779296875,-8.064718654632568,-7.865700641632079,-1.0639233627319336
1789635557704162800,3.425162841796875,-8.508394149780273,-7.955483203887939,-1.1034276901245117
1789635557714203000,3.435202880859375,-8.153304116058349,-8.123526232910155,-0.27398645248413084
1789635557724243000,3.445242919921875,-7.18230570526123,-7.911489748382568,0.8879495407104492
1789635557734282800,3.45528271484375,-6.287472834777832,-7.958027043151855,1.7215806312561035
1789635557744322800,3.46532275390625,-5.9023056427001945,-8.240692476654052,2.148197439575195
1789635557754363000,3.47536279296875,-6.188562378692627,-8.271068910217284,2.123357597351074
1789635557764403000,3.48540283203125,-6.556521246337891,-7.936179953002929,1.7618331466674804
1789635557774443000,3.495443115234375,-6.993163774108886,-7.360075178527832,1.0324994659423827
1789635557784482800,3.50548291015625,-7.5722613006591795,-6.873004778289794,0.30735563812255856
1789635557794521900,3.51552197265625,-8.249970008087157,-6.650792936706543,0.009576806640625
1789635557804562000,3.52556201171875,-8.344840248870849,-6.819284878540039,0.26485855865478514
1789635557814602000,3.53560205078125,-7.496544673156738,-7.185298457336425,0.5410895751953124
1789635557824642000,3.54564208984375,-6.891410203552246,-7.345261055755615,0.5954080253601074
1789635557834681900,3.555681884765625,-6.673537852478027,-7.155969486999512,0.5672761558532714
1789635557844722000,3.565721923828125,-6.713640730285644,-6.471078174591064,0.4860229370117187
1789635557854761700,3.57576171875,-7.133374208831786,-5.653757582855224,0.2855085479736328
1789635557864801800,3.5858017578125,-7.516446474456787,-5.019593418121338,0.1728314323425293
1789635557874841900,3.595841796875,-7.810185090637207,-4.816235914611816,0.13437456817626953
1789635557884881700,3.605881591796875,-7.851036156463622,-4.98592495727539,0.05237316131591797
1789635557894920700,3.615920654296875,-7.6231380859375,-5.284900889587402,-0.22969372177124023
1789635557904960800,3.625960693359375,-7.643638437652587,-5.3205146392822265,-0.3945943611145019
1789635557915000800,3.636000732421875,-8.043320477294921,-5.183446594238281,-0.36810850524902344
1789635557925040600,3.64604052734375,-8.12636934738159,-5.149329220581055,-0.42287586822509765
1789635557935080700,3.656080810546875,-7.603385922241211,-5.0766053451538085,-0.4709095390319824
1789635557945120800,3.666120849609375,-7.004386594390868,-4.6815620712280275,-0.31184476623535157
1789635557955160800,3.676160888671875,-6.9330094573974606,-4.091989912414551,0.1452981132507324
1789635557965201000,3.686200927734375,-7.4305544898986815,-3.662081076812744,0.4927566291809082
1789635557975241000,3.696240966796875,-8.294861289215087,-3.887584945678711,0.371550170135498
1789635557985279700,3.70627978515625,-9.018957653808593,-4.739621461486816,-0.1452981132507324
1789635557995319800,3.71631982421875,-9.46816974029541,-5.464166738891601,-0.52986675491333
1789635558005359900,3.72635986328125,-8.74018279800415,-5.846640454101562,-1.1987468437194824
1789635558015400000,3.73639990234375,-8.08955849685669,-5.533897862243652,-1.6608277641296385
1789635558025439700,3.746439697265625,-8.005162888336182,-5.059247383117675,-0.7092822418212891
1789635558035479800,3.756479736328125,-7.935431764984131,-4.8515503890991205,0.22655133209228515
1789635558045520000,3.766519775390625,-7.686883705139159,-4.581454514312744,0.3794809631347656
1789635558055560000,3.776559814453125,-7.465120776367187,-3.821594762420654,-0.5448305152893066
1789635558065600000,3.78660009765625,-8.462156130218505,-2.7829601547241207,-1.290325057220459
1789635558075639800,3.796639892578125,-9.470863217163085,-2.45794727935791,-1.2412439231872558
1789635558085678800,3.806678955078125,-9.50677624206543,-3.1850363960266113,-1.1547533882141112
1789635558095719000,3.816718994140625,-8.862287082672118,-4.2329485351562495,-0.8406640579223632
1789635558105759000,3.826759033203125,-7.563432682037353,-5.111021994018555,-0.5096656784057617
1789635558115799000,3.836799072265625,-6.930016705322266,-4.490474851226806,-1.1770493911743163
1789635558125838800,3.8468388671875,-8.748113591003417,-3.0597897216796874,-0.6248866333007812
1789635558135879000,3.85687890625,-9.42926396331787,-3.4109891777038572,0.09666589202880858
1789635558145918700,3.866918701171875,-8.831910649108886,-4.069095359039307,-0.9956886154174804
1789635558155958800,3.876958740234375,-7.806893063354492,-3.778050219726562,-2.1710919929504393
1789635558165998800,3.886998779296875,-7.550563848114013,-3.1380501884460448,-1.9844939010620115
1789635558176038000,3.897037841796875,-7.77621735458374,-2.7908909477233883,-1.2440870376586914
1789635558186078000,3.907077880859375,-8.271667460632324,-2.4531588760375973,-0.9347861106872558
1789635558196117800,3.91711767578125,-9.017760552978515,-2.316240468597412,-0.6950666694641113
1789635558206157800,3.92715771484375,-9.567080196380614,-2.3644237770080565,-0.723348176574707
1789635558216197600,3.93719775390625,-10.122534981536864,-2.5426421630859375,-1.0223241088867188
1789635558226237700,3.94723779296875,-10.364349349212645,-3.2653917892456055,-0.7356184600830078
1789635558236277800,3.95727783203125,-9.317634310913085,-4.364629626464843,-0.9615712417602539
1789635558246317800,3.96731787109375,-7.849240505218505,-4.457554578399658,-0.9566332008361815
1789635558256358000,3.97735791015625,-7.946654585266113,-3.504363042449951,-0.7975684280395507
1789635558266397700,3.987397705078125,-8.42160433959961,-1.2373533454895018,-1.7426795333862304
1789635558276436700,3.997436767578125,-9.447669388580321,-0.07841010437011718,-1.9343653038024902
1789635558286476800,4.007476806640625,-8.423848903656005,-1.0459668502807618,-1.5005658905029295
1789635558296516900,4.017516845703125,-6.482600270080566,-2.3632266761779785,-1.4776713371276855
1789635558306557000,4.027556884765625,-5.900360353851318,-2.2704513618469235,-1.753154165649414
1789635558316596700,4.0375966796875,-6.70975015258789,-0.5487210929870605,-2.537255209350586
1789635558326636800,4.04763671875,-7.522581616210937,0.5499181938171387,-3.2459389007568356
1789635558336676600,4.057676513671875,-7.640346410369872,-0.09831190567016601,-3.974674031066894
1789635558346716700,4.067716552734375,-6.843077257537842,-1.2511200050354003,-3.755155666351318
1789635558356756700,4.0777568359375,-5.872228484344482,-1.4645032279968262,-2.3766940605163573
1789635558366796800,4.087796875,-5.904849481964111,-1.0550947441101073,-0.8283937744140625
1789635558376835800,4.0978359375,-7.022043831634521,-0.0430956298828125,0.43409868850708005
1789635558386875600,4.107875732421875,-9.735123225402832,1.575683967590332,0.74699091796875
1789635558396915700,4.117915771484375,-11.727398281860351,1.0676643028259276,0.3434183006286621
1789635558406955800,4.127955810546875,-10.847678809356688,-1.2229881355285643,0.28101941986083984
1789635558416995800,4.137995849609375,-8.506897773742676,-2.384026303100586,-0.2237082176208496
1789635558427036000,4.148035888671875,-5.812822355651855,-1.662473777770996,0.017657237243652344
1789635558437075700,4.15807568359375,-5.817910034179687,-0.9516951599121093,0.34386721343994137
1789635558447115800,4.16811572265625,-8.538920220947265,-0.3956418243408203,0.1785176612854004
1789635558457155600,4.178155517578125,-12.287791107940674,0.023343466186523436,-0.0953191535949707
1789635558467195600,4.188195556640625,-14.784943439483643,-0.943614729309082,-0.9222165519714355
1789635558477234700,4.198234619140625,-15.611391925048828,-2.0747253761291504,-1.4740800346374512
1789635558487274800,4.208274658203125,-15.696535721588134,-2.483984222412109,-1.2594997108459471
1789635558497314800,4.218314697265625,-14.698303266906738,-4.173841681671142,-1.8020856620788572
1789635558507354600,4.228354736328125,-15.034538962554931,-6.144419285583496,-1.760785683441162
1789635558517394700,4.238394775390625,-16.435446208953856,-5.191527024841308,-0.40626609420776366
1789635558527434800,4.248434814453125,-17.679832521820067,-2.935590510559082,-0.10130465774536132
1789635558537474600,4.258474609375,-15.048305622100829,-1.8139070327758788,-1.3778630554199218
1789635558547514600,4.2685146484375,-8.419808688354491,-0.8728361427307129,-1.6692074699401855
1789635558557554700,4.2785546875,-3.3405098663330075,0.4670189613342285,0.20051438903808594
1789635558567594800,4.2885947265625,-2.0982184799194337,1.171512799835205,0.9268553176879882
1789635558577633500,4.298633544921875,-5.332784922790527,0.6561608924865723,-1.3631985702514648
1789635558587673600,4.308673583984375,-6.449081446838378,0.7184101356506347,-4.714631981658935
1789635558597713700,4.318713623046875,-5.73336478805542,1.5650596977233886,-5.0942625823974605
1789635558607753700,4.328753662109375,-7.127239067077636,1.2883797683715819,-2.203114440155029
1789635558617793800,4.338793701171875,-8.655338276672362,-0.87463179397583,0.8303390632629394
1789635558627833600,4.34883349609375,-8.448090195465088,-3.1766566902160642,2.6431986328124997
1789635558637873700,4.358873779296875,-8.170213165283203,-4.065504056549072,2.9640216552734375
1789635558647913700,4.368913818359375,-7.309647306060791,-3.3355718254089353,1.0664672019958497
1789635558657953800,4.378953857421875,-6.412719509124756,-0.9035118515014647,-1.202188508605957
1789635558667993900,4.388993896484375,-7.809436902618407,1.701978105163574,-2.1363760688781737
1789635558678032600,4.39903271484375,-9.182212279510498,2.53471137008667,-1.2131120536804199
1789635558688072700,4.40907275390625,-9.330802420043945,1.3742717529296875,0.8251017471313477
1789635558698112800,4.41911279296875,-8.412027532958984,-0.8990227233886718,2.268805348205566
1789635558708152800,4.42915283203125,-8.629899884033202,-2.7023054862976075,1.2665326782226562
1789635558718193000,4.43919287109375,-10.387842453002929,-3.152714673614502,-0.4944026428222656
1789635558728232700,4.449232666015625,-11.092635566711426,-2.5056816749572755,-1.1706149742126464
1789635558738272800,4.459272705078125,-10.68128179397583,-1.7679682884216308,-0.8698433906555175
1789635558748312800,4.469312744140625,-11.10296056137085,-1.5483002861022948,-0.9971849914550781
1789635558758352600,4.4793525390625,-11.180173564910888,-1.7489643127441405,-1.243638124847412
1789635558768392700,4.489392822265625,-9.408464336395262,-1.993172882080078,-0.977432827758789
1789635558778431700,4.499431640625,-7.9548846534729,-2.148945627593994,-0.9751882637023925
1789635558788471800,4.509471923828125,-9.031527212524413,-2.244264781188965,-1.6442179901123046
1789635558798511600,4.51951171875,-10.3299327003479,-2.5629928771972654,-1.6539444343566894
1789635558808551700,4.5295517578125,-9.224110808563232,-3.386298973083496,-0.8155249404907227
1789635558818591500,4.539591552734375,-8.413074996185303,-3.649810793304443,-0.3877110313415527
1789635558828631600,4.549631591796875,-8.642469442749023,-3.1753099517822263,-0.3274070770263672
1789635558838671600,4.559671630859375,-7.940220168304443,-2.6134207496643067,-0.3312976547241211
1789635558848711700,4.569711669921875,-7.306205641174316,-2.0014029502868653,-0.6949170318603515
1789635558858751700,4.579751708984375,-7.123498126983642,-1.1043255157470702,-1.167622222137451
1789635558868791800,4.589791748046875,-7.728333321380615,-0.24046762924194334,-0.8702923034667969
1789635558878830600,4.59983056640625,-8.756493296813964,-0.24839842224121092,0.6792050834655762
1789635558888870700,4.60987060546875,-8.67658681640625,-1.753752716064453,2.3786393493652342
1789635558898910700,4.61991064453125,-8.120084568023682,-4.170699291992188,2.1888988677978514
1789635558908950800,4.62995068359375,-9.80021558303833,-5.557989516448974,0.670975015258789
1789635558918990600,4.639990478515625,-12.236315772247314,-5.654805046081543,0.22355858001708984
1789635558929030700,4.65003076171875,-13.361291277313232,-5.500977589416504,0.5211877738952636
1789635558939070700,4.66007080078125,-12.778303173065185,-5.105784677886962,1.3781623306274413
1789635558949110800,4.67011083984375,-10.378265646362305,-4.887912326812744,2.035221048736572
1789635558959150800,4.68015087890625,-7.893982148742675,-4.423437204742432,1.5527894142150878
1789635558969190700,4.690190673828125,-7.250241177368164,-3.3897406379699704,0.2079962692260742
1789635558979229700,4.700229736328125,-7.8912886718749995,-2.005892078399658,-0.7026981872558593
1789635558989269800,4.710269775390625,-8.0184806350708,-1.064821188354492,-0.5663783302307128
1789635558999309800,4.720309814453125,-7.637503295898437,-1.3218985916137695,0.23044190979003906
1789635559009350000,4.730349853515625,-7.659649661254883,-2.9792846908569333,0.611568886566162
1789635559019389700,4.7403896484375,-8.885780186462402,-5.222801284027099,0.3265092514038086
1789635559029429800,4.7504296875,-9.513809209442138,-6.529885752868652,0.5533598587036133
1789635559039469800,4.7604697265625,-8.316858016967773,-6.681019732666015,0.5669768806457519
1789635559049510000,4.770510009765625,-7.724293106079101,-5.77750788116455,0.16864157943725586
1789635559059549700,4.7805498046875,-7.775319528961181,-4.972457572937011,-0.28266543350219725
1789635559069589500,4.790589599609375,-8.211513143920898,-4.589684582519531,-0.6212953308105469
1789635559079628800,4.80062890625,-9.183259742736816,-4.4002433761596675,-0.39145197143554683
1789635559089668900,4.8106689453125,-8.91885009689331,-4.687697212982178,0.4676175117492676
1789635559099708700,4.820708740234375,-7.787589812469482,-5.4707507934570305,1.0901099433898924
1789635559109748500,4.83074853515625,-7.808987989807129,-6.060921502685546,1.1474211456298828
1789635559119788500,4.84078857421875,-7.9761331932067865,-6.02635521621704,1.2427402992248535
1789635559129828600,4.85082861328125,-7.576002240753174,-5.697152487945556,1.3516764747619627
1789635559139868700,4.86086865234375,-7.439832021331787,-5.401618220520019,0.9727940620422363
1789635559149908700,4.87090869140625,-7.0649898239135736,-5.439177259063721,0.2668038475036621
1789635559159948800,4.88094873046875,-6.428581095123291,-5.492747521209717,-0.16894085464477537
1789635559169988600,4.890988525390625,-6.9606924140930175,-5.676502498626709,-0.21293431015014647
1789635559180027600,4.901027587890625,-8.09464617538452,-6.2204351882934565,0.28805238723754883
1789635559190067700,4.911067626953125,-7.470807005310058,-7.38072516784668,0.9392752388000488
1789635559200107800,4.921107666015625,-6.265775382232666,-8.387786241149902,1.248725803375244
1789635559210147600,4.931147705078125,-5.823446625518798,-8.314912728118896,0.8233060958862304
1789635559220187600,4.941187744140625,-6.538115821075439,-8.13400086517334,0.2437596565246582
1789635559230227700,4.951227783203125,-8.636483938598632,-8.432527884674071,0.127042325592041
1789635559240267800,4.961267822265625,-9.35294878540039,-9.165153592681884,0.3220201232910156
1789635559250307800,4.971307861328125,-6.955904010772705,-9.57590881500244,0.5913678100585937
1789635559260347600,4.98134765625,-4.5693338684082025,-9.303867651367186,0.378583137512207
1789635559270387700,4.9913876953125,-5.964854161071777,-8.872013526916504,-0.7700351089477538
1789635559280427800,5.001427734375,-9.214982914733886,-8.327781562042237,-1.1908160507202148
1789635559290466800,5.011466796875,-10.133159251403807,-8.172607366943359,0.06778583450317383
1789635559300506600,5.021506591796875,-7.133673484039306,-8.530540515136718,1.5129858116149901
1789635559310546700,5.031546630859375,-4.6836569976806635,-9.010278672790527,1.6232687255859375
1789635559320586800,5.041586669921875,-5.561880094146728,-9.111284055328369,1.1400889030456542
1789635559330626800,5.051626708984375,-7.202656419372558,-8.737938233947753,0.6952163070678711
1789635559340667000,5.0616669921875,-6.874800429534912,-8.129960649871826,0.5454290657043457
1789635559350706700,5.071706787109375,-5.813121630859374,-7.494449746704101,0.7071873153686523
1789635559360746800,5.081746826171875,-5.31153638305664,-6.547094077301025,1.018283893585205
1789635559370786600,5.09178662109375,-5.253028079986572,-5.9403135940551755,0.7963713272094726
1789635559380826600,5.10182666015625,-5.730072760772705,-5.708076033020019,0.713771369934082
1789635559390866000,5.111865966796875,-5.603778623199463,-5.902455280303955,0.6842927619934082
1789635559400905700,5.12190576171875,-5.6501662803649895,-6.969820307922363,0.21996727752685546
1789635559410945500,5.131945556640625,-6.208913092803955,-8.552986155700683,-0.23044190979003906
1789635559420985600,5.141985595703125,-6.238242063140869,-9.85019454269409,-0.2680009483337402
1789635559431025700,5.152025634765625,-6.407332555389404,-10.362852973175048,0.12868833923339842
1789635559441065700,5.162065673828125,-6.599167963409424,-9.939827467346191,0.49589901885986326
1789635559451105800,5.172105712890625,-7.0263833221435545,-8.853009551239014,0.8189666053771972
1789635559461145600,5.1821455078125,-7.265803488159179,-7.5159975616455075,1.1942577156066894
1789635559471185700,5.192185546875,-7.036259403991699,-6.771400845336913,1.5435118827819823
1789635559481225700,5.202225830078125,-6.414814435577393,-6.750601218414306,1.4095862274169921
1789635559491265800,5.212265869140625,-6.999747828674316,-6.957101111602783,0.9142857589721679
1789635559501304800,5.222304931640625,-8.253860585784912,-7.174225274658203,0.4746504791259765
1789635559511344600,5.2323447265625,-9.240271669769287,-7.387907772827148,0.6714239280700683
1789635559521384700,5.242384765625,-9.217227478790283,-7.503577640533447,1.2823942642211914
1789635559531424800,5.2524248046875,-8.517821318817138,-7.181557517242431,1.9566613067626952
1789635559541464800,5.26246484375,-7.717709051513672,-6.45446840057373,2.259228541564941
1789635559551505000,5.2725048828125,-6.903530849456787,-6.0519432464599605,1.8339584716796873
1789635559561544700,5.282544677734375,-5.919214691925048,-6.450128910064697,0.9721955116271972
1789635559571584800,5.292584716796875,-4.782567453765869,-7.558494641113281,0.19916765060424804
1789635559581624800,5.302624755859375,-4.003554088592529,-8.77729292373657,-0.08649053497314453
1789635559591665000,5.312664794921875,-3.7000890281677243,-9.924714069366454,-0.1479915901184082
1789635559601703700,5.32270361328125,-3.764133922576904,-10.55349128036499,-0.08065466842651367
1789635559611743700,5.33274365234375,-4.416104962158203,-10.395773246002197,0.42317514343261714
1789635559621783800,5.34278369140625,-5.408651187896728,-9.623044660186768,0.9011176498413085
1789635559631824000,5.352823974609375,-6.303932971191406,-8.658480666351318,1.4353238952636718
1789635559641864000,5.362864013671875,-6.850858412933349,-8.047061417388916,2.092681888580322
1789635559651903700,5.37290380859375,-7.735964839172363,-8.258499351501465,2.372953120422363
1789635559661943600,5.382943603515625,-9.023746057128905,-9.061903646087647,2.248454634094238
1789635559671983600,5.392983642578125,-9.139266287231445,-9.71058265838623,2.139967371368408
1789635559682023700,5.403023681640625,-8.588150992584229,-9.77462755279541,2.180369524383545
1789635559692063700,5.413063720703125,-8.47831699142456,-9.153481859588622,1.9629460861206054
1789635559702103800,5.423103759765625,-8.566004627227782,-8.160785996246338,1.1520599113464354
1789635559712142600,5.433142578125,-8.7853733543396,-7.431601953125,0.20006547622680662
1789635559722182700,5.4431826171875,-8.528595226287841,-7.312789695739745,-0.33833062210083004
1789635559732222700,5.45322265625,-7.911340110778808,-6.884826148986816,-0.4939537300109863
1789635559742262800,5.4632626953125,-7.594258028411865,-6.437708988952636,-0.5714660087585449
1789635559752302600,5.473302490234375,-7.759009030151367,-5.964854161071777,-0.1967734489440918
1789635559762342700,5.4833427734375,-8.183081999206543,-5.428253713989258,0.5342062454223633
1789635559772382700,5.4933828125,-8.385242401885986,-5.110124168395996,1.1251251426696776
1789635559782422800,5.5034228515625,-8.115745077514648,-4.991910461425781,1.2211924842834472
1789635559792462800,5.513462890625,-7.556250077056884,-4.731840306091308,1.1465233200073242
1789635559802502700,5.523502685546875,-6.7645175155639645,-4.336198481750488,0.9296984321594238
1789635559812542700,5.533542724609375,-5.7885810638427735,-4.08615404586792,0.4860229370117187
1789635559822581800,5.543581787109375,-5.066579625701904,-4.360140498352051,-0.0053869537353515625
1789635559832621800,5.553621826171875,-4.862324296569824,-4.9151463706970215,0.028431144714355466
1789635559842662000,5.563661865234375,-4.8135424377441405,-5.194370139312744,0.5068225639343261
1789635559852701700,5.57370166015625,-4.329764064788818,-5.449951166534423,0.9210194511413574
1789635559862741800,5.58374169921875,-4.768651156616211,-5.708225670623779,1.2226888603210448
1789635559872781800,5.59378173828125,-6.814197200012207,-5.627421364593506,1.5333365257263183
1789635559882822000,5.60382177734375,-9.317933586120605,-5.437680883026123,1.8957588020324705
1789635559892862000,5.613862060546875,-10.996418587493896,-5.501426502227783,2.010381206512451
1789635559902901800,5.62390185546875,-11.271003590393066,-5.966799449920654,1.573140128326416
1789635559912941600,5.633941650390625,-11.214590213775635,-6.526743363189697,1.052850180053711
1789635559922980900,5.64398095703125,-11.106102951049804,-6.896647519683837,0.9045593147277832
1789635559933021000,5.65402099609375,-10.375272894287109,-6.873004778289794,1.0781389350891113
1789635559943060700,5.664060791015625,-8.773701621246337,-6.455066950988769,1.035492218017578
1789635559953100800,5.674100830078125,-7.458387084197998,-5.670965907287598,0.910395181274414
1789635559963140600,5.684140625,-6.6066498435974115,-4.90317536239624,0.8493430389404296
1789635559973180700,5.6941806640625,-6.327575712585449,-4.496759630584717,0.840813695526123
1789635559983220700,5.704220703125,-6.667402710723876,-4.48179587020874,0.9932944137573242
1789635559993260800,5.7142607421875,-7.196820552825927,-4.7381250854492185,0.843956085205078
1789635560003300600,5.724300537109375,-8.377161971282959,-5.238812507629394,0.3199251968383789
1789635560013340700,5.734340576171875,-10.449642783355712,-6.092644674682616,-0.1740285331726074
1789635560023380700,5.744380615234375,-12.278513576507567,-7.094019519042968,-0.2537853759765625
1789635560033419800,5.754419677734375,-12.304400881958006,-7.990648040771484,-0.07616554031372069
1789635560043459600,5.76445947265625,-11.008988146209717,-8.24952109527588,-0.5169979209899902
1789635560053499600,5.774499755859375,-10.223839639282225,-7.473799757385254,-0.8262988479614257
1789635560063539700,5.784539794921875,-9.29593685836792,-6.1833250625610345,-0.5012859725952148
1789635560073579800,5.794579833984375,-7.32296505279541,-4.967818807220459,-0.10684124908447265
1789635560083619800,5.804619873046875,-5.0495209388732905,-4.209904344177246,0.014065934753417967
1789635560093659600,5.81465966796875,-4.044854067230224,-3.669862232208252,-0.18031331253051758
1789635560103699700,5.82469970703125,-5.0008887176513666,-3.0538042175292968,-0.741903239440918
1789635560113739800,5.83473974609375,-7.409455587768554,-2.6563667419433594,-1.4733318466186522
1789635560123779800,5.84477978515625,-10.097246226501465,-3.234267167663574,-1.3866916740417479
1789635560133820000,5.85481982421875,-11.352556084442138,-4.842272857666015,-1.4055460121154784
1789635560143858700,5.864858642578125,-12.156110016632079,-6.1270613235473625,-1.836203035736084
1789635560153898800,5.874898681640625,-12.490849336242675,-6.364236925506591,-1.9119196632385254
1789635560163938800,5.884938720703125,-11.60005668106079,-5.537788439941406,-1.3407529296874998
1789635560173979000,5.894978759765625,-9.892541984558106,-4.674229828643798,-0.7543231605529784
1789635560184019000,5.90501904296875,-7.61041888961792,-4.055029424285888,-0.9967360786437988
1789635560194058800,5.915058837890625,-6.1373863182067865,-2.9973908409118653,-1.7302596122741698
1789635560204098800,5.925098876953125,-6.09069938583374,-1.7820342231750488,-1.8927660499572754
1789635560214138600,5.935138671875,-6.938396411132812,-1.2641384765625,-1.4036007232666015
1789635560224178700,5.9451787109375,-7.747636572265624,-1.6039654747009275,-1.2035352470397949
1789635560234218800,5.95521875,-7.407360661315917,-2.4347534507751463,-1.892317137145996
1789635560244258600,5.965258544921875,-6.668749449157715,-2.280327443695068,-2.0301333702087403
1789635560254298600,5.975298583984375,-6.4549173133850095,-1.7308581626892088,-0.6872855140686035
1789635560264337700,5.985337646484375,-6.489483599853515,-1.6349404586791991,0.5657797798156738
1789635560274377700,5.995377685546875,-6.771251207733154,-2.1773767723083495,0.6428431457519531
1789635560284417800,6.005417724609375,-7.062296347045898,-2.587982357025146,0.3128922294616699
1789635560294457600,6.01545751953125,-7.470058817291259,-2.5848399673461913,0.46252983322143554
1789635560304497700,6.02549755859375,-7.5990464317321775,-2.3986907882690427,0.23223756103515625
1789635560314537700,6.035537841796875,-7.996783182525634,-2.029085906982422,-0.6082768592834472
1789635560324577500,6.04557763671875,-8.630648072052,-1.5969325073242187,-0.9885060104370117
1789635560334617600,6.05561767578125,-8.513332190704345,-1.8743606246948241,-0.34865561676025386
1789635560344657400,6.065657470703125,-8.16527512435913,-2.9507039085388183,0.009277531433105468
1789635560354697500,6.075697509765625,-7.9013143913269035,-2.823063032531738,-0.7787140899658203
1789635560364737500,6.085737548828125,-9.00159969177246,-1.058536408996582,-1.6719009468078612
1789635560374776600,6.095776611328125,-10.484957257843018,-0.24390929412841794,-1.4694412689208984
1789635560384816400,6.10581640625,-10.705373448181152,-0.16041151123046873,-0.9446621925354003
1789635560394856400,6.1158564453125,-9.25718071899414,-0.5969044013977051,-0.951844797515869
1789635560404896500,6.125896484375,-9.235782541656494,-1.5913959159851074,-1.1013327636718748
1789635560414936600,6.1359365234375,-10.481665230560303,-1.8929156875610351,-1.0634744499206543
1789635560424976600,6.1459765625,-11.09577795639038,-1.5795745452880858,-1.1960533668518065
1789635560435016400,6.156016357421875,-11.126752940368652,-1.380257257080078,-1.5442600708007812
1789635560445056500,6.166056396484375,-9.342025240325928,-1.0102034629821777,-1.5477017356872558
1789635560455096600,6.1760966796875,-8.798840738677978,-0.1858499038696289,-0.711227530670166
1789635560465136600,6.18613671875,-9.65252326812744,-0.3042132484436035,-0.23657705154418943
1789635560475176400,6.196176513671875,-10.33038161315918,-1.013794765472412,-0.7644985176086425
1789635560485215500,6.206215576171875,-9.858424610900878,-1.4443021514892578,-1.3093290328979492
1789635560495255600,6.216255615234375,-9.264812236785888,-1.2012906829833985,-0.9721955116271972
1789635560505295600,6.226295654296875,-9.21857421722412,-0.25348610076904293,-0.8270470359802246
1789635560515335700,6.236335693359375,-8.41397282180786,0.49111061553955077,-0.6043862815856933
1789635560525375500,6.24637548828125,-6.496516567230224,0.3251625129699707,-0.43634325256347656
1789635560535415300,6.256415283203125,-5.452794281005859,-0.5832873794555664,-0.6576572685241698
1789635560545455400,6.266455322265625,-5.9491422126770015,-1.6632219657897949,-1.362450382232666
1789635560555495400,6.276495361328125,-7.9381252418518065,-2.155978594970703,-1.9346645790100097
1789635560565535500,6.286535400390625,-9.408314698791504,-2.1830630012512207,-1.7143980262756346
1789635560575575600,6.296575439453125,-8.757241484832763,-2.1158757171630858,-1.1472715080261229
1789635560585615400,6.306615478515625,-8.155847955322265,-1.5958850440979002,-0.36810850524902344
1789635560595654400,6.316654296875,-8.623914379882812,-0.8014590057373047,0.7305307815551757
1789635560605694500,6.326694580078125,-8.990975421905517,-0.7778162643432617,1.098788924407959
1789635560615734500,6.336734619140625,-8.734496569061278,-2.0629040054321286,-0.45400048980712887
1789635560625774300,6.3467744140625,-9.886556480407714,-3.425055112457275,-1.9958663589477539
1789635560635814400,6.356814453125,-11.605593272399902,-3.35188232421875,-1.7325041763305664
1789635560645854500,6.3668544921875,-11.296890895843505,-2.2827216453552244,-0.18420389022827147
1789635560655894500,6.37689453125,-9.744999307250977,-1.3416507553100585,1.0588356842041016
1789635560665934600,6.3869345703125,-7.890241208648681,-1.5477017356872558,0.9466074813842773
1789635560675974700,6.396974609375,-6.432322035217285,-2.8923452430725094,-0.974888988494873
1789635560686014500,6.407014404296875,-8.292018174743651,-3.662679627227783,-2.0772692153930663
1789635560696054500,6.417054443359375,-10.031256043243408,-3.151218297576904,-1.4999673400878906
1789635560706094600,6.427094482421875,-8.951920007324219,-2.6288334228515624,-0.18031331253051758
1789635560716133600,6.437133544921875,-7.161206803131103,-2.442235330963135,1.0091559997558592
1789635560726173400,6.44717333984375,-6.641515405273437,-2.843713021850586,1.464652865600586
1789635560736213500,6.457213623046875,-7.255478493499756,-3.928884924316406,0.6596025573730468
1789635560746253600,6.467253662109375,-8.585906428527831,-4.792892448425293,-0.08379705810546874
1789635560756293600,6.477293701171875,-8.868422224426268,-5.0097173362731935,-0.5039794494628906
1789635560766333700,6.487333740234375,-9.297732509613036,-4.66076244430542,-0.19826982498168944
1789635560776373500,6.49737353515625,-9.28920316619873,-4.164713787841797,0.7393594001770019
1789635560786413300,6.507413330078125,-7.692719571685791,-3.940257382202148,1.6195277854919432
1789635560796453400,6.517453369140625,-6.037877311706542,-4.14930111465454,1.476025323486328
1789635560806493400,6.527493408203125,-6.730699417114257,-4.358195209503173,0.48018707046508785
1789635560816533500,6.537533447265625,-9.090783703613281,-4.170250379180908,-0.23956980361938476
1789635560826573600,6.547573486328125,-10.384700063323974,-3.7358524154663084,-0.15696984634399413
1789635560836612400,6.5576123046875,-9.052027564239502,-3.418321420288086,0.48946460189819335
1789635560846652400,6.56765234375,-8.204929089355469,-3.4617163253784176,1.0311527275085448
1789635560856692500,6.5776923828125,-9.37823754043579,-3.9413048454284665,1.1936591651916504
1789635560866732500,6.587732666015625,-10.07345384750366,-4.925920278167724,1.2161048057556152
1789635560876772400,6.5977724609375,-9.593416414642334,-6.070049396514892,1.4414590370178222
1789635560886812400,6.6078125,-9.005789544677734,-6.965480817413329,1.4668974296569823
1789635560896852500,6.6178525390625,-9.007136283111572,-7.492354820251465,1.092953057861328
1789635560906892500,6.627892578125,-9.717465988159178,-7.5619363059997555,1.039981346130371
1789635560916932600,6.6379326171875,-10.181492197418212,-7.48262837600708,1.3090297576904295
1789635560926972400,6.647972412109375,-9.247753549957276,-7.152976734924316,1.818246523284912
1789635560937012500,6.658012451171875,-7.783848872375488,-6.897246070098877,1.758241844177246
1789635560947051500,6.668051513671875,-7.800309008789062,-6.912209830474853,1.2316671165466309
1789635560957091600,6.678091552734375,-9.35249987258911,-7.388506323242187,0.7404068634033203
1789635560967131600,6.688131591796875,-10.059238275146484,-7.90370859298706,0.7685387329101562
1789635560977171500,6.69817138671875,-8.314164540100098,-8.460510116577147,1.2306196533203124
1789635560987211500,6.70821142578125,-6.327426074981689,-9.07866305770874,1.1809399688720703
1789635560997251600,6.71825146484375,-7.315034259796142,-9.55795230255127,0.9144353965759277
1789635561007291600,6.728291748046875,-9.255235430145262,-9.548674771118163,1.2123638656616211
1789635561017331700,6.738331787109375,-8.783727340698242,-8.958952974700928,2.3630770385742186
1789635561027371500,6.74837158203125,-5.895871225738525,-8.103624431610108,2.9789854156494138
1789635561037411300,6.758411376953125,-4.0723873863220215,-7.088482927703857,2.599205177307129
1789635561047451400,6.768451416015625,-4.543446562957763,-5.73336478805542,1.6253636520385741
1789635561057491500,6.778491455078125,-5.932532438659668,-4.680963520812988,0.7383119369506835
1789635561067530500,6.788530517578125,-5.860407113647461,-4.613776236724854,0.011073182678222656
1789635561077570600,6.798570556640625,-5.0769046203613275,-5.575946028900146,-0.3892074073791504
1789635561087610400,6.8086103515625,-5.040991595458984,-7.010671373748779,-0.3920505218505859
1789635561097650400,6.818650390625,-5.44546203842163,-8.10093095474243,-0.00987608184814453
1789635561107690500,6.8286904296875,-6.18003303527832,-8.869170412445067,0.8640075241088867
1789635561117730600,6.83873046875,-5.870582470703124,-8.537274207305908,1.1668740341186523
1789635561127770400,6.848770263671875,-5.564573571014404,-7.456441795349121,0.5871779571533203
1789635561137810400,6.858810546875,-7.069030039215088,-7.621940985107422,0.24271219329833982
1789635561147850500,6.8688505859375,-8.06412010421753,-8.58066911239624,0.21158757171630857
1789635561157890600,6.878890625,-8.518569506835936,-9.11682064666748,0.5398924743652344
1789635561167930600,6.8889306640625,-9.145251791381835,-9.568576572418213,1.5212158798217772
1789635561177970400,6.898970458984375,-8.926631252288818,-9.64668740158081,2.4756045166015626
1789635561188009500,6.909009521484375,-8.083722630310058,-8.754398370361328,2.5966613380432126
1789635561198049500,6.919049560546875,-6.965480817413329,-7.883657154083251,1.5598223815917969
1789635561208089600,6.929089599609375,-5.478382311248779,-7.482778013610839,0.9599252281188965
1789635561218129400,6.93912939453125,-3.5507506996154783,-7.529464945983887,0.23268647384643554
1789635561228169500,6.94916943359375,-2.5827450408935544,-7.515099736022949,-0.5315127685546874
1789635561238209500,6.95920947265625,-2.6919804916381835,-7.772027501678466,-0.6416460449218749
1789635561248249600,6.96924951171875,-3.4491467666625977,-8.029553817749022,-0.003441664886474609
1789635561258289700,6.97928955078125,-4.9732057609558105,-8.435370999145507,1.1472715080261229
1789635561268329500,6.98932958984375,-6.048800856781005,-8.769511768341063,1.704073031616211
1789635561278369500,6.99936962890625,-6.515819818115234,-8.496572779083252,1.5138836372375488
1789635561288409300,7.009409423828125,-7.5142019104003905,-8.110657398986817,1.0332476539611817
1789635561298449400,7.019449462890625,-8.88712692489624,-8.096142551422119,1.0043675964355467
1789635561308488700,7.02948876953125,-10.134655627441406,-8.392425006866455,1.3106757713317871
1789635561318528500,7.039528564453125,-11.184363417816162,-8.524106098175048,1.4992191520690916
1789635561328568600,7.049568603515625,-11.455656393432616,-8.43956085205078,1.4713865577697753
1789635561338608400,7.0596083984375,-11.527332805633545,-8.072200534820556,1.9155109657287597
1789635561348648400,7.0696484375,-11.28102930984497,-7.5534069625854485,2.6485855865478514
1789635561358688300,7.079688232421875,-10.772111819458008,-7.419630944824219,2.80271231842041
1789635561368728300,7.089728271484375,-9.26316622314453,-7.6182000450134275,2.335842994689941
1789635561378768400,7.099768310546875,-6.800131265258789,-7.414393628692626,1.6772879005432129
1789635561388808400,7.109808349609375,-4.836586628723144,-6.632387511444091,1.2454337760925291
1789635561398848500,7.1198486328125,-4.356399558258056,-6.277447115325927,1.012597664642334
1789635561408888300,7.129888427734375,-4.706551551055908,-6.238541338348388,1.1379939765930176
1789635561418928400,7.139928466796875,-4.491223039245606,-5.944353809356689,1.2514192802429198
1789635561428967400,7.149967529296875,-4.141669596862792,-5.476736297607421,1.3298293846130371
1789635561439007500,7.160007568359375,-4.50124875869751,-4.987570970916748,1.3009493270874022
1789635561449047600,7.170047607421875,-6.087856271362305,-4.454262551116943,1.534084713745117
1789635561459087400,7.18008740234375,-8.275109125518798,-4.3263223999023435,1.7450737350463865
1789635561469127400,7.19012744140625,-9.917381826782226,-4.975749600219726,1.741033519744873
1789635561479167500,7.20016748046875,-9.858574248504638,-5.967846913146972,1.3462895210266113
1789635561489207600,7.21020751953125,-9.651326167297363,-6.571185731506347,1.3890858757019042
1789635561499247600,7.22024755859375,-10.01674119567871,-7.034014839935303,1.5363292778015136
1789635561509287400,7.230287353515625,-9.734973587799072,-7.15686731262207,1.5298948608398437
1789635561519327500,7.240327392578125,-9.42986251373291,-6.724115362548828,1.3358148887634276
1789635561529367600,7.250367431640625,-9.849595992279053,-6.310666663360595,1.6234183631896972
1789635561539407600,7.26040771484375,-9.643545011901855,-6.036680210876464,1.8770541015625
1789635561549446400,7.2704462890625,-9.528922607421874,-5.803844099426269,1.9388544319152832
1789635561559486500,7.280486572265625,-9.032125762939453,-5.721992330169678,1.9728221679687499
1789635561569526500,7.290526611328125,-7.5427826927185055,-5.705083280944824,1.7347487403869628
1789635561579566600,7.300566650390625,-6.160280871582031,-5.463717826080322,1.1393407150268553
1789635561589606400,7.3106064453125,-6.799682352447509,-5.114912571716308,0.8077437850952148
1789635561599646500,7.320646484375,-7.987804926300049,-4.9461213546752925,0.9769839149475097
1789635561609686300,7.330686279296875,-8.273163836669921,-5.028721311950683,1.2503718170166014
1789635561619726300,7.340726318359375,-9.524583116912842,-5.038747031402588,1.2514192802429198
1789635561629766400,7.350766357421875,-10.894515379333495,-5.242403810119629,0.5321113189697265
1789635561639806500,7.360806396484375,-11.723358066558838,-5.234473017120361,-0.037708676147460936
1789635561649846500,7.370846435546875,-10.779593699645995,-4.694730180358887,-0.08334814529418945
1789635561659886300,7.38088623046875,-8.483554307556151,-3.925293621826172,0.41374797439575195
1789635561669925400,7.39092529296875,-5.729324572753906,-3.9987656852722164,0.6521206771850585
1789635561679965400,7.40096533203125,-3.596390168762207,-4.178181172180175,0.3416226493835449
1789635561690005500,7.411005615234375,-4.027346467590331,-3.557933304595947,0.1906383071899414
1789635561700045300,7.42104541015625,-6.64600453338623,-2.5472809288024902,0.5427355888366698
1789635561710085400,7.43108544921875,-8.252962760162353,-2.138022082519531,0.5418377632141113
1789635561720125400,7.44112548828125,-9.285462226104736,-2.7952304382324216,0.05087678527832031
1789635561730165500,7.45116552734375,-10.467449658203124,-4.343530724334716,-0.7725789482116698
1789635561740205600,7.46120556640625,-10.431386995697022,-5.896918688964844,-1.9898808547973632
1789635561750245600,7.47124560546875,-9.86336265182495,-5.641786574554443,-1.90892691116333
1789635561760285400,7.481285400390625,-10.045920528411864,-3.9969700340270995,-1.1052233413696289
1789635561770325500,7.491325439453125,-10.033949520111083,-2.644246096038818,-0.8034042945861816
1789635561780365600,7.501365478515625,-10.180893647003174,-2.324320899200439,-0.3962403747558593
1789635561790405600,7.511405517578125,-9.535656299591064,-3.1865327720642087,0.2769792045593262
1789635561800444400,7.5214443359375,-7.775469166564941,-3.9731776550292968,0.5648819541931152
1789635561810484500,7.531484375,-6.724414637756348,-3.6911107719421383,0.12988544006347655
1789635561820524500,7.541524658203125,-6.466589046478271,-2.3412299484252928,-0.3058592620849609
1789635561830564600,7.551564697265625,-7.612214540863037,-0.9032125762939452,0.03277063522338867
1789635561840604400,7.5616044921875,-9.441234971618652,-0.6827963859558105,0.6148609138488769
1789635561850644200,7.571644287109375,-10.539126070404052,-1.9812018737792967,-0.08678981018066406
1789635561860684300,7.581684326171875,-10.13824692993164,-2.860622071075439,-1.3389572784423827
1789635561870724400,7.591724365234375,-7.71845723953247,-2.940229276275635,-1.304390991973877
1789635561880764400,7.601764404296875,-5.5255181564331055,-2.7575217620849606,0.42661680831909177
1789635561890804500,7.611804443359375,-5.360767154693603,-2.3808839134216306,1.3871405868530273
1789635561900844500,7.621844482421875,-7.076212644195556,-1.050156703186035,0.3981856636047363
1789635561910884400,7.63188427734375,-9.156324974060057,0.7007528984069824,-0.9187748870849609
1789635561920923400,7.64192333984375,-9.19418328781128,1.0380360572814942,-0.8756792572021483
1789635561930963500,7.65196337890625,-7.795670243072509,-0.529268204498291,-0.5571007987976074
1789635561941003500,7.66200341796875,-6.966977193450927,-1.5224129806518554,-1.2297218276977537
1789635561951043300,7.672043212890625,-7.997980283355712,-0.5784989761352539,-1.5984288833618163
1789635561961083400,7.68208349609375,-9.91408979949951,-0.1457470260620117,-0.5114613296508789
1789635561971123500,7.69212353515625,-8.85450592727661,-1.2788029617309569,-0.018854338073730468
1789635561981163500,7.70216357421875,-6.982838779449462,-1.746121198272705,-0.11985972061157225
1789635561991203600,7.71220361328125,-7.807491613769531,-0.8788216468811034,-1.6525976959228514
1789635562001243400,7.722243408203125,-12.062436876678467,0.23403321228027343,-1.7209820808410643
1789635562011283500,7.732283447265625,-11.191097109985352,-0.0752677146911621,0.1637035385131836
1789635562021323500,7.742323486328125,-6.7185787712097165,-0.6221931564331055,2.024447141265869
1789635562031363600,7.752363525390625,-6.597970862579345,-0.5149029945373534,1.138891802215576
1789635562041403600,7.762403564453125,-9.900622415161132,-0.34611177749633787,-0.9539397239685058
1789635562051442400,7.7724423828125,-11.856834809112549,-0.2653074714660644,-1.418714121246338
1789635562061482500,7.782482421875,-9.221417331695555,-0.17866729888916014,-0.15173253021240232
1789635562071522600,7.7925224609375,-6.760028387451172,-0.1331774673461914,0.7677905448913573
1789635562081562600,7.802562744140625,-7.624185549163818,-0.46941316299438474,0.32022447204589843
1789635562091602700,7.812602783203125,-9.222614432525635,-0.6166565650939941,-0.7315782447814941
1789635562101642500,7.822642578125,-8.791957408905029,-0.9190741622924804,-1.1819874320983885
1789635562111682300,7.832682373046875,-6.930615255737305,-1.7018284675598143,-0.9644143562316894
1789635562121722400,7.842722412109375,-6.0245595649719235,-2.3795371749877927,-0.9906009368896483
1789635562131762400,7.852762451171875,-8.034641496276855,-2.365321602630615,-1.4073416633605955
1789635562141802500,7.862802490234375,-10.447398219299316,-1.9105729248046874,-1.3633482078552246
1789635562151842300,7.87284228515625,-8.490437637329102,-1.5249568199157715,-0.6455366226196289
1789635562161882400,7.88288232421875,-5.814917282104492,-1.3658920471191405,-0.18300678939819334
1789635562171922400,7.89292236328125,-6.084713881683349,-1.4917372718811035,-0.27353753967285155
1789635562181961500,7.90296142578125,-7.544129431152343,-1.678335363769531,-0.6705261024475098
1789635562192001300,7.913001220703125,-8.81006355895996,-2.136824981689453,-0.781407566833496
1789635562202041300,7.923041259765625,-8.989628683471679,-3.0844799263000486,-0.4921580787658691
1789635562212081400,7.933081298828125,-8.42115542678833,-4.101716356658935,0.0047884033203125
1789635562222121500,7.94312158203125,-8.448539108276366,-5.00507857055664,0.2314893730163574
1789635562232161500,7.95316162109375,-9.738864165496826,-5.197213253784179,0.6308721374511719
1789635562242201600,7.96320166015625,-9.935637614440918,-4.767454055786133,1.261444999694824
1789635562252241400,7.973241455078125,-8.596680335998535,-4.323778560638427,1.3558663276672362
1789635562262281500,7.983281494140625,-7.989750215148925,-4.1757869705200195,0.7321767951965331
1789635562272321500,7.993321533203125,-8.79779327545166,-4.2149920227050774,-0.05970540390014648
1789635562282361600,8.003361572265625,-10.233117170715332,-4.202721739196777,-0.244507844543457
1789635562292401700,8.013401611328124,-11.098920346069335,-4.113388089752197,0.35194764404296874
1789635562302441500,8.02344140625,-10.178499445343016,-4.042010952758789,1.4028525352478027
1789635562312480500,8.03348046875,-8.271667460632324,-4.287117347717285,2.1122844146728514
1789635562322520600,8.0435205078125,-7.0287775238037105,-5.066729263305664,1.6322469818115233
1789635562332561000,8.053560791015625,-7.419182032012939,-5.823745900726318,0.7902361854553223
1789635562342600700,8.0636005859375,-9.280673822784424,-6.25694676361084,0.5128080680847168
1789635562352640500,8.073640625,-11.681160262298583,-6.6394204788208,0.9282020561218262
1789635562362680600,8.0836806640625,-11.642254485321045,-6.974459073638916,1.8951602516174315
1789635562372720600,8.093720703125,-8.3119199760437,-6.8791399200439445,2.8309938255310056
1789635562382760700,8.1037607421875,-5.3296425331115715,-6.843376532745361,2.752284445953369
1789635562392800800,8.11380078125,-5.621884773254394,-6.6899979888916015,1.899350104522705
1789635562402840600,8.123840576171874,-7.4609309234619134,-6.081870767211914,0.8467991996765136
1789635562412880600,8.133880615234375,-8.71444513015747,-5.631461579895019,-0.09412205276489258
1789635562422920700,8.143920654296876,-8.941595012664795,-5.869684645080566,-0.20979192047119138
1789635562432959700,8.153959716796875,-7.575403690338134,-6.373364819335937,0.8274959487915039
1789635562442999600,8.16399951171875,-5.340865353393554,-6.584802753448486,1.8097171798706053
1789635562453039600,8.17403955078125,-4.031985233306885,-6.6240078056335445,1.9729718055725096
1789635562463079700,8.18407958984375,-4.844517421722411,-7.0364090415954585,1.4645032279968262
1789635562473119700,8.19411962890625,-6.083666418457031,-7.4119994270324705,0.8469488372802734
1789635562483159800,8.204159912109375,-6.738480572509765,-8.232462408447265,0.10654197387695312
1789635562493200000,8.214199951171874,-7.436390356445312,-9.272743029785156,-0.3938461730957031
1789635562503239700,8.22423974609375,-7.810035453033446,-9.393650213623046,-0.13063362808227538
1789635562513279700,8.23427978515625,-7.975085729980468,-8.566752815246582,0.5897217964172363
1789635562523319800,8.24431982421875,-7.7793597442626945,-7.639149309539794,1.4435539634704588
1789635562533359900,8.25435986328125,-6.951863795471191,-7.332990772247314,1.847575493621826
1789635562543400000,8.26439990234375,-6.505943736267089,-7.401824069976806,1.5277999343872068
1789635562553439700,8.274439697265626,-6.93974314956665,-7.760954319000244,0.7363666481018066
1789635562563478800,8.284478759765625,-7.5348518997192375,-8.707112887573242,-0.050128597259521485
1789635562573518800,8.294518798828125,-7.83981333618164,-9.777919580078125,-0.2645592834472656
1789635562583559000,8.304558837890625,-7.82036044769287,-10.552892729949951,0.13093290328979493
1789635562593598700,8.3145986328125,-7.624484824371337,-10.801590427398681,0.8876502655029296
1789635562603638500,8.324638427734374,-7.365312494659423,-11.048193198394774,1.5236100814819336
1789635562613678600,8.3346787109375,-6.977451825714111,-10.927734927368164,1.7776947326660155
1789635562623718700,8.34471875,-6.534823793792724,-10.343998635101318,0.9789292037963867
1789635562633758700,8.3547587890625,-7.646481552124023,-9.867552504730224,0.7466916427612305
1789635562643798500,8.364798583984374,-8.800337114715576,-9.933093775177001,1.6303016929626464
1789635562653838600,8.374838623046875,-8.900743946838379,-9.676016371917724,2.625691033172607
1789635562663878700,8.384878662109376,-8.913313505554198,-8.712050928497314,2.70694425201416
1789635562673918700,8.394918701171875,-8.77115778198242,-8.03119983139038,2.227056456756592
1789635562683958800,8.404958740234376,-7.586027960205078,-7.22674807357788,1.8240823898315428
1789635562693997600,8.41499755859375,-5.864148053741455,-6.410774220275878,1.4586673614501953
1789635562704037600,8.42503759765625,-4.0255508163452145,-5.871181021118164,0.6203975051879882
1789635562714077700,8.43507763671875,-2.664746447753906,-5.499930126190185,-0.4299088356018066
1789635562724117800,8.44511767578125,-2.488772625732422,-5.09441222000122,-0.8122329132080077
1789635562734157800,8.45515771484375,-3.1147067222595215,-5.41388850402832,-0.3847182792663574
1789635562744197600,8.46519775390625,-3.842693664550781,-6.533776330566406,0.38801030654907226
1789635562754237700,8.47523779296875,-4.770147532653809,-7.803750673675537,0.9097966308593749
1789635562764277800,8.48527783203125,-5.844096614837646,-8.059182063293457,1.2273276260375976
1789635562774317800,8.49531787109375,-6.629694034576415,-7.582885570526122,1.2894272315979003
1789635562784358000,8.50535791015625,-7.355586050415039,-7.413944715881347,0.9573813888549804
1789635562794397700,8.515397705078126,-8.364293137359619,-7.694365585327148,0.3987842140197754
1789635562804437800,8.525437744140625,-9.892392346954345,-8.002319773864746,0.3184288208007812
1789635562814477600,8.5354775390625,-11.092037016296386,-8.084770093536376,0.994641152191162
1789635562824516900,8.545516845703125,-11.502792238616943,-8.148515712738037,2.2007202384948727
1789635562834557000,8.555556884765625,-11.37066223449707,-8.565256439208984,3.0783447845458984
1789635562844596700,8.5655966796875,-10.720786121368407,-9.318382498931884,3.419518521118164
1789635562854636500,8.575636474609375,-10.079888264465332,-9.920973129272461,3.387645711517334
1789635562864676600,8.585676513671874,-9.23249051437378,-9.778817405700684,3.0048727210998534
1789635562874716700,8.595716552734375,-8.039280261993408,-8.63798031463623,2.019958013153076
1789635562884756700,8.6057568359375,-6.809408796691894,-6.476465128326415,0.8988730857849121
1789635562894796500,8.615796630859375,-6.899490634155273,-4.547636415863037,0.2700958747863769
1789635562904836600,8.625836669921876,-7.014113038635253,-3.918709567260742,-0.12315174789428711
1789635562914876700,8.635876708984375,-6.6516907623291015,-4.170848929595947,-0.08933364944458007
1789635562924916700,8.645916748046876,-6.819434516143798,-4.170998567199707,0.16086042404174802
1789635562934956800,8.655956787109375,-7.16943687133789,-4.283376407623291,0.5606921012878417
1789635562944996600,8.66599658203125,-7.887697369384765,-4.942230776977539,1.1700164237976074
1789635562955035600,8.67603564453125,-9.338882850646971,-5.870283195495605,1.5848118614196776
1789635562965075700,8.68607568359375,-11.32577095336914,-6.789506995391846,1.922244657897949
1789635562975115800,8.69611572265625,-11.909357608032225,-7.710077533721924,2.544138539123535
1789635562985155800,8.70615576171875,-11.174786611175536,-8.045714678955077,2.6185084281921385
1789635562995195600,8.716195556640624,-9.998934320831298,-7.582885570526122,2.331054591369629
1789635563005235700,8.726235595703125,-9.477297634124755,-6.687005236816406,2.558054836273193
1789635563015275800,8.73627587890625,-7.663540238952637,-5.435286681365967,2.5680805557250976
1789635563025315800,8.74631591796875,-5.5090580200195305,-4.369268392181397,1.8200421745300293
1789635563035356000,8.75635595703125,-4.4184991638183595,-3.49239203414917,0.912340470123291
1789635563045395700,8.766395751953125,-4.349815503692627,-2.5240871002197265,0.232387198638916
1789635563055435800,8.776435791015626,-5.614402893066406,-1.8197428993225098,0.08274959487915039
1789635563065475600,8.7864755859375,-6.564751314544678,-1.9972130973815916,-0.14155717315673827
1789635563075515600,8.796515625,-6.85684391708374,-2.583942141723633,-0.47330374069213865
1789635563085554700,8.8065546875,-7.051522439575195,-3.290231631469726,-0.7228992637634277
1789635563095594800,8.8165947265625,-7.097461183929443,-3.9299323875427246,-0.6995557975769042
1789635563105634800,8.826634765625,-7.1966709152221675,-4.109946424865722,-0.18644845428466797
1789635563115674600,8.836674560546875,-7.368005971527099,-4.043357691192627,0.16744447860717773
1789635563125714700,8.846714599609374,-7.616853306579589,-4.00938995513916,0.14963760375976562
1789635563135754800,8.856754638671875,-8.879495407104491,-4.179378273010253,-0.13512275619506836
1789635563145794600,8.866794677734376,-10.550498528289795,-4.359541947937012,-0.3450643142700195
1789635563155834600,8.876834716796875,-11.24900686264038,-4.490474851226806,-0.6512228515624999
1789635563165874700,8.886874755859376,-11.74071602859497,-4.5964182746887206,-0.612915625
1789635563175914800,8.896914794921875,-12.011709729003906,-4.9741035865783685,0.17208324432373046
1789635563185954800,8.906954833984376,-11.094880130767821,-5.716306101226806,0.5548562347412109
1789635563195994600,8.91699462890625,-9.636212769317627,-6.0811225791931145,0.33369185638427734
1789635563206034700,8.92703466796875,-7.168838320922851,-5.248838227081299,-0.014963760375976562
1789635563216073700,8.93707373046875,-5.828235028839111,-3.878606689453125,-0.08289923248291015
1789635563226113800,8.94711376953125,-6.227917068481445,-2.927210804748535,-0.25258827514648435
1789635563236153600,8.957153564453124,-6.85040950012207,-2.17707749710083,-1.3696329872131348
1789635563246193700,8.967193603515625,-8.827720796203613,-1.8819921424865722,-2.6337714637756346
1789635563256233700,8.977233642578126,-10.396671071624755,-1.913416039276123,-2.778321389007568
1789635563266273800,8.987273681640625,-10.427496417999267,-2.6309283493041993,-1.8381483245849608
1789635563276313900,8.99731396484375,-9.005939182281494,-3.339761678314209,-0.9252093040466308
1789635563286353700,9.007353759765625,-7.805695962524414,-3.642179275512695,-0.251540811920166
1789635563296393700,9.017393798828126,-7.6737155960083,-2.914341970825195,0.028880057525634766
1789635563306433800,9.027433837890625,-8.002619049072266,-0.7640496047973633,-0.48766895065307614
1789635563316473600,9.0374736328125,-7.9566803047180175,1.678335363769531,-0.8702923034667969
1789635563326513400,9.047513427734375,-6.741473324584961,1.905036333465576,-0.40671500701904295
1789635563336553200,9.05755322265625,-5.537189889526367,0.42931028518676756,0.037708676147460936
1789635563346592300,9.06759228515625,-4.502445859527588,-0.827346311187744,-0.27727847976684566
1789635563356632300,9.07763232421875,-4.116081566619873,-0.36496611557006836,-1.162534543609619
1789635563366672400,9.08767236328125,-5.103091201019287,1.050904891204834,-1.4802151763916014
1789635563376712400,9.09771240234375,-7.50148271408081,1.3626000198364256,-0.6772597946166992
1789635563386752300,9.107752197265626,-9.342474153137207,0.22086510314941404,-0.30047230834960936
1789635563396792000,9.1177919921875,-9.919027840423583,-1.3468880714416502,-0.5880757827758789
1789635563406832000,9.12783203125,-10.030657492828368,-2.1390695457458495,-1.15565121383667
1789635563416872200,9.1378720703125,-10.402506938171387,-1.8623896163940428,-0.8500912269592285
1789635563426912300,9.147912353515625,-10.709264025878905,-0.8288426872253417,-0.029179332733154296
1789635563436952300,9.157952392578125,-10.363750798797607,-0.008379705810546874,-0.07751227874755859
1789635563446992100,9.1679921875,-8.799738564300537,-0.29358897857666016,-1.0242693977355957
1789635563457032200,9.1780322265625,-7.6997525390625,-1.1641805572509765,-1.5275006591796874
1789635563467072300,9.188072265625,-8.618078513336181,-1.8104653678894043,-0.9346364730834961
1789635563477112300,9.1981123046875,-8.955062397003173,-2.3274632888793945,-0.41060558471679687
1789635563487151000,9.208151123046875,-8.074594736480712,-1.8736124366760252,0.11327566604614257
1789635563497191200,9.218191162109376,-6.685508860778808,-0.833182177734375,0.4601356315612793
1789635563507231200,9.228231201171875,-6.497414392852783,0.09935936889648436,0.7992144416809082
1789635563517271300,9.238271240234376,-7.119457911682129,0.2693476867675781,0.7658452560424804
1789635563527311400,9.248311279296875,-7.610718164825439,-0.34491467666625975,-0.023642741394042967
1789635563537351200,9.25835107421875,-8.768613942718506,-0.840813695526123,-1.193359889984131
1789635563547391200,9.26839111328125,-11.387720921325682,-1.063624087524414,-1.1082160934448242
1789635563557431300,9.278431396484375,-11.750442472839355,-1.4610615631103514,0.04129997863769531
1789635563567471400,9.288471435546874,-9.653720368957519,-2.740014162445068,0.9901520240783691
1789635563577511400,9.298511474609375,-7.735964839172363,-4.150647853088379,0.6177040283203125
1789635563587551200,9.30855126953125,-8.552986155700683,-4.911405430603027,-0.20305822830200193
1789635563597591000,9.318591064453125,-10.218452685546874,-4.903923550415039,-0.5994482406616211
1789635563607631000,9.328631103515624,-10.197802696228027,-4.878485157775879,-0.30840310134887694
1789635563617671200,9.338671142578125,-7.8912886718749995,-5.034557178497314,-0.1614589744567871
1789635563627710500,9.34871044921875,-6.52494771194458,-5.092018018341064,-0.6932710182189941
1789635563637750300,9.358750244140625,-7.273435005950927,-4.773589197540283,-1.1516109985351561
1789635563647790000,9.3687900390625,-8.581716575622558,-3.947888899993896,-0.7468412803649902
1789635563657830100,9.378830078125,-7.1312792823791495,-2.915688709259033,0.23448212509155272
1789635563667870200,9.3888701171875,-4.097825778961181,-2.3044190979003907,0.8023568313598632
1789635563677910300,9.39891015625,-2.468870824432373,-2.0847510955810544,0.48347909774780273
1789635563687950000,9.4089501953125,-3.9100305862426756,-1.817049422454834,-0.3721487205505371
1789635563697990100,9.418990234375,-7.677606173706054,-1.4710872825622558,-0.9554361000061035
1789635563708030200,9.4290302734375,-11.177330450439452,-1.7401356941223143,-0.529268204498291
1789635563718070300,9.4390703125,-11.164162341308593,-2.991106061553955,1.4648025032043457
1789635563728110300,9.4491103515625,-8.525901749420166,-5.1696799346923825,3.3378163894653317
1789635563738150400,9.459150390625,-6.5375172706604,-6.67189183883667,3.4006641830444333
1789635563748190200,9.469190185546875,-6.715586019134521,-7.773823152923583,2.1143793411254883
1789635563758229200,9.479229248046876,-9.11053586730957,-8.750956705474852,0.7007528984069824
1789635563768269300,9.489269287109375,-11.135880834197998,-9.298929610443114,-0.3591302490234375
1789635563778309400,9.499309326171876,-12.146832485198974,-9.397241516113281,-0.5547065971374512
1789635563788349200,9.50934912109375,-12.120945179748535,-9.59625952911377,-0.011222820281982421
1789635563798389200,9.51938916015625,-10.054000959014893,-9.532064997100829,1.4764742362976073
1789635563808429300,9.52942919921875,-7.64229169921875,-9.353397698211669,2.574365335083008
1789635563818469400,9.539469482421875,-6.9792474769592285,-9.182361917114257,2.7691934951782224
1789635563828509400,9.549509521484374,-7.840112611389159,-9.11697028427124,2.362628125762939
1789635563838549200,9.55954931640625,-8.929624004364014,-9.458443296051025,1.4419079498291014
1789635563848589000,9.569589111328124,-9.892392346954345,-10.451737709808349,0.36930560607910157
1789635563858629000,9.579629150390625,-10.359560945892333,-11.525237879180908,-0.03651157531738281
1789635563868669200,9.589669189453126,-9.858274973297119,-11.9005289894104,0.8649053497314453
1789635563878709200,9.599709228515625,-8.453926062011718,-11.40283431930542,1.7755998062133789
1789635563888748300,9.609748291015626,-7.005284420013427,-9.941772756195068,2.0823568939208985
1789635563898788000,9.6197880859375,-6.585850216674804,-8.207622566223144,1.8707693222045898
1789635563908828200,9.629828125,-7.006331883239746,-7.143100653076171,1.1516109985351561
1789635563918868200,9.6398681640625,-7.1023992248535155,-6.922834100341796,0.004489128112792969
1789635563928908300,9.649908203125,-7.054066278839111,-7.042394545745849,-0.97039986038208
1789635563938948000,9.659947998046874,-7.593060927581787,-7.1680901329040525,-0.7223007133483886
1789635563948988200,9.66998828125,-7.492654095458984,-7.0850412628173824,0.45235447616577146
1789635563959028200,9.6800283203125,-6.104166770172119,-6.877793181610107,1.2690765174865721
1789635563969068300,9.690068359375,-4.647145422363281,-7.157465863037109,0.6696282768249512
1789635563979108400,9.7001083984375,-4.3150995796203615,-6.99750326461792,-0.26710312271118164
1789635563989148200,9.710148193359375,-4.749048630523681,-6.336254693603515,-0.2781763053894043
1789635563999188200,9.720188232421876,-5.10698177871704,-6.577620148468017,0.5529109458923339
1789635564009228300,9.730228271484375,-5.131671983337402,-6.815843213653564,1.4802151763916014
1789635564019267300,9.740267333984375,-5.132120896148681,-6.55008682937622,1.910872200012207
1789635564029307400,9.750307373046875,-5.030516963195801,-5.690718070983887,1.5423147819519043
1789635564039347200,9.76034716796875,-4.688146125793457,-4.835838440704346,0.6908768165588378
1789635564049387300,9.77038720703125,-3.9127240631103515,-4.556315396881104,-0.6666355247497558
1789635564059427300,9.78042724609375,-4.851400751495361,-5.664082577514648,-1.4006079711914061
1789635564069467400,9.79046728515625,-6.624456718444824,-7.102848137664795,-0.748936206817627
1789635564079507500,9.800507568359375,-7.612962728881835,-8.860192156219481,-0.12943652725219726
1789635564089547300,9.81054736328125,-8.655188639068603,-10.50156703186035,0.1945288848876953
1789635564099587300,9.82058740234375,-9.829245278167724,-11.594669727325439,0.445620783996582
1789635564109627100,9.830627197265626,-10.203339287567138,-11.480945148468017,0.8631096984863281
1789635564119667200,9.840667236328125,-9.024494245147704,-9.526528405761718,1.2485761657714842
1789635564129707300,9.850707275390626,-8.745420114135742,-7.803002485656738,1.6552911727905273
1789635564139747000,9.8607470703125,-9.630676177978515,-7.828889791107177,2.2099977699279783
1789635564149787100,9.870787109375,-9.491962119293213,-8.808267907714843,2.901772412109375
1789635564159827200,9.8808271484375,-9.039308367919922,-9.289951354217528,3.7907694160461425
1789635564169866200,9.8908662109375,-9.14809490585327,-9.21199016265869,3.8476317054748534
1789635564179906000,9.900906005859374,-9.806500362396239,-8.956858048248291,3.2905309066772457
1789635564189946000,9.910946044921875,-10.941501586914061,-8.945036677551268,2.786102544403076
1789635564199986200,9.920986083984374,-11.370811872100829,-8.643516905975341,2.4417864181518554
1789635564210026200,9.931026123046875,-10.73230821685791,-8.31910258102417,2.1519383796691893
1789635564220066300,9.94106640625,-9.486275890350342,-7.9855603622436515,1.8546084609985352
1789635564230106400,9.9511064453125,-7.850736881256103,-7.2243538719177245,1.5114894355773925
1789635564240146200,9.961146240234376,-6.791302646636963,-5.653757582855224,1.3007996894836424
1789635564250186200,9.971186279296875,-6.080374391174316,-4.458153128814697,0.9425672660827636
1789635564260226300,9.981226318359376,-5.230283164215088,-3.9983167724609374,0.6964134078979491
1789635564270266400,9.991266357421875,-5.713462986755371,-3.7357027778625485,0.752078596496582
1789635564280306400,10.001306396484376,-7.388506323242187,-3.7515643638610836,0.9623194297790527
1789635564290346200,10.01134619140625,-7.970746239471435,-4.370914405822754,1.0330980163574217
1789635564300385300,10.02138525390625,-8.045714678955077,-5.285050527191162,1.0283096130371092
1789635564310425300,10.03142529296875,-8.285284482574463,-6.5671455162048336,1.3338695999145507
1789635564320465400,10.04146533203125,-7.711424272155761,-7.3180270118713375,1.861641428375244
1789635564330505700,10.051505615234374,-7.026532959747314,-6.848164936065674,2.1061492729187012
1789635564340545800,10.0615458984375,-6.501005695343017,-5.380070405578613,1.9152116905212402
1789635564350585900,10.0715859375,-6.312611952209473,-3.471143494415283,1.4897919830322264
1789635564360626000,10.0816259765625,-6.093692137908935,-2.041056915283203,0.9290998817443847
1789635564370665700,10.091665771484376,-5.238662870025634,-1.3631985702514648,0.20904373245239258
1789635564380705800,10.101705810546875,-5.506663818359375,-1.169717148590088,-0.04908113403320312
1789635564390745900,10.111745849609376,-6.253205823516845,-1.793406681060791,0.05581482620239257
1789635564400786000,10.121785888671875,-6.3459811378479,-3.086874127960205,0.0010474632263183592
1789635564410826000,10.131825927734376,-7.321319039154052,-4.53282229309082,-0.02977788314819336
1789635564420865800,10.14186572265625,-8.565256439208984,-5.65031591796875,0.059256491088867186
1789635564430904800,10.15190478515625,-8.87485664138794,-5.940163956451416,-0.1954267105102539
1789635564440945000,10.16194482421875,-9.870844532012939,-5.454440294647217,-0.5327098693847656
1789635564450985000,10.17198486328125,-10.76313356323242,-5.168333196258545,-0.4700117134094238
1789635564461024800,10.182024658203124,-10.657040502166748,-5.082590849304199,-0.07197568740844726
1789635564471064800,10.19206494140625,-10.790966157531738,-5.1517234222412105,0.29014731369018554
1789635564481105000,10.20210498046875,-10.624569142150879,-5.220556719970703,0.49245735397338863
1789635564491145000,10.21214501953125,-10.267683457183837,-4.988169521331787,0.6575076309204101
1789635564501185000,10.22218505859375,-10.133757801818847,-4.494963979339599,0.8267477607727051
1789635564511225000,10.23222509765625,-10.032602781677246,-3.9906852546691893,0.665887336730957
1789635564521265000,10.242264892578126,-9.961524919891357,-3.5583822174072264,0.30735563812255856
1789635564531305000,10.252304931640625,-10.13196215057373,-2.999336129760742,0.10339958419799804
1789635564541344800,10.2623447265625,-10.271424397277832,-2.8202199180603027,-0.0626981559753418
1789635564551384800,10.272384765625,-9.345616542816161,-3.219602682495117,0.011671733093261718
1789635564561425000,10.2824248046875,-7.99947665939331,-3.473687333679199,0.05970540390014648
1789635564571464000,10.2924638671875,-7.518092488098144,-3.152565036010742,-0.0430956298828125
1789635564581503700,10.302503662109375,-7.262212185668945,-2.071134073638916,-0.3630208267211914
1789635564591543800,10.312543701171874,-6.833051538085937,-0.5038298118591308,-0.842758984375
1789635564601583900,10.322583984375,-6.929118879699707,-0.18375497741699218,-1.004217958831787
1789635564611623700,10.332623779296876,-7.162553541564941,-0.716315209197998,-1.0338462043762207
1789635564621663700,10.342663818359375,-7.232135027313232,-1.0420762725830077,-0.7142202827453613
1789635564631703800,10.352703857421876,-6.994510512542724,-1.4668974296569823,-0.17612345962524412
1789635564641744000,10.362743896484375,-6.898293533325195,-1.7515081520080564,-0.12898761444091797
1789635564651784000,10.372783935546876,-7.549965297698974,-1.5623662208557128,-0.088735099029541
1789635564661824000,10.382823974609375,-8.236352986145018,-1.3857938484191894,-0.21906945190429686
1789635564671863800,10.39286376953125,-7.825747401428222,-1.5779285316467284,-0.7267898414611816
1789635564681903900,10.40290380859375,-5.846790091705322,-1.5034090049743651,-1.8713678726196288
1789635564691944000,10.41294384765625,-5.172971961975097,-0.821061531829834,-2.691681216430664
1789635564701984000,10.42298388671875,-6.356156494903564,0.032920272827148434,-2.2451626068115234
1789635564712022800,10.433022705078125,-7.664288426971435,0.11701660614013672,-1.1373954261779784
1789635564722062800,10.443062744140626,-8.786271179962158,-0.23837270278930664,-1.0621277114868164
1789635564732103000,10.45310302734375,-11.372158610534667,0.8830114997863769,-0.9612719665527343
1789635564742143000,10.46314306640625,-11.407622722625732,1.3359645263671873,1.0021230323791503
1789635564752183000,10.47318310546875,-6.912808380889892,0.10220248336791991,2.7281927917480466
1789635564762222800,10.483222900390626,-3.4295442405700682,-0.5068225639343261,2.33030640335083
1789635564772263000,10.493262939453125,-4.639663542175293,-0.6745663177490234,1.0030208580017088
1789635564782303000,10.503302978515626,-7.049726788330077,-0.8837596878051758,-0.7453449043273925
1789635564792342800,10.5133427734375,-8.548646665191649,-0.7618050407409668,-2.236633263397217
1789635564802382800,10.5233828125,-10.192116467285155,-0.1370680450439453,-2.0374656127929685
1789635564812423000,10.5334228515625,-11.23583875350952,0.09367313995361327,0.05566518859863281
1789635564822462700,10.543462646484375,-9.706392805480956,-0.9443629173278808,2.6795605705261227
1789635564832502800,10.553502685546874,-7.218368367767334,-3.5007717399597165,2.817376803588867
1789635564842542800,10.56354296875,-8.8236805809021,-5.268141477966308,0.5111620544433594
1789635564852582000,10.573581787109376,-12.796110047912597,-5.42062219619751,-0.5984007774353027
1789635564862621700,10.58362158203125,-13.531878145599364,-4.837484454345703,0.10040683212280273
1789635564872661800,10.593661865234376,-9.875333660125731,-4.452466899871826,1.2713210815429687
1789635564882701800,10.603701904296875,-7.038354330444336,-4.358793759918212,0.8249521095275878
1789635564892742000,10.613741943359376,-8.096890739440918,-4.410269095611572,-0.5285200164794922
1789635564902782000,10.623781982421875,-9.560795417022705,-4.23938295211792,-1.133205573272705
1789635564912821800,10.63382177734375,-8.658031753540039,-3.855562498474121,-0.9958382530212402
1789635564922861800,10.64386181640625,-6.382343075561523,-3.3176153129577637,-0.6093243225097655
1789635564932902000,10.65390185546875,-5.665878228759765,-2.609979084777832,-0.21173720932006834
1789635564942942000,10.66394189453125,-6.159383045959473,-1.8338088340759275,0.052073886108398436
1789635564952982000,10.67398193359375,-6.7559881721496575,-1.5216647926330567,0.29358897857666016
1789635564963021800,10.684021728515624,-6.907122151947021,-2.120065570068359,0.5237316131591797
1789635564973062000,10.694061767578125,-7.302763976287841,-3.42176308517456,0.7697358337402344
1789635564983101000,10.704100830078126,-7.965957836151123,-5.033060802459716,1.092953057861328
1789635564993141000,10.71414111328125,-7.493252645874023,-6.5224038726806635,1.488145969390869
1789635565003181000,10.72418115234375,-7.6614453125,-7.5525091369628905,1.899948654937744
1789635565013220900,10.734220947265625,-9.886556480407714,-8.11409906387329,1.7215806312561035
1789635565023261000,10.744260986328126,-11.412710401153564,-8.182034535980224,1.5575778175354003
1789635565033301000,10.754301025390625,-9.319130686950682,-7.83337891921997,1.916558428955078
1789635565043340800,10.7643408203125,-7.063942360687255,-7.498789237213134,1.5734394035339354
1789635565053380900,10.774380859375,-8.570044842529297,-7.215674890899658,0.7390601249694824
1789635565063420700,10.784420654296875,-9.700407301330566,-6.947524304962158,-0.4736030158996582
1789635565073460700,10.794460693359374,-9.630825815582275,-7.113921320343017,-1.0134954902648925
1789635565083500800,10.804500732421875,-9.302670550537108,-7.778312281036376,-0.426467170715332
1789635565093540900,10.814540771484374,-8.921393936157227,-8.472481124877929,0.7490858444213867
1789635565103581000,10.824580810546875,-8.234258059692383,-8.761281700134276,1.7711106781005859
1789635565113620700,10.834620849609376,-7.304260352325439,-8.70157629623413,2.5157073944091795
1789635565123660800,10.844660888671875,-6.449231084442138,-8.453477149200438,2.7920880485534667
1789635565133699800,10.854699951171876,-6.0908490234374995,-8.261043190765381,2.429965047454834
1789635565143740000,10.864739990234375,-6.209212368011475,-8.448389470672607,1.345092420196533
1789635565153780000,10.874780029296875,-7.323713240814208,-9.493308857727051,-0.08409633331298827
1789635565163819800,10.88481982421875,-8.605209679412841,-10.59823292388916,-0.5473743545532226
1789635565173859800,10.89485986328125,-8.61867706375122,-10.897358493804932,0.6902782661437988
1789635565183900000,10.90489990234375,-7.784746697998046,-10.62382095413208,2.0108301193237303
1789635565193940000,10.91493994140625,-7.519289588928222,-10.39412723236084,2.63661457824707
1789635565203980000,10.92497998046875,-7.05466482925415,-9.259574920654297,2.7865514572143555
1789635565214019800,10.935019775390625,-6.246771406555175,-7.5165961120605465,2.1721394561767577
1789635565224060000,10.945059814453124,-5.879261451721191,-6.79953271484375,0.8123825508117676
1789635565234100000,10.955099853515625,-5.709722046661376,-6.823774006652831,-0.5240308883666992
1789635565244140000,10.96514013671875,-5.281908137512207,-6.2769982025146485,-1.4791677131652832
1789635565254179800,10.975179931640625,-5.432443566894531,-5.729773485565185,-1.4170681076049805
1789635565264219600,10.9852197265625,-5.519981565093993,-5.6568999725341795,-0.5143044441223145
1789635565274259000,10.995259033203125,-5.472995357513428,-5.743390507507324,0.3420715621948242
1789635565284299000,11.005299072265625,-5.511003308868408,-5.784540848541259,0.6958148574829102
1789635565294338800,11.0153388671875,-5.723638343811035,-6.59467883529663,0.6491279251098633
1789635565304379000,11.02537890625,-5.742043769073486,-7.532457698059082,0.5662286926269531
1789635565314418700,11.035418701171874,-4.977395613861083,-7.794922055053711,0.06988076095581054
1789635565324458800,11.045458740234375,-5.491849695587158,-8.068160319519043,-0.3757400230407715
1789635565334499000,11.0554990234375,-6.42903000793457,-8.488193073272704,-0.23567922592163085
1789635565344539100,11.0655390625,-6.902782661437988,-8.629002058410643,0.1662473777770996
1789635565354579200,11.0755791015625,-7.997232095336914,-8.826673332977295,1.2942156349182128
1789635565364619300,11.085619384765625,-7.962516171264648,-9.0788126953125,1.976563108062744
1789635565374659300,11.095659423828126,-8.179490696716307,-9.450213227844237,1.8288707931518553
1789635565384699100,11.10569921875,-9.32047742538452,-9.955988328552246,1.4950292991638183
1789635565394739200,11.1157392578125,-10.305841046142577,-10.509348187255858,1.7473182991027831
1789635565404779300,11.125779296875,-11.029488497924804,-10.472836611938476,2.3708581939697266
1789635565414818300,11.135818359375,-10.987141056060791,-10.277260263824463,2.686743175506592
1789635565424858000,11.145858154296874,-10.010306778717041,-9.58279214477539,2.755875748443603
1789635565434898200,11.155898193359375,-9.411008175659179,-7.63555800704956,3.3074399559020993
1789635565444938200,11.165938232421874,-9.412504551696777,-6.226420692443847,4.058920001983642
1789635565454978300,11.175978271484375,-7.9110408355712885,-6.047304480743408,3.7802947837829586
1789635565465018400,11.186018310546874,-6.23120909576416,-5.73336478805542,2.7527333587646483
1789635565475058400,11.196058349609375,-5.943455983734131,-5.338022238922119,1.135150862121582
1789635565485098200,11.20609814453125,-5.851578495025635,-5.026476747894287,-0.18210896377563476
1789635565495138000,11.216137939453125,-6.128108786773681,-5.298218636322021,-0.6820481979370117
1789635565505178000,11.22617822265625,-6.886771437835693,-5.608866301727295,-0.5134066184997559
1789635565515218200,11.23621826171875,-7.239616907501221,-5.595099642181396,0.13871405868530273
1789635565525258200,11.24625830078125,-7.502979090118408,-5.8834513046264645,0.8872013526916503
1789635565535298000,11.256298095703125,-7.877970925140381,-5.981314297485351,1.6141408317565917
1789635565545338000,11.266338134765626,-8.41397282180786,-5.966799449920654,2.3388357467651364
1789635565555377200,11.276377197265624,-8.732700917816162,-6.58884296875,2.633472188568115
1789635565565417200,11.286417236328125,-7.972841165924072,-7.362020467376708,2.431012510681152
1789635565575457000,11.29645703125,-7.090577854156494,-7.497741773986816,1.808669716644287
1789635565585497000,11.3064970703125,-7.371746911621093,-6.587945143127441,1.497722776031494
1789635565595537200,11.316537109375,-8.162432009887695,-5.42017328338623,1.412279704284668
1789635565605577200,11.3265771484375,-8.206275827789305,-4.958990188598633,1.0758943710327147
1789635565615617300,11.3366171875,-8.253112397766113,-5.247192213439941,0.6405985816955566
1789635565625657300,11.3466572265625,-8.820538191223145,-5.654356133270263,0.5989993278503417
1789635565635697200,11.356697265625,-9.744700032043456,-6.102520756530762,0.8925883064270019
1789635565645737200,11.3667373046875,-9.846303964996338,-6.200383749389648,0.9891045608520507
1789635565655777300,11.37677734375,-9.886107567596435,-5.972635316467285,0.9805752174377441
1789635565665817300,11.3868173828125,-9.785102185058593,-5.348047958374023,0.9404723396301269
1789635565675857400,11.396857421875,-9.196278214263916,-4.501996946716308,0.5844844802856445
1789635565685897200,11.406897216796875,-9.063998572540283,-3.9941269195556637,0.04504091873168945
1789635565695936300,11.416936279296875,-9.195978939056396,-4.065803331756592,-0.4327519500732422
1789635565705976300,11.426976318359374,-10.03514662094116,-4.952555771636963,-0.38666356811523434
1789635565716016400,11.437016357421875,-9.481038574218749,-6.487239035797119,-0.16205752487182618
1789635565726056200,11.44705615234375,-7.617900769805908,-7.113921320343017,-0.37723639907836914
1789635565736096300,11.45709619140625,-7.523778717041015,-5.732766237640381,-0.3238157745361328
1789635565746136000,11.467135986328126,-7.407809574127197,-3.349039209747314,0.4251204322814941
1789635565756176100,11.477176025390625,-6.721721160888672,-2.148197439575195,0.7369651985168456
1789635565766216200,11.48721630859375,-6.182127961730957,-1.7389385932922363,0.24181436767578124
1789635565776256300,11.49725634765625,-6.584353840637207,-0.9638158058166504,-0.6723217536926269
1789635565786296000,11.507296142578125,-7.653664157104492,-0.14649521408081054,-1.082777700805664
1789635565796336000,11.517336181640625,-7.726537670135498,-0.131531453704834,-1.1270704315185547
1789635565806376200,11.527376220703125,-7.0102224609374995,-0.5946598373413086,-1.3771148674011229
1789635565816416300,11.537416259765624,-6.477063678741454,-1.124227317047119,-0.9992799179077148
1789635565826456300,11.547456298828125,-6.1541457298278806,-1.5837643981933593,-0.3511994560241699
1789635565836495000,11.5574951171875,-7.04224490814209,-1.2810475257873535,-0.07227496261596679
1789635565846535200,11.56753515625,-9.076119218444823,-1.15565121383667,0.14888941574096679
1789635565856575200,11.5775751953125,-9.317634310913085,-1.6442179901123046,0.49530046844482417
1789635565866615300,11.587615234375,-8.014141144561767,-1.8007389236450195,0.5274725532531738
1789635565876655000,11.597655029296876,-6.76721099243164,-0.3640682899475097,0.1183633445739746
1789635565886695200,11.607695068359375,-5.993584580993652,0.26830022354125976,0.5096656784057617
1789635565896735200,11.6177353515625,-6.425887618255615,-0.38666356811523434,0.5392939239501953
1789635565906775300,11.627775390625,-7.452102304840087,-0.13811550827026367,-0.42931028518676756
1789635565916815400,11.6378154296875,-8.767117566680907,0.277727392578125,-0.4402338302612304
1789635565926855400,11.64785546875,-10.421062001037598,-0.8101379867553711,-0.5168482833862305
1789635565936895200,11.657895263671875,-10.686668747711181,-1.8218378257751464,-0.9111433692932128
1789635565946935300,11.667935302734374,-9.804106160736083,-1.2464812393188476,-1.7034744812011717
1789635565956975000,11.67797509765625,-9.284863675689696,0.31259295425415035,-0.7417536018371581
1789635565967015200,11.68801513671875,-7.819911534881592,0.7305307815551757,1.3028946159362793
1789635565977055200,11.69805517578125,-5.868637181854248,0.4364928901672363,1.7025766555786133
1789635565987094300,11.70809423828125,-6.329969914245605,0.3308487419128418,0.33833062210083004
1789635565997134300,11.71813427734375,-9.17981807785034,-0.10265139617919922,-1.5146318252563475
1789635566007174100,11.728174072265626,-11.60050559387207,-1.1991957565307616,-1.5851111366271973
1789635566017214200,11.738214111328125,-9.853187294769286,-2.5022400100708007,-0.5271732780456543
1789635566027254000,11.74825390625,-7.161954991149902,-2.601000828552246,0.3694552436828613
1789635566037294000,11.758294189453125,-7.306205641174316,-1.7567454681396484,1.2559084083557128
1789635566047334100,11.768334228515625,-7.208941198730468,-1.069310316467285,1.1424831047058104
1789635566057374200,11.778374267578124,-6.776937436676025,-1.1577461402893066,-0.09906009368896483
1789635566067414300,11.788414306640625,-7.932289375305175,-1.8312649948120117,-1.7944541442871094
1789635566077454000,11.7984541015625,-9.737816702270507,-2.5848399673461913,-2.2379800018310547
1789635566087494100,11.808494140625,-10.613047046661377,-3.1233857032775876,-0.7091326042175292
1789635566097534200,11.8185341796875,-8.944138851928711,-3.7633857345581054,0.7615057655334472
1789635566107574300,11.82857421875,-7.313837158966064,-4.180425736236572,0.7760206130981445
1789635566117614300,11.8386142578125,-7.926603146362305,-3.9815573608398434,-0.1701379554748535
1789635566127654400,11.848654296875,-8.628104232788086,-3.1543606872558594,-0.9271545928955077
1789635566137693200,11.858693115234376,-8.262838842010497,-2.2762872283935547,-0.4477157104492187
1789635566147733200,11.868733154296875,-7.115716971588134,-2.1888988677978514,0.5725134719848632
1789635566157773300,11.878773193359375,-6.646603083801269,-3.2522236801147457,1.006163247680664
1789635566167813400,11.8888134765625,-6.339845996093749,-4.798279402160644,0.378583137512207
1789635566177853200,11.898853271484375,-6.297498554229736,-5.765387235260009,-0.16250643768310546
1789635566187893200,11.908893310546874,-7.559691741943359,-5.815216557312011,-0.08140285644531249
1789635566197933300,11.918933349609375,-7.883208241271972,-4.9443257034301755,0.36571430358886714
1789635566207973000,11.92897314453125,-7.120056462097168,-3.7907694160461425,1.262193187713623
1789635566218013200,11.93901318359375,-6.755838534545898,-3.177255240631103,1.759438945007324
1789635566228053000,11.949052978515626,-7.080701772308349,-3.287238879394531,1.277605860900879
1789635566238093000,11.959093017578125,-7.907449533081055,-3.86229619064331,0.718260498046875
1789635566248133000,11.969133056640626,-7.988403476715088,-4.106804035186768,1.009455274963379
1789635566258173200,11.979173095703125,-6.995258700561523,-4.161421760559082,1.5925930168151854
1789635566268213200,11.989213134765626,-6.747907741546631,-4.378545923614502,1.7061679580688476
1789635566278252000,11.999251953125,-7.119008998870849,-4.330512252807617,1.0491092399597168
1789635566288292000,12.0092919921875,-7.907599170684814,-4.208557605743408,0.11611878051757812
1789635566298332200,12.019332275390624,-8.8612396194458,-5.032761527252197,-0.5110124168395995
1789635566308372200,12.029372314453125,-9.941922393798828,-7.080851409912109,-0.8993219985961913
1789635566318412300,12.039412353515624,-10.983998666381835,-9.993397729492187,-0.028880057525634766
1789635566328451600,12.04945166015625,-11.704354090881347,-12.352434552764892,1.6142904693603515
1789635566338491600,12.05949169921875,-11.545139680480956,-12.921955272674559,3.1176994743347164
1789635566348531700,12.06953173828125,-10.4188174369812,-12.337919705200195,3.3159692993164063
1789635566358571800,12.07957177734375,-9.674669633483886,-11.223119557189941,2.6509797882080077
1789635566368611800,12.08961181640625,-9.217077841186523,-10.155904167175292,2.504634211730957
1789635566378651600,12.099651611328126,-8.95745659866333,-9.834482594299315,2.5201965225219727
1789635566388691700,12.109691650390625,-9.565583820343017,-10.486752909088134,2.0973206542968748
1789635566398731800,12.119731689453126,-10.370933403778075,-11.415703153228758,1.6377835731506347
1789635566408771800,12.129771728515625,-10.089764346313476,-11.506982091522216,1.594837580871582
1789635566418812000,12.13981201171875,-9.347861106872559,-10.57907931060791,2.1446061370849607
1789635566428850700,12.1498505859375,-8.419808688354491,-9.505579141235351,2.429965047454834
1789635566438890800,12.159890869140625,-7.323862878417969,-8.422502165222168,2.0546739372253415
1789635566448930800,12.169930908203124,-6.619518677520752,-7.663839514160156,1.3016975151062011
1789635566458971000,12.179970947265625,-6.055384911346435,-7.37414111328125,0.6298246742248534
1789635566469010700,12.1900107421875,-5.977573357391357,-7.542184142303467,0.7835024932861328
1789635566479050800,12.20005078125,-5.801898810577392,-7.606229036712646,1.2376526206970213
1789635566489090600,12.210090576171876,-4.496460355377197,-6.884077960968018,0.8161234909057616
1789635566499130600,12.220130615234375,-4.409221632385254,-5.5838768218994135,0.32830490264892576
1789635566509170700,12.230170654296876,-5.272181693267822,-5.0680760017395015,0.3920505218505859
1789635566519210800,12.240210693359375,-4.7858594810485835,-5.483170714569091,0.5659294174194336
1789635566529250600,12.25025048828125,-4.414458948516845,-5.9126306373596185,0.43783962860107417
1789635566539290600,12.26029052734375,-5.0945618576049805,-6.341043096923828,-0.07227496261596679
1789635566549330700,12.27033056640625,-6.2766989273071285,-6.712293991851806,0.07407061386108398
1789635566559370800,12.280370849609374,-6.3633390998840325,-6.605003829956054,0.3752911102294922
1789635566569410800,12.290410888671875,-5.991190379333496,-6.12257219543457,0.2920926025390625
1789635566579449600,12.30044970703125,-5.547514884185791,-5.4984337501525875,-0.24256255569458007
1789635566589489700,12.31048974609375,-4.835090252685546,-5.339817890167236,-0.9380781379699706
1789635566599529700,12.32052978515625,-4.516062881469726,-5.740547393035889,-1.6247651016235352
1789635566609569800,12.33056982421875,-5.7906759902954095,-6.360346347808838,-1.9439421104431152
1789635566619609600,12.340609619140626,-8.314763090515136,-7.369502347564697,-1.5668553489685058
1789635566629649700,12.350649658203125,-10.092757098388672,-9.21154124984741,-1.0048165092468262
1789635566639689700,12.360689697265625,-10.860547643280029,-11.90756195678711,-0.2916436897277832
1789635566649729800,12.370729736328125,-11.92611701965332,-13.677026621246338,1.7342998275756836
1789635566659769900,12.380769775390625,-11.951705049896239,-13.314753982543944,4.142417784881592
1789635566669810000,12.390809814453124,-10.816404550170898,-11.643900498962402,5.0939633071899415
1789635566679849700,12.400849609375,-9.936834715270995,-9.292345555877684,4.912602531433105
1789635566689889800,12.410889892578124,-9.41639512939453,-7.608174325561523,4.933851071166992
1789635566699929600,12.4209296875,-9.026140258789061,-7.864802816009521,4.385728528594971
1789635566709969700,12.4309697265625,-8.930821105194092,-8.520664433288573,2.8399720817565917
1789635566720008700,12.4410087890625,-8.654889363861084,-7.676109797668457,1.8251298530578612
1789635566730048800,12.451048828125,-8.215702996826172,-6.730699417114257,1.4507365684509277
1789635566740088600,12.461088623046875,-8.084919731140136,-6.378751773071289,0.9463082061767577
1789635566750128600,12.471128662109376,-8.270320722198486,-6.038775137329101,0.898274535369873
1789635566760168700,12.481168701171875,-8.479663729858398,-5.623530786895752,0.8364742050170898
1789635566770208500,12.49120849609375,-7.924657857513427,-4.989366622161865,0.8047510330200195
1789635566780248600,12.50124853515625,-7.236923430633545,-4.683507360076904,0.7643488800048828
1789635566790288600,12.51128857421875,-6.00720160293579,-4.5678374923706055,0.6747159553527832
1789635566800328700,12.52132861328125,-4.957344174957275,-4.469675224304199,0.6480804618835448
1789635566810368800,12.53136865234375,-4.281131843566894,-4.251653235626221,0.5039794494628906
1789635566820408800,12.541408935546874,-3.6520553573608394,-3.649960430908203,0.2889502128601074
1789635566830448600,12.55144873046875,-4.6447512207031245,-3.0795418853759764,0.07870937957763671
1789635566840488700,12.56148876953125,-6.8496613121032714,-3.687519469451904,0.3962403747558593
1789635566850528800,12.57152880859375,-8.410231881713866,-5.445312400817871,0.9243114784240722
1789635566860568800,12.58156884765625,-9.525480942535399,-7.491756269836426,1.4680945304870605
1789635566870607600,12.591607666015625,-9.366565807342528,-8.86722512359619,1.7769465446472168
1789635566880647700,12.601647705078125,-8.195202645111083,-9.04050546875,1.5857096870422362
1789635566890687700,12.611687744140625,-7.090428216552734,-7.542034504699706,0.847846662902832
1789635566900727800,12.621727783203125,-7.0567597557067865,-4.252999974060058,0.08903437423706054
1789635566910767900,12.631767822265624,-7.605331211090087,-1.744774459838867,-0.1984194625854492
1789635566920807700,12.6418076171875,-8.110657398986817,-1.562964771270752,-0.5409399375915527
1789635566930847700,12.65184765625,-9.005340631866455,-2.6638486221313475,-0.6744166801452637
1789635566940887800,12.6618876953125,-9.928455009460448,-3.6762966491699216,-0.21996727752685546
1789635566950927600,12.671927734375,-10.120140779876708,-4.50768317565918,0.16460136413574217
1789635566960967700,12.6819677734375,-9.820715934753418,-4.600757765197754,0.17732056045532227
1789635566971007700,12.6920078125,-10.8532154006958,-3.934122240447998,0.5741594856262207
1789635566981047600,12.702047607421875,-11.05178450088501,-4.012831620025635,0.9901520240783691
1789635566991087600,12.712087646484376,-9.34696328125,-4.470872325134277,0.8011597305297851
1789635567001127700,12.722127685546875,-8.163629110717773,-4.274996701812744,0.02633621826171875
1789635567011167700,12.732167724609376,-8.031648744201659,-2.775777549743652,-1.1342530364990233
