time,seconds_elapsed,z,y,x
1789635554330765000,0.05176513671875,-0.2653086185455322,-0.15318262577056885,1.0609418153762817
1789635554340805000,0.06180517578125,-0.3272361755371094,-0.2020590901374817,1.0169248580932617
1789635554350845000,0.071844970703125,-0.34627246856689453,-0.23642770946025848,1.0048454999923706
1789635554360885000,0.081885009765625,-0.3905307352542877,-0.5026301145553589,0.9612975716590881
1789635554370925000,0.091925048828125,-0.24344861507415771,-0.31031739711761475,0.7814790606498718
1789635554380964000,0.101964111328125,0.16323819756507874,0.08429863303899765,0.5101223587989807
1789635554391004000,0.11200390625,0.7718796730041504,0.6368489265441895,0.17299947142601013
1789635554401044000,0.1220439453125,1.3947901725769043,0.766383171081543,-0.09701362997293472
1789635554411084000,0.132083984375,1.726345419883728,0.40147870779037476,-0.11221841722726822
1789635554421124000,0.1421240234375,1.6673548221588135,-0.19034677743911743,0.220717191696167
1789635554431164000,0.152163818359375,1.3424941301345825,-0.8879991173744202,0.71258544921875
1789635554441204000,0.162203857421875,0.8881199955940247,-1.7977620363235474,1.1606197357177734
1789635554451243000,0.172242919921875,0.8136976957321167,-2.8139729499816895,1.385032057762146
1789635554461283000,0.182282958984375,1.1324423551559448,-3.534074544906616,1.3294832706451416
1789635554471323100,0.1923232421875,1.4725264310836792,-4.2868876457214355,1.2169735431671143
1789635554481363000,0.202363037109375,1.6964436769485474,-4.867292404174805,1.0839688777923584
1789635554491402800,0.21240283203125,1.8832035064697266,-5.044617176055908,0.880169689655304
1789635554501442800,0.22244287109375,2.043457269668579,-5.067774772644043,0.5963675379753113
1789635554511483000,0.23248291015625,2.3461549282073975,-5.213573455810547,0.3950250744819641
1789635554521522000,0.24252197265625,2.866926670074463,-5.695718765258789,0.23710203170776367
1789635554531561700,0.252561767578125,3.7567338943481445,-6.887031555175781,0.25670501589775085
1789635554541601800,0.262601806640625,4.015833854675293,-7.742897033691406,0.6804653406143188
1789635554551641900,0.272641845703125,2.67925763130188,-7.00700044631958,1.0989097356796265
1789635554561682000,0.282681884765625,1.93292236328125,-5.160726547241211,0.9789985418319702
1789635554571722000,0.292721923828125,2.488348960876465,-3.946059465408325,1.2154704332351685
1789635554581762000,0.302761962890625,3.1513609886169434,-3.658867359161377,1.5921591520309448
1789635554591800800,0.31280078125,3.6582658290863037,-3.4933929443359375,1.8550165891647339
1789635554601841000,0.3228408203125,4.0067667961120605,-3.3146235942840576,2.0135958194732666
1789635554611881000,0.332880859375,4.200497627258301,-3.2472054958343506,2.2195680141448975
1789635554621921000,0.342921142578125,4.300445079803467,-3.294347047805786,2.4213180541992188
1789635554631960800,0.3529609375,4.390438556671143,-3.5069634914398193,2.598203420639038
1789635554642001000,0.3630009765625,4.521606922149658,-3.686640739440918,2.8531641960144043
1789635554652041000,0.373041015625,4.652379512786865,-3.7172632217407227,3.1433117389678955
1789635554662080000,0.383080078125,4.732967376708984,-3.6260526180267334,3.3683087825775146
1789635554672119800,0.393119873046875,4.689739227294922,-3.2766287326812744,3.519822597503662
1789635554682159900,0.403159912109375,4.516229152679443,-2.9781746864318848,3.5591251850128174
1789635554692200000,0.413199951171875,4.321238040924072,-2.958052158355713,3.4588639736175537
1789635554702240000,0.423239990234375,4.157568454742432,-2.793905735015869,3.2204082012176514
1789635554712280000,0.433280029296875,4.016311168670654,-2.242537498474121,2.93677020072937
1789635554722320000,0.44331982421875,3.825240135192871,-1.3400821685791016,2.71510910987854
1789635554732359000,0.45335888671875,3.503051519393921,-0.5354029536247253,2.558598279953003
1789635554742399000,0.46339892578125,3.1576626300811768,-0.11698600649833679,2.3450560569763184
1789635554752439000,0.47343896484375,2.8430240154266357,0.10818558931350708,2.0442824363708496
1789635554762479000,0.48347900390625,2.5292372703552246,0.24300892651081085,1.6455811262130737
1789635554772519000,0.493518798828125,2.2732937335968018,0.03976365923881531,1.2433425188064575
1789635554782559000,0.50355908203125,2.1143906116485596,-0.29307687282562256,1.0385420322418213
1789635554792599000,0.51359912109375,1.972075343132019,-0.9393064975738525,0.6816986799240112
1789635554802639000,0.52363916015625,1.4440010786056519,-2.230118989944458,-0.15978273749351501
1789635554812678000,0.533677978515625,1.0487480163574219,-3.3545398712158203,-1.2552900314331055
1789635554822718000,0.543718017578125,1.0546948909759521,-2.125490188598633,-1.6947150230407715
1789635554832758000,0.553758056640625,0.9565635323524475,-0.06738995760679245,-1.4212135076522827
1789635554842798000,0.563798095703125,0.854772686958313,0.8844219446182251,-1.015947699546814
1789635554852838100,0.573838134765625,1.045911192893982,0.4223935902118683,-0.6765209436416626
1789635554862878000,0.5838779296875,1.5268927812576294,-0.7208551168441772,-0.2839510142803192
1789635554872918000,0.59391796875,2.5333173274993896,-1.6029210090637207,0.09817396849393845
1789635554882957000,0.60395703125,3.558568000793457,-1.6863266229629517,0.30636870861053467
1789635554892997000,0.6139970703125,4.284362316131592,-1.3224437236785889,0.12480025738477707
1789635554903037200,0.624037109375,4.728227615356445,-0.7468787431716919,-0.2566826641559601
1789635554913077000,0.634076904296875,4.70603609085083,0.1429036259651184,-0.7106610536575317
1789635554923116800,0.64411669921875,4.698678970336914,0.8356847763061523,-1.1989588737487793
1789635554933156900,0.654156982421875,4.428075313568115,0.9672867059707642,-1.058806300163269
1789635554943197000,0.664197021484375,3.846259117126465,0.2884291410446167,-0.8005896210670471
1789635554953237000,0.674237060546875,3.690744400024414,-0.6843503713607788,-0.9500795006752014
1789635554963276000,0.684276123046875,3.432438850402832,-1.1087647676467896,-0.8836371302604675
1789635554973315800,0.69431591796875,3.046147584915161,-0.9923287034034729,-0.8032495975494385
1789635554983356000,0.70435595703125,2.7287557125091553,-0.6490113139152527,-0.5651118755340576
1789635554993396000,0.71439599609375,2.1149139404296875,-0.2482156604528427,-0.21479113399982452
1789635555003435800,0.724435791015625,1.5111231803894043,-0.6416665315628052,0.3550158739089966
1789635555013475800,0.734475830078125,1.0807442665100098,-1.112919807434082,0.6009739637374878
1789635555023516000,0.744515869140625,0.6146285533905029,-1.167389988899231,0.6583435535430908
1789635555033555000,0.754554931640625,0.32987484335899353,-1.0066440105438232,0.3628964424133301
1789635555043595000,0.764594970703125,0.05215481296181679,-0.9146802425384521,-0.09179197251796722
1789635555053634800,0.774634765625,-0.1235155463218689,-1.4060745239257812,-0.38782548904418945
1789635555063675000,0.7846748046875,-0.006195045076310635,-2.013231039047241,-0.6115880012512207
1789635555073715000,0.79471484375,0.6953135132789612,-2.024932384490967,-0.7452208995819092
1789635555083755000,0.804755126953125,1.6807177066802979,-1.8464220762252808,-0.9696295261383057
1789635555093795000,0.814795166015625,2.548868417739868,-1.5643972158432007,-1.3402304649353027
1789635555103833900,0.824833740234375,2.624361276626587,-0.824880063533783,-1.1637680530548096
1789635555113874000,0.8348740234375,1.6989632844924927,0.24212555587291718,0.19636045396327972
1789635555123914000,0.8449140625,1.4763145446777344,-0.8010170459747314,0.4452989101409912
1789635555133954000,0.8549541015625,1.8758119344711304,-0.9234497547149658,0.46379801630973816
1789635555143993900,0.864993896484375,1.7871509790420532,-1.1091243028640747,0.42197945713996887
1789635555154034000,0.875033935546875,1.4868806600570679,-0.9350606203079224,0.365595281124115
1789635555164074000,0.885073974609375,1.2544867992401123,-0.46561774611473083,0.25870585441589355
1789635555174114000,0.895114013671875,1.0917456150054932,0.056164734065532684,-0.03761448711156845
1789635555184152800,0.90515283203125,0.7367957234382629,0.6339428424835205,-0.35466140508651733
1789635555194193000,0.91519287109375,0.33005061745643616,1.1792993545532227,-0.5248920321464539
1789635555204233000,0.92523291015625,0.12989407777786255,1.5813331604003906,-0.26987117528915405
1789635555214273000,0.93527294921875,0.12308384478092194,1.1136798858642578,0.06600245088338852
1789635555224313000,0.94531298828125,0.31472039222717285,0.28522375226020813,-0.06492999941110611
1789635555234353200,0.955353271484375,0.31672921776771545,-0.059417519718408585,-0.13139957189559937
1789635555244393000,0.96539306640625,0.22810666263103485,-0.3711104393005371,-0.05289410799741745
1789635555254432000,0.975431884765625,0.28235259652137756,-0.5455706715583801,-0.017408818006515503
1789635555264472000,0.98547216796875,0.3173140287399292,-0.8656796813011169,0.05762840807437897
1789635555274512100,0.99551220703125,0.2670633792877197,-1.0174095630645752,0.10494532436132431
1789635555284552000,1.005552001953125,0.15893079340457916,-0.9800182580947876,0.1369629055261612
1789635555294592000,1.015592041015625,0.04428810253739357,-1.020887851715088,0.056775931268930435
1789635555304632000,1.025632080078125,-0.0830267071723938,-1.0715798139572144,0.015312377363443375
1789635555314671900,1.035671875,-0.24774561822414398,-0.8523444533348083,-0.045270275324583054
1789635555324711700,1.045711669921875,-0.4656451940536499,-0.5677366852760315,-0.030592530965805054
1789635555334751000,1.0557509765625,-0.6667090654373169,-0.2782460153102875,0.0472271665930748
1789635555344791000,1.065791015625,-0.866876482963562,-0.20736384391784668,0.08284588158130646
1789635555354831000,1.0758310546875,-1.0409284830093384,-0.3870598375797272,0.12690575420856476
1789635555364871000,1.085870849609375,-1.208858609199524,-0.6040478348731995,0.20631562173366547
1789635555374910700,1.09591064453125,-1.4927233457565308,-0.6814539432525635,0.27534157037734985
1789635555384950800,1.10595068359375,-1.4199566841125488,-0.9387815594673157,0.3516552448272705
1789635555394990800,1.115990966796875,-0.9811018705368042,-0.9534100890159607,0.3254995346069336
1789635555405031000,1.126031005859375,-0.3824712038040161,-0.9861671924591064,0.24194632470607758
1789635555415069700,1.136069580078125,0.003576359013095498,-0.9383261799812317,0.4113348126411438
1789635555425109800,1.14610986328125,0.21157509088516235,-0.9787161946296692,0.7800678610801697
1789635555435149800,1.15614990234375,0.39451855421066284,-0.776459813117981,0.7871238589286804
1789635555445190000,1.16618994140625,0.644067645072937,-0.41398173570632935,0.5690051317214966
1789635555455229700,1.176229736328125,0.8662064671516418,-0.2601455748081207,0.40324386954307556
1789635555465269800,1.186269775390625,0.9780884981155396,-0.23123881220817566,0.3643909990787506
1789635555475309800,1.196309814453125,0.886673092842102,-0.717583417892456,0.27444887161254883
1789635555485350000,1.206349853515625,0.6871991753578186,-1.8136191368103027,-0.5669233202934265
1789635555495389000,1.216388916015625,0.8908012509346008,-2.8899857997894287,-1.6739157438278198
1789635555505428700,1.2264287109375,0.9550343155860901,-2.735060453414917,-1.0521177053451538
1789635555515468800,1.23646875,0.9394007921218872,-2.101102590560913,-0.29777735471725464
1789635555525508900,1.2465087890625,0.6943907737731934,-1.982633113861084,-0.4510372281074524
1789635555535549000,1.256548828125,0.7174428105354309,-2.730808973312378,-1.2041189670562744
1789635555545589000,1.266589111328125,0.8878097534179688,-3.065861701965332,-1.703784704208374
1789635555555628800,1.27662890625,0.987178385257721,-2.7158074378967285,-1.6579245328903198
1789635555565668900,1.2866689453125,1.0799267292022705,-1.966416597366333,-1.1595346927642822
1789635555575708000,1.2967080078125,0.8575812578201294,-1.729766845703125,-0.725801408290863
1789635555585748000,1.306748046875,0.6202672719955444,-1.4512486457824707,-0.40981388092041016
1789635555595787800,1.316787841796875,0.696286678314209,-1.2342002391815186,-0.1574692577123642
1789635555605827800,1.326827880859375,0.8121626377105713,-1.3181531429290771,0.06949465721845627
1789635555615868000,1.336867919921875,0.7031770348548889,-1.6228827238082886,0.24108798801898956
1789635555625908000,1.346907958984375,0.6488762497901917,-1.2782829999923706,0.4169332981109619
1789635555635948000,1.356947998046875,0.550077497959137,-0.9436697959899902,0.556499719619751
1789635555645986800,1.36698681640625,0.7907412648200989,-0.5584536790847778,0.27306321263313293
1789635555656027000,1.37702685546875,0.343440979719162,-0.27885186672210693,0.10377273708581924
1789635555666067000,1.38706689453125,0.05469759926199913,-0.7672186493873596,0.052254948765039444
1789635555676107000,1.39710693359375,-0.0073716300539672375,-1.1367015838623047,0.1843370795249939
1789635555686147000,1.40714697265625,0.10509739071130753,-1.2384111881256104,0.32260361313819885
1789635555696187000,1.417186767578125,0.2630036771297455,-1.0388176441192627,0.3831937313079834
1789635555706227000,1.42722705078125,0.3006698191165924,-0.9373317360877991,0.30721959471702576
1789635555716266800,1.437266845703125,0.2645195424556732,-0.9053698182106018,0.13654586672782898
1789635555726306000,1.44730615234375,0.23793533444404602,-0.8739756941795349,0.015120629221200943
1789635555736345900,1.457345947265625,0.2515414357185364,-0.8244001269340515,-0.10826841741800308
1789635555746386000,1.467385986328125,0.41523313522338867,-0.8966588973999023,-0.2110762894153595
1789635555756426000,1.477426025390625,0.46392664313316345,-0.8025332093238831,-0.2887180745601654
1789635555766465800,1.4874658203125,0.5392221808433533,-0.6347543001174927,-0.2773629128932953
1789635555776505900,1.497505859375,0.6175609827041626,-0.4489325284957886,-0.2899987995624542
1789635555786546000,1.5075458984375,0.6322195529937744,-0.23936519026756287,-0.2794865071773529
1789635555796585700,1.517585693359375,0.6020552515983582,-0.003628823207691312,-0.3015441298484802
1789635555806624800,1.527624755859375,0.7216436862945557,0.20869888365268707,-0.39179518818855286
1789635555816664800,1.537664794921875,0.7637264132499695,0.25236567854881287,-0.3178027272224426
1789635555826705000,1.547704833984375,0.7271646857261658,0.21269336342811584,-0.22500115633010864
1789635555836744700,1.55774462890625,0.7230897545814514,0.23460744321346283,-0.19087009131908417
1789635555846784800,1.56778466796875,0.7996593713760376,0.6732212901115417,-0.3998675048351288
1789635555856824800,1.577824951171875,0.9695733189582825,0.8473688364028931,-0.7706711292266846
1789635555866865000,1.587864990234375,0.8067351579666138,1.0716091394424438,-0.9083760380744934
1789635555876905000,1.597905029296875,0.5669297575950623,1.0025438070297241,-0.8172271847724915
1789635555886943700,1.60794384765625,0.5488588809967041,0.7498415112495422,-0.5582960247993469
1789635555896983800,1.61798388671875,0.5627818703651428,0.583097517490387,-0.2786814272403717
1789635555907024000,1.62802392578125,0.6095997095108032,0.4280991554260254,-0.09938597679138184
1789635555917064000,1.63806396484375,0.648033082485199,0.3177526593208313,-0.0027358653023838997
1789635555927103700,1.648103759765625,0.6299728751182556,0.14949734508991241,0.16158249974250793
1789635555937143800,1.658143798828125,0.5719766616821289,-0.17690978944301605,0.3350086212158203
1789635555947183900,1.668183837890625,0.47430020570755005,-0.5057385563850403,0.46696558594703674
1789635555957224000,1.678223876953125,0.4174955189228058,-0.4619167745113373,0.5671142935752869
1789635555967263000,1.688262939453125,0.4420943260192871,-0.46207016706466675,0.6656699180603027
1789635555977302800,1.698302734375,0.45391663908958435,-0.5769644975662231,0.7516378164291382
1789635555987342800,1.7083427734375,0.4708689749240875,-0.6329750418663025,0.8538073301315308
1789635555997383000,1.7183828125,0.3957963287830353,-0.6635255217552185,0.9642238020896912
1789635556007423000,1.728423095703125,0.20370225608348846,-0.5359265208244324,1.0092970132827759
1789635556017463000,1.738463134765625,-0.06664320826530457,-0.03229428827762604,0.9401624202728271
1789635556027502800,1.7485029296875,-0.3206464648246765,0.37765300273895264,0.7958268523216248
1789635556037543000,1.75854296875,-0.741498589515686,0.7390410304069519,0.694940447807312
1789635556047582000,1.76858203125,-1.1933486461639404,1.0490013360977173,0.3478887379169464
1789635556057622000,1.7786220703125,-1.1124510765075684,1.2636909484863281,-0.24721644818782806
1789635556067661800,1.788661865234375,-0.11803688853979111,0.6898207664489746,-0.45075705647468567
1789635556077702000,1.798701904296875,0.5915165543556213,-0.17732630670070648,-0.27093616127967834
1789635556087742000,1.808741943359375,0.5514993667602539,-1.033735752105713,0.10009730607271194
1789635556097782000,1.818781982421875,-0.01841016672551632,-1.634749412536621,0.6502723097801208
1789635556107821800,1.82882177734375,-0.4377805292606354,-1.8455429077148438,1.103414535522461
1789635556117862000,1.83886181640625,-0.32876110076904297,-1.0672436952590942,0.9009205102920532
1789635556127901000,1.84890087890625,-0.07388167828321457,-0.05089860036969185,0.3955894112586975
1789635556137941000,1.85894091796875,0.06605305522680283,0.394174724817276,-0.10577463358640671
1789635556147981000,1.86898095703125,0.0726662129163742,0.2896469831466675,-0.3731123208999634
1789635556158020900,1.879020751953125,0.059964001178741455,-0.04008350521326065,-0.35435089468955994
1789635556168060700,1.889060791015625,0.038956720381975174,-0.23539520800113678,-0.1349674016237259
1789635556178100700,1.899100830078125,0.00195129809435457,-0.33554524183273315,0.12446363270282745
1789635556188140800,1.909140869140625,-0.016352608799934387,-0.3027729094028473,0.2883433699607849
1789635556198180900,1.919180908203125,-0.056590043008327484,-0.13764014840126038,0.3004184067249298
1789635556208221000,1.929220947265625,-0.06274300813674927,0.07703566551208496,0.19375988841056824
1789635556218259700,1.939259765625,-0.05704144760966301,0.08262111246585846,0.14146125316619873
1789635556228299800,1.9492998046875,-0.11181575059890747,-0.005882390309125185,0.20484662055969238
1789635556238339800,1.95933984375,-0.1613236516714096,-0.14217285811901093,0.38531920313835144
1789635556248380000,1.9693798828125,-0.17742405831813812,-0.21715176105499268,0.5437242984771729
1789635556258420000,1.979419921875,-0.1485348790884018,-0.24065734446048737,0.5863356590270996
1789635556268459800,1.989459716796875,-0.16148902475833893,-0.2679494321346283,0.5474071502685547
1789635556278499800,1.999499755859375,-0.1816781908273697,-0.3278076946735382,0.4960201382637024
1789635556288540000,2.009539794921875,-0.18694698810577393,-0.3658083379268646,0.4844452440738678
1789635556298579000,2.019578857421875,-0.164769247174263,-0.34927064180374146,0.4886738061904907
1789635556308618800,2.02961865234375,-0.1344614028930664,-0.2882656157016754,0.4784983992576599
1789635556318658300,2.039658203125,-0.09416671097278595,-0.2048732489347458,0.43824365735054016
1789635556328698400,2.049698486328125,-0.05871524289250374,-0.09263193607330322,0.372840940952301
1789635556338738400,2.059738525390625,-0.04543858766555786,0.043474242091178894,0.3191407024860382
1789635556348778500,2.069778564453125,-0.049805108457803726,0.19731280207633972,0.3070472776889801
1789635556358818300,2.079818359375,-0.053640857338905334,0.3102231025695801,0.30890563130378723
1789635556368858400,2.0898583984375,-0.04205663874745369,0.311158686876297,0.3032919764518738
1789635556378897400,2.0998974609375,-0.0030466562602669,0.18744365870952606,0.29260095953941345
1789635556388937500,2.1099375,-0.018742794170975685,0.036980122327804565,0.33918577432632446
1789635556398977300,2.119977294921875,-0.028238562867045403,0.08399955928325653,0.38505128026008606
1789635556409017300,2.130017333984375,-0.07131838798522949,0.2915269136428833,0.3335025906562805
1789635556419057400,2.140057373046875,-0.10493121296167374,0.4134690761566162,0.21228349208831787
1789635556429097500,2.150097412109375,-0.12037195265293121,0.4463218152523041,0.16791869699954987
1789635556439137500,2.160137451171875,-0.13406352698802948,0.3698558211326599,0.24143153429031372
1789635556449177300,2.17017724609375,-0.10223209857940674,0.18009306490421295,0.3523769676685333
1789635556459217400,2.180217529296875,-0.05151592195034027,0.03946218639612198,0.41679510474205017
1789635556469256400,2.19025634765625,-0.005901032127439976,-0.024525582790374756,0.48090988397598267
1789635556479296500,2.200296630859375,-0.00857511255890131,-0.05770377442240715,0.5285056233406067
1789635556489336600,2.210336669921875,-0.05350051075220108,-0.03664456307888031,0.480021208524704
1789635556499376400,2.22037646484375,-0.09990795701742172,-0.03924194350838661,0.4034220278263092
1789635556509416400,2.23041650390625,-0.15377038717269897,-0.04500129818916321,0.3549706041812897
1789635556519456500,2.24045654296875,-0.18635788559913635,-0.07000412046909332,0.3745453655719757
1789635556529496300,2.250496337890625,-0.27450132369995117,-0.1162581667304039,0.37294188141822815
1789635556539536400,2.260536376953125,-0.34487828612327576,-0.10555492341518402,0.3279925286769867
1789635556549575400,2.270575439453125,-0.345489501953125,-0.17731645703315735,0.2636348307132721
1789635556559615500,2.280615478515625,-0.29749879240989685,-0.24989691376686096,0.11929390579462051
1789635556569655300,2.2906552734375,-0.2093505561351776,-0.17027106881141663,-0.11027111113071442
1789635556579695400,2.3006953125,-0.12649962306022644,-0.08728883415460587,-0.30360540747642517
1789635556589735200,2.310735107421875,-0.05820578336715698,0.0001597896625753492,-0.4119641184806824
1789635556599775200,2.320775146484375,0.020051205530762672,0.08556949347257614,-0.4595068693161011
1789635556609815300,2.330815185546875,0.09689351916313171,0.1358819305896759,-0.5094352960586548
1789635556619855400,2.34085546875,0.14457662403583527,0.15442205965518951,-0.560600757598877
1789635556629895400,2.3508955078125,0.18065819144248962,0.1546793282032013,-0.5326476693153381
1789635556639934200,2.360934326171875,0.20617181062698364,0.10739489644765854,-0.42805519700050354
1789635556649974300,2.370974365234375,0.2072778195142746,-0.022174278274178505,-0.2900818884372711
1789635556660014300,2.381014404296875,0.17854151129722595,-0.21542416512966156,-0.17033737897872925
1789635556670054400,2.391054443359375,0.14413906633853912,-0.33393776416778564,-0.08525604009628296
1789635556680094500,2.401094482421875,0.1060236394405365,-0.3539207875728607,-0.011930429376661777
1789635556690134300,2.41113427734375,0.06566795706748962,-0.2726792097091675,0.0295467060059309
1789635556700174300,2.42117431640625,0.02738848142325878,-0.14663711190223694,0.05254683271050453
1789635556710214400,2.43121435546875,0.0021635519806295633,-0.033189643174409866,0.07862184196710587
1789635556720253400,2.44125341796875,-0.013171462342143059,0.0019062906503677368,0.08957915008068085
1789635556730293200,2.451293212890625,-0.09118237346410751,-0.03863367810845375,0.07508037239313126
1789635556740333300,2.461333251953125,-0.061281997710466385,-0.00014753911818843335,0.08268316090106964
1789635556750373400,2.471373291015625,-0.06383011490106583,0.04170776531100273,0.12299143522977829
1789635556760413400,2.481413330078125,-0.06564053148031235,0.19377639889717102,0.11492365598678589
1789635556770453500,2.49145361328125,-0.06031367555260658,0.28699928522109985,0.20191287994384766
1789635556780493300,2.501493408203125,-0.05691814422607422,0.2197510004043579,0.2312995344400406
1789635556790533400,2.511533447265625,-0.05872829258441925,0.13514290750026703,0.15942001342773438
1789635556800573400,2.521573486328125,-0.0986621305346489,-0.007450725883245468,0.047937698662281036
1789635556810612500,2.531612548828125,-0.14741502702236176,-0.0430888794362545,-0.04735632985830307
1789635556820652500,2.541652587890625,-0.2120582014322281,0.07950281351804733,-0.07344785332679749
1789635556830692400,2.5516923828125,-0.25724565982818604,0.134304016828537,-0.06057732552289963
1789635556840732400,2.561732421875,-0.2559066116809845,0.08670266717672348,0.021939920261502266
1789635556850772500,2.5717724609375,-0.22852452099323273,-0.03615108132362366,0.1566884070634842
1789635556860812500,2.5818125,-0.18134182691574097,-0.12487562000751495,0.265884131193161
1789635556870852400,2.591852294921875,-0.15286384522914886,-0.172899067401886,0.3184810280799866
1789635556880892200,2.60189208984375,-0.16087570786476135,-0.16926252841949463,0.34465351700782776
1789635556890931500,2.611931396484375,-0.19598548114299774,-0.13419802486896515,0.3624996244907379
1789635556900971500,2.621971435546875,-0.22571301460266113,-0.08894877880811691,0.36906832456588745
1789635556911011600,2.632011474609375,-0.2286270558834076,-0.06558992713689804,0.34709829092025757
1789635556921051100,2.642051025390625,-0.19122694432735443,-0.07695470005273819,0.3000439703464508
1789635556931091200,2.65209130859375,-0.12334590405225754,-0.17639313638210297,0.2522183954715729
1789635556941131300,2.66213134765625,-0.06390681117773056,-0.3669646978378296,0.21904979646205902
1789635556951171300,2.67217138671875,-0.03598543256521225,-0.5329917669296265,0.2276102602481842
1789635556961211400,2.68221142578125,0.0024778051301836967,-0.503661572933197,0.29003021121025085
1789635556971251500,2.69225146484375,0.0703926756978035,-0.31752362847328186,0.362077534198761
1789635556981290200,2.702290283203125,0.1459076702594757,-0.10989933460950851,0.43031516671180725
1789635556991330300,2.712330322265625,0.19259501993656158,0.04151761531829834,0.4703419506549835
1789635557001370400,2.722370361328125,0.22267861664295197,0.14461630582809448,0.47491753101348877
1789635557011410400,2.732410400390625,0.2401135265827179,0.16966626048088074,0.49556952714920044
1789635557021450200,2.7424501953125,0.234404519200325,0.07126086205244064,0.565839409828186
1789635557031490300,2.752490234375,0.20763202011585236,-0.11074542254209518,0.6691567897796631
1789635557041530400,2.7625302734375,0.18970201909542084,-0.20346178114414215,0.771674633026123
1789635557051570400,2.7725703125,0.1856822520494461,-0.17464503645896912,0.8460361957550049
1789635557061610500,2.782610595703125,0.1661066859960556,-0.12906238436698914,0.8584955334663391
1789635557071649300,2.792649169921875,0.13141608238220215,-0.09225429594516754,0.7903529405593872
1789635557081689300,2.802689453125,0.09417976438999176,-0.05926598608493805,0.7029914259910583
1789635557091729400,2.8127294921875,0.04544524475932121,-0.02539004571735859,0.6335183382034302
1789635557101769500,2.82276953125,0.0024825986474752426,0.0037465349305421114,0.5853747725486755
1789635557111809500,2.8328095703125,-0.011384480632841587,0.006336192600429058,0.5248549580574036
1789635557121849300,2.842849365234375,-0.010625213384628296,-0.008300806395709515,0.4655138850212097
1789635557131889400,2.852889404296875,-0.006185191683471203,0.009641442447900772,0.4433231055736542
1789635557141929500,2.862929443359375,-0.007968444377183914,0.038485873490571976,0.4575156271457672
1789635557151969500,2.872969482421875,0.007128483150154352,0.04117513447999954,0.4838063418865204
1789635557162008300,2.88300830078125,0.016931844875216484,-0.00424268189817667,0.5091372728347778
1789635557172048400,2.89304833984375,0.03297286480665207,-0.07443881034851074,0.5284081697463989
1789635557182088400,2.90308837890625,0.04607934504747391,-0.16482463479042053,0.5299272537231445
1789635557192128500,2.91312841796875,0.034892737865448,-0.23242312669754028,0.47334811091423035
1789635557202168600,2.92316845703125,-0.010420949198305607,-0.27424195408821106,0.39719662070274353
1789635557212208400,2.93320849609375,-0.07912997156381607,-0.282993346452713,0.33636602759361267
1789635557222248200,2.943248291015625,-0.15469476580619812,-0.24399907886981964,0.3173563778400421
1789635557232288300,2.953288330078125,-0.22718201577663422,-0.1962672472000122,0.3241863250732422
1789635557242328300,2.963328369140625,-0.2876240611076355,-0.16432209312915802,0.31626981496810913
1789635557252367400,2.973367431640625,-0.3461337089538574,-0.18046830594539642,0.250083863735199
1789635557262407400,2.983407470703125,-0.38360491394996643,-0.24666810035705566,0.14519581198692322
1789635557272447200,2.993447265625,-0.4243864417076111,-0.3331502676010132,0.0018903117161244154
1789635557282487300,3.0034873046875,-0.45260900259017944,-0.4111712872982025,-0.17262397706508636
1789635557292527400,3.01352734375,-0.42750340700149536,-0.30122241377830505,-0.38282912969589233
1789635557302567400,3.0235673828125,-0.34392914175987244,0.017308415845036507,-0.6243645548820496
1789635557312607200,3.033607177734375,-0.23382927477359772,0.40135806798934937,-0.830261766910553
1789635557322647800,3.043647705078125,-0.1571533977985382,0.6028379201889038,-0.913421094417572
1789635557332688000,3.05368798828125,-0.14193369448184967,0.6060869693756104,-0.9049251079559326
1789635557342727000,3.063726806640625,-0.12326014786958694,0.4379477798938751,-0.8730108141899109
1789635557352766700,3.0737666015625,-0.0680360421538353,0.14433987438678741,-0.803662121295929
1789635557362806800,3.083806884765625,-0.024810275062918663,-0.14952823519706726,-0.7238522171974182
1789635557372846800,3.093846923828125,-0.013335246592760086,-0.31340426206588745,-0.7004531621932983
1789635557382887000,3.103886962890625,-0.043656401336193085,-0.38356444239616394,-0.7185083627700806
1789635557392927000,3.113927001953125,-0.0829598605632782,-0.38435858488082886,-0.7650688886642456
1789635557402966800,3.123966796875,-0.12223376333713531,-0.2881753444671631,-0.8405112028121948
1789635557413006800,3.1340068359375,-0.1801026612520218,-0.12809085845947266,-0.9440740942955017
1789635557423046000,3.1440458984375,-0.2571926414966583,-0.08948327600955963,-1.0017940998077393
1789635557433086000,3.1540859375,-0.29956647753715515,-0.19237583875656128,-0.9407134652137756
1789635557443125800,3.164125732421875,-0.2802463173866272,-0.28050702810287476,-0.7777453064918518
1789635557453165800,3.174165771484375,-0.2364943027496338,-0.364540159702301,-0.6073210835456848
1789635557463206000,3.184205810546875,-0.2249140739440918,-0.5594366788864136,-0.5025113224983215
1789635557473246000,3.194245849609375,-0.2880280613899231,-0.7893297672271729,-0.491640567779541
1789635557483286000,3.2042861328125,-0.38877731561660767,-0.9261971116065979,-0.5447224378585815
1789635557493325800,3.214325927734375,-0.47266820073127747,-0.9927950501441956,-0.5999206900596619
1789635557503365600,3.22436572265625,-0.5078738927841187,-0.9675461053848267,-0.6450863480567932
1789635557513405000,3.234405029296875,-0.5025973320007324,-0.8756651878356934,-0.7076095938682556
1789635557523445000,3.244445068359375,-0.45574143528938293,-0.7296294569969177,-0.785351574420929
1789635557533485000,3.254485107421875,-0.3931020200252533,-0.5697258114814758,-0.843778669834137
1789635557543524900,3.26452490234375,-0.3621017634868622,-0.4495575726032257,-0.8884713053703308
1789635557553564700,3.274564697265625,-0.36883288621902466,-0.4102943241596222,-0.9168701767921448
1789635557563604700,3.284604736328125,-0.40125662088394165,-0.46824151277542114,-0.9682353734970093
1789635557573644800,3.294644775390625,-0.4368545413017273,-0.5358889698982239,-1.0309841632843018
1789635557583684900,3.304684814453125,-0.4956134855747223,-0.47325649857521057,-1.0900746583938599
1789635557593724700,3.314724609375,-0.562697172164917,-0.5074946284294128,-1.1121253967285156
1789635557603764700,3.3247646484375,-0.6171047687530518,-0.6634085774421692,-1.0937416553497314
1789635557613803800,3.3348037109375,-0.6477814316749573,-0.7128762602806091,-1.0890706777572632
1789635557623843800,3.34484375,-0.6455941796302795,-0.6494027972221375,-1.1444388628005981
1789635557633883600,3.354883544921875,-0.6190783977508545,-0.5635288953781128,-1.2292892932891846
1789635557643923700,3.364923828125,-0.571372389793396,-0.5357717871665955,-1.300163984298706
1789635557653963800,3.3749638671875,-0.5014718770980835,-0.5561561584472656,-1.3595842123031616
1789635557664003800,3.38500390625,-0.37503698468208313,-0.5865526795387268,-1.387125849723816
1789635557674044000,3.3950439453125,-0.2959088981151581,-0.5784934163093567,-1.4017473459243774
1789635557684084000,3.405083984375,-0.25529220700263977,-0.5484881401062012,-1.4298958778381348
1789635557694123800,3.415123779296875,-0.16088315844535828,-0.6697248220443726,-1.5079231262207031
1789635557704162800,3.425162841796875,-0.032653551548719406,-0.9372638463973999,-1.6126494407653809
1789635557714203000,3.435202880859375,0.048465270549058914,-1.1289308071136475,-1.7035053968429565
1789635557724243000,3.445242919921875,0.04158499464392662,-1.1205860376358032,-1.69143807888031
1789635557734282800,3.45528271484375,-0.005426723510026932,-0.9339620471000671,-1.6342633962631226
1789635557744322800,3.46532275390625,-0.06387751549482346,-0.7092224359512329,-1.598183512687683
1789635557754363000,3.47536279296875,-0.12172989547252655,-0.5716041326522827,-1.5698583126068115
1789635557764403000,3.48540283203125,-0.16850592195987701,-0.47929683327674866,-1.5074498653411865
1789635557774443000,3.495443115234375,-0.16426058113574982,-0.44468051195144653,-1.4583417177200317
1789635557784482800,3.50548291015625,-0.08405522257089615,-0.5359683632850647,-1.45504891872406
1789635557794521900,3.51552197265625,0.002014415105804801,-0.7686910629272461,-1.4992947578430176
1789635557804562000,3.52556201171875,0.0594385601580143,-0.9175838828086853,-1.5696301460266113
1789635557814602000,3.53560205078125,0.11558917909860611,-0.8912750482559204,-1.6525298357009888
1789635557824642000,3.54564208984375,0.15192560851573944,-0.8889573216438293,-1.6559433937072754
1789635557834681900,3.555681884765625,0.13565370440483093,-0.8610947728157043,-1.5514700412750244
1789635557844722000,3.565721923828125,0.10879039764404297,-0.7813831567764282,-1.4185343980789185
1789635557854761700,3.57576171875,0.10018225759267807,-0.6580734848976135,-1.3319706916809082
1789635557864801800,3.5858017578125,0.11569410562515259,-0.5695154070854187,-1.3291243314743042
1789635557874841900,3.595841796875,0.14944034814834595,-0.55858314037323,-1.4142783880233765
1789635557884881700,3.605881591796875,0.1956573873758316,-0.5851579904556274,-1.4852484464645386
1789635557894920700,3.615920654296875,0.2112981230020523,-0.6825676560401917,-1.4511910676956177
1789635557904960800,3.625960693359375,0.18741756677627563,-0.7809059619903564,-1.3749173879623413
1789635557915000800,3.636000732421875,0.14982092380523682,-0.8823654651641846,-1.3534328937530518
1789635557925040600,3.64604052734375,0.13175590336322784,-0.839370846748352,-1.3815782070159912
1789635557935080700,3.656080810546875,0.14792874455451965,-0.7052820324897766,-1.4203993082046509
1789635557945120800,3.666120849609375,0.15780320763587952,-0.6363463401794434,-1.389836072921753
1789635557955160800,3.676160888671875,0.1273196041584015,-0.6899640560150146,-1.2868953943252563
1789635557965201000,3.686200927734375,0.04597628116607666,-0.7852857708930969,-1.211524486541748
1789635557975241000,3.696240966796875,0.0034613104071468115,-0.8097972273826599,-1.1955257654190063
1789635557985279700,3.70627978515625,-0.009349026717245579,-0.8401274681091309,-1.2870111465454102
1789635557995319800,3.71631982421875,-0.009907225146889687,-0.8063201904296875,-1.416174292564392
1789635558005359900,3.72635986328125,0.021751901134848595,-0.5848640203475952,-1.5044887065887451
1789635558015400000,3.73639990234375,0.040717869997024536,-0.4446701407432556,-1.5186841487884521
1789635558025439700,3.746439697265625,0.00026072346372529864,-0.42246416211128235,-1.5029888153076172
1789635558035479800,3.756479736328125,-0.09838941693305969,-0.46089091897010803,-1.4837684631347656
1789635558045520000,3.766519775390625,-0.17045722901821136,-0.34445619583129883,-1.4441251754760742
1789635558055560000,3.776559814453125,-0.14624908566474915,-0.21081742644309998,-1.433980107307434
1789635558065600000,3.78660009765625,-0.08350927382707596,-0.2856636941432953,-1.4300024509429932
1789635558075639800,3.796639892578125,0.007233145646750927,-0.35199984908103943,-1.4706774950027466
1789635558085678800,3.806678955078125,0.0678166002035141,-0.37956517934799194,-1.5777943134307861
1789635558095719000,3.816718994140625,0.053416088223457336,-0.47092729806900024,-1.6352099180221558
1789635558105759000,3.826759033203125,0.02707928791642189,-0.34310728311538696,-1.5178942680358887
1789635558115799000,3.836799072265625,0.048712678253650665,-0.16447655856609344,-1.2902528047561646
1789635558125838800,3.8468388671875,0.02779354713857174,-0.23053014278411865,-1.2015546560287476
1789635558135879000,3.85687890625,0.04188859462738037,-0.29128777980804443,-1.1924208402633667
1789635558145918700,3.866918701171875,0.07562818378210068,-0.196489617228508,-1.2080285549163818
1789635558155958800,3.876958740234375,0.1078827902674675,-0.0712885633111,-1.0650913715362549
1789635558165998800,3.886998779296875,0.10114659368991852,0.03693564608693123,-0.9517282843589783
1789635558176038000,3.897037841796875,0.0872369036078453,0.10050316900014877,-0.8236786723136902
1789635558186078000,3.907077880859375,0.12115784734487534,0.09077570587396622,-0.6633617281913757
1789635558196117800,3.91711767578125,0.17015282809734344,0.18685856461524963,-0.5939488410949707
1789635558206157800,3.92715771484375,0.22999832034111023,0.1640017181634903,-0.6886622905731201
1789635558216197600,3.93719775390625,0.27594423294067383,0.07610142230987549,-0.8428241610527039
1789635558226237700,3.94723779296875,0.29990097880363464,-0.2405950278043747,-1.0091849565505981
1789635558236277800,3.95727783203125,0.30951711535453796,-0.4596932828426361,-1.001826286315918
1789635558246317800,3.96731787109375,0.2841222584247589,-0.5002809166908264,-1.019671082496643
1789635558256358000,3.97735791015625,0.2894621789455414,-0.3505156636238098,-0.9961468577384949
1789635558266397700,3.987397705078125,0.3437557816505432,-0.2627493441104889,-1.0105903148651123
1789635558276436700,3.997436767578125,0.3655739724636078,-0.3661598861217499,-1.0456748008728027
1789635558286476800,4.007476806640625,0.3399445116519928,-0.33757510781288147,-0.9374462962150574
1789635558296516900,4.017516845703125,0.3186030089855194,-0.2010452300310135,-0.7581955790519714
1789635558306557000,4.027556884765625,0.342426598072052,0.08163920044898987,-0.5982937812805176
1789635558316596700,4.0375966796875,0.3981393873691559,0.31017863750457764,-0.5196024179458618
1789635558326636800,4.04763671875,0.49174177646636963,0.45541200041770935,-0.4994684159755707
1789635558336676600,4.057676513671875,0.559258222579956,0.42110782861709595,-0.49149462580680847
1789635558346716700,4.067716552734375,0.5379521250724792,0.3915829360485077,-0.39544373750686646
1789635558356756700,4.0777568359375,0.3980025053024292,0.5282907485961914,-0.291885644197464
1789635558366796800,4.087796875,0.17448152601718903,0.7492662668228149,-0.2580967843532562
1789635558376835800,4.0978359375,-0.09175042808055878,0.838991105556488,-0.0834866389632225
1789635558386875600,4.107875732421875,-0.18415412306785583,0.9083454012870789,0.10513893514871597
1789635558396915700,4.117915771484375,-0.16062963008880615,0.7156925797462463,0.0216554943472147
1789635558406955800,4.127955810546875,-0.049543850123882294,0.44260111451148987,-0.046843405812978745
1789635558416995800,4.137995849609375,-0.02864016592502594,0.2387063205242157,0.08299528062343597
1789635558427036000,4.148035888671875,-0.07900772988796234,0.26225876808166504,0.3275509774684906
1789635558437075700,4.15807568359375,-0.1502360999584198,0.47965794801712036,0.46801620721817017
1789635558447115800,4.16811572265625,-0.20817583799362183,0.8297888040542603,0.4141460359096527
1789635558457155600,4.178155517578125,-0.17752258479595184,0.9221506714820862,0.36956846714019775
1789635558467195600,4.188195556640625,-0.07232213020324707,0.726029098033905,0.3198840022087097
1789635558477234700,4.198234619140625,-0.012179167941212654,0.42446765303611755,0.08977382630109787
1789635558487274800,4.208274658203125,0.06139758229255676,0.4053935706615448,-0.19252310693264008
1789635558497314800,4.218314697265625,0.18832837045192719,0.3919382095336914,-0.46413785219192505
1789635558507354600,4.228354736328125,0.13434208929538727,0.355620414018631,-0.8086507320404053
1789635558517394700,4.238394775390625,-0.13614851236343384,0.38825559616088867,-1.1649601459503174
1789635558527434800,4.248434814453125,-0.3271581530570984,-0.13934378325939178,-1.1712758541107178
1789635558537474600,4.258474609375,-0.3886023461818695,-0.7129034399986267,-0.7334665060043335
1789635558547514600,4.2685146484375,-0.4598030149936676,-0.6718534827232361,-0.16524462401866913
1789635558557554700,4.2785546875,-0.5972639322280884,-0.3967369496822357,0.42582106590270996
1789635558567594800,4.2885947265625,-0.6409922242164612,-0.34363967180252075,0.7131993174552917
1789635558577633500,4.298633544921875,-0.4797767102718353,-0.13474902510643005,0.6880822777748108
1789635558587673600,4.308673583984375,-0.29333066940307617,0.06715879589319229,0.7338334918022156
1789635558597713700,4.318713623046875,-0.27353355288505554,0.013580789789557457,0.7364519238471985
1789635558607753700,4.328753662109375,-0.44909924268722534,-0.040167126804590225,0.6024072766304016
1789635558617793800,4.338793701171875,-0.7133409976959229,0.06793191283941269,0.5041992664337158
1789635558627833600,4.34883349609375,-0.974170982837677,0.04237089306116104,0.5918851494789124
1789635558637873700,4.358873779296875,-1.090937852859497,0.06904564797878265,0.7028164863586426
1789635558647913700,4.368913818359375,-1.0184828042984009,0.31394752860069275,0.9246096014976501
1789635558657953800,4.378953857421875,-0.8246377110481262,0.491376131772995,1.0800260305404663
1789635558667993900,4.388993896484375,-0.5876251459121704,0.48589080572128296,1.0962071418762207
1789635558678032600,4.39903271484375,-0.46615704894065857,0.5151957273483276,0.9791750907897949
1789635558688072700,4.40907275390625,-0.5490322113037109,0.5859920978546143,0.916041910648346
1789635558698112800,4.41911279296875,-0.658341109752655,0.7291841506958008,0.9031950831413269
1789635558708152800,4.42915283203125,-0.6802586913108826,0.7045360803604126,0.8782157301902771
1789635558718193000,4.43919287109375,-0.6164435148239136,0.3500109910964966,0.8650482296943665
1789635558728232700,4.449232666015625,-0.53812175989151,0.02412104792892933,0.8950857520103455
1789635558738272800,4.459272705078125,-0.5150111317634583,0.006335393991321325,0.8690506815910339
1789635558748312800,4.469312744140625,-0.511146605014801,0.05481398105621338,0.8428524136543274
1789635558758352600,4.4793525390625,-0.5196263790130615,-0.0126982182264328,0.9369514584541321
1789635558768392700,4.489392822265625,-0.537213146686554,0.09922804683446884,1.1002522706985474
1789635558778431700,4.499431640625,-0.48835131525993347,0.2551414966583252,1.1434391736984253
1789635558788471800,4.509471923828125,-0.39755722880363464,0.23820564150810242,1.0179147720336914
1789635558798511600,4.51951171875,-0.35594719648361206,0.10107841342687607,0.9245834946632385
1789635558808551700,4.5295517578125,-0.34917718172073364,0.2265535145998001,0.9154200553894043
1789635558818591500,4.539591552734375,-0.3505984842777252,0.3593299388885498,0.9292272329330444
1789635558828631600,4.549631591796875,-0.3292732238769531,0.4092905819416046,1.0185518264770508
1789635558838671600,4.559671630859375,-0.2372242659330368,0.4558769762516022,1.1557176113128662
1789635558848711700,4.569711669921875,-0.07240495830774307,0.5685763955116272,1.264668345451355
1789635558858751700,4.579751708984375,0.07881998270750046,0.7230114936828613,1.2617292404174805
1789635558868791800,4.589791748046875,0.14530952274799347,0.7271007895469666,1.1796314716339111
1789635558878830600,4.59983056640625,0.06841767579317093,0.48370593786239624,1.1209439039230347
1789635558888870700,4.60987060546875,-0.04710865765810013,0.3697335720062256,1.1395378112792969
1789635558898910700,4.61991064453125,-0.0502312108874321,0.44931575655937195,1.1283706426620483
1789635558908950800,4.62995068359375,-0.02623027190566063,0.314339280128479,1.0766355991363525
1789635558918990600,4.639990478515625,-0.010987936519086361,0.04038843512535095,0.9826638102531433
1789635558929030700,4.65003076171875,-0.09218478947877884,-0.05698658525943756,0.8934606909751892
1789635558939070700,4.66007080078125,-0.2642281949520111,0.006144711747765541,0.9468256831169128
1789635558949110800,4.67011083984375,-0.4514886140823364,0.15988659858703613,1.18293035030365
1789635558959150800,4.68015087890625,-0.5089841485023499,0.21820637583732605,1.430009365081787
1789635558969190700,4.690190673828125,-0.36408528685569763,0.24162568151950836,1.5249416828155518
1789635558979229700,4.700229736328125,-0.13786545395851135,0.3088092505931854,1.4533003568649292
1789635558989269800,4.710269775390625,0.01136823557317257,0.4316384792327881,1.2932512760162354
1789635558999309800,4.720309814453125,-0.00768668157979846,0.49068689346313477,1.1265898942947388
1789635559009350000,4.730349853515625,-0.07508809119462967,0.3658658564090729,0.9661173224449158
1789635559019389700,4.7403896484375,-0.1792810708284378,0.07262813299894333,0.879340648651123
1789635559029429800,4.7504296875,-0.24536901712417603,-0.054070424288511276,0.958328366279602
1789635559039469800,4.7604697265625,-0.18028481304645538,0.10603749006986618,1.0891891717910767
1789635559049510000,4.770510009765625,-0.09276668727397919,0.39794522523880005,1.1780953407287598
1789635559059549700,4.7805498046875,0.05296787619590759,0.6523218750953674,1.1998083591461182
1789635559069589500,4.790589599609375,0.23506364226341248,0.6422290205955505,1.1602023839950562
1789635559079628800,4.80062890625,0.3611485958099365,0.40813902020454407,1.093862771987915
1789635559089668900,4.8106689453125,0.3938564956188202,0.2663635015487671,1.0586142539978027
1789635559099708700,4.820708740234375,0.38440173864364624,0.2187776118516922,1.0577892065048218
1789635559109748500,4.83074853515625,0.34772759675979614,0.19788138568401337,1.0672876834869385
1789635559119788500,4.84078857421875,0.3212704360485077,0.21845084428787231,1.125634789466858
1789635559129828600,4.85082861328125,0.35214152932167053,0.24059902131557465,1.1746516227722168
1789635559139868700,4.86086865234375,0.4181458353996277,0.3081834018230438,1.1687562465667725
1789635559149908700,4.87090869140625,0.4884764850139618,0.44291457533836365,1.1426057815551758
1789635559159948800,4.88094873046875,0.5118334293365479,0.5784228444099426,1.0884344577789307
1789635559169988600,4.890988525390625,0.4753281772136688,0.4682617485523224,1.0506846904754639
1789635559180027600,4.901027587890625,0.41285812854766846,0.2720605432987213,1.1217689514160156
1789635559190067700,4.911067626953125,0.42352357506752014,0.2765655517578125,1.2566945552825928
1789635559200107800,4.921107666015625,0.4284917116165161,0.47580593824386597,1.327502727508545
1789635559210147600,4.931147705078125,0.4118482768535614,0.7602840065956116,1.3138867616653442
1789635559220187600,4.941187744140625,0.39930132031440735,0.7469934821128845,1.2051600217819214
1789635559230227700,4.951227783203125,0.4022776782512665,0.3874952495098114,1.0589426755905151
1789635559240267800,4.961267822265625,0.4112913906574249,0.19523712992668152,1.0083481073379517
1789635559250307800,4.971307861328125,0.384082168340683,0.5595780611038208,1.105502963066101
1789635559260347600,4.98134765625,0.3992893397808075,0.9420125484466553,1.2113747596740723
1789635559270387700,4.9913876953125,0.5146593451499939,0.803134024143219,1.2129404544830322
1789635559280427800,5.001427734375,0.6177308559417725,0.2468864768743515,1.1204125881195068
1789635559290466800,5.011466796875,0.5883364677429199,0.07880373299121857,1.0354799032211304
1789635559300506600,5.021506591796875,0.44344189763069153,0.5668942928314209,1.0329126119613647
1789635559310546700,5.031546630859375,0.28743764758110046,1.0347371101379395,1.0658072233200073
1789635559320586800,5.041586669921875,0.19337505102157593,0.8584835529327393,1.132785677909851
1789635559330626800,5.051626708984375,0.1157098188996315,0.3973518908023834,1.1789190769195557
1789635559340667000,5.0616669921875,0.05588270723819733,0.1940712034702301,1.1945409774780273
1789635559350706700,5.071706787109375,0.008131695911288261,0.2091739922761917,1.1959047317504883
1789635559360746800,5.081746826171875,-0.027282753959298134,0.36598944664001465,1.1955939531326294
1789635559370786600,5.09178662109375,0.006083991378545761,0.3992520570755005,1.1867562532424927
1789635559380826600,5.10182666015625,0.01986531727015972,0.35630378127098083,1.1747405529022217
1789635559390866000,5.111865966796875,0.019772106781601906,0.4606238007545471,1.139796495437622
1789635559400905700,5.12190576171875,0.0380680225789547,0.5728685855865479,1.015552043914795
1789635559410945500,5.131945556640625,0.062360845506191254,0.6695983409881592,0.8141299486160278
1789635559420985600,5.141985595703125,0.06260239332914352,0.7202657461166382,0.5725985169410706
1789635559431025700,5.152025634765625,0.04235091805458069,0.7199571132659912,0.3277280628681183
1789635559441065700,5.162065673828125,0.016775785014033318,0.6060430407524109,0.06064843386411667
1789635559451105800,5.172105712890625,0.03668797388672829,0.40815234184265137,-0.22577640414237976
1789635559461145600,5.1821455078125,0.10948548465967178,0.16172417998313904,-0.5178804397583008
1789635559471185700,5.192185546875,0.13524064421653748,0.07689478248357773,-0.789539098739624
1789635559481225700,5.202225830078125,0.10025603324174881,0.11453776061534882,-1.07427978515625
1789635559491265800,5.212265869140625,0.042439866811037064,0.1458813101053238,-1.3522818088531494
1789635559501304800,5.222304931640625,0.005883721634745598,0.10759729892015457,-1.6156002283096313
1789635559511344600,5.2323447265625,-0.014090518467128277,0.10049890726804733,-1.789400577545166
1789635559521384700,5.242384765625,0.008284028619527817,0.20062337815761566,-1.8271609544754028
1789635559531424800,5.2524248046875,0.008876316249370575,0.38677114248275757,-1.7748218774795532
1789635559541464800,5.26246484375,-0.026081934571266174,0.5637291669845581,-1.7012901306152344
1789635559551505000,5.2725048828125,-0.05193430557847023,0.6874686479568481,-1.6078914403915405
1789635559561544700,5.282544677734375,-0.03659209981560707,0.833090603351593,-1.4769175052642822
1789635559571584800,5.292584716796875,0.011597800068557262,1.030502200126648,-1.3230730295181274
1789635559581624800,5.302624755859375,0.08508986234664917,1.1883152723312378,-1.136380910873413
1789635559591665000,5.312664794921875,0.16457989811897278,1.2186864614486694,-0.9082005023956299
1789635559601703700,5.32270361328125,0.1761997938156128,0.9014422297477722,-0.632562518119812
1789635559611743700,5.33274365234375,0.16946226358413696,0.2507725656032562,-0.3456479609012604
1789635559621783800,5.34278369140625,0.2257351279258728,-0.3971273899078369,-0.08441688120365143
1789635559631824000,5.352823974609375,0.27358493208885193,-0.7191954255104065,0.14306287467479706
1789635559641864000,5.362864013671875,0.2564173936843872,-0.633156955242157,0.2596145272254944
1789635559651903700,5.37290380859375,0.24084217846393585,-0.4425864815711975,0.15144358575344086
1789635559661943600,5.382943603515625,0.227289080619812,-0.2982569932937622,-0.08376573771238327
1789635559671983600,5.392983642578125,0.2132403701543808,-0.09888157248497009,-0.3229319751262665
1789635559682023700,5.403023681640625,0.162399560213089,0.07656294852495193,-0.493879497051239
1789635559692063700,5.413063720703125,0.11763449013233185,0.25119549036026,-0.5986911058425903
1789635559702103800,5.423103759765625,0.16070686280727386,0.4103739559650421,-0.665579080581665
1789635559712142600,5.433142578125,0.2696075141429901,0.4253148138523102,-0.7109308242797852
1789635559722182700,5.4431826171875,0.3315843343734741,0.18484415113925934,-0.6822621822357178
1789635559732222700,5.45322265625,0.3569836914539337,-0.15122626721858978,-0.6337673664093018
1789635559742262800,5.4632626953125,0.38556793332099915,-0.47418487071990967,-0.6213407516479492
1789635559752302600,5.473302490234375,0.4221389889717102,-0.7226940393447876,-0.6662584543228149
1789635559762342700,5.4833427734375,0.4241592586040497,-0.85648512840271,-0.7434222102165222
1789635559772382700,5.4933828125,0.3994283676147461,-0.8216696381568909,-0.8303190469741821
1789635559782422800,5.5034228515625,0.3710390627384186,-0.6678867340087891,-0.8843492269515991
1789635559792462800,5.513462890625,0.35194897651672363,-0.4473673701286316,-0.9026291966438293
1789635559802502700,5.523502685546875,0.33299899101257324,-0.17824457585811615,-0.854323148727417
1789635559812542700,5.533542724609375,0.31617608666419983,0.07687321305274963,-0.8021371960639954
1789635559822581800,5.543581787109375,0.3118508458137512,0.15719866752624512,-0.7850120067596436
1789635559832621800,5.553621826171875,0.28551191091537476,-0.06082553416490555,-0.7519059777259827
1789635559842662000,5.563661865234375,0.20570841431617737,-0.33552393317222595,-0.6604951024055481
1789635559852701700,5.57370166015625,0.13317696750164032,-0.3921978771686554,-0.528480589389801
1789635559862741800,5.58374169921875,0.07654271274805069,-0.32464733719825745,-0.4527355134487152
1789635559872781800,5.59378173828125,0.03208097070455551,-0.32027706503868103,-0.49983513355255127
1789635559882822000,5.60382177734375,-0.016140088438987732,-0.3977404534816742,-0.6472163200378418
1789635559892862000,5.613862060546875,-0.06646744161844254,-0.3954162895679474,-0.8245037198066711
1789635559902901800,5.62390185546875,-0.08893706649541855,-0.2950707972049713,-0.9586272239685059
1789635559912941600,5.633941650390625,-0.0689963772892952,-0.27404966950416565,-1.05733060836792
1789635559922980900,5.64398095703125,-0.025191904976963997,-0.3448335528373718,-1.13742995262146
1789635559933021000,5.65402099609375,-0.00624165078625083,-0.3559911251068115,-1.2062149047851562
1789635559943060700,5.664060791015625,-0.021386781707406044,-0.31809142231941223,-1.2341173887252808
1789635559953100800,5.674100830078125,-0.05547630786895752,-0.3307803273200989,-1.1971087455749512
1789635559963140600,5.684140625,-0.0831095352768898,-0.36408156156539917,-1.1015275716781616
1789635559973180700,5.6941806640625,-0.09372329711914062,-0.4300278127193451,-1.023116946220398
1789635559983220700,5.704220703125,-0.12981046736240387,-0.46709421277046204,-0.9098181128501892
1789635559993260800,5.7142607421875,-0.152421236038208,-0.32085898518562317,-0.8451887965202332
1789635560003300600,5.724300537109375,-0.11429914832115173,-0.2158164530992508,-0.9442660808563232
1789635560013340700,5.734340576171875,-0.003591006388887763,-0.42363861203193665,-1.0907889604568481
1789635560023380700,5.744380615234375,0.0717889666557312,-0.7038162350654602,-1.289770483970642
1789635560033419800,5.754419677734375,0.08498812466859818,-0.6884108781814575,-1.465955376625061
1789635560043459600,5.76445947265625,0.11351857334375381,-0.5034860372543335,-1.4865219593048096
1789635560053499600,5.774499755859375,0.15806074440479279,-0.5512192249298096,-1.4328632354736328
1789635560063539700,5.784539794921875,0.19515803456306458,-0.7379334568977356,-1.3668599128723145
1789635560073579800,5.794579833984375,0.20799687504768372,-0.8046589493751526,-1.224987268447876
1789635560083619800,5.804619873046875,0.1841469407081604,-0.6141438484191895,-1.0197685956954956
1789635560093659600,5.81465966796875,0.17057040333747864,-0.3218552768230438,-0.8578422665596008
1789635560103699700,5.82469970703125,0.19451701641082764,-0.1513141542673111,-0.7567779421806335
1789635560113739800,5.83473974609375,0.2356061339378357,-0.25796258449554443,-0.7410938143730164
1789635560123779800,5.84477978515625,0.2669597864151001,-0.48035889863967896,-0.8291448354721069
1789635560133820000,5.85481982421875,0.3068976104259491,-0.53407883644104,-0.9678824543952942
1789635560143858700,5.864858642578125,0.3354317843914032,-0.6106553673744202,-1.1172364950180054
1789635560153898800,5.874898681640625,0.32893794775009155,-0.690908670425415,-1.269745111465454
1789635560163938800,5.884938720703125,0.29538583755493164,-0.8687580227851868,-1.3759602308273315
1789635560173979000,5.894978759765625,0.2845020294189453,-0.9432961940765381,-1.42180335521698
1789635560184019000,5.90501904296875,0.2834503650665283,-0.7934555411338806,-1.399314045906067
1789635560194058800,5.915058837890625,0.29605162143707275,-0.5773032903671265,-1.3237556219100952
1789635560204098800,5.925098876953125,0.3082507848739624,-0.41538628935813904,-1.2755457162857056
1789635560214138600,5.935138671875,0.29538610577583313,-0.30813440680503845,-1.316360592842102
1789635560224178700,5.9451787109375,0.31421810388565063,-0.18699784576892853,-1.4522778987884521
1789635560234218800,5.95521875,0.3869788646697998,-0.0934644341468811,-1.5014399290084839
1789635560244258600,5.965258544921875,0.4262719452381134,-0.011248127557337284,-1.4865330457687378
1789635560254298600,5.975298583984375,0.36819931864738464,0.173642098903656,-1.4714151620864868
1789635560264337700,5.985337646484375,0.2803211510181427,0.2717803716659546,-1.475804328918457
1789635560274377700,5.995377685546875,0.2065686136484146,0.3398209512233734,-1.455932855606079
1789635560284417800,6.005417724609375,0.15610066056251526,0.3048994541168213,-1.4357786178588867
1789635560294457600,6.01545751953125,0.0957140102982521,0.3446226418018341,-1.433899164199829
1789635560304497700,6.02549755859375,0.04536055773496628,0.4275963306427002,-1.4207327365875244
1789635560314537700,6.035537841796875,0.02178279310464859,0.6589480638504028,-1.4471460580825806
1789635560324577500,6.04557763671875,-0.008096275851130486,0.5993098020553589,-1.3735377788543701
1789635560334617600,6.05561767578125,-0.06641977280378342,0.3796554505825043,-1.2136738300323486
1789635560344657400,6.065657470703125,-0.11760252714157104,0.3992030620574951,-1.056208848953247
1789635560354697500,6.075697509765625,-0.0921536311507225,0.6748996376991272,-1.0015506744384766
1789635560364737500,6.085737548828125,-0.004111654590815306,0.8635851144790649,-1.0274046659469604
1789635560374776600,6.095776611328125,0.046296127140522,0.7057965397834778,-0.9563097357749939
1789635560384816400,6.10581640625,0.031133685261011124,0.39974501729011536,-0.6879440546035767
1789635560394856400,6.1158564453125,0.02611788734793663,0.2810780107975006,-0.4488891065120697
1789635560404896500,6.125896484375,0.05395590886473656,0.4679946303367615,-0.37894225120544434
1789635560414936600,6.1359365234375,0.0846315324306488,0.48154425621032715,-0.30941617488861084
1789635560424976600,6.1459765625,0.06059889867901802,0.2590651214122772,-0.2324604094028473
1789635560435016400,6.156016357421875,-0.004752411041408777,0.12591798603534698,-0.10042114555835724
1789635560445056500,6.166056396484375,-0.07783807069063187,0.13042059540748596,0.10619035363197327
1789635560455096600,6.1760966796875,-0.15677602589130402,0.12844212353229523,0.2739250361919403
1789635560465136600,6.18613671875,-0.21077188849449158,0.138637512922287,0.3987561762332916
1789635560475176400,6.196176513671875,-0.21955925226211548,0.14245940744876862,0.5242152810096741
1789635560485215500,6.206215576171875,-0.21027813851833344,0.2236376255750656,0.6263584494590759
1789635560495255600,6.216255615234375,-0.21807454526424408,0.3331585228443146,0.723494291305542
1789635560505295600,6.226295654296875,-0.22272895276546478,0.2756235897541046,0.8547801375389099
1789635560515335700,6.236335693359375,-0.22148391604423523,0.2521504759788513,1.0732243061065674
1789635560525375500,6.24637548828125,-0.19360195100307465,0.30571678280830383,1.3105295896530151
1789635560535415300,6.256415283203125,-0.14410018920898438,0.49406698346138,1.4374065399169922
1789635560545455400,6.266455322265625,-0.06696917861700058,0.6204267740249634,1.4147316217422485
1789635560555495400,6.276495361328125,0.005871737375855446,0.5651813745498657,1.3258062601089478
1789635560565535500,6.286535400390625,0.048834651708602905,0.50225430727005,1.280190348625183
1789635560575575600,6.296575439453125,0.05911258980631828,0.6089219450950623,1.3529611825942993
1789635560585615400,6.306615478515625,0.06211477145552635,0.5490604639053345,1.4528286457061768
1789635560595654400,6.316654296875,0.04941495507955551,0.34952312707901,1.4891661405563354
1789635560605694500,6.326694580078125,0.05795491114258766,0.35929930210113525,1.459167242050171
1789635560615734500,6.336734619140625,0.14539527893066406,0.5772449374198914,1.3641589879989624
1789635560625774300,6.3467744140625,0.21148455142974854,0.6480967402458191,1.1858781576156616
1789635560635814400,6.356814453125,0.20630256831645966,0.5794417858123779,1.0774701833724976
1789635560645854500,6.3668544921875,0.17636944353580475,0.5096225142478943,1.1288388967514038
1789635560655894500,6.37689453125,0.16883403062820435,0.37750256061553955,1.2746599912643433
1789635560665934600,6.3869345703125,0.2261897325515747,0.5195947289466858,1.4303675889968872
1789635560675974700,6.396974609375,0.35330188274383545,0.7389691472053528,1.4464751482009888
1789635560686014500,6.407014404296875,0.42584824562072754,0.6662080883979797,1.299124002456665
1789635560696054500,6.417054443359375,0.4207562804222107,0.5276404023170471,1.2108954191207886
1789635560706094600,6.427094482421875,0.4074500501155853,0.49063363671302795,1.3026551008224487
1789635560716133600,6.437133544921875,0.4180009663105011,0.46160170435905457,1.4687749147415161
1789635560726173400,6.44717333984375,0.47545307874679565,0.5370935201644897,1.5733095407485962
1789635560736213500,6.457213623046875,0.5324913263320923,0.6729635000228882,1.5431026220321655
1789635560746253600,6.467253662109375,0.5462268590927124,0.7609617710113525,1.438604712486267
1789635560756293600,6.477293701171875,0.5527830123901367,0.7132542133331299,1.3599333763122559
1789635560766333700,6.487333740234375,0.5893463492393494,0.4554058611392975,1.3226664066314697
1789635560776373500,6.49737353515625,0.5924825072288513,0.29731103777885437,1.375750184059143
1789635560786413300,6.507413330078125,0.5313480496406555,0.4353296160697937,1.4995697736740112
1789635560796453400,6.517453369140625,0.5031813979148865,0.6532507538795471,1.5868152379989624
1789635560806493400,6.527493408203125,0.5343624949455261,0.625307559967041,1.5466179847717285
1789635560816533500,6.537533447265625,0.5606492161750793,0.39951223134994507,1.4042787551879883
1789635560826573600,6.547573486328125,0.5387631058692932,0.32378125190734863,1.3291202783584595
1789635560836612400,6.5576123046875,0.5123695731163025,0.4598544239997864,1.3994873762130737
1789635560846652400,6.56765234375,0.5297917127609253,0.3856648802757263,1.4742980003356934
1789635560856692500,6.5776923828125,0.5178082585334778,0.13482439517974854,1.4530614614486694
1789635560866732500,6.587732666015625,0.4298027753829956,0.022346584126353264,1.373000144958496
1789635560876772400,6.5977724609375,0.31001511216163635,0.08715754002332687,1.3199083805084229
1789635560886812400,6.6078125,0.23093575239181519,0.14667145907878876,1.3408989906311035
1789635560896852500,6.6178525390625,0.17121756076812744,0.0582963302731514,1.3605064153671265
1789635560906892500,6.627892578125,0.1255512684583664,-0.12351953983306885,1.3209712505340576
1789635560916932600,6.6379326171875,0.06539978086948395,-0.17700593173503876,1.2781543731689453
1789635560926972400,6.647972412109375,0.010293384082615376,0.05504833906888962,1.323702096939087
1789635560937012500,6.658012451171875,-0.0032687638886272907,0.37403085827827454,1.4339185953140259
1789635560947051500,6.668051513671875,0.05782734602689743,0.38251248002052307,1.4705637693405151
1789635560957091600,6.678091552734375,0.11144183576107025,0.0373055599629879,1.4215821027755737
1789635560967131600,6.688131591796875,0.06145403906702995,-0.23441143333911896,1.369724988937378
1789635560977171500,6.69817138671875,-0.0653289407491684,-0.06926882266998291,1.3948734998703003
1789635560987211500,6.70821142578125,-0.15777631103992462,0.11670983582735062,1.4151036739349365
1789635560997251600,6.71825146484375,-0.17964912950992584,-0.12662026286125183,1.3476250171661377
1789635561007291600,6.728291748046875,-0.21079133450984955,-0.5606042146682739,1.2320361137390137
1789635561017331700,6.738331787109375,-0.29063475131988525,-0.572486400604248,1.1968227624893188
1789635561027371500,6.74837158203125,-0.3408433496952057,-0.0837569460272789,1.2360918521881104
1789635561037411300,6.758411376953125,-0.36959561705589294,0.42771485447883606,1.2270690202713013
1789635561047451400,6.768451416015625,-0.34353604912757874,0.5118741989135742,1.1438153982162476
1789635561057491500,6.778491455078125,-0.29240497946739197,0.2913985550403595,1.0501514673233032
1789635561067530500,6.788530517578125,-0.1998465359210968,0.183729887008667,0.9643479585647583
1789635561077570600,6.798570556640625,-0.09785039722919464,0.12709376215934753,0.8769422173500061
1789635561087610400,6.8086103515625,-0.033244241029024124,0.08672823756933212,0.7187783718109131
1789635561097650400,6.818650390625,-0.007866178639233112,-0.03942463919520378,0.5032516717910767
1789635561107690500,6.8286904296875,-0.023015303537249565,-0.1660531461238861,0.2765253484249115
1789635561117730600,6.83873046875,-0.10438579320907593,0.03970613330602646,0.07225928455591202
1789635561127770400,6.848770263671875,-0.06840541958808899,0.23053094744682312,-0.040588971227407455
1789635561137810400,6.858810546875,0.01047314703464508,0.16998477280139923,-0.05956053361296654
1789635561147850500,6.8688505859375,0.07268884778022766,0.1689794361591339,-0.11134889721870422
1789635561157890600,6.878890625,0.12873800098896027,0.15430514514446259,-0.2565327286720276
1789635561167930600,6.8889306640625,0.12602823972702026,0.1511269360780716,-0.45595768094062805
1789635561177970400,6.898970458984375,0.0191329475492239,0.17690953612327576,-0.7249454855918884
1789635561188009500,6.909009521484375,0.007625162601470947,0.28326714038848877,-0.932396650314331
1789635561198049500,6.919049560546875,0.037038709968328476,0.3609504699707031,-1.0193041563034058
1789635561208089600,6.929089599609375,0.02551334910094738,0.45753026008605957,-1.0103468894958496
1789635561218129400,6.93912939453125,0.013221529312431812,0.5956002473831177,-0.9136173725128174
1789635561228169500,6.94916943359375,0.06325460225343704,0.6420921087265015,-0.7207784056663513
1789635561238209500,6.95920947265625,0.1256689727306366,0.5067721009254456,-0.4231736361980438
1789635561248249600,6.96924951171875,0.1560945212841034,0.19752904772758484,-0.13956081867218018
1789635561258289700,6.97928955078125,0.15392005443572998,-0.20804160833358765,0.055022504180669785
1789635561268329500,6.98932958984375,0.09136826545000076,-0.4198417365550995,0.12324017286300659
1789635561278369500,6.99936962890625,0.07536586374044418,-0.3949638307094574,0.09680190682411194
1789635561288409300,7.009409423828125,0.12346015125513077,-0.3130527138710022,0.03197178244590759
1789635561298449400,7.019449462890625,0.1631779968738556,-0.22868643701076508,-0.10168268531560898
1789635561308488700,7.02948876953125,0.10863620042800903,-0.1643519252538681,-0.3943856656551361
1789635561318528500,7.039528564453125,0.008238755166530609,-0.06549432128667831,-0.7357581853866577
1789635561328568600,7.049568603515625,-0.000046072687837295234,0.057915497571229935,-0.9622674584388733
1789635561338608400,7.0596083984375,0.042343996465206146,0.21270374953746796,-1.0256179571151733
1789635561348648400,7.0696484375,0.06148333474993706,0.2991499602794647,-1.0295729637145996
1789635561358688300,7.079688232421875,0.015478292480111122,0.3256308436393738,-1.0508884191513062
1789635561368728300,7.089728271484375,-0.04880961775779724,0.401006817817688,-1.026384711265564
1789635561378768400,7.099768310546875,-0.10422653704881668,0.5859574675559998,-0.9720242023468018
1789635561388808400,7.109808349609375,-0.11338061839342117,0.6803625226020813,-0.939424455165863
1789635561398848500,7.1198486328125,-0.07575175166130066,0.35884392261505127,-0.93150395154953
1789635561408888300,7.129888427734375,-0.0733860656619072,-0.2256712019443512,-0.9420202374458313
1789635561418928400,7.139928466796875,-0.09802483022212982,-0.7218194603919983,-0.9096261262893677
1789635561428967400,7.149967529296875,-0.06858225911855698,-0.8847689628601074,-0.8378288745880127
1789635561439007500,7.160007568359375,-0.016636500135064125,-0.7012971043586731,-0.7593303322792053
1789635561449047600,7.170047607421875,0.0024740765802562237,-0.39632096886634827,-0.7973973155021667
1789635561459087400,7.18008740234375,0.005424859002232552,-0.17864058911800385,-0.969977617263794
1789635561469127400,7.19012744140625,0.01167396642267704,-0.052076518535614014,-1.1540275812149048
1789635561479167500,7.20016748046875,0.011835088022053242,0.013614878058433533,-1.2294166088104248
1789635561489207600,7.21020751953125,0.034865040332078934,-0.1323721557855606,-1.2581156492233276
1789635561499247600,7.22024755859375,0.04586655646562576,-0.35626065731048584,-1.302940845489502
1789635561509287400,7.230287353515625,0.03940572962164879,-0.40221214294433594,-1.3531219959259033
1789635561519327500,7.240327392578125,0.03147723153233528,-0.4930640459060669,-1.390039086341858
1789635561529367600,7.250367431640625,-0.0006362291751429439,-0.5818487405776978,-1.3848426342010498
1789635561539407600,7.26040771484375,-0.00805979035794735,-0.6185937523841858,-1.3699657917022705
1789635561549446400,7.2704462890625,-0.010912569239735603,-0.7004366517066956,-1.3632420301437378
1789635561559486500,7.280486572265625,-0.05127916485071182,-0.7647658586502075,-1.3255550861358643
1789635561569526500,7.290526611328125,-0.1310935765504837,-0.6558271050453186,-1.2430535554885864
1789635561579566600,7.300566650390625,-0.1464107483625412,-0.6377767324447632,-1.1836986541748047
1789635561589606400,7.3106064453125,-0.09302900731563568,-0.9343354105949402,-1.1335910558700562
1789635561599646500,7.320646484375,-0.06178000941872597,-1.1365567445755005,-1.1008893251419067
1789635561609686300,7.330686279296875,-0.11031505465507507,-1.015405297279358,-1.1072883605957031
1789635561619726300,7.340726318359375,-0.16138489544391632,-0.798060953617096,-1.177337408065796
1789635561629766400,7.350766357421875,-0.14753380417823792,-0.6690624952316284,-1.2971440553665161
1789635561639806500,7.360806396484375,-0.045216478407382965,-0.8284862637519836,-1.4373219013214111
1789635561649846500,7.370846435546875,0.04489956423640251,-1.1165797710418701,-1.4952634572982788
1789635561659886300,7.38088623046875,0.08004290610551834,-1.3333451747894287,-1.4227516651153564
1789635561669925400,7.39092529296875,0.06240931525826454,-1.1784613132476807,-1.2514848709106445
1789635561679965400,7.40096533203125,0.04805407673120499,-0.8228741884231567,-1.0856914520263672
1789635561690005500,7.411005615234375,0.05552344769239426,-0.8087540864944458,-0.9950046539306641
1789635561700045300,7.42104541015625,0.013619139790534973,-0.9202483892440796,-0.9973570108413696
1789635561710085400,7.43108544921875,-0.06325487047433853,-0.7954736948013306,-1.1156253814697266
1789635561720125400,7.44112548828125,-0.069954052567482,-0.6610892415046692,-1.345963716506958
1789635561730165500,7.45116552734375,0.0679691955447197,-0.6950211524963379,-1.595199704170227
1789635561740205600,7.46120556640625,0.21420417726039886,-0.7782025337219238,-1.7002032995224
1789635561750245600,7.47124560546875,0.2638857066631317,-0.6167284250259399,-1.7487956285476685
1789635561760285400,7.481285400390625,0.29708465933799744,-0.3884947597980499,-1.6898143291473389
1789635561770325500,7.491325439453125,0.33260244131088257,-0.225778266787529,-1.6727277040481567
1789635561780365600,7.501365478515625,0.3206179738044739,-0.3568340241909027,-1.7241113185882568
1789635561790405600,7.511405517578125,0.18565881252288818,-0.5009978413581848,-1.7052654027938843
1789635561800444400,7.5214443359375,0.08904598653316498,-0.5310057997703552,-1.6270785331726074
1789635561810484500,7.531484375,0.08780308812856674,-0.4691115617752075,-1.4550646543502808
1789635561820524500,7.541524658203125,0.11968938261270523,-0.28409990668296814,-1.3074851036071777
1789635561830564600,7.551564697265625,0.05083122104406357,-0.08580465614795685,-1.2750027179718018
1789635561840604400,7.5616044921875,-0.07131199538707733,0.055751144886016846,-1.3799784183502197
1789635561850644200,7.571644287109375,-0.12179487943649292,0.029685990884900093,-1.5016286373138428
1789635561860684300,7.581684326171875,-0.07789693027734756,-0.13059422373771667,-1.486587643623352
1789635561870724400,7.591724365234375,-0.08875250816345215,-0.30780869722366333,-1.2932109832763672
1789635561880764400,7.601764404296875,-0.2579473853111267,-0.18273626267910004,-1.1602226495742798
1789635561890804500,7.611804443359375,-0.3691284954547882,0.2968015670776367,-1.1740350723266602
1789635561900844500,7.621844482421875,-0.32201719284057617,0.6162213683128357,-1.24088716506958
1789635561910884400,7.63188427734375,-0.23425963521003723,0.42369988560676575,-1.177331566810608
1789635561920923400,7.64192333984375,-0.21131864190101624,-0.0014602112350985408,-0.9234841465950012
1789635561930963500,7.65196337890625,-0.22003969550132751,0.07519062608480453,-0.7000113725662231
1789635561941003500,7.66200341796875,-0.17874231934547424,0.619850218296051,-0.5947629809379578
1789635561951043300,7.672043212890625,-0.19391514360904694,0.6220158934593201,-0.5636934638023376
1789635561961083400,7.68208349609375,-0.25980228185653687,0.28434571623802185,-0.4395747184753418
1789635561971123500,7.69212353515625,-0.3671463131904602,0.17383889853954315,-0.22831280529499054
1789635561981163500,7.70216357421875,-0.3456506133079529,0.6926242709159851,-0.1090117022395134
1789635561991203600,7.71220361328125,-0.2097015678882599,0.7859861850738525,-0.16870006918907166
1789635562001243400,7.722243408203125,-0.20220662653446198,0.3018735647201538,-0.08771973103284836
1789635562011283500,7.732283447265625,-0.3867266774177551,0.0737764835357666,0.2987115979194641
1789635562021323500,7.742323486328125,-0.5436931252479553,0.3662261962890625,0.701751172542572
1789635562031363600,7.752363525390625,-0.49071937799453735,0.5603613257408142,0.8845769166946411
1789635562041403600,7.762403564453125,-0.33377957344055176,0.5023480653762817,0.8639534115791321
1789635562051442400,7.7724423828125,-0.33758363127708435,0.29474347829818726,0.9446280002593994
1789635562061482500,7.782482421875,-0.46024057269096375,0.3627382516860962,1.2158265113830566
1789635562071522600,7.7925224609375,-0.5409532785415649,0.5405364632606506,1.4218640327453613
1789635562081562600,7.802562744140625,-0.526152491569519,0.6482027769088745,1.4983420372009277
1789635562091602700,7.812602783203125,-0.449910968542099,0.4566282629966736,1.5645887851715088
1789635562101642500,7.822642578125,-0.3675953149795532,0.3029625415802002,1.712893009185791
1789635562111682300,7.832682373046875,-0.30246347188949585,0.40477490425109863,1.8656690120697021
1789635562121722400,7.842722412109375,-0.25334784388542175,0.7858881950378418,1.8817083835601807
1789635562131762400,7.852762451171875,-0.1614285707473755,0.7942103147506714,1.734714150428772
1789635562141802500,7.862802490234375,-0.07534162700176239,0.506060004234314,1.7441990375518799
1789635562151842300,7.87284228515625,-0.03724563866853714,0.40497440099716187,1.9975471496582031
1789635562161882400,7.88288232421875,-0.001330249011516571,0.5463930368423462,2.2068064212799072
1789635562171922400,7.89292236328125,0.0760929062962532,0.7655107378959656,2.2326598167419434
1789635562181961500,7.90296142578125,0.16971926391124725,0.9048105478286743,2.150186777114868
1789635562192001300,7.913001220703125,0.268270879983902,0.829802393913269,2.057809591293335
1789635562202041300,7.923041259765625,0.2788577377796173,0.7869933843612671,2.0185954570770264
1789635562212081400,7.933081298828125,0.19418226182460785,0.9192640781402588,2.007556915283203
1789635562222121500,7.94312158203125,0.11788962036371231,0.9353503584861755,1.9780123233795166
1789635562232161500,7.95316162109375,0.09227000921964645,0.6429523229598999,1.9803566932678223
1789635562242201600,7.96320166015625,0.10928840935230255,0.44622889161109924,2.0508811473846436
1789635562252241400,7.973241455078125,0.13172340393066406,0.5201159119606018,2.118516206741333
1789635562262281500,7.983281494140625,0.1588010936975479,0.645412266254425,2.0902163982391357
1789635562272321500,7.993321533203125,0.1667138785123825,0.6503159403800964,1.953688621520996
1789635562282361600,8.003361572265625,0.1692872941493988,0.40634751319885254,1.7697440385818481
1789635562292401700,8.013401611328124,0.14930880069732666,0.06607382744550705,1.6547445058822632
1789635562302441500,8.02344140625,0.12774650752544403,-0.12311048060655594,1.6779369115829468
1789635562312480500,8.03348046875,0.15505535900592804,0.016169648617506027,1.7450717687606812
1789635562322520600,8.0435205078125,0.18927565217018127,0.29515814781188965,1.7724639177322388
1789635562332561000,8.053560791015625,0.14330708980560303,0.4460690915584564,1.734624981880188
1789635562342600700,8.0636005859375,0.07573045045137405,0.21617251634597778,1.622183918952942
1789635562352640500,8.073640625,0.08183041960000992,-0.2681656777858734,1.4943311214447021
1789635562362680600,8.0836806640625,0.06487113982439041,-0.44800469279289246,1.4798003435134888
1789635562372720600,8.093720703125,-0.04670066013932228,-0.020317522808909416,1.595511794090271
1789635562382760700,8.1037607421875,-0.09197653084993362,0.5509523749351501,1.7478928565979004
1789635562392800800,8.11380078125,-0.0290010254830122,0.7332707643508911,1.8103867769241333
1789635562402840600,8.123840576171874,0.03972557559609413,0.5009531378746033,1.7448344230651855
1789635562412880600,8.133880615234375,0.08212043344974518,0.06626050919294357,1.5905582904815674
1789635562422920700,8.143920654296876,0.06531429290771484,-0.3393799364566803,1.4786807298660278
1789635562432959700,8.153959716796875,-0.021815283223986626,-0.4272772967815399,1.4852800369262695
1789635562442999600,8.16399951171875,-0.11733487993478775,-0.16105413436889648,1.5533204078674316
1789635562453039600,8.17403955078125,-0.13338175415992737,0.17142075300216675,1.5770339965820312
1789635562463079700,8.18407958984375,-0.08465070277452469,0.2617272138595581,1.489782691001892
1789635562473119700,8.19411962890625,-0.06743656098842621,0.2984663248062134,1.333118200302124
1789635562483159800,8.204159912109375,-0.0427679717540741,0.17882433533668518,1.166042447090149
1789635562493200000,8.214199951171874,-0.06894045323133469,-0.026763437315821648,1.0266379117965698
1789635562503239700,8.22423974609375,-0.15571849048137665,-0.18822476267814636,0.93553227186203
1789635562513279700,8.23427978515625,-0.16819512844085693,-0.2093401700258255,0.8577935099601746
1789635562523319800,8.24431982421875,-0.12000789493322372,0.01757313497364521,0.8085485100746155
1789635562533359900,8.25435986328125,-0.09506899118423462,0.426298588514328,0.7522074580192566
1789635562543400000,8.26439990234375,-0.07227073609828949,0.7750880122184753,0.6049681901931763
1789635562553439700,8.274439697265626,0.005526858381927013,0.9611673355102539,0.3733634650707245
1789635562563478800,8.284478759765625,0.0873013511300087,0.9472150206565857,0.17062394320964813
1789635562573518800,8.294518798828125,0.13219425082206726,0.8431599736213684,0.0132084796205163
1789635562583559000,8.304558837890625,0.09783947467803955,0.6712902188301086,-0.09337841719388962
1789635562593598700,8.3145986328125,0.03068041428923607,0.43407049775123596,-0.14709118008613586
1789635562603638500,8.324638427734374,-0.002581668319180608,0.23392353951931,-0.14907710254192352
1789635562613678600,8.3346787109375,-0.04661943390965462,0.23512862622737885,-0.16259796917438507
1789635562623718700,8.34471875,-0.015247129835188389,0.31045639514923096,-0.18888603150844574
1789635562633758700,8.3547587890625,0.06292756646871567,0.17650632560253143,-0.18284757435321808
1789635562643798500,8.364798583984374,0.04420554265379906,0.04067019745707512,-0.19669388234615326
1789635562653838600,8.374838623046875,-0.06367911398410797,0.08744729310274124,-0.393612802028656
1789635562663878700,8.384878662109376,-0.08528773486614227,0.13484036922454834,-0.6333987712860107
1789635562673918700,8.394918701171875,-0.06057732552289963,0.07405691593885422,-0.7715950012207031
1789635562683958800,8.404958740234376,-0.05763772875070572,0.08004370331764221,-0.8420515656471252
1789635562693997600,8.41499755859375,-0.060995444655418396,0.30212417244911194,-0.8830722570419312
1789635562704037600,8.42503759765625,-0.02893737517297268,0.699356734752655,-0.858945369720459
1789635562714077700,8.43507763671875,0.01691080629825592,1.0181033611297607,-0.7214383482933044
1789635562724117800,8.44511767578125,0.0766977071762085,0.9933508038520813,-0.5568951964378357
1789635562734157800,8.45515771484375,0.10621325671672821,0.7549347877502441,-0.45229342579841614
1789635562744197600,8.46519775390625,0.14296674728393555,0.4403589963912964,-0.40631234645843506
1789635562754237700,8.47523779296875,0.15908925235271454,0.022411566227674484,-0.361745148897171
1789635562764277800,8.48527783203125,0.11052730679512024,-0.3523727059364319,-0.3534185290336609
1789635562774317800,8.49531787109375,0.058820441365242004,-0.5226272344589233,-0.388495534658432
1789635562784358000,8.50535791015625,0.08364163339138031,-0.47185808420181274,-0.4733870029449463
1789635562794397700,8.515397705078126,0.17993886768817902,-0.33556094765663147,-0.6455726027488708
1789635562804437800,8.525437744140625,0.27713119983673096,-0.1946118324995041,-0.9242526888847351
1789635562814477600,8.5354775390625,0.3264524042606354,0.053530070930719376,-1.229840874671936
1789635562824516900,8.545516845703125,0.3134399354457855,0.3846009373664856,-1.4741579294204712
1789635562834557000,8.555556884765625,0.2608523666858673,0.6694419980049133,-1.5486249923706055
1789635562844596700,8.5655966796875,0.17982302606105804,0.7309077382087708,-1.494331955909729
1789635562854636500,8.575636474609375,0.07491365820169449,0.6093405485153198,-1.447507381439209
1789635562864676600,8.585676513671874,-0.061940863728523254,0.49298760294914246,-1.4371644258499146
1789635562874716700,8.595716552734375,-0.13372157514095306,0.5164902806282043,-1.3540197610855103
1789635562884756700,8.6057568359375,-0.09845732897520065,0.4197400212287903,-1.1869131326675415
1789635562894796500,8.615796630859375,0.029997047036886215,0.05110979080200195,-1.0292696952819824
1789635562904836600,8.625836669921876,0.1659700572490692,-0.2009964883327484,-0.9424532651901245
1789635562914876700,8.635876708984375,0.2719838321208954,-0.3538219928741455,-0.9279707670211792
1789635562924916700,8.645916748046876,0.3747384548187256,-0.48931536078453064,-0.8971601128578186
1789635562934956800,8.655956787109375,0.47191667556762695,-0.5734075903892517,-0.8344882130622864
1789635562944996600,8.66599658203125,0.4928078353404999,-0.6035982370376587,-0.8609911799430847
1789635562955035600,8.67603564453125,0.4651048481464386,-0.7845669984817505,-1.01719331741333
1789635562965075700,8.68607568359375,0.38960716128349304,-0.789005696773529,-1.2535598278045654
1789635562975115800,8.69611572265625,0.33266982436180115,-0.603343665599823,-1.3839713335037231
1789635562985155800,8.70615576171875,0.31746822595596313,-0.3241940438747406,-1.3910411596298218
1789635562995195600,8.716195556640624,0.2729859948158264,-0.5209324359893799,-1.3386496305465698
1789635563005235700,8.726235595703125,0.18343134224414825,-1.0186998844146729,-1.2961112260818481
1789635563015275800,8.73627587890625,0.08963294327259064,-1.2575350999832153,-1.2651056051254272
1789635563025315800,8.74631591796875,0.05781989172101021,-1.270729660987854,-1.224921464920044
1789635563035356000,8.75635595703125,0.06737211346626282,-1.131674885749817,-1.159085750579834
1789635563045395700,8.766395751953125,0.05798900127410889,-0.9941287040710449,-1.1812344789505005
1789635563055435800,8.776435791015626,0.07091785222291946,-0.9873685836791992,-1.2525533437728882
1789635563065475600,8.7864755859375,0.11491912603378296,-0.9887150526046753,-1.3022782802581787
1789635563075515600,8.796515625,0.18392349779605865,-0.9694069027900696,-1.3148622512817383
1789635563085554700,8.8065546875,0.27817675471305847,-0.9295403957366943,-1.3529773950576782
1789635563095594800,8.8165947265625,0.33944863080978394,-0.7612273097038269,-1.4490089416503906
1789635563105634800,8.826634765625,0.3567088544368744,-0.639502763748169,-1.5418871641159058
1789635563115674600,8.836674560546875,0.3437299430370331,-0.5075974464416504,-1.5774449110031128
1789635563125714700,8.846714599609374,0.33827632665634155,-0.416398823261261,-1.598441481590271
1789635563135754800,8.856754638671875,0.3685716390609741,-0.3892550766468048,-1.6981390714645386
1789635563145794600,8.866794677734376,0.38259878754615784,-0.343660444021225,-1.7878931760787964
1789635563155834600,8.876834716796875,0.42802751064300537,-0.3576846420764923,-1.754206657409668
1789635563165874700,8.886874755859376,0.42244312167167664,-0.5098611116409302,-1.7805991172790527
1789635563175914800,8.896914794921875,0.3396744728088379,-0.5329696536064148,-1.8882379531860352
1789635563185954800,8.906954833984376,0.24419136345386505,-0.5811749696731567,-2.0069944858551025
1789635563195994600,8.91699462890625,0.11422430723905563,-0.7366889119148254,-1.931359887123108
1789635563206034700,8.92703466796875,0.002688993699848652,-0.6771174669265747,-1.7348190546035767
1789635563216073700,8.93707373046875,-0.048352617770433426,-0.4942193031311035,-1.6213133335113525
1789635563226113800,8.94711376953125,-0.055257394909858704,-0.17706239223480225,-1.5134717226028442
1789635563236153600,8.957153564453124,0.002292981604114175,0.06462906301021576,-1.5159608125686646
1789635563246193700,8.967193603515625,0.11918604373931885,0.17823658883571625,-1.6019073724746704
1789635563256233700,8.977233642578126,0.21198736131191254,0.0925309956073761,-1.6557044982910156
1789635563266273800,8.987273681640625,0.2219499796628952,-0.005585714243352413,-1.5948233604431152
1789635563276313900,8.99731396484375,0.1695600003004074,-0.03888481482863426,-1.4564383029937744
1789635563286353700,9.007353759765625,0.0873173251748085,0.09487830847501755,-1.3129756450653076
1789635563296393700,9.017393798828126,0.0252198688685894,0.22431325912475586,-1.1931861639022827
1789635563306433800,9.027433837890625,0.005661347880959511,0.2207946926355362,-1.0558069944381714
1789635563316473600,9.0374736328125,0.03386076167225838,0.0719013512134552,-0.8348658680915833
1789635563326513400,9.047513427734375,0.10442094504833221,-0.062123026698827744,-0.5085793137550354
1789635563336553200,9.05755322265625,0.1606442779302597,-0.18721435964107513,-0.13512612879276276
1789635563346592300,9.06759228515625,0.24257029592990875,-0.034385938197374344,0.12673397362232208
1789635563356632300,9.07763232421875,0.37807247042655945,0.351056307554245,0.19885610044002533
1789635563366672400,9.08767236328125,0.47425466775894165,0.563812255859375,0.129561185836792
1789635563376712400,9.09771240234375,0.467472106218338,0.42462265491485596,-0.012470251880586147
1789635563386752300,9.107752197265626,0.40220922231674194,0.1421358287334442,-0.1095893457531929
1789635563396792000,9.1177919921875,0.35039955377578735,-0.030550451949238777,-0.12640027701854706
1789635563406832000,9.12783203125,0.3302316963672638,0.00905394833534956,-0.06223620846867561
1789635563416872200,9.1378720703125,0.25353240966796875,0.15082120895385742,0.07525400817394257
1789635563426912300,9.147912353515625,0.07467610388994217,0.27422383427619934,0.2734808027744293
1789635563436952300,9.157952392578125,-0.06234939396381378,0.294686496257782,0.5615552067756653
1789635563446992100,9.1679921875,-0.0930500477552414,0.2033190280199051,0.9403001070022583
1789635563457032200,9.1780322265625,-0.13532772660255432,0.198653444647789,1.1372501850128174
1789635563467072300,9.188072265625,-0.23132909834384918,0.2942313551902771,1.1153556108474731
1789635563477112300,9.1981123046875,-0.3345281779766083,0.37437838315963745,1.1260284185409546
1789635563487151000,9.208151123046875,-0.41728803515434265,0.5302364230155945,1.2679895162582397
1789635563497191200,9.218191162109376,-0.48350781202316284,0.7190569639205933,1.5077850818634033
1789635563507231200,9.228231201171875,-0.5253133177757263,0.788341224193573,1.776499629020691
1789635563517271300,9.238271240234376,-0.510619044303894,0.8328524827957153,1.982235312461853
1789635563527311400,9.248311279296875,-0.43754565715789795,1.0915039777755737,2.10184383392334
1789635563537351200,9.25835107421875,-0.2700330913066864,1.128074288368225,2.09535813331604
1789635563547391200,9.26839111328125,-0.11177632957696915,0.8649390339851379,2.075892686843872
1789635563557431300,9.278431396484375,-0.003976099658757448,0.5606899261474609,2.1715779304504395
1789635563567471400,9.288471435546874,0.02226189523935318,0.5496844053268433,2.3451342582702637
1789635563577511400,9.298511474609375,0.019814716652035713,0.6660890579223633,2.4195966720581055
1789635563587551200,9.30855126953125,0.04849749431014061,0.6295177340507507,2.313495397567749
1789635563597591000,9.318591064453125,0.1297723799943924,0.25176966190338135,2.1508629322052
1789635563607631000,9.328631103515624,0.16889208555221558,0.03068654052913189,2.076578378677368
1789635563617671200,9.338671142578125,0.15580664575099945,0.11722462624311447,2.0810461044311523
1789635563627710500,9.34871044921875,0.12950631976127625,0.3035082221031189,2.067805528640747
1789635563637750300,9.358750244140625,0.14452709257602692,0.11945635825395584,1.9580968618392944
1789635563647790000,9.3687900390625,0.1278117597103119,-0.1558188945055008,1.8886160850524902
1789635563657830100,9.378830078125,0.03900732100009918,-0.11411698162555695,1.9860366582870483
1789635563667870200,9.3888701171875,-0.05078461766242981,0.23426710069179535,2.2101852893829346
1789635563677910300,9.39891015625,-0.05688432231545448,0.5299403071403503,2.3544869422912598
1789635563687950000,9.4089501953125,-0.020006997510790825,0.5487025380134583,2.265219211578369
1789635563697990100,9.418990234375,0.0226211566478014,0.18106618523597717,1.9220709800720215
1789635563708030200,9.4290302734375,0.005790777504444122,-0.21880558133125305,1.5803784132003784
1789635563718070300,9.4390703125,-0.022422751411795616,-0.3316352069377899,1.5306384563446045
1789635563728110300,9.4491103515625,-0.014135526493191719,-0.06996417045593262,1.6881839036941528
1789635563738150400,9.459150390625,-0.05289570614695549,0.3986712098121643,1.8120068311691284
1789635563748190200,9.469190185546875,-0.03964461386203766,0.6608783602714539,1.7658745050430298
1789635563758229200,9.479229248046876,0.0254579558968544,0.5483246445655823,1.5652347803115845
1789635563768269300,9.489269287109375,0.048658616840839386,0.22720758616924286,1.3325824737548828
1789635563778309400,9.499309326171876,0.06621044874191284,-0.14998283982276917,1.1358083486557007
1789635563788349200,9.50934912109375,0.035294607281684875,-0.2719404399394989,1.0853790044784546
1789635563798389200,9.51938916015625,-0.005920739844441414,0.035899411886930466,1.2330044507980347
1789635563808429300,9.52942919921875,-0.041368212550878525,0.4856860041618347,1.4906092882156372
1789635563818469400,9.539469482421875,-0.04670598730444908,0.7356103658676147,1.6880414485931396
1789635563828509400,9.549509521484374,-0.05553356558084488,0.6802730560302734,1.7086844444274902
1789635563838549200,9.55954931640625,-0.0628037303686142,0.3942413032054901,1.5821384191513062
1789635563848589000,9.569589111328124,-0.06435076147317886,-0.027039073407649994,1.3932766914367676
1789635563858629000,9.579629150390625,-0.1252865493297577,-0.38752642273902893,1.2407199144363403
1789635563868669200,9.589669189453126,-0.23790684342384338,-0.5378032922744751,1.1386686563491821
1789635563878709200,9.599709228515625,-0.32278791069984436,-0.3508714735507965,1.1076658964157104
1789635563888748300,9.609748291015626,-0.3199673593044281,0.003626160090789199,1.0835046768188477
1789635563898788000,9.6197880859375,-0.28030356764793396,0.1961956024169922,1.0312292575836182
1789635563908828200,9.629828125,-0.24809236824512482,0.2177640199661255,0.8991643786430359
1789635563918868200,9.6398681640625,-0.2173088788986206,0.25926220417022705,0.6997343897819519
1789635563928908300,9.649908203125,-0.2001591920852661,0.1970749795436859,0.47347861528396606
1789635563938948000,9.659947998046874,-0.15452539920806885,-0.011187407188117504,0.2773607671260834
1789635563948988200,9.66998828125,-0.14607945084571838,-0.05920553207397461,0.11054807901382446
1789635563959028200,9.6800283203125,-0.15556775033473969,0.14571060240268707,-0.08194493502378464
1789635563969068300,9.690068359375,-0.1452016681432724,0.3281722962856293,-0.2722861170768738
1789635563979108400,9.7001083984375,-0.12746953964233398,0.17307165265083313,-0.41116490960121155
1789635563989148200,9.710148193359375,-0.08791760355234146,0.005800630897283554,-0.5021451711654663
1789635563999188200,9.720188232421876,-0.05940793454647064,-0.09031444787979126,-0.5646135807037354
1789635564009228300,9.730228271484375,-0.06091155484318733,-0.09129289537668228,-0.626571774482727
1789635564019267300,9.740267333984375,-0.10906044393777847,-0.0928974524140358,-0.6879432201385498
1789635564029307400,9.750307373046875,-0.1279321312904358,0.019784357398748398,-0.7114893198013306
1789635564039347200,9.76034716796875,-0.15185238420963287,0.40899524092674255,-0.7035762667655945
1789635564049387300,9.77038720703125,-0.07378740608692169,1.0019514560699463,-0.6942658424377441
1789635564059427300,9.78042724609375,0.03166205435991287,1.1944022178649902,-0.6804648041725159
1789635564069467400,9.79046728515625,0.10224168002605438,1.1146572828292847,-0.6561139225959778
1789635564079507500,9.800507568359375,0.10854005813598633,0.8970772624015808,-0.7241246700286865
1789635564089547300,9.81054736328125,0.08430582284927368,0.45245134830474854,-0.8693564534187317
1789635564099587300,9.82058740234375,0.08074437826871872,-0.23942723870277405,-1.0511605739593506
1789635564109627100,9.830627197265626,0.1157926470041275,-0.7259859442710876,-1.1921334266662598
1789635564119667200,9.840667236328125,0.13229146599769592,-0.6340075731277466,-1.2249382734298706
1789635564129707300,9.850707275390626,0.19405442476272583,-0.35554584860801697,-1.1844662427902222
1789635564139747000,9.8607470703125,0.271413117647171,0.08356786519289017,-1.151770830154419
1789635564149787100,9.870787109375,0.2234804928302765,0.662070631980896,-1.172073483467102
1789635564159827200,9.8808271484375,0.07223158329725266,1.1420832872390747,-1.1784967184066772
1789635564169866200,9.8908662109375,-0.04192401468753815,1.2121467590332031,-1.0570999383926392
1789635564179906000,9.900906005859374,-0.10048026591539383,0.7622078657150269,-0.8544973134994507
1789635564189946000,9.910946044921875,-0.16375431418418884,0.17321571707725525,-0.7680319547653198
1789635564199986200,9.920986083984374,-0.25096139311790466,-0.08038538694381714,-0.8918558955192566
1789635564210026200,9.931026123046875,-0.25668051838874817,-0.14240960776805878,-1.075088620185852
1789635564220066300,9.94106640625,-0.2037677764892578,-0.15140336751937866,-1.1508262157440186
1789635564230106400,9.9511064453125,-0.2322649359703064,-0.15400421619415283,-1.1631057262420654
1789635564240146200,9.961146240234376,-0.2918608784675598,-0.24665558338165283,-1.169034481048584
1789635564250186200,9.971186279296875,-0.25732821226119995,-0.3245924711227417,-1.0762624740600586
1789635564260226300,9.981226318359376,-0.18192505836486816,-0.27747929096221924,-0.969616711139679
1789635564270266400,9.991266357421875,-0.08743530511856079,-0.30716899037361145,-0.9888189435005188
1789635564280306400,10.001306396484376,0.030839672312140465,-0.4117284417152405,-1.0800747871398926
1789635564290346200,10.01134619140625,0.09010938555002213,-0.470380038022995,-1.1925514936447144
1789635564300385300,10.02138525390625,0.08870270103216171,-0.8239045143127441,-1.3005107641220093
1789635564310425300,10.03142529296875,0.014772022143006325,-1.1076925992965698,-1.4259434938430786
1789635564320465400,10.04146533203125,-0.0860922709107399,-1.1649174690246582,-1.5054322481155396
1789635564330505700,10.051505615234374,-0.16127118468284607,-1.0828362703323364,-1.5197157859802246
1789635564340545800,10.0615458984375,-0.2076871544122696,-0.9311138391494751,-1.5288195610046387
1789635564350585900,10.0715859375,-0.206180602312088,-0.9039437174797058,-1.5910991430282593
1789635564360626000,10.0816259765625,-0.15135836601257324,-0.775115966796875,-1.637943983078003
1789635564370665700,10.091665771484376,-0.06946003437042236,-0.5848613381385803,-1.5951690673828125
1789635564380705800,10.101705810546875,0.022953519597649574,-0.6213367581367493,-1.5098613500595093
1789635564390745900,10.111745849609376,0.06515343487262726,-0.6607095003128052,-1.4297475814819336
1789635564400786000,10.121785888671875,0.09387829154729843,-0.5962409973144531,-1.3980308771133423
1789635564410826000,10.131825927734376,0.14481790363788605,-0.6475470662117004,-1.4367988109588623
1789635564420865800,10.14186572265625,0.1724442094564438,-0.5852389931678772,-1.473722219467163
1789635564430904800,10.15190478515625,0.1993328183889389,-0.4337240159511566,-1.4975305795669556
1789635564440945000,10.16194482421875,0.28797584772109985,-0.5017856359481812,-1.5333642959594727
1789635564450985000,10.17198486328125,0.3692267835140228,-0.5978487730026245,-1.562859058380127
1789635564461024800,10.182024658203124,0.3881418704986572,-0.6514489054679871,-1.6293834447860718
1789635564471064800,10.19206494140625,0.3564361333847046,-0.6524726152420044,-1.6847041845321655
1789635564481105000,10.20210498046875,0.2910347580909729,-0.6253975629806519,-1.6732652187347412
1789635564491145000,10.21214501953125,0.2113519310951233,-0.5879753828048706,-1.6755000352859497
1789635564501185000,10.22218505859375,0.10410882532596588,-0.5454223155975342,-1.6837435960769653
1789635564511225000,10.23222509765625,0.03417075425386429,-0.5241252779960632,-1.66498863697052
1789635564521265000,10.242264892578126,-0.00723474333062768,-0.3627057671546936,-1.6684848070144653
1789635564531305000,10.252304931640625,-0.02871047332882881,-0.33266156911849976,-1.6382228136062622
1789635564541344800,10.2623447265625,-0.02101180888712406,-0.5068517327308655,-1.5369884967803955
1789635564551384800,10.272384765625,-0.04049922153353691,-0.5177179574966431,-1.4095512628555298
1789635564561425000,10.2824248046875,-0.07994463294744492,-0.4327532947063446,-1.2819879055023193
1789635564571464000,10.2924638671875,-0.082347072660923,-0.3567679822444916,-1.20609712600708
1789635564581503700,10.302503662109375,-0.05937277898192406,-0.1678859442472458,-1.1560171842575073
1789635564591543800,10.312543701171874,0.013713947497308254,-0.03881876915693283,-1.1033761501312256
1789635564601583900,10.322583984375,0.10582656413316727,-0.06729195266962051,-1.0067907571792603
1789635564611623700,10.332623779296876,0.18000571429729462,-0.1505836546421051,-0.8797169327735901
1789635564621663700,10.342663818359375,0.18630382418632507,-0.260801762342453,-0.7519022226333618
1789635564631703800,10.352703857421876,0.17505890130996704,-0.21496902406215668,-0.6641377806663513
1789635564641744000,10.362743896484375,0.13608646392822266,-0.09338294714689255,-0.6011164784431458
1789635564651784000,10.372783935546876,0.0971936583518982,-0.007480286993086338,-0.5740163922309875
1789635564661824000,10.382823974609375,0.054181747138500214,-0.02203366346657276,-0.5746952295303345
1789635564671863800,10.39286376953125,0.013528325594961643,-0.04661517217755318,-0.49096599221229553
1789635564681903900,10.40290380859375,0.045705970376729965,0.08307012170553207,-0.31050166487693787
1789635564691944000,10.41294384765625,0.12859979271888733,0.26833397150039673,-0.16739165782928467
1789635564701984000,10.42298388671875,0.1809476763010025,0.39605653285980225,-0.025195367634296417
1789635564712022800,10.433022705078125,0.187728613615036,0.5186572670936584,0.14834073185920715
1789635564722062800,10.443062744140626,0.18186220526695251,0.5737865567207336,0.27601319551467896
1789635564732103000,10.45310302734375,0.1302378922700882,0.2729510962963104,0.4178456962108612
1789635564742143000,10.46314306640625,-0.003337739733979106,0.047017842531204224,0.7516329884529114
1789635564752183000,10.47318310546875,-0.15987302362918854,0.23054292798042297,1.2591649293899536
1789635564762222800,10.483222900390626,-0.2062903195619583,0.4668068587779999,1.6434789896011353
1789635564772263000,10.493262939453125,-0.16512636840343475,0.5477160811424255,1.7708479166030884
1789635564782303000,10.503302978515626,-0.09812843054533005,0.6648997068405151,1.7871421575546265
1789635564792342800,10.5133427734375,0.008701878599822521,0.7524455189704895,1.795833945274353
1789635564802382800,10.5233828125,0.08489491790533066,0.6006578803062439,1.8226048946380615
1789635564812423000,10.5334228515625,-0.005280782002955675,0.3245756924152374,1.979275107383728
1789635564822462700,10.543462646484375,-0.23972098529338837,0.2765900492668152,2.2811810970306396
1789635564832502800,10.553502685546874,-0.32583004236221313,0.693088173866272,2.4801812171936035
1789635564842542800,10.56354296875,-0.3005499839782715,0.7298203706741333,2.37325382232666
1789635564852582000,10.573581787109376,-0.2303466498851776,0.37225160002708435,2.114757537841797
1789635564862621700,10.58362158203125,-0.21934354305267334,-0.024820661172270775,2.048177719116211
1789635564872661800,10.593661865234376,-0.27598389983177185,0.04126914218068123,2.2296009063720703
1789635564882701800,10.603701904296875,-0.24666038155555725,0.2335914522409439,2.315540075302124
1789635564892742000,10.613741943359376,-0.12378239631652832,0.3426697254180908,2.2079923152923584
1789635564902782000,10.623781982421875,-0.0028216191567480564,0.3994065225124359,2.0450117588043213
1789635564912821800,10.63382177734375,0.07521192729473114,0.6222582459449768,2.026881456375122
1789635564922861800,10.64386181640625,0.1518915295600891,0.7827690839767456,2.1243844032287598
1789635564932902000,10.65390185546875,0.20385858416557312,0.7091819643974304,2.2264444828033447
1789635564942942000,10.66394189453125,0.18723300099372864,0.5428488850593567,2.2492456436157227
1789635564952982000,10.67398193359375,0.12245241552591324,0.4404892325401306,2.1974756717681885
1789635564963021800,10.684021728515624,0.08107567578554153,0.38204535841941833,2.1110622882843018
1789635564973062000,10.694061767578125,0.0754082053899765,0.19632050395011902,2.022047996520996
1789635564983101000,10.704100830078126,0.04596802592277527,0.03092036582529545,1.9738471508026123
1789635564993141000,10.71414111328125,-0.00004367584188003093,0.08102667331695557,1.9847769737243652
1789635565003181000,10.72418115234375,-0.022299179807305336,0.03319550305604935,1.9504022598266602
1789635565013220900,10.734220947265625,0.005646434146910906,-0.2394738346338272,1.8036775588989258
1789635565023261000,10.744260986328126,-0.0822187066078186,-0.37493181228637695,1.7148038148880005
1789635565033301000,10.754301025390625,-0.2031659036874771,0.10703776776790619,1.7888998985290527
1789635565043340800,10.7643408203125,-0.16250155866146088,0.565540611743927,1.8565247058868408
1789635565053380900,10.774380859375,-0.008253668434917927,0.4998716115951538,1.8189219236373901
1789635565063420700,10.784420654296875,0.11287382245063782,0.26395201683044434,1.6995519399642944
1789635565073460700,10.794460693359374,0.17160718142986298,0.042922697961330414,1.572335124015808
1789635565083500800,10.804500732421875,0.17083938419818878,-0.0860121101140976,1.4659186601638794
1789635565093540900,10.814540771484374,0.13510242104530334,-0.15580637753009796,1.4001095294952393
1789635565103581000,10.824580810546875,0.07947112619876862,-0.09951460361480713,1.3827710151672363
1789635565113620700,10.834620849609376,0.007526093162596226,0.06833431869745255,1.4240409135818481
1789635565123660800,10.844660888671875,-0.04651983082294464,0.3017483949661255,1.4510555267333984
1789635565133699800,10.854699951171876,-0.09346257150173187,0.5686299204826355,1.3765288591384888
1789635565143740000,10.864739990234375,-0.0648687481880188,0.7294054627418518,1.196732997894287
1789635565153780000,10.874780029296875,0.06606503576040268,0.46314260363578796,1.030875325202942
1789635565163819800,10.88481982421875,0.10878346860408783,0.04728309437632561,0.9212529063224792
1789635565173859800,10.89485986328125,-0.0038069887086749077,-0.11209671199321747,0.8678096532821655
1789635565183900000,10.90489990234375,-0.04752597212791443,-0.06580884009599686,0.7895116806030273
1789635565193940000,10.91493994140625,-0.04651397094130516,-0.052199289202690125,0.6589094400405884
1789635565203980000,10.92497998046875,-0.1402130275964737,0.051651209592819214,0.45703092217445374
1789635565214019800,10.935019775390625,-0.20232008397579193,0.23475418984889984,0.24574477970600128
1789635565224060000,10.945059814453124,-0.15128512680530548,0.32771021127700806,0.09898676723241806
1789635565234100000,10.955099853515625,-0.11317235976457596,0.3252257704734802,-0.01224654633551836
1789635565244140000,10.96514013671875,-0.05413833633065224,0.3050597608089447,-0.14412441849708557
1789635565254179800,10.975179931640625,-0.018067950382828712,0.2327059507369995,-0.24503399431705475
1789635565264219600,10.9852197265625,-0.036559876054525375,0.151431605219841,-0.3285091817378998
1789635565274259000,10.995259033203125,-0.029450301080942154,0.08982762694358826,-0.4094974994659424
1789635565284299000,11.005299072265625,0.041548509150743484,0.1452120542526245,-0.5025733709335327
1789635565294338800,11.0153388671875,0.10887668281793594,0.14756548404693604,-0.6089432239532471
1789635565304379000,11.02537890625,0.12257784605026245,0.3012929856777191,-0.729097843170166
1789635565314418700,11.035418701171874,0.13260838389396667,0.5335302352905273,-0.8224115967750549
1789635565324458800,11.045458740234375,0.16386829316616058,0.47715136408805847,-0.8543210029602051
1789635565334499000,11.0554990234375,0.1464666724205017,0.30594339966773987,-0.8402683138847351
1789635565344539100,11.0655390625,0.17078319191932678,0.025604695081710815,-0.8832863569259644
1789635565354579200,11.0755791015625,0.15046674013137817,-0.19177529215812683,-0.9272399544715881
1789635565364619300,11.085619384765625,0.12572038173675537,-0.037808630615472794,-0.9546391367912292
1789635565374659300,11.095659423828126,0.15670572221279144,0.14261972904205322,-0.9801191687583923
1789635565384699100,11.10569921875,0.18203504383563995,0.16319425404071808,-0.9759766459465027
1789635565394739200,11.1157392578125,0.14554095268249512,0.0426047183573246,-1.0648415088653564
1789635565404779300,11.125779296875,0.04926315322518349,-0.11614897847175598,-1.2535640001296997
1789635565414818300,11.135818359375,-0.05423234403133392,-0.21603909134864807,-1.410828709602356
1789635565424858000,11.145858154296874,-0.14648132026195526,-0.21278975903987885,-1.4432666301727295
1789635565434898200,11.155898193359375,-0.2100626826286316,-0.3905874490737915,-1.3368804454803467
1789635565444938200,11.165938232421874,-0.2113356739282608,-0.46791473031044006,-1.1590076684951782
1789635565454978300,11.175978271484375,-0.25730475783348083,-0.12577736377716064,-1.0114017724990845
1789635565465018400,11.186018310546874,-0.28290414810180664,0.28067001700401306,-0.963940441608429
1789635565475058400,11.196058349609375,-0.25855085253715515,0.43933582305908203,-0.9543331265449524
1789635565485098200,11.20609814453125,-0.17484398186206818,0.3157917857170105,-0.9751297235488892
1789635565495138000,11.216137939453125,-0.05944761261343956,-0.08752212673425674,-1.051941990852356
1789635565505178000,11.22617822265625,0.0032988577149808407,-0.6389474868774414,-1.1590508222579956
1789635565515218200,11.23621826171875,0.03742913156747818,-1.078078269958496,-1.2463891506195068
1789635565525258200,11.24625830078125,0.11803662776947021,-1.276408314704895,-1.2442795038223267
1789635565535298000,11.256298095703125,0.16008420288562775,-1.154455304145813,-1.2121952772140503
1789635565545338000,11.266338134765626,0.15571103990077972,-0.8006695508956909,-1.3050493001937866
1789635565555377200,11.276377197265624,0.062422897666692734,-0.5191156268119812,-1.4210667610168457
1789635565565417200,11.286417236328125,-0.0462212897837162,-0.2728096842765808,-1.4967434406280518
1789635565575457000,11.29645703125,-0.12461809813976288,-0.11089535802602768,-1.5741934776306152
1789635565585497000,11.3064970703125,-0.1752636879682541,-0.1677280217409134,-1.6834213733673096
1789635565595537200,11.316537109375,-0.20108278095722198,-0.3671918511390686,-1.7609931230545044
1789635565605577200,11.3265771484375,-0.1850883662700653,-0.5790148973464966,-1.7699477672576904
1789635565615617300,11.3366171875,-0.15207847952842712,-0.6867727637290955,-1.7489372491836548
1789635565625657300,11.3466572265625,-0.14317740499973297,-0.7632923126220703,-1.795841932296753
1789635565635697200,11.356697265625,-0.16590428352355957,-0.6739320755004883,-1.8978722095489502
1789635565645737200,11.3667373046875,-0.17422878742218018,-0.5818064212799072,-1.9816032648086548
1789635565655777300,11.37677734375,-0.13927054405212402,-0.6605744957923889,-1.974485993385315
1789635565665817300,11.3868173828125,-0.11977460235357285,-0.6967652440071106,-1.8847308158874512
1789635565675857400,11.396857421875,-0.11642381548881531,-0.7416703701019287,-1.8199411630630493
1789635565685897200,11.406897216796875,-0.06984192878007889,-0.6564407348632812,-1.7912530899047852
1789635565695936300,11.416936279296875,0.03176458552479744,-0.6508401036262512,-1.8128741979599
1789635565705976300,11.426976318359374,0.09792736172676086,-0.913198709487915,-1.8652681112289429
1789635565716016400,11.437016357421875,0.05542890354990959,-0.9618663787841797,-1.8936893939971924
1789635565726056200,11.44705615234375,-0.011691276915371418,-0.9034342765808105,-1.932421326637268
1789635565736096300,11.45709619140625,-0.07144062966108322,-0.9438985586166382,-1.9384403228759766
1789635565746136000,11.467135986328126,-0.09842324256896973,-0.9390795826911926,-1.9144905805587769
1789635565756176100,11.477176025390625,-0.0803624838590622,-0.8820596933364868,-1.8508013486862183
1789635565766216200,11.48721630859375,-0.026874490082263947,-0.6322179436683655,-1.7742314338684082
1789635565776256300,11.49725634765625,0.04144278168678284,-0.43872302770614624,-1.7298126220703125
1789635565786296000,11.507296142578125,0.09500880539417267,-0.31399786472320557,-1.763935923576355
1789635565796336000,11.517336181640625,0.13737542927265167,-0.25166553258895874,-1.7375251054763794
1789635565806376200,11.527376220703125,0.21086589992046356,-0.4202745258808136,-1.602466106414795
1789635565816416300,11.537416259765624,0.2446345090866089,-0.525488555431366,-1.4100353717803955
1789635565826456300,11.547456298828125,0.20593824982643127,-0.21711048483848572,-1.2184028625488281
1789635565836495000,11.5574951171875,0.17406819760799408,0.09186521172523499,-1.1673822402954102
1789635565846535200,11.56753515625,0.14599262177944183,0.11639052629470825,-1.2002582550048828
1789635565856575200,11.5775751953125,0.05115080252289772,-0.10065817087888718,-1.0943610668182373
1789635565866615300,11.587615234375,-0.09015945345163345,-0.1613643914461136,-0.9235866665840149
1789635565876655000,11.597655029296876,-0.1520632952451706,-0.15573154389858246,-0.7243369221687317
1789635565886695200,11.607695068359375,-0.15726764500141144,-0.0645102858543396,-0.5028876066207886
1789635565896735200,11.6177353515625,-0.13632242381572723,0.15080416202545166,-0.32963091135025024
1789635565906775300,11.627775390625,-0.11620889604091644,0.3923453986644745,-0.21314050257205963
1789635565916815400,11.6378154296875,-0.13443051278591156,0.42804402112960815,-0.21342040598392487
1789635565926855400,11.64785546875,-0.18975421786308289,0.322701632976532,-0.1901760697364807
1789635565936895200,11.657895263671875,-0.22788749635219574,0.25099706649780273,-0.11583605408668518
1789635565946935300,11.667935302734374,-0.2353358268737793,0.2138824611902237,-0.029215676710009575
1789635565956975000,11.67797509765625,-0.31719791889190674,0.10899332910776138,0.18842290341854095
1789635565967015200,11.68801513671875,-0.4334869980812073,0.22867445647716522,0.611863911151886
1789635565977055200,11.69805517578125,-0.4652113616466522,0.5703074336051941,0.990159809589386
1789635565987094300,11.70809423828125,-0.40046805143356323,0.6829884052276611,1.1863796710968018
1789635565997134300,11.71813427734375,-0.3161345422267914,0.41807979345321655,1.1747709512710571
1789635566007174100,11.728174072265626,-0.32287952303886414,0.21254794299602509,1.1541117429733276
1789635566017214200,11.738214111328125,-0.43477463722229004,0.36475613713264465,1.3263863325119019
1789635566027254000,11.74825390625,-0.5405082702636719,0.524298369884491,1.5720109939575195
1789635566037294000,11.758294189453125,-0.6369077563285828,0.520620584487915,1.78380286693573
1789635566047334100,11.768334228515625,-0.6556092500686646,0.5731772184371948,2.0291128158569336
1789635566057374200,11.778374267578124,-0.5363014936447144,0.7114490866661072,2.1623027324676514
1789635566067414300,11.788414306640625,-0.3378123939037323,0.832946240901947,2.121431827545166
1789635566077454000,11.7984541015625,-0.18877817690372467,0.721092700958252,1.987767219543457
1789635566087494100,11.808494140625,-0.18177565932273865,0.6963649392127991,1.879144310951233
1789635566097534200,11.8185341796875,-0.24354954063892365,0.769515335559845,1.980371356010437
1789635566107574300,11.82857421875,-0.26168566942214966,0.7691962718963623,2.090829849243164
1789635566117614300,11.8386142578125,-0.2014753222465515,0.8769067525863647,2.088369131088257
1789635566127654400,11.848654296875,-0.0810794085264206,0.8657052516937256,2.1245601177215576
1789635566137693200,11.858693115234376,0.0321882963180542,0.6645559072494507,2.2775049209594727
1789635566147733200,11.868733154296875,0.0957731306552887,0.45867517590522766,2.4027576446533203
1789635566157773300,11.878773193359375,0.07620023190975189,0.6686984300613403,2.375891923904419
1789635566167813400,11.8888134765625,0.020602745935320854,1.1180615425109863,2.312560558319092
1789635566177853200,11.898853271484375,0.0016490293201059103,1.152152180671692,2.2403359413146973
1789635566187893200,11.908893310546874,-0.00833915639668703,0.7970303297042847,2.153125762939453
1789635566197933300,11.918933349609375,-0.06541416049003601,0.5195379853248596,2.131523847579956
1789635566207973000,11.92897314453125,-0.0895349457859993,0.30094438791275024,2.1693918704986572
1789635566218013200,11.93901318359375,-0.05404459312558174,0.1584721952676773,2.220838785171509
1789635566228053000,11.949052978515626,-0.006733004003763199,0.1304408311843872,2.178419589996338
1789635566238093000,11.959093017578125,0.06916388869285583,0.11870241165161133,2.0560169219970703
1789635566248133000,11.969133056640626,0.07075220346450806,0.22437451779842377,1.9502898454666138
1789635566258173200,11.979173095703125,0.03809358924627304,0.2625666558742523,1.9346057176589966
1789635566268213200,11.989213134765626,-0.0007765777409076691,0.16451305150985718,1.9515799283981323
1789635566278252000,11.999251953125,0.04177327826619148,0.07216713577508926,1.9259251356124878
1789635566288292000,12.0092919921875,0.12332486361265182,0.008435562252998352,1.8413807153701782
1789635566298332200,12.019332275390624,0.291623055934906,0.014314490370452404,1.718123435974121
1789635566308372200,12.029372314453125,0.4742985963821411,0.025536252185702324,1.6142183542251587
1789635566318412300,12.039412353515624,0.4896485209465027,0.0025864620693027973,1.4790760278701782
1789635566328451600,12.04945166015625,0.2538541257381439,-0.062007710337638855,1.363002896308899
1789635566338491600,12.05949169921875,-0.0008143946761265397,-0.07320231199264526,1.3238605260849
1789635566348531700,12.06953173828125,-0.05811896175146103,0.017173128202557564,1.366660714149475
1789635566358571800,12.07957177734375,-0.02496473863720894,0.1624421775341034,1.3766117095947266
1789635566368611800,12.08961181640625,0.003284476464614272,0.40832623839378357,1.280672311782837
1789635566378651600,12.099651611328126,0.019837087020277977,0.644952118396759,1.105006217956543
1789635566388691700,12.109691650390625,0.0746191069483757,0.570923388004303,0.9424562454223633
1789635566398731800,12.119731689453126,0.09181807190179825,0.363687664270401,0.8261586427688599
1789635566408771800,12.129771728515625,0.01101483404636383,0.17954446375370026,0.7674694657325745
1789635566418812000,12.13981201171875,-0.048717472702264786,0.11001598089933395,0.7393350601196289
1789635566428850700,12.1498505859375,-0.07684338092803955,0.10308297723531723,0.7349972724914551
1789635566438890800,12.159890869140625,-0.11387969553470612,0.09780831634998322,0.7117748260498047
1789635566448930800,12.169930908203124,-0.09956573694944382,0.021979600191116333,0.6880543231964111
1789635566458971000,12.179970947265625,0.001056476030498743,-0.05475698783993721,0.6838955283164978
1789635566469010700,12.1900107421875,0.05522863566875458,-0.2538471817970276,0.6568859815597534
1789635566479050800,12.20005078125,-0.020503943786025047,-0.24917760491371155,0.4950891137123108
1789635566489090600,12.210090576171876,-0.12257864326238632,0.03862036392092705,0.22920255362987518
1789635566499130600,12.220130615234375,-0.07757522165775299,0.051770519465208054,0.02480228617787361
1789635566509170700,12.230170654296876,-0.011201787739992142,-0.007889614440500736,-0.054540473967790604
1789635566519210800,12.240210693359375,-0.002423742786049843,0.14555346965789795,-0.17738330364227295
1789635566529250600,12.25025048828125,0.03196858614683151,0.4476904273033142,-0.3556872606277466
1789635566539290600,12.26029052734375,0.10120837390422821,0.4838292598724365,-0.5172410011291504
1789635566549330700,12.27033056640625,0.09365511685609818,0.29601621627807617,-0.6631657481193542
1789635566559370800,12.280370849609374,0.020668793469667435,0.09796198457479477,-0.8322468996047974
1789635566569410800,12.290410888671875,-0.012346681207418442,-0.03929414227604866,-1.0308794975280762
1789635566579449600,12.30044970703125,0.03510419279336929,0.17120423913002014,-1.1792138814926147
1789635566589489700,12.31048974609375,0.10142435878515244,0.7087420225143433,-1.2541331052780151
1789635566599529700,12.32052978515625,0.21824312210083008,1.211107611656189,-1.189259648323059
1789635566609569800,12.33056982421875,0.3627486228942871,1.2312488555908203,-1.0267490148544312
1789635566619609600,12.340609619140626,0.47286954522132874,0.7093499898910522,-0.8734222650527954
1789635566629649700,12.350649658203125,0.5240209102630615,0.10100571066141129,-0.7848591208457947
1789635566639689700,12.360689697265625,0.5827102661132812,-0.5346679091453552,-0.8575783371925354
1789635566649729800,12.370729736328125,0.5432297587394714,-1.059495210647583,-1.1121472120285034
1789635566659769900,12.380769775390625,0.35951289534568787,-1.1448748111724854,-1.319507122039795
1789635566669810000,12.390809814453124,0.1652241051197052,-0.7672436833381653,-1.3633605241775513
1789635566679849700,12.400849609375,0.04324520751833916,-0.07469767332077026,-1.2487660646438599
1789635566689889800,12.410889892578124,-0.0073167686350643635,0.6512004137039185,-1.124794840812683
1789635566699929600,12.4209296875,-0.005496498197317123,1.0407804250717163,-1.1031007766723633
1789635566709969700,12.4309697265625,-0.0354650504887104,0.9120543599128723,-1.1047247648239136
1789635566720008700,12.4410087890625,-0.0947619304060936,0.4731909930706024,-1.091555118560791
1789635566730048800,12.451048828125,-0.09630629420280457,-0.07418768107891083,-1.0693883895874023
1789635566740088600,12.461088623046875,-0.11968139559030533,-0.5705748200416565,-1.0546903610229492
1789635566750128600,12.471128662109376,-0.13275565207004547,-0.9440171122550964,-1.0754384994506836
1789635566760168700,12.481168701171875,-0.10912995040416718,-1.0800135135650635,-1.093922734260559
