time,seconds_elapsed,z,y,x
1789635554338295000,0.059294921875,-0.315529465675354,-0.22089914977550507,1.0255968570709229
1789635554348335000,0.069335205078125,-0.3369290232658386,-0.20788268744945526,1.0094600915908813
1789635554358375200,0.079375244140625,-0.3840339779853821,-0.46181777119636536,0.9787464141845703
1789635554368415000,0.0894150390625,-0.30836841464042664,-0.4155375063419342,0.8448624610900879
1789635554378454000,0.0994541015625,0.04528367146849632,-0.05132761225104332,0.5839434862136841
1789635554388494000,0.109494140625,0.6106498837471008,0.5017270445823669,0.256469190120697
1789635554398534100,0.1195341796875,1.2565211057662964,0.7940961718559265,-0.04986708611249924
1789635554408574000,0.129573974609375,1.6881946325302124,0.5095037221908569,-0.14153093099594116
1789635554418614000,0.139614013671875,1.7147812843322754,-0.03965717554092407,0.10867917537689209
1789635554428654000,0.149654052734375,1.4435322284698486,-0.7032483816146851,0.5896708965301514
1789635554438694000,0.15969384765625,1.0100904703140259,-1.5648220777511597,1.0508960485458374
1789635554448733000,0.16973291015625,0.7785904407501221,-2.6128575801849365,1.3406413793563843
1789635554458773000,0.17977294921875,1.0280938148498535,-3.3310370445251465,1.3657301664352417
1789635554468813000,0.18981298828125,1.4098687171936035,-4.113686561584473,1.2356971502304077
1789635554478852900,0.199852783203125,1.6435304880142212,-4.771852970123291,1.1235644817352295
1789635554488893000,0.209892822265625,1.852893590927124,-5.035796642303467,0.9365612268447876
1789635554498932700,0.2199326171875,1.9950438737869263,-5.0615010261535645,0.6637459397315979
1789635554508972800,0.229972900390625,2.2573156356811523,-5.174830436706543,0.43650346994400024
1789635554519012000,0.24001220703125,2.707447052001953,-5.526113986968994,0.26537221670150757
1789635554529052000,0.250052001953125,3.5163917541503906,-6.536881446838379,0.22337090969085693
1789635554539092000,0.260092041015625,4.157262325286865,-7.669116020202637,0.5363224148750305
1789635554549131800,0.2701318359375,3.0748467445373535,-7.291514873504639,1.05489981174469
1789635554559171800,0.280171875,1.9615705013275146,-5.667937755584717,0.999524712562561
1789635554569212000,0.2902119140625,2.309272050857544,-4.143155574798584,1.128920078277588
1789635554579252000,0.300251953125,3.005152463912964,-3.704763650894165,1.4985485076904297
1789635554589292000,0.3102919921875,3.544422149658203,-3.553828716278076,1.8067811727523804
1789635554599330800,0.320330810546875,3.9399466514587402,-3.356579303741455,1.9697388410568237
1789635554609371000,0.330370849609375,4.167654991149902,-3.266108989715576,2.162992000579834
1789635554619411000,0.340410888671875,4.280707359313965,-3.277017116546631,2.372986316680908
1789635554629451000,0.350450927734375,4.3680524826049805,-3.4563422203063965,2.5518245697021484
1789635554639490800,0.36049072265625,4.486720561981201,-3.668637275695801,2.7800838947296143
1789635554649531000,0.37053076171875,4.626436710357666,-3.7255208492279053,3.0729846954345703
1789635554659571000,0.380571044921875,4.725479602813721,-3.67466139793396,3.3175880908966064
1789635554669610000,0.39060986328125,4.714230537414551,-3.3940365314483643,3.4877355098724365
1789635554679650000,0.400650146484375,4.57327127456665,-3.0351028442382812,3.560236692428589
1789635554689689900,0.41068994140625,4.3681817054748535,-2.965667724609375,3.498159646987915
1789635554699730000,0.42072998046875,4.196427822113037,-2.8760550022125244,3.284837007522583
1789635554709770000,0.43077001953125,4.056616306304932,-2.4298062324523926,3.0013620853424072
1789635554719810000,0.44081005859375,3.887328863143921,-1.5934865474700928,2.757939577102661
1789635554729850000,0.45085009765625,3.590210199356079,-0.7090303897857666,2.5979130268096924
1789635554739889000,0.460888916015625,3.242833137512207,-0.20270785689353943,2.4040157794952393
1789635554749929000,0.470928955078125,2.9204771518707275,0.05413852632045746,2.127821445465088
1789635554759969000,0.480968994140625,2.607531785964966,0.22424207627773285,1.754104733467102
1789635554770009000,0.491009033203125,2.333022117614746,0.09622227400541306,1.3256163597106934
1789635554780049000,0.501048828125,2.151444435119629,-0.18770532310009003,1.0909748077392578
1789635554790089000,0.5110888671875,2.029071569442749,-0.7602094411849976,0.7903411984443665
1789635554800129000,0.52112890625,1.6176440715789795,-1.8319157361984253,0.11565999686717987
1789635554810168000,0.53116796875,1.0745160579681396,-3.268580675125122,-1.0238815546035767
1789635554820208000,0.5412080078125,1.0526413917541504,-2.6392219066619873,-1.6745357513427734
1789635554830248000,0.551248046875,1.006399154663086,-0.5285934805870056,-1.5176321268081665
1789635554840288000,0.5612880859375,0.853387713432312,0.7789456248283386,-1.1113101243972778
1789635554850328000,0.571328125,0.9845098257064819,0.6293085813522339,-0.7618269324302673
1789635554860368100,0.5813681640625,1.3621397018432617,-0.43365198373794556,-0.3863147795200348
1789635554870408000,0.591407958984375,2.2546908855438232,-1.4710512161254883,0.008186392486095428
1789635554880447700,0.60144775390625,3.345484495162964,-1.7388114929199219,0.2873208224773407
1789635554890487000,0.611487060546875,4.1051530838012695,-1.3994616270065308,0.21163809299468994
1789635554900527000,0.621527099609375,4.681748390197754,-0.973277747631073,-0.17479988932609558
1789635554910567200,0.631567138671875,4.715580940246582,-0.08888817578554153,-0.5740472674369812
1789635554920607000,0.64160693359375,4.709044933319092,0.6957057118415833,-1.1208264827728271
1789635554930646800,0.651646728515625,4.559678554534912,0.9857013821601868,-1.1490857601165771
1789635554940686800,0.661686767578125,3.9589052200317383,0.529443621635437,-0.8268038034439087
1789635554950727000,0.671726806640625,3.7070693969726562,-0.49274536967277527,-0.9078058004379272
1789635554960766000,0.681765869140625,3.5467021465301514,-1.0490307807922363,-0.9134998917579651
1789635554970805800,0.6918056640625,3.12147855758667,-1.0856376886367798,-0.8254767060279846
1789635554980845800,0.701845703125,2.8364081382751465,-0.7805191278457642,-0.6322838068008423
1789635554990886000,0.711885986328125,2.302534580230713,-0.2521975338459015,-0.33353400230407715
1789635555000926000,0.721926025390625,1.6371943950653076,-0.5604909658432007,0.23106172680854797
1789635555010966000,0.731966064453125,1.1933544874191284,-1.0170762538909912,0.5509868264198303
1789635555021005800,0.742005859375,0.7279524207115173,-1.1841914653778076,0.6798838376998901
1789635555031046000,0.7520458984375,0.41103649139404297,-1.0848954916000366,0.46369820833206177
1789635555041085000,0.7620849609375,0.11902433633804321,-0.8892260789871216,0.017953485250473022
1789635555051125000,0.772125,-0.10202983021736145,-1.2401317358016968,-0.3236680328845978
1789635555061164800,0.782164794921875,-0.0685616135597229,-1.915764331817627,-0.569355309009552
1789635555071204900,0.792204833984375,0.48699742555618286,-2.056608200073242,-0.7211211919784546
1789635555081245000,0.802244873046875,1.4399161338806152,-1.932873249053955,-0.8914141058921814
1789635555091285000,0.812284912109375,2.379268169403076,-1.6249216794967651,-1.2576137781143188
1789635555101325000,0.822324951171875,2.7165794372558594,-1.218781590461731,-1.3653589487075806
1789635555111363800,0.83236376953125,1.954024076461792,0.4137136936187744,-0.09856165945529938
1789635555121404000,0.84240380859375,1.4300098419189453,-0.5641857385635376,0.44499778747558594
1789635555131444000,0.85244384765625,1.8013625144958496,-0.9395973086357117,0.4357234835624695
1789635555141484000,0.862484130859375,1.8541910648345947,-1.0680476427078247,0.45350193977355957
1789635555151524000,0.872524169921875,1.5623679161071777,-1.0502972602844238,0.3728594183921814
1789635555161564000,0.88256396484375,1.3012112379074097,-0.5877242684364319,0.30568811297416687
1789635555171604000,0.89260400390625,1.140487790107727,-0.09518858790397644,0.043471671640872955
1789635555181644000,0.90264404296875,0.8535641431808472,0.4855160713195801,-0.27985259890556335
1789635555191683000,0.91268310546875,0.41707026958465576,1.029321312904358,-0.5141782164573669
1789635555201723000,0.922722900390625,0.1691691279411316,1.5225036144256592,-0.3795032501220703
1789635555211763000,0.932762939453125,0.10314277559518814,1.304032325744629,0.03724085912108421
1789635555221803000,0.942802978515625,0.2715640068054199,0.43562987446784973,-0.030321143567562103
1789635555231843000,0.952843017578125,0.35255351662635803,-0.002209378406405449,-0.12178359925746918
1789635555241883100,0.962883056640625,0.23851752281188965,-0.31786108016967773,-0.07925664633512497
1789635555251923000,0.9729228515625,0.2654121518135071,-0.5126063823699951,-0.021128293126821518
1789635555261962000,0.9829619140625,0.3209659457206726,-0.770002007484436,0.03188139572739601
1789635555272002000,0.993001953125,0.29070934653282166,-1.0416772365570068,0.09871254116296768
1789635555282042000,1.0030419921875,0.18453659117221832,-0.9929925799369812,0.14298225939273834
1789635555292082200,1.013082275390625,0.07875289767980576,-1.0163109302520752,0.07162313908338547
1789635555302122000,1.0231220703125,-0.03628607094287872,-1.0882447957992554,0.026136348024010658
1789635555312162000,1.033162109375,-0.20693877339363098,-0.9323663115501404,-0.03559679165482521
1789635555322201900,1.043201904296875,-0.3997313976287842,-0.6551586985588074,-0.047057438641786575
1789635555332241700,1.05324169921875,-0.6188414096832275,-0.3419821560382843,0.0329362116754055
1789635555342281000,1.063281005859375,-0.8174535632133484,-0.2046394646167755,0.061176639050245285
1789635555352321000,1.073321044921875,-0.9934806227684021,-0.34962180256843567,0.114166259765625
1789635555362360800,1.08336083984375,-1.1713018417358398,-0.5505732893943787,0.19027461111545563
1789635555372400600,1.093400634765625,-1.4264992475509644,-0.681886613368988,0.26296481490135193
1789635555382440700,1.103440673828125,-1.4616044759750366,-0.877790629863739,0.3423376679420471
1789635555392480800,1.113480712890625,-1.1189186573028564,-0.9873988628387451,0.3438137471675873
1789635555402520800,1.123520751953125,-0.5067199468612671,-0.9833918809890747,0.26664838194847107
1789635555412561000,1.133560791015625,-0.07138078659772873,-0.952019989490509,0.3234240412712097
1789635555422599700,1.143599609375,0.17549103498458862,-1.0010424852371216,0.7046834826469421
1789635555432639700,1.1536396484375,0.3494531810283661,-0.8756046295166016,0.820293664932251
1789635555442679800,1.1636796875,0.5903805494308472,-0.5058249831199646,0.6320550441741943
1789635555452719900,1.173719970703125,0.823121964931488,-0.26959913969039917,0.43608200550079346
1789635555462760000,1.183760009765625,0.9597426652908325,-0.25437599420547485,0.3377429246902466
1789635555472799700,1.1937998046875,0.9390696287155151,-0.5592064261436462,0.3183448612689972
1789635555482839800,1.20383984375,0.6808873414993286,-1.503641128540039,-0.25332850217819214
1789635555492878800,1.21387890625,0.8836971521377563,-2.7698326110839844,-1.5581167936325073
1789635555502919000,1.2239189453125,0.8955678939819336,-2.847864866256714,-1.3143306970596313
1789635555512958700,1.233958740234375,1.029115915298462,-2.2896134853363037,-0.40279537439346313
1789635555522998800,1.243998779296875,0.7252172827720642,-1.8785887956619263,-0.3192858397960663
1789635555533038800,1.254038818359375,0.6746895909309387,-2.577996253967285,-1.0302393436431885
1789635555543079000,1.264078857421875,0.8338472843170166,-3.018097162246704,-1.6203937530517578
1789635555553119000,1.274118896484375,0.9790465235710144,-2.9337878227233887,-1.7437015771865845
1789635555563159000,1.284158935546875,1.079194188117981,-2.1146702766418457,-1.3078374862670898
1789635555573197800,1.29419775390625,0.959884524345398,-1.7751246690750122,-0.8362389802932739
1789635555583238000,1.30423779296875,0.6425779461860657,-1.5305261611938477,-0.445039302110672
1789635555593278000,1.31427783203125,0.6796537637710571,-1.298636794090271,-0.24260438978672028
1789635555603318000,1.324318115234375,0.7975982427597046,-1.2550032138824463,0.019957464188337326
1789635555613357800,1.33435791015625,0.7605459094047546,-1.6219056844711304,0.19659146666526794
1789635555623398000,1.34439794921875,0.6197783946990967,-1.389919400215149,0.3613678812980652
1789635555633438000,1.35443798828125,0.49421703815460205,-1.0087206363677979,0.5610316395759583
1789635555643478000,1.36447802734375,0.8434780836105347,-0.6970876455307007,0.35738080739974976
1789635555653516800,1.374516845703125,0.44934093952178955,-0.27105292677879333,0.12922003865242004
1789635555663556900,1.384556884765625,0.10076458007097244,-0.6403585076332092,0.04519331455230713
1789635555673597000,1.394596923828125,-0.006520395167171955,-1.0701661109924316,0.13705821335315704
1789635555683637000,1.404636962890625,0.0724729597568512,-1.2618963718414307,0.28870391845703125
1789635555693677000,1.414677001953125,0.23291516304016113,-1.0934761762619019,0.3889932930469513
1789635555703716900,1.424716796875,0.31117668747901917,-0.9604030251502991,0.33215877413749695
1789635555713756700,1.434756591796875,0.2897820770740509,-0.9251387119293213,0.16415536403656006
1789635555723796700,1.444796630859375,0.24823278188705444,-0.8955158591270447,0.04898642748594284
1789635555733836000,1.4548359375,0.24446547031402588,-0.8482643961906433,-0.08417030423879623
1789635555743876000,1.4648759765625,0.30428725481033325,-0.8514817357063293,-0.14979670941829681
1789635555753916000,1.474916015625,0.42779427766799927,-0.8122633099555969,-0.28685763478279114
1789635555763955700,1.484955810546875,0.5254665017127991,-0.7066684365272522,-0.2755546569824219
1789635555773995800,1.494995849609375,0.6065419316291809,-0.5074194073677063,-0.288953572511673
1789635555784035800,1.505035888671875,0.6465282440185547,-0.3126361072063446,-0.28149163722991943
1789635555794076000,1.515075927734375,0.5857365131378174,-0.034965917468070984,-0.30625423789024353
1789635555804115700,1.52511572265625,0.7073726654052734,0.09989815950393677,-0.4018409550189972
1789635555814154800,1.53515478515625,0.7699145078659058,0.2693968415260315,-0.33891212940216064
1789635555824194800,1.54519482421875,0.7338968515396118,0.20572170615196228,-0.2510389983654022
1789635555834235000,1.55523486328125,0.7222641706466675,0.2109343260526657,-0.18617329001426697
1789635555844274700,1.565274658203125,0.7688508629798889,0.5276805758476257,-0.31662505865097046
1789635555854314800,1.575314697265625,0.958990216255188,0.805808424949646,-0.6850778460502625
1789635555864354800,1.585354736328125,0.858186662197113,1.0424531698226929,-0.8777873516082764
1789635555874395000,1.595394775390625,0.6070988774299622,1.035820484161377,-0.866057276725769
1789635555884435000,1.60543505859375,0.5485418438911438,0.8160696625709534,-0.6303675770759583
1789635555894473700,1.6154736328125,0.5653624534606934,0.5893958806991577,-0.3502309322357178
1789635555904513800,1.625513671875,0.5845960378646851,0.47751060128211975,-0.12373068928718567
1789635555914553900,1.635553955078125,0.6481253504753113,0.31769344210624695,-0.033869437873363495
1789635555924594000,1.645593994140625,0.6307032108306885,0.20396257936954498,0.11147577315568924
1789635555934634000,1.655634033203125,0.5721992254257202,-0.06879005581140518,0.29506412148475647
1789635555944673800,1.665673828125,0.5215466618537903,-0.4655131697654724,0.4400354325771332
1789635555954713900,1.6757138671875,0.42682501673698425,-0.49977266788482666,0.5372074246406555
1789635555964754000,1.68575390625,0.44505754113197327,-0.45356282591819763,0.641477108001709
1789635555974793000,1.69579296875,0.45746397972106934,-0.5546216368675232,0.7273718118667603
1789635555984832800,1.705832763671875,0.4746546745300293,-0.6334733366966248,0.8223825097084045
1789635555994872800,1.715872802734375,0.4232853651046753,-0.6568956971168518,0.9459564089775085
1789635556004913000,1.725912841796875,0.2614136338233948,-0.6438233256340027,1.007491946220398
1789635556014953000,1.735952880859375,-0.00974220596253872,-0.16412559151649475,0.9701690673828125
1789635556024993000,1.745992919921875,-0.22958482801914215,0.2898749113082886,0.8244643211364746
1789635556035033000,1.756033203125,-0.6338087320327759,0.6419721841812134,0.7260677218437195
1789635556045073000,1.766072998046875,-1.0956687927246094,0.9542046189308167,0.4692780077457428
1789635556055112000,1.77611181640625,-1.2402279376983643,1.2668098211288452,-0.08952556550502777
1789635556065152000,1.786152099609375,-0.3762122094631195,0.8833176493644714,-0.45849668979644775
1789635556075192000,1.796192138671875,0.4811614155769348,0.03029595874249935,-0.33371901512145996
1789635556085231900,1.80623193359375,0.6361656188964844,-0.8383856415748596,-0.014974303543567657
1789635556095272000,1.81627197265625,0.15800988674163818,-1.5312658548355103,0.4958101809024811
1789635556105311700,1.826311767578125,-0.38032761216163635,-1.8600176572799683,1.037398099899292
1789635556115351800,1.836351806640625,-0.38812243938446045,-1.36066734790802,1.0085731744766235
1789635556125392000,1.846391845703125,-0.1345764845609665,-0.2636182904243469,0.5251809358596802
1789635556135431000,1.856430908203125,0.05410699173808098,0.3278919458389282,0.007509275339543819
1789635556145471000,1.866470947265625,0.07584770768880844,0.3527538776397705,-0.33734560012817383
1789635556155510800,1.8765107421875,0.0639745220541954,0.02324051409959793,-0.38309726119041443
1789635556165550800,1.88655078125,0.04780087620019913,-0.2118937075138092,-0.20453284680843353
1789635556175591000,1.8965908203125,0.012757631950080395,-0.32143065333366394,0.06258870661258698
1789635556185630700,1.906630615234375,-0.005492744967341423,-0.3336327075958252,0.25435948371887207
1789635556195670800,1.9166708984375,-0.041778210550546646,-0.20560677349567413,0.31516551971435547
1789635556205710800,1.9267109375,-0.06898373365402222,0.030093634501099586,0.21997107565402985
1789635556215750000,1.93675,-0.04537371173501015,0.08811140805482864,0.145161435008049
1789635556225789700,1.946789794921875,-0.09271939098834991,0.0126046659424901,0.17607595026493073
1789635556235829800,1.956829833984375,-0.15156766772270203,-0.11911752820014954,0.33562397956848145
1789635556245869800,1.966869873046875,-0.1804584413766861,-0.21327759325504303,0.5125694870948792
1789635556255910000,1.976909912109375,-0.15246330201625824,-0.24784359335899353,0.5850993394851685
1789635556265950000,1.986949951171875,-0.14847494661808014,-0.26558929681777954,0.5621679425239563
1789635556275989800,1.99698974609375,-0.17775815725326538,-0.3205065429210663,0.5044331550598145
1789635556286029800,2.00702978515625,-0.18442511558532715,-0.3689315915107727,0.4845510721206665
1789635556296070000,2.01706982421875,-0.1675659865140915,-0.36924979090690613,0.4848712682723999
1789635556306109000,2.02710888671875,-0.13938069343566895,-0.3172140121459961,0.4805489778518677
1789635556316148700,2.037148681640625,-0.1022319346666336,-0.23687759041786194,0.45103907585144043
1789635556326188300,2.047188232421875,-0.06302434206008911,-0.1331661194562912,0.38695651292800903
1789635556336228400,2.057228271484375,-0.04393385350704193,-0.005230100825428963,0.327320396900177
1789635556346268400,2.067268310546875,-0.04254181683063507,0.1506820023059845,0.3077578842639923
1789635556356308500,2.07730859375,-0.05388600751757622,0.282457172870636,0.309298038482666
1789635556366348300,2.087348388671875,-0.04438864067196846,0.31509634852409363,0.3048931658267975
1789635556376388400,2.097388427734375,-0.007847124710679054,0.21660715341567993,0.2899741232395172
1789635556386427400,2.107427490234375,-0.011323614045977592,0.05628298968076706,0.322862833738327
1789635556396467500,2.117467529296875,-0.02263678051531315,0.03737945854663849,0.3776838481426239
1789635556406507500,2.127507568359375,-0.05205778777599335,0.2302815318107605,0.35963666439056396
1789635556416547300,2.13754736328125,-0.10328277200460434,0.3872704803943634,0.2395395040512085
1789635556426587400,2.14758740234375,-0.11031565070152283,0.43785881996154785,0.16224071383476257
1789635556436627500,2.15762744140625,-0.1318480223417282,0.39468666911125183,0.21582381427288055
1789635556446667500,2.16766748046875,-0.10873338580131531,0.22045600414276123,0.3279857635498047
1789635556456707600,2.17770751953125,-0.06034126505255699,0.057804398238658905,0.4048536717891693
1789635556466746400,2.187746337890625,-0.012389452196657658,-0.022113867104053497,0.46374788880348206
1789635556476786400,2.197786376953125,0.0006732225883752108,-0.06133497133851051,0.5234261751174927
1789635556486826500,2.207826416015625,-0.03881586343050003,-0.05305733531713486,0.49607211351394653
1789635556496866600,2.217866455078125,-0.08472463488578796,-0.04085080325603485,0.4195830821990967
1789635556506906400,2.22790625,-0.1377231329679489,-0.06063516065478325,0.3590118885040283
1789635556516946400,2.237946533203125,-0.1732049137353897,-0.05976647138595581,0.3630828559398651
1789635556526986200,2.247986328125,-0.243191197514534,-0.12294730544090271,0.38076838850975037
1789635556537026300,2.2580263671875,-0.3330022394657135,-0.11234650015830994,0.34052151441574097
1789635556547066400,2.26806640625,-0.34745946526527405,-0.1619795709848404,0.2823660671710968
1789635556557105400,2.27810546875,-0.31270888447761536,-0.2567245662212372,0.16713295876979828
1789635556567145500,2.2881455078125,-0.23046593368053436,-0.20628854632377625,-0.05046487972140312
1789635556577185300,2.298185302734375,-0.1427113264799118,-0.11335764825344086,-0.2662544250488281
1789635556587225300,2.308225341796875,-0.07232344895601273,-0.03273097425699234,-0.3925042152404785
1789635556597265400,2.318265380859375,0.0022923117503523827,0.05851782113313675,-0.44949567317962646
1789635556607305200,2.32830517578125,0.08101721853017807,0.1209431067109108,-0.49545302987098694
1789635556617345300,2.33834521484375,0.14073297381401062,0.14090611040592194,-0.5520980954170227
1789635556627385300,2.34838525390625,0.1727742701768875,0.14958828687667847,-0.5489787459373474
1789635556637424400,2.35842431640625,0.206878662109375,0.11496660858392715,-0.4579368829727173
1789635556647464200,2.368464111328125,0.2123969942331314,0.010084940120577812,-0.3237431049346924
1789635556657504300,2.378504150390625,0.19293855130672455,-0.17682291567325592,-0.19707202911376953
1789635556667544300,2.38854443359375,0.16065597534179688,-0.32200857996940613,-0.10581828653812408
1789635556677584400,2.39858447265625,0.11799190193414688,-0.370060533285141,-0.02718404121696949
1789635556687624400,2.40862451171875,0.07956674695014954,-0.3054903447628021,0.024818439036607742
1789635556697664300,2.418664306640625,0.04112357646226883,-0.18544232845306396,0.047605000436306
1789635556707704300,2.428704345703125,0.008993866853415966,-0.06616388261318207,0.07290024310350418
1789635556717744400,2.438744384765625,-0.005309559870511293,-0.009470133110880852,0.0902276486158371
1789635556727783400,2.448783447265625,-0.06774017959833145,-0.034466296434402466,0.07602101564407349
1789635556737823500,2.458823486328125,-0.07407635450363159,-0.02382473647594452,0.06905630230903625
1789635556747863300,2.46886328125,-0.05782734602689743,0.008709772489964962,0.11865261197090149
1789635556757903400,2.4789033203125,-0.06479506194591522,0.1415960192680359,0.11100665479898453
1789635556767943400,2.488943359375,-0.051757823675870895,0.27924925088882446,0.17600509524345398
1789635556777983500,2.4989833984375,-0.06159146875143051,0.22946712374687195,0.236122265458107
1789635556788023600,2.5090234375,-0.04959952086210251,0.15105406939983368,0.1825016438961029
1789635556798063400,2.5190634765625,-0.0805358737707138,0.018567893654108047,0.07494829595088959
1789635556808102400,2.529102294921875,-0.13248535990715027,-0.06386493146419525,-0.03249161317944527
1789635556818142500,2.539142578125,-0.19257280230522156,0.041556719690561295,-0.06994771957397461
1789635556828182500,2.5491826171875,-0.24932344257831573,0.11853059381246567,-0.06575830280780792
1789635556838222300,2.559222412109375,-0.25998231768608093,0.10191929340362549,-0.011008966714143753
1789635556848262400,2.569262451171875,-0.23421411216259003,-0.016221463680267334,0.12417468428611755
1789635556858302500,2.579302490234375,-0.19030721485614777,-0.11355803161859512,0.24025823175907135
1789635556868342300,2.58934228515625,-0.15607094764709473,-0.17521579563617706,0.30472779273986816
1789635556878382300,2.59938232421875,-0.1534164696931839,-0.18075799942016602,0.33501556515693665
1789635556888422400,2.60942236328125,-0.18290911614894867,-0.15633414685726166,0.35546278953552246
1789635556898461400,2.61946142578125,-0.21672357618808746,-0.10791920870542526,0.36667054891586304
1789635556908501500,2.62950146484375,-0.23085138201713562,-0.0801650732755661,0.3536815047264099
1789635556918541300,2.639541259765625,-0.20108503103256226,-0.07417254149913788,0.3135359287261963
1789635556928581400,2.649581298828125,-0.13818009197711945,-0.15355338156223297,0.26171693205833435
1789635556938621200,2.65962109375,-0.07153651863336563,-0.32631465792655945,0.22115691006183624
1789635556948661200,2.6696611328125,-0.038515448570251465,-0.5161839127540588,0.21710915863513947
1789635556958701300,2.679701416015625,-0.002239733934402466,-0.541498601436615,0.2678602337837219
1789635556968741400,2.689741455078125,0.055328674614429474,-0.383024662733078,0.3429328501224518
1789635556978781400,2.699781494140625,0.12720359861850739,-0.1645897924900055,0.41339948773384094
1789635556988820200,2.7098203125,0.18512602150440216,-0.0014378838241100311,0.46593114733695984
1789635556998860300,2.7198603515625,0.22085191309452057,0.11301641911268234,0.4735008478164673
1789635557008900400,2.729900390625,0.23907352983951569,0.16704902052879333,0.4858035743236542
1789635557018940400,2.7399404296875,0.24147899448871613,0.10157766193151474,0.5422840714454651
1789635557028980200,2.749980224609375,0.2181403934955597,-0.07466208189725876,0.640242874622345
1789635557039020300,2.760020263671875,0.19580715894699097,-0.2009158432483673,0.7479932308197021
1789635557049060400,2.770060302734375,0.19068802893161774,-0.19915789365768433,0.832676112651825
1789635557059100400,2.780100341796875,0.17843760550022125,-0.15077053010463715,0.860933244228363
1789635557069139500,2.790139404296875,0.14067824184894562,-0.10997091233730316,0.8160635232925415
1789635557079179300,2.80017919921875,0.10670629888772964,-0.0783580094575882,0.7252415418624878
1789635557089219300,2.81021923828125,0.061472248286008835,-0.04072488471865654,0.6446793079376221
1789635557099259400,2.82025927734375,0.012500369921326637,-0.010569700039923191,0.5971163511276245
1789635557109299500,2.830299560546875,-0.006089559756219387,-0.0005365069955587387,0.5409422516822815
1789635557119339500,2.840339599609375,-0.009050696156919003,-0.01515752263367176,0.4760398268699646
1789635557129379300,2.85037939453125,-0.00816226564347744,-0.006797327194362879,0.43975239992141724
1789635557139419400,2.86041943359375,-0.0036445027217268944,0.021739821881055832,0.4515335261821747
1789635557149459500,2.87045947265625,0.004837931599467993,0.03738216310739517,0.476578950881958
1789635557159498500,2.88049853515625,0.01786816492676735,0.0008059367537498474,0.5026933550834656
1789635557169538300,2.890538330078125,0.031151212751865387,-0.06448225677013397,0.5257182717323303
1789635557179578400,2.900578369140625,0.0492422841489315,-0.1508481353521347,0.5334373116493225
1789635557189618400,2.910618408203125,0.045171644538640976,-0.22932909429073334,0.4911729097366333
1789635557199658500,2.920658447265625,0.005550608970224857,-0.27623316645622253,0.41737499833106995
1789635557209698600,2.930698486328125,-0.05720331892371178,-0.2936449348926544,0.3442421853542328
1789635557219738400,2.94073828125,-0.1302381455898285,-0.26681697368621826,0.31307846307754517
1789635557229778200,2.950778076171875,-0.20299437642097473,-0.21565072238445282,0.321084201335907
1789635557239818200,2.960818359375,-0.2694076895713806,-0.18215814232826233,0.320818156003952
1789635557249857500,2.970857421875,-0.32835328578948975,-0.17761531472206116,0.27089640498161316
1789635557259897300,2.9808974609375,-0.3708187937736511,-0.23557592928409576,0.17541097104549408
1789635557269937200,2.990937255859375,-0.4059634804725647,-0.3188982307910919,0.0443887785077095
1789635557279977200,3.000977294921875,-0.4475267827510834,-0.41143307089805603,-0.12801609933376312
1789635557290017300,3.011017333984375,-0.43707573413848877,-0.36205995082855225,-0.32339945435523987
1789635557300057300,3.021057373046875,-0.3661191165447235,-0.08871899545192719,-0.5652179718017578
1789635557310097400,3.031097412109375,-0.2571593225002289,0.30665335059165955,-0.7895293235778809
1789635557320137200,3.04113720703125,-0.16990268230438232,0.567202627658844,-0.9064432978630066
1789635557330177800,3.051177734375,-0.13793142139911652,0.6132537722587585,-0.9116974472999573
1789635557340216800,3.061216796875,-0.12918038666248322,0.48526066541671753,-0.8842492699623108
1789635557350257000,3.0712568359375,-0.07585643976926804,0.21452343463897705,-0.8251228332519531
1789635557360296700,3.081296630859375,-0.026574812829494476,-0.09501763433218002,-0.7420197129249573
1789635557370336800,3.091336669921875,-0.00938650406897068,-0.29536324739456177,-0.6985495090484619
1789635557380376800,3.101376953125,-0.03289924934506416,-0.3791190981864929,-0.7127570509910583
1789635557390417000,3.1114169921875,-0.06578715890645981,-0.401303231716156,-0.753799557685852
1789635557400457000,3.12145703125,-0.10805913805961609,-0.33283987641334534,-0.8222665786743164
1789635557410497000,3.1314970703125,-0.15917184948921204,-0.17484866082668304,-0.9197005033493042
1789635557420536800,3.141536865234375,-0.2364570051431656,-0.09334389120340347,-0.9982350468635559
1789635557430575900,3.151575927734375,-0.29201507568359375,-0.17422570288181305,-0.9680992364883423
1789635557440616000,3.161615966796875,-0.2873118817806244,-0.27524998784065247,-0.8234615921974182
1789635557450656000,3.171656005859375,-0.24415001273155212,-0.34481388330459595,-0.6482987999916077
1789635557460695800,3.18169580078125,-0.21779069304466248,-0.510437548160553,-0.5195688009262085
1789635557470736000,3.19173583984375,-0.2596145570278168,-0.7474916577339172,-0.48611146211624146
1789635557480776000,3.20177587890625,-0.36214911937713623,-0.9088060855865479,-0.5316957235336304
1789635557490816000,3.21181591796875,-0.45495015382766724,-0.991963803768158,-0.5895044207572937
1789635557500855800,3.221855712890625,-0.5009815692901611,-0.9878045320510864,-0.6345452666282654
1789635557510895600,3.2318955078125,-0.5026095509529114,-0.9147380590438843,-0.6895354986190796
1789635557520935000,3.241934814453125,-0.4679242968559265,-0.7779496312141418,-0.7646317481994629
1789635557530975000,3.25197509765625,-0.4036632776260376,-0.6182659864425659,-0.8320041298866272
1789635557541014800,3.262014892578125,-0.3640258014202118,-0.48030325770378113,-0.8811700344085693
1789635557551054600,3.2720546875,-0.3619069755077362,-0.42149320244789124,-0.9080636501312256
1789635557561094700,3.2820947265625,-0.386318176984787,-0.45252424478530884,-0.9556609392166138
1789635557571134700,3.292134765625,-0.4225368797779083,-0.5434246063232422,-1.0165554285049438
1789635557581174800,3.3021748046875,-0.47645920515060425,-0.4984288513660431,-1.0771958827972412
1789635557591214800,3.31221484375,-0.5453925132751465,-0.4927680492401123,-1.114053726196289
1789635557601255000,3.3222548828125,-0.6041519641876221,-0.6341544389724731,-1.0990294218063354
1789635557611293700,3.332293701171875,-0.639039933681488,-0.7228614091873169,-1.0847655534744263
1789635557621333800,3.342333740234375,-0.646948516368866,-0.682198166847229,-1.1256991624832153
1789635557631373800,3.352373779296875,-0.6206108927726746,-0.5869209170341492,-1.2080163955688477
1789635557641414000,3.362413818359375,-0.5814064145088196,-0.5484485626220703,-1.2850362062454224
1789635557651453700,3.37245361328125,-0.5180966854095459,-0.5512696504592896,-1.347375750541687
1789635557661493800,3.38249365234375,-0.40626224875450134,-0.5923690795898438,-1.3877640962600708
1789635557671533800,3.392533935546875,-0.30611783266067505,-0.5947219729423523,-1.39738130569458
1789635557681574000,3.402573974609375,-0.2666647136211395,-0.5596376061439514,-1.4214688539505005
1789635557691614000,3.412614013671875,-0.18668653070926666,-0.6252184510231018,-1.4853540658950806
1789635557701652700,3.42265283203125,-0.06136992201209068,-0.8797895312309265,-1.5846723318099976
1789635557711692800,3.43269287109375,0.03890315070748329,-1.1073633432388306,-1.6946957111358643
1789635557721732900,3.44273291015625,0.05078298598527908,-1.1484696865081787,-1.7056523561477661
1789635557731773000,3.45277294921875,0.011617742478847504,-1.0041545629501343,-1.6513233184814453
1789635557741813000,3.46281298828125,-0.043384384363889694,-0.7700557112693787,-1.607587456703186
1789635557751852800,3.472852783203125,-0.10404027998447418,-0.6100849509239197,-1.5783017873764038
1789635557761892900,3.482892822265625,-0.1552344113588333,-0.50645911693573,-1.5257058143615723
1789635557771933000,3.492932861328125,-0.16998618841171265,-0.45294639468193054,-1.4694989919662476
1789635557781973000,3.502972900390625,-0.10674535483121872,-0.5054653882980347,-1.4546340703964233
1789635557792013000,3.513012939453125,-0.011921640485525131,-0.7174157500267029,-1.4887233972549438
1789635557802051800,3.5230517578125,0.04909537360072136,-0.9090831875801086,-1.549987554550171
1789635557812092000,3.533091796875,0.10667424649000168,-0.9125751256942749,-1.6365023851394653
1789635557822132000,3.543132080078125,0.15042302012443542,-0.895964503288269,-1.6678409576416016
1789635557832172000,3.553172119140625,0.1440088003873825,-0.8834362030029297,-1.5834845304489136
1789635557842211800,3.5632119140625,0.11443518847227097,-0.8119747638702393,-1.454648733139038
1789635557852251600,3.573251708984375,0.10442490130662918,-0.6977670192718506,-1.3494871854782104
1789635557862291700,3.583291748046875,0.11105481535196304,-0.5940030813217163,-1.3225619792938232
1789635557872331800,3.593331787109375,0.14159567654132843,-0.5646404027938843,-1.3911908864974976
1789635557882371800,3.603371826171875,0.18605771660804749,-0.583210289478302,-1.4682953357696533
1789635557892411000,3.613410888671875,0.21368400752544403,-0.6628068685531616,-1.4707305431365967
1789635557902450700,3.62345068359375,0.19809649884700775,-0.7613762617111206,-1.3936240673065186
1789635557912490800,3.63349072265625,0.1632746160030365,-0.8814483880996704,-1.3550899028778076
1789635557922530800,3.64353076171875,0.13540594279766083,-0.8701457381248474,-1.3701272010803223
1789635557932571000,3.65357080078125,0.14603328704833984,-0.7489375472068787,-1.411847710609436
1789635557942610700,3.663610595703125,0.16264508664608002,-0.6517128348350525,-1.409993290901184
1789635557952650800,3.673650634765625,0.14389961957931519,-0.6773601174354553,-1.3156217336654663
1789635557962690800,3.68369091796875,0.06880360841751099,-0.7711811661720276,-1.2279021739959717
1789635557972731000,3.69373095703125,0.009841486811637878,-0.8164777755737305,-1.1926286220550537
1789635557982769700,3.703769775390625,-0.0053752101957798,-0.8359968662261963,-1.256628394126892
1789635557992809700,3.713809814453125,-0.007812801748514175,-0.8518836498260498,-1.384799599647522
1789635558002849800,3.723849853515625,0.013441015034914017,-0.6484856009483337,-1.4896739721298218
1789635558012889900,3.733889892578125,0.04705037176609039,-0.47798633575439453,-1.5169223546981812
1789635558022930000,3.743929931640625,0.022308405488729477,-0.4288819432258606,-1.5070008039474487
1789635558032969700,3.7539697265625,-0.06706622242927551,-0.46699339151382446,-1.4920761585235596
1789635558043009800,3.764009765625,-0.15956446528434753,-0.4021555185317993,-1.4519565105438232
1789635558053049900,3.7740498046875,-0.15562698245048523,-0.2274438887834549,-1.4416172504425049
1789635558063090000,3.78408984375,-0.10088922083377838,-0.26956436038017273,-1.4227986335754395
1789635558073130000,3.7941298828125,-0.014951670542359352,-0.35455143451690674,-1.4546754360198975
1789635558083168800,3.804168701171875,0.06462309509515762,-0.3794824779033661,-1.55048668384552
1789635558093208800,3.814208740234375,0.06876857578754425,-0.4579344093799591,-1.6327967643737793
1789635558103249000,3.824248779296875,0.03021513670682907,-0.41708382964134216,-1.5703027248382568
1789635558113289000,3.8342890625,0.04994037002325058,-0.19088876247406006,-1.3364460468292236
1789635558123329000,3.8443291015625,0.038049809634685516,-0.2180834859609604,-1.214280128479004
1789635558133368800,3.854368896484375,0.03741597384214401,-0.2992646098136902,-1.1836596727371216
1789635558143409000,3.864408935546875,0.07005450129508972,-0.23437653481960297,-1.2232717275619507
1789635558153448700,3.87444873046875,0.1035408228635788,-0.11556706577539444,-1.1044065952301025
1789635558163488800,3.88448876953125,0.10879979282617569,0.0007371744140982628,-0.9823911190032959
1789635558173527800,3.89452783203125,0.08778905123472214,0.08370369672775269,-0.8573160171508789
1789635558183568000,3.90456787109375,0.11389270424842834,0.0807061493396759,-0.704603374004364
1789635558193607700,3.914607666015625,0.15798772871494293,0.15291562676429749,-0.5928688049316406
1789635558203647700,3.924647705078125,0.2182120829820633,0.17326846718788147,-0.6620206236839294
1789635558213687800,3.934687744140625,0.2717245817184448,0.10365449637174606,-0.7978687882423401
1789635558223727900,3.944727783203125,0.29694992303848267,-0.1520121991634369,-0.9848148822784424
1789635558233767700,3.954767578125,0.3136460781097412,-0.44385260343551636,-1.01156747341156
1789635558243807700,3.964807861328125,0.2947825491428375,-0.5123326778411865,-1.0113602876663208
1789635558253847800,3.974847900390625,0.284994900226593,-0.410680890083313,-1.0052965879440308
1789635558263888000,3.984887939453125,0.3333917558193207,-0.26677820086479187,-0.9983608722686768
1789635558273926700,3.9949267578125,0.37230587005615234,-0.34446981549263,-1.0532909631729126
1789635558283966700,4.004966796875,0.3471604287624359,-0.37362605333328247,-0.9758769869804382
1789635558294006800,4.0150068359375,0.3310256898403168,-0.24928279221057892,-0.8083114624023438
1789635558304046800,4.025046875,0.3312602639198303,-0.001699348445981741,-0.6253662705421448
1789635558314087000,4.0350869140625,0.38430193066596985,0.2555178105831146,-0.5419718027114868
1789635558324126700,4.045126708984375,0.4671710133552551,0.42180371284484863,-0.5002550482749939
1789635558334166800,4.055166748046875,0.5531977415084839,0.4332350492477417,-0.5044327974319458
1789635558344206800,4.065206787109375,0.5601731538772583,0.37458598613739014,-0.42511171102523804
1789635558354246700,4.07524658203125,0.4425157606601715,0.4685684144496918,-0.3151490092277527
1789635558364286700,4.08528662109375,0.24026942253112793,0.6927385926246643,-0.26080361008644104
1789635558374325800,4.09532568359375,-0.03456934168934822,0.830912709236145,-0.1703363060951233
1789635558384365800,4.10536572265625,-0.17428794503211975,0.8799538612365723,0.08919975161552429
1789635558394405600,4.115405517578125,-0.17403361201286316,0.7803974747657776,0.04424426704645157
1789635558404445700,4.12544580078125,-0.07012782245874405,0.508124828338623,-0.038001008331775665
1789635558414485800,4.13548583984375,-0.019397271797060966,0.2513311803340912,0.030184704810380936
1789635558424525800,4.14552587890625,-0.06300300359725952,0.2267579585313797,0.26937124133110046
1789635558434566000,4.15556591796875,-0.12744005024433136,0.39618292450904846,0.4534579813480377
1789635558444605700,4.165605712890625,-0.19512949883937836,0.7444576025009155,0.4355814456939697
1789635558454645800,4.175645751953125,-0.1960240602493286,0.902527391910553,0.37297213077545166
1789635558464685600,4.185685546875,-0.09520179778337479,0.8093339204788208,0.34195390343666077
1789635558474724900,4.195724853515625,-0.019018609076738358,0.45957672595977783,0.16103364527225494
1789635558484765000,4.205764892578125,0.042684249579906464,0.3899431526660919,-0.13078352808952332
1789635558494804700,4.2158046875,0.1609959751367569,0.40080592036247253,-0.392474502325058
1789635558504844500,4.225844482421875,0.179958775639534,0.3292347490787506,-0.7124366760253906
1789635558514884600,4.235884521484375,-0.058692414313554764,0.4071449935436249,-1.0975230932235718
1789635558524924700,4.245924560546875,-0.29354575276374817,0.0334789976477623,-1.218358039855957
1789635558534964700,4.25596484375,-0.37339770793914795,-0.631324291229248,-0.865449845790863
1789635558545004500,4.266004638671875,-0.4271652400493622,-0.7474913597106934,-0.3116633892059326
1789635558555044600,4.276044677734375,-0.5612372756004333,-0.4492298364639282,0.28494754433631897
1789635558565084700,4.286084716796875,-0.6441653370857239,-0.3708193302154541,0.6841363906860352
1789635558575123700,4.296123779296875,-0.52700275182724,-0.21319535374641418,0.6967376470565796
1789635558585163500,4.30616357421875,-0.33311888575553894,0.03287529572844505,0.7128702998161316
1789635558595203600,4.31620361328125,-0.2540972828865051,0.033855341374874115,0.7526371479034424
1789635558605243600,4.32624365234375,-0.3904978334903717,-0.05518030747771263,0.6427513957023621
1789635558615283700,4.33628369140625,-0.6415247917175293,0.03068799525499344,0.5048058032989502
1789635558625323800,4.34632373046875,-0.9108965396881104,0.05726580321788788,0.5680657625198364
1789635558635363800,4.35636376953125,-1.0800111293792725,0.020887289196252823,0.665451169013977
1789635558645403600,4.366403564453125,-1.0485808849334717,0.24457482993602753,0.8654674291610718
1789635558655443700,4.376443603515625,-0.8808435797691345,0.45465749502182007,1.0502591133117676
1789635558665483800,4.38648388671875,-0.6375993490219116,0.48448678851127625,1.1074767112731934
1789635558675522800,4.396522705078125,-0.4723653495311737,0.48299703001976013,1.009552001953125
1789635558685562600,4.406562744140625,-0.5139373540878296,0.5613127946853638,0.9192282557487488
1789635558695602700,4.416602783203125,-0.6374515891075134,0.6797621846199036,0.9102544784545898
1789635558705642800,4.426642822265625,-0.6820454597473145,0.7363594174385071,0.8858472108840942
1789635558715682800,4.436682861328125,-0.6331295967102051,0.442807137966156,0.8623467087745667
1789635558725723000,4.446722900390625,-0.5528713464736938,0.07434520870447159,0.8873386383056641
1789635558735762700,4.4567626953125,-0.5143803954124451,-0.021484119817614555,0.8805773854255676
1789635558745802800,4.466802734375,-0.5095664858818054,0.04632549732923508,0.8410754203796387
1789635558755842600,4.476842529296875,-0.5127942562103271,-0.011160432361066341,0.9004085063934326
1789635558765882600,4.486882568359375,-0.5336777567863464,0.04460497573018074,1.064431071281433
1789635558775922000,4.496921875,-0.5048708915710449,0.219305157661438,1.1486910581588745
1789635558785961700,4.506961669921875,-0.41771918535232544,0.2573702335357666,1.0529670715332031
1789635558796001800,4.517001708984375,-0.35992592573165894,0.10340304672718048,0.9374943971633911
1789635558806041600,4.52704150390625,-0.34672096371650696,0.17169849574565887,0.9136098623275757
1789635558816081700,4.53708154296875,-0.3451598286628723,0.32915815711021423,0.9209409952163696
1789635558826121700,4.547121826171875,-0.33470618724823,0.38967230916023254,0.9940049648284912
1789635558836161500,4.55716162109375,-0.2651958167552948,0.43465733528137207,1.1204560995101929
1789635558846201600,4.56720166015625,-0.11428418010473251,0.5230177044868469,1.2402640581130981
1789635558856241700,4.57724169921875,0.050955645740032196,0.6796174645423889,1.2726776599884033
1789635558866281700,4.58728173828125,0.14366203546524048,0.7418498396873474,1.2038445472717285
1789635558876320500,4.597320556640625,0.10103494673967361,0.5398235321044922,1.1253955364227295
1789635558886360600,4.607360595703125,-0.021135855466127396,0.35835105180740356,1.1317986249923706
1789635558896400600,4.617400634765625,-0.05413615331053734,0.4248666763305664,1.1369518041610718
1789635558906440700,4.627440673828125,-0.02734961546957493,0.3638935685157776,1.090920090675354
1789635558916480800,4.637480712890625,-0.005970291327685118,0.09181569516658783,1.0051466226577759
1789635558926520800,4.647520751953125,-0.057340383529663086,-0.06053159758448601,0.9062994718551636
1789635558936560600,4.657560546875,-0.21427248418331146,-0.03203311190009117,0.9135065078735352
1789635558946600700,4.6676005859375,-0.4107162058353424,0.11771328002214432,1.111024260520935
1789635558956640800,4.677640869140625,-0.5108939409255981,0.19872239232063293,1.3754969835281372
1789635558966680800,4.687680908203125,-0.41163143515586853,0.22756506502628326,1.5178834199905396
1789635558976719600,4.6977197265625,-0.187798872590065,0.2700802981853485,1.4808231592178345
1789635558986759700,4.707759765625,-0.008299872279167175,0.3957861661911011,1.3381506204605103
1789635558996799700,4.7177998046875,0.009225059300661087,0.47654810547828674,1.167367696762085
1789635559006839800,4.72783984375,-0.05230994522571564,0.4108031094074249,1.0022382736206055
1789635559016879900,4.7378798828125,-0.14825193583965302,0.1415489912033081,0.8837355375289917
1789635559026919700,4.747919677734375,-0.23835590481758118,-0.06555879861116409,0.9259275197982788
1789635559036959700,4.757959716796875,-0.19491228461265564,0.04160786792635918,1.0583734512329102
1789635559046999800,4.767999755859375,-0.1144830733537674,0.30972203612327576,1.1614991426467896
1789635559057039600,4.77803955078125,0.013405117206275463,0.6013219356536865,1.1988449096679688
1789635559067079700,4.78807958984375,0.19439668953418732,0.6648451685905457,1.1745895147323608
1789635559077119500,4.798119384765625,0.3434322476387024,0.46326619386672974,1.1092685461044312
1789635559087158800,4.80815869140625,0.39462050795555115,0.28025397658348083,1.062792181968689
1789635559097198800,4.81819873046875,0.39299383759498596,0.22167085111141205,1.055639624595642
1789635559107238700,4.82823876953125,0.36162757873535156,0.1921166330575943,1.0609334707260132
1789635559117278700,4.83827880859375,0.3284839987754822,0.2006528675556183,1.105118751525879
1789635559127318500,4.848318603515625,0.34416836500167847,0.22403517365455627,1.1671950817108154
1789635559137358600,4.858358642578125,0.40290889143943787,0.2757255434989929,1.169756531715393
1789635559147398700,4.868398681640625,0.4758621156215668,0.39463335275650024,1.1511226892471313
1789635559157438700,4.878438720703125,0.515174925327301,0.5483739376068115,1.1066128015518188
1789635559167478800,4.888478759765625,0.49011871218681335,0.5097914338111877,1.0534671545028687
1789635559177518600,4.8985185546875,0.4255623519420624,0.29939085245132446,1.09306001663208
1789635559187557600,4.9085576171875,0.4222235381603241,0.24641920626163483,1.22514808177948
1789635559197597700,4.91859765625,0.4311677813529968,0.3962055444717407,1.323171854019165
1789635559207637800,4.9286376953125,0.41988396644592285,0.69408118724823,1.3214504718780518
1789635559217677600,4.938677490234375,0.4051220715045929,0.7838699221611023,1.23557448387146
1789635559227717600,4.948717529296875,0.40005797147750854,0.4862693250179291,1.090537190437317
1789635559237757700,4.9587578125,0.4163179099559784,0.17655354738235474,1.0076473951339722
1789635559247797800,4.9687978515625,0.3950011730194092,0.4277206063270569,1.0710641145706177
1789635559257837800,4.978837890625,0.38642847537994385,0.8723291754722595,1.1917418241500854
1789635559267878000,4.9888779296875,0.48591136932373047,0.887481153011322,1.2230802774429321
1789635559277917700,4.998917724609375,0.6034308075904846,0.37786242365837097,1.1460003852844238
1789635559287956700,5.008956787109375,0.6140424013137817,0.039080165326595306,1.0492680072784424
1789635559297996800,5.018996826171875,0.4902914762496948,0.4033915400505066,1.0250349044799805
1789635559308036900,5.029036865234375,0.32427048683166504,0.9607501029968262,1.0555870532989502
1789635559318076700,5.03907666015625,0.20893433690071106,0.9504346251487732,1.1141294240951538
1789635559328116700,5.04911669921875,0.13716663420200348,0.491445392370224,1.171474575996399
1789635559338156800,5.05915673828125,0.06934922933578491,0.2088688164949417,1.192323088645935
1789635559348196900,5.06919677734375,0.026346834376454353,0.18219755589962006,1.1928080320358276
1789635559358236700,5.079236572265625,-0.025627417489886284,0.30275776982307434,1.1953588724136353
1789635559368276700,5.08927685546875,0.0018382963025942445,0.4065856337547302,1.1885696649551392
1789635559378316500,5.099316650390625,0.023030932992696762,0.3447534143924713,1.175880789756775
1789635559388356600,5.109356689453125,0.02109675109386444,0.41734644770622253,1.153460144996643
1789635559398396000,5.11939599609375,0.03392839431762695,0.540699303150177,1.0562419891357422
1789635559408435700,5.129435791015625,0.06250590085983276,0.6351553797721863,0.8677106499671936
1789635559418475800,5.139475830078125,0.06958618015050888,0.709521472454071,0.6357192397117615
1789635559428515600,5.149515625,0.05387692153453827,0.7174183130264282,0.3896401524543762
1789635559438555600,5.1595556640625,0.025340620428323746,0.6362614035606384,0.1256849467754364
1789635559448595700,5.169595703125,0.02848629839718342,0.4525638818740845,-0.1531020849943161
1789635559458635800,5.1796357421875,0.09372788667678833,0.20524251461029053,-0.4465411603450775
1789635559468675800,5.18967578125,0.13616253435611725,0.07002566754817963,-0.7243041396141052
1789635559478715600,5.199715576171875,0.11856143921613693,0.09095838665962219,-1.0054378509521484
1789635559488755700,5.209755615234375,0.05815950781106949,0.13463811576366425,-1.2839974164962769
1789635559498794800,5.219794677734375,0.018310893326997757,0.10806402564048767,-1.555210828781128
1789635559508834800,5.229834716796875,-0.010691536590456963,0.08199109882116318,-1.7587655782699585
1789635559518874600,5.23987451171875,0.0051180524751544,0.15434172749519348,-1.8303017616271973
1789635559528914700,5.249914794921875,0.01405961625277996,0.33190613985061646,-1.7915722131729126
1789635559538954800,5.259954833984375,-0.011892669834196568,0.5173647999763489,-1.7217859029769897
1789635559548994800,5.269994873046875,-0.04495694860816002,0.6513915657997131,-1.635000228881836
1789635559559035000,5.280034912109375,-0.040473517030477524,0.781180202960968,-1.5171664953231812
1789635559569074700,5.29007470703125,0.0029043597169220448,0.9699238538742065,-1.3659493923187256
1789635559579114800,5.30011474609375,0.06523165106773376,1.1450045108795166,-1.1876747608184814
1789635559589154800,5.31015478515625,0.1501627415418625,1.2294458150863647,-0.9703395962715149
1789635559599195000,5.32019482421875,0.18321895599365234,1.0126762390136719,-0.7091678977012634
1789635559609234000,5.33023388671875,0.1666131168603897,0.4160192310810089,-0.41682377457618713
1789635559619273700,5.340273681640625,0.21133291721343994,-0.2640458643436432,-0.1474493145942688
1789635559629313800,5.350313720703125,0.26986896991729736,-0.6904752850532532,0.0929008275270462
1789635559639353900,5.360353759765625,0.2699054479598999,-0.6936793327331543,0.25003159046173096
1789635559649394000,5.370393798828125,0.24825841188430786,-0.4918054938316345,0.19695743918418884
1789635559659433700,5.380433837890625,0.23282885551452637,-0.3504060208797455,-0.019468877464532852
1789635559669473500,5.3904736328125,0.22176428139209747,-0.16064409911632538,-0.2708296775817871
1789635559679513600,5.400513671875,0.18049407005310059,0.028429685160517693,-0.46115195751190186
1789635559689553700,5.4105537109375,0.12881886959075928,0.19490289688110352,-0.578702986240387
1789635559699593700,5.42059375,0.14159245789051056,0.3699580430984497,-0.6462913751602173
1789635559709632500,5.430632568359375,0.247017502784729,0.43626534938812256,-0.706174373626709
1789635559719672600,5.440672607421875,0.32156577706336975,0.2499825656414032,-0.69235759973526
1789635559729712600,5.450712646484375,0.3543311059474945,-0.07527613639831543,-0.6442540287971497
1789635559739752700,5.460752685546875,0.38113608956336975,-0.40839871764183044,-0.6205977201461792
1789635559749792800,5.470792724609375,0.41921642422676086,-0.6741082072257996,-0.650619387626648
1789635559759832800,5.480832763671875,0.43254128098487854,-0.8484880328178406,-0.7237489819526672
1789635559769872600,5.49087255859375,0.4104505777359009,-0.8518804311752319,-0.8079782724380493
1789635559779912700,5.50091259765625,0.3796630799770355,-0.725225031375885,-0.8733000159263611
1789635559789952800,5.510952880859375,0.36085644364356995,-0.516994297504425,-0.9034025073051453
1789635559799992800,5.520992919921875,0.3391279876232147,-0.2566279470920563,-0.874282956123352
1789635559810033000,5.531032958984375,0.32001951336860657,0.010803882963955402,-0.8149515986442566
1789635559820071700,5.54107177734375,0.31482580304145813,0.1546689122915268,-0.7905431985855103
1789635559830111700,5.55111181640625,0.30285853147506714,0.0067615024745464325,-0.7646611928939819
1789635559840151800,5.56115185546875,0.2305891066789627,-0.29631713032722473,-0.6911619305610657
1789635559850192000,5.57119189453125,0.15379080176353455,-0.404847651720047,-0.5593884587287903
1789635559860231700,5.581231689453125,0.09071676433086395,-0.35278499126434326,-0.459707647562027
1789635559870271700,5.591271728515625,0.04329853877425194,-0.3183434009552002,-0.4773731231689453
1789635559880311800,5.601311767578125,0.0023308678064495325,-0.3906005620956421,-0.6026865243911743
1789635559890351900,5.611351806640625,-0.04860555753111839,-0.4214403033256531,-0.7840275764465332
1789635559900392000,5.621391845703125,-0.08623842149972916,-0.32586637139320374,-0.9293818473815918
1789635559910431700,5.631431640625,-0.07266305387020111,-0.2808397710323334,-1.0380710363388062
1789635559920471600,5.641471435546875,-0.03296198323369026,-0.33387526869773865,-1.116992712020874
1789635559930510800,5.6515107421875,-0.002111811190843582,-0.3758079707622528,-1.1913940906524658
1789635559940551000,5.661551025390625,-0.010834196582436562,-0.3299688398838043,-1.2312490940093994
1789635559950591000,5.671591064453125,-0.03992973268032074,-0.33623206615448,-1.2128552198410034
1789635559960630500,5.681630615234375,-0.07418650388717651,-0.3678557574748993,-1.1251131296157837
1789635559970670600,5.691670654296875,-0.08684101700782776,-0.4194180369377136,-1.0424870252609253
1789635559980710700,5.701710693359375,-0.11539329588413239,-0.4822438657283783,-0.9403777718544006
1789635559990750700,5.711750732421875,-0.14896516501903534,-0.3801121711730957,-0.8451895117759705
1789635560000790800,5.721790771484375,-0.1289810836315155,-0.2243127077817917,-0.9099703431129456
1789635560010830600,5.73183056640625,-0.027400629594922066,-0.35879868268966675,-1.0541154146194458
1789635560020870700,5.74187060546875,0.06814613938331604,-0.6622443199157715,-1.2362802028656006
1789635560030910700,5.75191064453125,0.08294067531824112,-0.7331103682518005,-1.4331965446472168
1789635560040949800,5.76194970703125,0.10573440045118332,-0.5463000535964966,-1.4923323392868042
1789635560050989800,5.77198974609375,0.14909307658672333,-0.524223804473877,-1.4486572742462158
1789635560061029600,5.782029541015625,0.19144292175769806,-0.7022202014923096,-1.3872957229614258
1789635560071069700,5.792069580078125,0.20745225250720978,-0.8200435042381287,-1.2696750164031982
1789635560081109800,5.80210986328125,0.1901576817035675,-0.6904138922691345,-1.0754531621932983
1789635560091149800,5.81214990234375,0.17633214592933655,-0.40353086590766907,-0.89296954870224
1789635560101190000,5.82218994140625,0.18554934859275818,-0.18311487138271332,-0.7796400785446167
1789635560111229700,5.832229736328125,0.23361404240131378,-0.20933206379413605,-0.7368509769439697
1789635560121269800,5.842269775390625,0.25890499353408813,-0.45647501945495605,-0.7970365285873413
1789635560131309800,5.852309814453125,0.30082181096076965,-0.531916618347168,-0.9369953870773315
1789635560141350000,5.862349853515625,0.33170169591903687,-0.6002988815307617,-1.0799839496612549
1789635560151388700,5.872388671875,0.33880192041397095,-0.6702265739440918,-1.2385705709457397
1789635560161428700,5.8824287109375,0.30544182658195496,-0.8340541124343872,-1.3541898727416992
1789635560171468800,5.89246875,0.29253628849983215,-0.9578996896743774,-1.41996431350708
1789635560181508900,5.9025087890625,0.2852221727371216,-0.8529021739959717,-1.4127305746078491
1789635560191549000,5.912548828125,0.2975621819496155,-0.6345701217651367,-1.34706711769104
1789635560201588700,5.922588623046875,0.30749496817588806,-0.45791149139404297,-1.2831591367721558
1789635560211628800,5.93262890625,0.30058109760284424,-0.350062757730484,-1.2941927909851074
1789635560221668600,5.942668701171875,0.30664005875587463,-0.22322571277618408,-1.4199481010437012
1789635560231708700,5.952708740234375,0.36693277955055237,-0.11849980056285858,-1.5003300905227661
1789635560241748700,5.962748779296875,0.42473191022872925,-0.05279029905796051,-1.4922809600830078
1789635560251788800,5.972788818359375,0.39529210329055786,0.1248115599155426,-1.4779120683670044
1789635560261827600,5.98282763671875,0.3021528422832489,0.2411469668149948,-1.4764457941055298
1789635560271867600,5.99286767578125,0.22557353973388672,0.3147529065608978,-1.4634734392166138
1789635560281907700,6.00290771484375,0.17216145992279053,0.2988503575325012,-1.4374762773513794
1789635560291947800,6.01294775390625,0.11391625553369522,0.32266002893447876,-1.43354332447052
1789635560301987600,6.022987548828125,0.05867483466863632,0.37572696805000305,-1.4226081371307373
1789635560312027600,6.033027587890625,0.024815522134304047,0.6054825782775879,-1.4410151243209839
1789635560322067700,6.043067626953125,0.007532673422247171,0.6269735097885132,-1.4048879146575928
1789635560332107500,6.053107421875,-0.044733691960573196,0.4210091233253479,-1.2554326057434082
1789635560342147600,6.063147705078125,-0.10871773958206177,0.34667494893074036,-1.0918893814086914
1789635560352187400,6.0731875,-0.10745466500520706,0.5958826541900635,-1.000264286994934
1789635560362227500,6.0832275390625,-0.021618854254484177,0.8341607451438904,-1.023451328277588
1789635560372266500,6.0932666015625,0.0399385504424572,0.7668949365615845,-0.9944350123405457
1789635560382306600,6.103306640625,0.04350878298282623,0.4704083800315857,-0.7671288847923279
1789635560392346400,6.113346435546875,0.022782346233725548,0.24813812971115112,-0.4895935654640198
1789635560402386400,6.123386474609375,0.04802512004971504,0.4189434051513672,-0.39240363240242004
1789635560412426500,6.133426513671875,0.08461562544107437,0.4905014932155609,-0.3280203640460968
1789635560422466600,6.143466552734375,0.07315657287836075,0.3181004226207733,-0.25245505571365356
1789635560432506600,6.153506591796875,0.014680490829050541,0.11415915191173553,-0.139558345079422
1789635560442546700,6.163546630859375,-0.0602017343044281,0.13615234196186066,0.05479861795902252
1789635560452586500,6.17358642578125,-0.13785795867443085,0.11297345161437988,0.2381477952003479
1789635560462626600,6.18362646484375,-0.19807815551757812,0.13178549706935883,0.3659251928329468
1789635560472666600,6.19366650390625,-0.2178657501935959,0.12314561009407043,0.49096792936325073
1789635560482705700,6.20370556640625,-0.20520508289337158,0.1903342306613922,0.5998853445053101
1789635560492745500,6.213745361328125,-0.21270142495632172,0.30808553099632263,0.700101912021637
1789635560502785500,6.22378564453125,-0.2173483669757843,0.2804456353187561,0.8149816393852234
1789635560512825600,6.23382568359375,-0.22202414274215698,0.24569781124591827,1.0113234519958496
1789635560522865400,6.243865478515625,-0.19997131824493408,0.2665695250034332,1.2560352087020874
1789635560532905500,6.253905517578125,-0.1566799283027649,0.43267935514450073,1.4185196161270142
1789635560542945300,6.2639453125,-0.08156947791576385,0.5915313363075256,1.4329487085342407
1789635560552985300,6.2739853515625,-0.009254024364054203,0.5893670916557312,1.3471852540969849
1789635560563025400,6.284025390625,0.047388751059770584,0.48123952746391296,1.2783385515213013
1789635560573065500,6.2940654296875,0.060347724705934525,0.5774938464164734,1.3256934881210327
1789635560583105500,6.30410546875,0.06417787820100784,0.5733888745307922,1.4271883964538574
1789635560593145600,6.3141455078125,0.05511097237467766,0.3900081515312195,1.4875361919403076
1789635560603184400,6.324184326171875,0.050397180020809174,0.3108006715774536,1.4682564735412598
1789635560613224400,6.334224365234375,0.1226818636059761,0.5168167948722839,1.3995277881622314
1789635560623264500,6.344264404296875,0.2063802182674408,0.6422972083091736,1.23279869556427
1789635560633304600,6.3543046875,0.21092680096626282,0.5891135334968567,1.093563199043274
1789635560643344400,6.364344482421875,0.185584157705307,0.5246149897575378,1.1011837720870972
1789635560653384400,6.374384521484375,0.1726224422454834,0.3966713845729828,1.2320382595062256
1789635560663424500,6.384424560546875,0.20781131088733673,0.44113579392433167,1.3949755430221558
1789635560673464600,6.394464599609375,0.3207916021347046,0.7039799690246582,1.4642890691757202
1789635560683504600,6.404504638671875,0.42355233430862427,0.6882731914520264,1.338632345199585
1789635560693544400,6.41454443359375,0.4271600544452667,0.5514566898345947,1.2133902311325073
1789635560703584500,6.42458447265625,0.4127028286457062,0.4805369973182678,1.2621673345565796
1789635560713624600,6.43462451171875,0.4127441644668579,0.46597158908843994,1.4239301681518555
1789635560723663600,6.44466357421875,0.46456074714660645,0.4906926453113556,1.5581958293914795
1789635560733703700,6.45470361328125,0.5220195651054382,0.6351193785667419,1.5619674921035767
1789635560743743500,6.464743408203125,0.5502637624740601,0.7290453314781189,1.4650126695632935
1789635560753783600,6.474783447265625,0.5531622767448425,0.7432472109794617,1.3761379718780518
1789635560763823600,6.48482373046875,0.5845683813095093,0.5148609280586243,1.328410029411316
1789635560773863700,6.49486376953125,0.6011493802070618,0.3018835484981537,1.3538018465042114
1789635560783903500,6.504903564453125,0.5486414432525635,0.37226584553718567,1.4646652936935425
1789635560793943300,6.514943359375,0.5069791674613953,0.6057150959968567,1.5744742155075073
1789635560803983400,6.5249833984375,0.5311564207077026,0.6504029035568237,1.5707905292510986
1789635560814023400,6.5350234375,0.5602400898933411,0.44658362865448,1.443471074104309
1789635560824063500,6.5450634765625,0.5513435006141663,0.30053478479385376,1.3284960985183716
1789635560834102300,6.555102294921875,0.5167088508605957,0.42254307866096497,1.3788188695907593
1789635560844142300,6.565142333984375,0.5294382572174072,0.4197092354297638,1.4622758626937866
1789635560854182400,6.575182373046875,0.5284768342971802,0.1873198300600052,1.4661617279052734
1789635560864222500,6.585222412109375,0.4638703763484955,0.01885039359331131,1.3898515701293945
1789635560874262500,6.595262451171875,0.3392614722251892,0.05695819854736328,1.3241918087005615
1789635560884302600,6.605302490234375,0.2504836618900299,0.1333989053964615,1.3306795358657837
1789635560894342400,6.61534228515625,0.18912740051746368,0.08507157117128372,1.3593864440917969
1789635560904382500,6.625382568359375,0.13680081069469452,-0.08686663210391998,1.334800124168396
1789635560914422500,6.635422607421875,0.0852527767419815,-0.1998833566904068,1.2808387279510498
1789635560924462600,6.645462646484375,0.020546482875943184,-0.0320003479719162,1.2963961362838745
1789635560934502700,6.655502685546875,-0.0016694935038685799,0.29896941781044006,1.408575177192688
1789635560944542500,6.66554248046875,0.03855914995074272,0.41607072949409485,1.4720020294189453
1789635560954581500,6.67558154296875,0.10817790031433105,0.12464568018913269,1.438629150390625
1789635560964621600,6.68562158203125,0.08670536428689957,-0.21263061463832855,1.3732820749282837
1789635560974661600,6.69566162109375,-0.02826918289065361,-0.15250825881958008,1.3835479021072388
1789635560984701400,6.705701416015625,-0.13928517699241638,0.09713725000619888,1.4186108112335205
1789635560994741500,6.715741455078125,-0.17985296249389648,-0.03521343320608139,1.3699500560760498
1789635561004781600,6.725781494140625,-0.19145795702934265,-0.474700003862381,1.2566068172454834
1789635561014821600,6.735821533203125,-0.26707619428634644,-0.6419497728347778,1.1957932710647583
1789635561024861700,6.74586181640625,-0.32614031434059143,-0.23801486194133759,1.2232626676559448
1789635561034901500,6.755901611328125,-0.36370721459388733,0.31447237730026245,1.236409306526184
1789635561044941300,6.76594140625,-0.3524015545845032,0.5314934253692627,1.16547691822052
1789635561054981400,6.7759814453125,-0.30449020862579346,0.33745646476745605,1.07270085811615
1789635561065021400,6.786021484375,-0.22197508811950684,0.186706081032753,0.9844183325767517
1789635561075060500,6.796060546875,-0.11845748126506805,0.13596726953983307,0.9018616676330566
1789635561085100300,6.806100341796875,-0.03905320167541504,0.08712543547153473,0.7664700150489807
1789635561095140400,6.816140380859375,-0.010856986045837402,-0.0030678417533636093,0.556721568107605
1789635561105180400,6.826180419921875,-0.004172452259808779,-0.16995829343795776,0.3321113884449005
1789635561115220500,6.836220458984375,-0.08557421714067459,-0.0470132976770401,0.12050307542085648
1789635561125260500,6.846260498046875,-0.0848117545247078,0.20566609501838684,-0.025502601638436317
1789635561135300400,6.85630029296875,-0.003466436406597495,0.1799367517232895,-0.059304073452949524
1789635561145340400,6.86634033203125,0.05741662159562111,0.14847522974014282,-0.0878230631351471
1789635561155380500,6.87638037109375,0.12034228444099426,0.1581411063671112,-0.21533696353435516
1789635561165420500,6.886420654296875,0.13606184720993042,0.13898977637290955,-0.3961200714111328
1789635561175460600,6.896460693359375,0.05628066509962082,0.15037629008293152,-0.6563711166381836
1789635561185500400,6.90650048828125,0.0014448466245085,0.24793852865695953,-0.8966785669326782
1789635561195539500,6.91653955078125,0.03772581368684769,0.33246055245399475,-1.006666898727417
1789635561205579500,6.92657958984375,0.03310762718319893,0.4186713397502899,-1.0217509269714355
1789635561215619600,6.93661962890625,0.011114977300167084,0.5528496503829956,-0.9465699195861816
1789635561225659600,6.94665966796875,0.050588883459568024,0.6377925276756287,-0.7829322814941406
1789635561235699500,6.956699462890625,0.11702360957860947,0.5462552905082703,-0.5023521780967712
1789635561245739500,6.966739501953125,0.1536969393491745,0.28638985753059387,-0.20457667112350464
1789635561255779600,6.976779541015625,0.16253112256526947,-0.12156108021736145,0.011669492349028587
1789635561265819600,6.986819580078125,0.11217634379863739,-0.39889416098594666,0.1132027804851532
1789635561275859700,6.996859619140625,0.07520066201686859,-0.4200187027454376,0.10597066581249237
1789635561285899500,7.0068994140625,0.11313632875680923,-0.33855101466178894,0.04886370152235031
1789635561295939300,7.016939208984375,0.16387180984020233,-0.25744500756263733,-0.05687906965613365
1789635561305978600,7.026978515625,0.1386769711971283,-0.18710960447788239,-0.3120405077934265
1789635561316018700,7.037018798828125,0.02946012280881405,-0.1070265993475914,-0.6576682925224304
1789635561326058500,7.04705859375,-0.0008120299316942692,0.014105954207479954,-0.9207723736763
1789635561336098600,7.0570986328125,0.033386461436748505,0.1637602150440216,-1.0220178365707397
1789635561346138400,7.067138427734375,0.06455130130052567,0.27801623940467834,-1.02701735496521
1789635561356178400,7.077178466796875,0.03347959741950035,0.31050780415534973,-1.0505094528198242
1789635561366218500,7.087218505859375,-0.026968300342559814,0.3650085926055908,-1.0394192934036255
1789635561376258300,7.09725830078125,-0.0958438441157341,0.5250839591026306,-0.9849869608879089
1789635561386298400,7.10729833984375,-0.11537546664476395,0.6805548071861267,-0.951141893863678
1789635561396338400,7.11733837890625,-0.07992546260356903,0.4663732051849365,-0.9308945536613464
1789635561406378500,7.12737841796875,-0.06383837014436722,-0.08674857765436172,-0.9443933367729187
1789635561416418600,7.13741845703125,-0.09098103642463684,-0.631737232208252,-0.9226385354995728
1789635561426458400,7.147458251953125,-0.07947111874818802,-0.8928815126419067,-0.8578829765319824
1789635561436497400,7.157497314453125,-0.022943811491131783,-0.7783547639846802,-0.7732901573181152
1789635561446537500,7.167537353515625,0.0031282699201256037,-0.4841063320636749,-0.7717326879501343
1789635561456577500,7.17757763671875,0.010903935879468918,-0.22669745981693268,-0.9237108826637268
1789635561466617300,7.187617431640625,0.012036311440169811,-0.09444887936115265,-1.117360234260559
1789635561476657400,7.197657470703125,0.013608494773507118,0.00598896574229002,-1.2233322858810425
1789635561486697500,7.207697509765625,0.03444400057196617,-0.08132276684045792,-1.2501468658447266
1789635561496737500,7.217737548828125,0.04698992520570755,-0.3210652470588684,-1.290590524673462
1789635561506777600,7.227777587890625,0.04562239348888397,-0.4145757555961609,-1.3409359455108643
1789635561516817700,7.237817626953125,0.03938128054141998,-0.4667515456676483,-1.3844667673110962
1789635561526857500,7.247857421875,0.008412445895373821,-0.5781949758529663,-1.3887208700180054
1789635561536897500,7.2578974609375,-0.003998955246061087,-0.6180977821350098,-1.3715826272964478
1789635561546937300,7.267937255859375,-0.004504955839365721,-0.6896885633468628,-1.3677949905395508
1789635561556976600,7.2779765625,-0.03303757682442665,-0.7686823010444641,-1.3410879373550415
1789635561567016400,7.288016357421875,-0.10889425128698349,-0.703244686126709,-1.2645362615585327
1789635561577056500,7.298056396484375,-0.14829248189926147,-0.6220104694366455,-1.198224425315857
1789635561587096600,7.3080966796875,-0.10428693890571594,-0.8486811518669128,-1.1477715969085693
1789635561597136400,7.318136474609375,-0.06002848595380783,-1.1340041160583496,-1.106217622756958
1789635561607176400,7.328176513671875,-0.0922418162226677,-1.0633976459503174,-1.098455786705017
1789635561617216300,7.33821630859375,-0.14887547492980957,-0.8681866526603699,-1.1575812101364136
1789635561627256300,7.34825634765625,-0.156292125582695,-0.6770031452178955,-1.2621217966079712
1789635561637296400,7.35829638671875,-0.07226007431745529,-0.7808275818824768,-1.4048855304718018
1789635561647336400,7.36833642578125,0.029114749282598495,-1.0497101545333862,-1.4933475255966187
1789635561657376500,7.37837646484375,0.08293657749891281,-1.3201755285263062,-1.4525222778320312
1789635561667416600,7.38841650390625,0.06921117752790451,-1.2628391981124878,-1.2974141836166382
1789635561677455400,7.398455322265625,0.05528661981225014,-0.9067568778991699,-1.1235219240188599
1789635561687495400,7.408495361328125,0.05891970545053482,-0.7825502157211304,-1.012502670288086
1789635561697535500,7.418535400390625,0.035747431218624115,-0.9194327592849731,-0.98905348777771
1789635561707575600,7.428575439453125,-0.04292953759431839,-0.8516182899475098,-1.0764206647872925
1789635561717615400,7.438615478515625,-0.08016102015972137,-0.6926200985908508,-1.2818125486373901
1789635561727655400,7.448655517578125,0.02884509041905403,-0.6777740120887756,-1.5430350303649902
1789635561737695500,7.458695556640625,0.18660776317119598,-0.7829226851463318,-1.6831930875778198
1789635561747735600,7.468735595703125,0.2609741687774658,-0.6879626512527466,-1.7398345470428467
1789635561757775600,7.478775634765625,0.2866993844509125,-0.45194828510284424,-1.7182972431182861
1789635561767815400,7.4888154296875,0.32719194889068604,-0.25578543543815613,-1.6653878688812256
1789635561777855500,7.49885546875,0.33942314982414246,-0.315254807472229,-1.7143373489379883
1789635561787895600,7.5088955078125,0.22312290966510773,-0.48646384477615356,-1.7177654504776
1789635561797934600,7.5189345703125,0.10737653821706772,-0.5427113771438599,-1.6557379961013794
1789635561807974400,7.528974365234375,0.08236546069383621,-0.5036265254020691,-1.5036603212356567
1789635561818014500,7.539014404296875,0.11809952557086945,-0.3439537286758423,-1.3395320177078247
1789635561828054500,7.549054443359375,0.08231889456510544,-0.14257480204105377,-1.2705281972885132
1789635561838094600,7.559094482421875,-0.04067561775445938,0.018973803147673607,-1.3509021997451782
1789635561848134400,7.569134521484375,-0.11354050040245056,0.04208977520465851,-1.477365255355835
1789635561858174500,7.579174560546875,-0.09011980891227722,-0.09182002395391464,-1.5125629901885986
1789635561868214300,7.58921435546875,-0.06835059821605682,-0.27654755115509033,-1.3475005626678467
1789635561878254300,7.59925439453125,-0.2068798542022705,-0.2674943208694458,-1.1808991432189941
1789635561888294400,7.60929443359375,-0.3541041910648346,0.1592532843351364,-1.1589711904525757
1789635561898334500,7.61933447265625,-0.34094172716140747,0.5684038996696472,-1.2278244495391846
1789635561908374500,7.62937451171875,-0.24956919252872467,0.5135752558708191,-1.2185499668121338
1789635561918414300,7.639414306640625,-0.21119782328605652,0.06867336481809616,-0.9934433698654175
1789635561928453400,7.649453369140625,-0.21818356215953827,-0.016881750896573067,-0.7517727017402649
1789635561938493400,7.659493408203125,-0.19102366268634796,0.4890076816082001,-0.6071873307228088
1789635561948533500,7.669533447265625,-0.17914649844169617,0.6816312074661255,-0.57624751329422
1789635561958573300,7.6795732421875,-0.23749852180480957,0.3503250181674957,-0.4857691824436188
1789635561968613400,7.68961328125,-0.33438563346862793,0.1468224674463272,-0.28334203362464905
1789635561978653400,7.6996533203125,-0.3658640682697296,0.5298758149147034,-0.12152323871850967
1789635561988693500,7.709693603515625,-0.23581498861312866,0.8354469537734985,-0.1500488817691803
1789635561998733600,7.719733642578125,-0.17993885278701782,0.4245426058769226,-0.1443108171224594
1789635562008773600,7.729773681640625,-0.33015790581703186,0.05570574104785919,0.18654407560825348
1789635562018813400,7.7398134765625,-0.5123166441917419,0.27637505531311035,0.6150230169296265
1789635562028853500,7.749853515625,-0.5179052948951721,0.5222525000572205,0.8624013662338257
1789635562038893600,7.7598935546875,-0.36567774415016174,0.5392521023750305,0.8732656836509705
1789635562048932600,7.7699326171875,-0.31163713335990906,0.3142496347427368,0.8990530967712402
1789635562058972400,7.779972412109375,-0.4275527894496918,0.3208023011684418,1.141931414604187
1789635562069012500,7.790012451171875,-0.5234044790267944,0.4760558009147644,1.3837025165557861
1789635562079052500,7.800052490234375,-0.536698579788208,0.6473172903060913,1.4872381687164307
1789635562089092600,7.810092529296875,-0.4679807126522064,0.502093493938446,1.5356512069702148
1789635562099132400,7.82013232421875,-0.38547438383102417,0.32440152764320374,1.6728578805923462
1789635562109172200,7.830172119140625,-0.3112560212612152,0.3291836380958557,1.833504319190979
1789635562119212300,7.84021240234375,-0.26508745551109314,0.6919762492179871,1.8974696397781372
1789635562129252400,7.85025244140625,-0.18058404326438904,0.8315650820732117,1.7676893472671509
1789635562139292400,7.86029248046875,-0.08593741804361343,0.5674166083335876,1.7152069807052612
1789635562149332500,7.87033251953125,-0.04095102846622467,0.3936200439929962,1.923525333404541
1789635562159372500,7.88037255859375,-0.014770637266337872,0.48965591192245483,2.1730334758758545
1789635562169412400,7.890412353515625,0.05937575921416283,0.69974684715271,2.2355852127075195
1789635562179451400,7.900451416015625,0.1454344540834427,0.8838005661964417,2.174983263015747
1789635562189491500,7.910491455078125,0.2516959011554718,0.8507741689682007,2.074486017227173
1789635562199531500,7.920531494140625,0.2874946594238281,0.7702375054359436,2.0226352214813232
1789635562209571300,7.9305712890625,0.2233055830001831,0.8688615560531616,2.0091702938079834
1789635562219611400,7.940611328125,0.13035224378108978,0.9636991024017334,1.9848624467849731
1789635562229651500,7.9506513671875,0.0974281057715416,0.7114136219024658,1.9680068492889404
1789635562239691500,7.96069140625,0.10576599836349487,0.4615853428840637,2.0276424884796143
1789635562249731600,7.970731689453125,0.1274566501379013,0.4766359329223633,2.106325626373291
1789635562259771400,7.980771484375,0.15713024139404297,0.6088485717773438,2.104530096054077
1789635562269811500,7.9908115234375,0.16534316539764404,0.6608888506889343,1.9935358762741089
1789635562279851500,8.0008515625,0.17454837262630463,0.47953566908836365,1.8117389678955078
1789635562289891600,8.0108916015625,0.15774089097976685,0.1387229710817337,1.6708039045333862
1789635562299931600,8.020931640625,0.13354413211345673,-0.11433516442775726,1.6611262559890747
1789635562309970400,8.030970458984376,0.14717444777488708,-0.053991131484508514,1.7280714511871338
1789635562320010500,8.041010498046875,0.18682855367660522,0.221263125538826,1.770269513130188
1789635562330050800,8.05105078125,0.16598719358444214,0.42211660742759705,1.7476768493652344
1789635562340090600,8.061090576171875,0.09095130860805511,0.3072086572647095,1.6548137664794922
1789635562350130700,8.071130615234376,0.07498326152563095,-0.1618773341178894,1.5186703205108643
1789635562360170500,8.08117041015625,0.08594893664121628,-0.4695636034011841,1.4697113037109375
1789635562370210600,8.09121044921875,-0.014404029585421085,-0.1794406771659851,1.5571708679199219
1789635562380250600,8.101250732421875,-0.09007136523723602,0.4234890341758728,1.7133265733718872
1789635562390290700,8.111290771484375,-0.04378855228424072,0.7218466997146606,1.810389757156372
1789635562400330800,8.121330810546874,0.02840731106698513,0.5792637467384338,1.77629554271698
1789635562410370600,8.13137060546875,0.07546856254339218,0.17211994528770447,1.6320339441299438
1789635562420410600,8.14141064453125,0.08088758587837219,-0.26331019401550293,1.4976041316986084
1789635562430450700,8.15145068359375,0.0034868107177317142,-0.4535597562789917,1.4728708267211914
1789635562440489700,8.16148974609375,-0.09545651078224182,-0.25632545351982117,1.5370593070983887
1789635562450529800,8.17152978515625,-0.13927403092384338,0.09937246143817902,1.5800073146820068
1789635562460569600,8.181569580078126,-0.09305291622877121,0.2378849983215332,1.5175364017486572
1789635562470609700,8.191609619140625,-0.07061392068862915,0.2944177985191345,1.3715016841888428
1789635562480649700,8.201649658203126,-0.04533790796995163,0.21512974798679352,1.205906629562378
1789635562490689800,8.211689697265625,-0.04864821583032608,0.01307651586830616,1.057163953781128
1789635562500729900,8.221729736328125,-0.1274346262216568,-0.16626253724098206,0.9573901891708374
1789635562510769700,8.231769775390624,-0.17284952104091644,-0.23158934712409973,0.8762401938438416
1789635562520809700,8.241809814453125,-0.1293785125017166,-0.075017549097538,0.8133550882339478
1789635562530849800,8.251849853515624,-0.09695612639188766,0.31015250086784363,0.7682632803916931
1789635562540889900,8.261889892578125,-0.0778483971953392,0.6914128065109253,0.6544866561889648
1789635562550929700,8.2719296875,-0.014359972439706326,0.9292344450950623,0.4308527708053589
1789635562560969500,8.281969482421875,0.07163318991661072,0.947446882724762,0.21657121181488037
1789635562571008800,8.2920087890625,0.13337139785289764,0.8687752485275269,0.047555819153785706
1789635562581048800,8.302048828125,0.11547637730836868,0.710067868232727,-0.07115410268306732
1789635562591089000,8.3120888671875,0.046310361474752426,0.48848381638526917,-0.14076007902622223
1789635562601128700,8.322128662109375,0.006887292955070734,0.2634254992008209,-0.14876490831375122
1789635562611168500,8.33216845703125,-0.03700639680027962,0.19688507914543152,-0.1595134288072586
1789635562621208600,8.34220849609375,-0.021812453866004944,0.3034619092941284,-0.18585817515850067
1789635562631248600,8.35224853515625,0.045643553137779236,0.2155086100101471,-0.19171260297298431
1789635562641288700,8.362288818359374,0.06967999786138535,0.04639036953449249,-0.17673684656620026
1789635562651328800,8.372328857421875,-0.04106995463371277,0.055363625288009644,-0.33363404870033264
1789635562661368600,8.38236865234375,-0.08359155058860779,0.13110309839248657,-0.5834043025970459
1789635562671408600,8.39240869140625,-0.0652005597949028,0.07837731391191483,-0.7477388978004456
1789635562681448700,8.40244873046875,-0.05375056341290474,0.05889309197664261,-0.8288012742996216
1789635562691487700,8.41248779296875,-0.058471549302339554,0.21357719600200653,-0.8762798309326172
1789635562701527600,8.422527587890626,-0.03705654665827751,0.5823444128036499,-0.8758036494255066
1789635562711567600,8.432567626953125,0.007232620380818844,0.9561153650283813,-0.7635524868965149
1789635562721607700,8.442607666015626,0.06581540405750275,1.0187221765518188,-0.5929907560348511
1789635562731647700,8.452647705078125,0.1025659590959549,0.8168264627456665,-0.4700790047645569
1789635562741687800,8.462687744140625,0.13569000363349915,0.5191137194633484,-0.418022483587265
1789635562751727900,8.472727783203124,0.16572913527488708,0.12684181332588196,-0.3759181797504425
1789635562761767700,8.482767578125,0.13100850582122803,-0.2874767482280731,-0.3516351580619812
1789635562771807700,8.492807861328124,0.06998644024133682,-0.5078371167182922,-0.3748057186603546
1789635562781847800,8.502847900390625,0.07351216673851013,-0.5078056454658508,-0.44753333926200867
1789635562791888000,8.512887939453124,0.15680758655071259,-0.3780641555786133,-0.5927472710609436
1789635562801927700,8.522927734375,0.2596670091152191,-0.24815437197685242,-0.8473765254020691
1789635562811967500,8.532967529296876,0.3271706998348236,-0.03410172834992409,-1.158446192741394
1789635562822006800,8.5430068359375,0.3230382800102234,0.29237329959869385,-1.4296274185180664
1789635562832046800,8.553046875,0.279919296503067,0.6003381013870239,-1.5465240478515625
1789635562842087000,8.5630869140625,0.2016766369342804,0.7295371294021606,-1.5148987770080566
1789635562852126700,8.573126708984375,0.11026415973901749,0.6343216300010681,-1.452769160270691
1789635562862166500,8.58316650390625,-0.026563113555312157,0.4995996057987213,-1.4435362815856934
1789635562872206600,8.59320654296875,-0.11773963272571564,0.49353983998298645,-1.3875927925109863
1789635562882246700,8.60324658203125,-0.11907527595758438,0.45945510268211365,-1.2367385625839233
1789635562892286700,8.61328662109375,-0.002754261950030923,0.1425975114107132,-1.0677872896194458
1789635562902326800,8.623326904296874,0.13846513628959656,-0.17049024999141693,-0.9553728103637695
1789635562912366600,8.63336669921875,0.2517469525337219,-0.32386860251426697,-0.9274439811706543
1789635562922406700,8.64340673828125,0.3492316007614136,-0.47098708152770996,-0.9126168489456177
1789635562932446700,8.65344677734375,0.4521971344947815,-0.5699743628501892,-0.8450276851654053
1789635562942486800,8.66348681640625,0.5020454525947571,-0.5984267592430115,-0.8439174294471741
1789635562952525600,8.673525634765625,0.48314982652664185,-0.7487813830375671,-0.9630811214447021
1789635562962565600,8.683565673828125,0.4122611880302429,-0.8180361390113831,-1.1942914724349976
1789635562972605700,8.693605712890625,0.3479178845882416,-0.6717579960823059,-1.3664368391036987
1789635562982645800,8.703645751953125,0.3247034549713135,-0.40320640802383423,-1.3968009948730469
1789635562992685800,8.713685791015624,0.2925966680049896,-0.42362087965011597,-1.3517704010009766
1789635563002725600,8.7237255859375,0.21224574744701385,-0.9170581102371216,-1.3072103261947632
1789635563012765700,8.733765625,0.11424141377210617,-1.2352136373519897,-1.2725969552993774
1789635563022805800,8.7438056640625,0.06072598695755005,-1.2909239530563354,-1.2403572797775269
1789635563032845800,8.753845703125,0.06989312171936035,-1.1899101734161377,-1.1728790998458862
1789635563042886000,8.763885986328125,0.062047526240348816,-1.0207735300064087,-1.1675019264221191
1789635563052926000,8.773926025390624,0.06725560128688812,-0.9902939796447754,-1.2357823848724365
1789635563062965500,8.783965576171875,0.10749099403619766,-1.0004920959472656,-1.296759009361267
1789635563073005600,8.794005615234376,0.16452470421791077,-0.976938009262085,-1.3143826723098755
1789635563083045600,8.804045654296875,0.25760942697525024,-0.9558342099189758,-1.3385053873062134
1789635563093085000,8.8140849609375,0.3310551345348358,-0.8164355158805847,-1.4247627258300781
1789635563103124700,8.824124755859375,0.3591943681240082,-0.6745615601539612,-1.523166298866272
1789635563113164500,8.83416455078125,0.3527010381221771,-0.5494281649589539,-1.5751445293426514
1789635563123204600,8.84420458984375,0.33785155415534973,-0.44481009244918823,-1.5862956047058105
1789635563133244700,8.85424462890625,0.36834076046943665,-0.406084805727005,-1.6652641296386719
1789635563143284700,8.86428466796875,0.37874627113342285,-0.36291638016700745,-1.7796586751937866
1789635563153324500,8.874324462890625,0.42145511507987976,-0.34220871329307556,-1.7663074731826782
1789635563163364600,8.884364501953126,0.43354371190071106,-0.4888927638530731,-1.7686654329299927
1789635563173404700,8.89440478515625,0.36596494913101196,-0.5441898703575134,-1.852004051208496
1789635563183444700,8.90444482421875,0.274103581905365,-0.5590304732322693,-1.9929633140563965
1789635563193484800,8.91448486328125,0.1502751111984253,-0.7137784957885742,-1.971159815788269
1789635563203524600,8.924524658203126,0.030932016670703888,-0.7211853265762329,-1.7853288650512695
1789635563213564700,8.934564697265625,-0.03716900572180748,-0.5509294867515564,-1.6456929445266724
1789635563223603700,8.944603759765625,-0.05225953087210655,-0.27689775824546814,-1.5378437042236328
1789635563233643800,8.954643798828124,-0.017210999503731728,0.012785742059350014,-1.493399977684021
1789635563243683800,8.964683837890625,0.09315092116594315,0.16320498287677765,-1.584324836730957
1789635563253723600,8.9747236328125,0.19959001243114471,0.10613611340522766,-1.6488701105117798
1789635563263763700,8.984763671875,0.23056866228580475,0.011794719845056534,-1.6198489665985107
1789635563273803800,8.9948037109375,0.19275763630867004,-0.06009411811828613,-1.495665431022644
1789635563283843800,9.00484375,0.10942994803190231,0.05241292342543602,-1.3470737934112549
1789635563293884000,9.0148837890625,0.039952341467142105,0.1903177946805954,-1.2211859226226807
1789635563303923700,9.024923828125,0.009078734554350376,0.22929571568965912,-1.095893144607544
1789635563313963800,9.0349638671875,0.02484464831650257,0.0972553938627243,-0.8999036550521851
1789635563324003600,9.045003662109375,0.09296860545873642,-0.028278853744268417,-0.599142849445343
1789635563334043400,9.05504345703125,0.14754317700862885,-0.18746691942214966,-0.22399750351905823
1789635563344083200,9.065083251953125,0.21869181096553802,-0.1104419156908989,0.07570698112249374
1789635563354122200,9.075122314453125,0.3474058508872986,0.24194782972335815,0.194309800863266
1789635563364162300,9.085162353515624,0.46326184272766113,0.5414161086082458,0.15224450826644897
1789635563374202400,9.095202392578125,0.4775848388671875,0.4658656418323517,0.02009526453912258
1789635563384242200,9.1052421875,0.42364245653152466,0.2038097232580185,-0.09256595373153687
1789635563394282200,9.1152822265625,0.3635828495025635,-0.02559550479054451,-0.1280544400215149
1789635563404322000,9.125322021484376,0.3391490578651428,-0.02122880518436432,-0.0862986296415329
1789635563414362000,9.135362060546875,0.28756895661354065,0.09568263590335846,0.03713516145944595
1789635563424402200,9.145402099609376,0.12572389841079712,0.2443559616804123,0.2166115641593933
1789635563434442200,9.155442138671875,-0.03651614114642143,0.30150046944618225,0.47562557458877563
1789635563444482300,9.165482421875,-0.08581893891096115,0.20911751687526703,0.8496599793434143
1789635563454522000,9.175522216796875,-0.11556032299995422,0.18346275389194489,1.1182537078857422
1789635563464562200,9.185562255859375,-0.20099464058876038,0.24964620172977448,1.1261351108551025
1789635563474602200,9.195602294921875,-0.309248685836792,0.3532769978046417,1.1099295616149902
1789635563484641300,9.205641357421875,-0.3943237066268921,0.4653957486152649,1.2200967073440552
1789635563494681300,9.215681396484374,-0.46667274832725525,0.6712852716445923,1.4387677907943726
1789635563504721200,9.22572119140625,-0.5160084962844849,0.7739600539207458,1.7105475664138794
1789635563514761200,9.23576123046875,-0.5174610018730164,0.7978105545043945,1.938377022743225
1789635563524801300,9.24580126953125,-0.46021124720573425,1.0113035440444946,2.081385374069214
1789635563534841300,9.25584130859375,-0.31343725323677063,1.1465423107147217,2.104693651199341
1789635563544881400,9.26588134765625,-0.14310647547245026,0.9394897222518921,2.071491241455078
1789635563554921200,9.275921142578126,-0.019791988655924797,0.6083179116249084,2.1324098110198975
1789635563564961300,9.285961181640625,0.02609671838581562,0.5150848031044006,2.2996792793273926
1789635563575001300,9.29600146484375,0.020993569865822792,0.6377049684524536,2.4206383228302
1789635563585041400,9.30604150390625,0.039532240480184555,0.6609562039375305,2.353177070617676
1789635563595081200,9.316081298828125,0.11303282529115677,0.34443047642707825,2.1868577003479004
1789635563605121000,9.32612109375,0.16779397428035736,0.049836911261081696,2.0828845500946045
1789635563615161000,9.3361611328125,0.16723977029323578,0.05978009104728699,2.0760281085968018
1789635563625200400,9.346200439453124,0.1355149745941162,0.2734164893627167,2.0780866146087646
1789635563635240200,9.356240234375,0.1419110894203186,0.18771861493587494,1.989501714706421
1789635563645280300,9.3662802734375,0.1410834789276123,-0.11674414575099945,1.8925518989562988
1789635563655320000,9.376320068359375,0.06891421228647232,-0.1719118058681488,1.9433226585388184
1789635563665360100,9.386360107421876,-0.03031870536506176,0.12641990184783936,2.151418447494507
1789635563675400200,9.396400146484375,-0.057857923209667206,0.46782171726226807,2.3372066020965576
1789635563685440300,9.406440185546876,-0.02349361963570118,0.5732816457748413,2.3174304962158203
1789635563695480300,9.416480224609375,0.017270587384700775,0.286146342754364,2.020399808883667
1789635563705520000,9.42652001953125,0.021521219983696938,-0.14295102655887604,1.6446611881256104
1789635563715560200,9.436560302734375,-0.020747940987348557,-0.3539535403251648,1.51446533203125
1789635563725600300,9.446600341796875,-0.007587564643472433,-0.17461830377578735,1.6407465934753418
1789635563735640300,9.456640380859374,-0.041727691888809204,0.2695857882499695,1.792567253112793
1789635563745680400,9.466680419921875,-0.04846787825226784,0.6292069554328918,1.7968966960906982
1789635563755719200,9.47671923828125,0.012917720712721348,0.5875274538993835,1.62130868434906
1789635563765759200,9.48675927734375,0.048762958496809006,0.311261385679245,1.3874419927597046
1789635563775799300,9.49679931640625,0.06595179438591003,-0.07046253979206085,1.1732852458953857
1789635563785839400,9.50683935546875,0.04970286414027214,-0.29045870900154114,1.0788172483444214
1789635563795879400,9.51687939453125,0.007202276028692722,-0.0811195895075798,1.1823664903640747
1789635563805919200,9.526919189453125,-0.03250686451792717,0.3702080547809601,1.4218969345092773
1789635563815959300,9.536959228515625,-0.04575182870030403,0.6893373131752014,1.6520746946334839
1789635563825999400,9.546999267578125,-0.04960070922970772,0.709039568901062,1.7198430299758911
1789635563836039400,9.557039306640625,-0.058310311287641525,0.47768697142601013,1.6220935583114624
1789635563846079200,9.567079345703124,-0.06018011271953583,0.0718107596039772,1.4384996891021729
1789635563856119000,9.577119140625,-0.09912671148777008,-0.32288700342178345,1.269476056098938
1789635563866159000,9.5871591796875,-0.20659424364566803,-0.5370410680770874,1.1548179388046265
1789635563876199200,9.59719921875,-0.3085286021232605,-0.4352782368659973,1.1115338802337646
1789635563886239200,9.6072392578125,-0.324519544839859,-0.08691421896219254,1.0861237049102783
1789635563896278000,9.617278076171875,-0.2885194718837738,0.16440269351005554,1.049098014831543
1789635563906318000,9.627318115234376,-0.25461944937705994,0.20575565099716187,0.9361015558242798
1789635563916358100,9.637358154296875,-0.2218862622976303,0.24145720899105072,0.7493838667869568
1789635563926398200,9.647398193359376,-0.20268064737319946,0.21937356889247894,0.52667236328125
1789635563936438300,9.657438232421875,-0.16172069311141968,0.036353159695863724,0.3205474019050598
1789635563946478300,9.667478271484375,-0.14193527400493622,-0.08859322220087051,0.15157276391983032
1789635563956518100,9.67751806640625,-0.15201587975025177,0.06809306144714355,-0.0312814824283123
1789635563966558200,9.68755810546875,-0.14567478001117706,0.3085339069366455,-0.23389483988285065
1789635563976598300,9.697598388671874,-0.12929953634738922,0.21425028145313263,-0.3802347481250763
1789635563986638300,9.707638427734375,-0.09465455263853073,0.03542928770184517,-0.48594415187835693
1789635563996678400,9.717678466796874,-0.06167902797460556,-0.09292628616094589,-0.5526206493377686
1789635564006718200,9.72771826171875,-0.05022034794092178,-0.09710533916950226,-0.6098852157592773
1789635564016758300,9.73775830078125,-0.0924232006072998,-0.10637899488210678,-0.6761782169342041
1789635564026797300,9.74779736328125,-0.12061941623687744,-0.02701200358569622,-0.7118597626686096
1789635564036837400,9.75783740234375,-0.15059994161128998,0.25275546312332153,-0.7089585661888123
1789635564046877200,9.767877197265625,-0.0993829146027565,0.8790332674980164,-0.6989999413490295
1789635564056917200,9.777917236328125,0.010945718735456467,1.1712381839752197,-0.6891582608222961
1789635564066957300,9.787957275390625,0.09529484808444977,1.1412192583084106,-0.6577379107475281
1789635564076997400,9.797997314453125,0.11293376237154007,0.9554259777069092,-0.7005444765090942
1789635564087037400,9.808037353515624,0.09610090404748917,0.5793979167938232,-0.8291032910346985
1789635564097077200,9.8180771484375,0.0790630653500557,-0.06500527262687683,-1.0034359693527222
1789635564107117000,9.828116943359374,0.11312840133905411,-0.6731169819831848,-1.1664968729019165
1789635564117157000,9.8381572265625,0.128573939204216,-0.6969003677368164,-1.2263468503952026
1789635564127197200,9.848197265625,0.17638640105724335,-0.44252848625183105,-1.1964021921157837
1789635564137237200,9.8582373046875,0.25844159722328186,-0.05260815471410751,-1.1590808629989624
1789635564147277300,9.86827734375,0.2536282241344452,0.5031384229660034,-1.163735032081604
1789635564157317000,9.878317138671875,0.11292169988155365,1.0420588254928589,-1.1892571449279785
1789635564167356200,9.888356201171876,-0.0151228541508317,1.2353426218032837,-1.102493166923523
1789635564177396200,9.898396240234375,-0.08719891309738159,0.9002487063407898,-0.9014748334884644
1789635564187436300,9.908436279296875,-0.13696205615997314,0.29501771926879883,-0.7688989043235779
1789635564197476000,9.91847607421875,-0.23248404264450073,-0.057092126458883286,-0.8450378775596619
1789635564207516200,9.92851611328125,-0.2594183385372162,-0.1408115178346634,-1.0363856554031372
1789635564217556200,9.93855615234375,-0.21540960669517517,-0.16461724042892456,-1.1477150917053223
1789635564227596300,9.94859619140625,-0.211699441075325,-0.16289231181144714,-1.1661287546157837
1789635564237636400,9.95863623046875,-0.2870517373085022,-0.22583985328674316,-1.177311658859253
1789635564247676200,9.96867626953125,-0.2669559419155121,-0.3225761353969574,-1.1097654104232788
1789635564257716200,9.97871630859375,-0.2011343091726303,-0.3027869760990143,-0.986487627029419
1789635564267756300,9.98875634765625,-0.11096101999282837,-0.2895115613937378,-0.9754738807678223
1789635564277796400,9.99879638671875,0.0062596146017313,-0.3993629515171051,-1.056667685508728
1789635564287836400,10.00883642578125,0.08581752330064774,-0.4517371952533722,-1.1635116338729858
1789635564297876500,10.01887646484375,0.09725579619407654,-0.7230525612831116,-1.2723661661148071
1789635564307915300,10.028915283203125,0.03827565535902977,-1.0765533447265625,-1.3984010219573975
1789635564317955300,10.038955322265625,-0.06083148717880249,-1.168988823890686,-1.4918369054794312
1789635564327996000,10.048995849609375,-0.1396501660346985,-1.1243315935134888,-1.5218600034713745
1789635564338035700,10.05903564453125,-0.19378609955310822,-0.9748802781105042,-1.5247621536254883
1789635564348075800,10.06907568359375,-0.21143659949302673,-0.9093407392501831,-1.5763777494430542
1789635564358115800,10.07911572265625,-0.1632016897201538,-0.8384037017822266,-1.6308859586715698
1789635564368156000,10.089156005859374,-0.09072063863277435,-0.6238504648208618,-1.6133970022201538
1789635564378195700,10.09919580078125,0.004706011153757572,-0.6094526052474976,-1.5307133197784424
1789635564388235800,10.10923583984375,0.06015108898282051,-0.6755085587501526,-1.4462748765945435
1789635564398275800,10.11927587890625,0.08948607742786407,-0.6164108514785767,-1.3978264331817627
1789635564408316000,10.12931591796875,0.13594217598438263,-0.6423236131668091,-1.4293540716171265
1789635564418356000,10.13935595703125,0.17063863575458527,-0.6334715485572815,-1.4680522680282593
1789635564428394800,10.149394775390626,0.19106009602546692,-0.460905522108078,-1.4903590679168701
1789635564438434800,10.159434814453125,0.26602089405059814,-0.47977641224861145,-1.5248876810073853
1789635564448475000,10.169474853515625,0.36155965924263,-0.5942218899726868,-1.554929494857788
1789635564458515000,10.179514892578124,0.3911937177181244,-0.6527424454689026,-1.6116048097610474
1789635564468555000,10.189554931640625,0.3728872537612915,-0.6662406325340271,-1.680942416191101
1789635564478594800,10.1995947265625,0.3127565383911133,-0.6385070085525513,-1.6776059865951538
1789635564488635000,10.209634765625,0.2355329841375351,-0.6131678223609924,-1.6755735874176025
1789635564498675000,10.219675048828124,0.13458798825740814,-0.5604001879692078,-1.683680534362793
1789635564508715000,10.229715087890625,0.05036648362874985,-0.5470442175865173,-1.6714730262756348
1789635564518755000,10.239755126953124,0.007915697991847992,-0.4260810315608978,-1.660528540611267
1789635564528795000,10.249794921875,-0.02266085334122181,-0.31829705834388733,-1.6568129062652588
1789635564538834700,10.259834716796876,-0.01996093988418579,-0.48116880655288696,-1.5666648149490356
1789635564548874800,10.269874755859375,-0.027127427980303764,-0.5445337891578674,-1.4469900131225586
1789635564558914800,10.279914794921876,-0.07186640799045563,-0.4584532380104065,-1.31074059009552
1789635564568955000,10.289954833984375,-0.07862596213817596,-0.39725375175476074,-1.2189687490463257
1789635564578994000,10.299993896484375,-0.06754055619239807,-0.2295912355184555,-1.1723061800003052
1789635564589033700,10.31003369140625,-0.004424059297889471,-0.0637608990073204,-1.118715524673462
1789635564599073800,10.32007373046875,0.08659239858388901,-0.06653191894292831,-1.0328967571258545
1789635564609113900,10.33011376953125,0.17180320620536804,-0.12624986469745636,-0.914101779460907
1789635564619154000,10.34015380859375,0.19123922288417816,-0.25538840889930725,-0.7815168499946594
1789635564629193700,10.35019384765625,0.18604616820812225,-0.25191545486450195,-0.6855587363243103
1789635564639233800,10.36023388671875,0.15119391679763794,-0.13044336438179016,-0.6159567832946777
1789635564649273900,10.37027392578125,0.11377357691526413,-0.036823660135269165,-0.5769049525260925
1789635564659314000,10.38031396484375,0.0679568201303482,-0.017200689762830734,-0.5783246755599976
1789635564669354000,10.39035400390625,0.023780833929777145,-0.06753363460302353,-0.5258388519287109
1789635564679393800,10.400393798828125,0.03336121141910553,0.04196823015809059,-0.35811561346054077
1789635564689433900,10.410433837890626,0.1118244007229805,0.20574282109737396,-0.20138855278491974
1789635564699474000,10.420473876953125,0.17658421397209167,0.37270915508270264,-0.06849921494722366
1789635564709514000,10.430513916015625,0.1875603348016739,0.4584866464138031,0.10418552905321121
1789635564719552800,10.440552734375,0.1872119903564453,0.5959050059318542,0.24642203748226166
1789635564729592800,10.4505927734375,0.15145209431648254,0.351935476064682,0.3698447346687317
1789635564739633000,10.4606328125,0.03889678791165352,0.05127496272325516,0.6413771510124207
1789635564749673000,10.4706728515625,-0.12481815367937088,0.15590810775756836,1.1323519945144653
1789635564759713000,10.480713134765624,-0.20389406383037567,0.4154406189918518,1.5730754137039185
1789635564769753000,10.490753173828125,-0.17274166643619537,0.5206867456436157,1.7550221681594849
1789635564779793000,10.50079296875,-0.11617452651262283,0.6269835829734802,1.7856866121292114
1789635564789832700,10.510832763671875,-0.014230577275156975,0.7360146641731262,1.7911620140075684
1789635564799872800,10.520872802734376,0.0765288844704628,0.6530452370643616,1.8063122034072876
1789635564809912800,10.530912841796875,0.04176363721489906,0.3825989365577698,1.9191490411758423
1789635564819953000,10.540952880859376,-0.18551291525363922,0.21049296855926514,2.2045888900756836
1789635564829992700,10.55099267578125,-0.31280505657196045,0.5960806012153625,2.4551358222961426
1789635564840032800,10.56103271484375,-0.31230199337005615,0.7500597834587097,2.4234139919281006
1789635564850071800,10.57107177734375,-0.24523670971393585,0.4829511046409607,2.171287775039673
1789635564860112000,10.58111181640625,-0.2091524749994278,0.024462107568979263,2.0308384895324707
1789635564870151700,10.591151611328126,-0.263152152299881,-0.011058907955884933,2.17850399017334
1789635564880191700,10.601191650390625,-0.25904208421707153,0.17481455206871033,2.3148703575134277
1789635564890231800,10.611231689453126,-0.15376485884189606,0.32316234707832336,2.246140718460083
1789635564900271900,10.62127197265625,-0.027462568134069443,0.363160103559494,2.0787858963012695
1789635564910312000,10.63131201171875,0.06155671179294586,0.5444738864898682,2.014188766479492
1789635564920352000,10.64135205078125,0.13535131514072418,0.7562436461448669,2.095964193344116
1789635564930391800,10.651391845703126,0.20014433562755585,0.7332807183265686,2.2043545246124268
1789635564940432000,10.661431884765625,0.2028181552886963,0.5746985077857971,2.2508273124694824
1789635564950472000,10.671471923828125,0.13599486649036407,0.4466840326786041,2.211728811264038
1789635564960512000,10.681511962890625,0.08900020271539688,0.3934873938560486,2.1328301429748535
1789635564970552000,10.691552001953125,0.07961856573820114,0.2447558045387268,2.03879714012146
1789635564980591900,10.701591796875,0.05860516056418419,0.038520339876413345,1.9763500690460205
1789635564990631000,10.711630859375,0.015663016587495804,0.05585237592458725,1.9806617498397827
1789635565000671000,10.7216708984375,-0.021643344312906265,0.053592950105667114,1.9711278676986694
1789635565010711000,10.7317109375,0.0055389003828167915,-0.16082189977169037,1.844877004623413
1789635565020750800,10.741750732421876,-0.049658842384815216,-0.4054156541824341,1.7161749601364136
1789635565030791000,10.751791015625,-0.17632441222667694,-0.05939813330769539,1.7627254724502563
1789635565040831000,10.7618310546875,-0.18900159001350403,0.4980446398258209,1.8446179628372192
1789635565050870800,10.771870849609375,-0.04348193481564522,0.5306464433670044,1.8409394025802612
1789635565060910800,10.781910888671876,0.08962951600551605,0.32315075397491455,1.732020378112793
1789635565070951000,10.791950927734375,0.16367687284946442,0.07850547134876251,1.6035394668579102
1789635565080990700,10.80199072265625,0.18014691770076752,-0.06677529215812683,1.4888736009597778
1789635565091030800,10.81203076171875,0.15143680572509766,-0.159807026386261,1.4107431173324585
1789635565101070800,10.82207080078125,0.09713787585496902,-0.1288304626941681,1.37871515750885
1789635565111111000,10.83211083984375,0.02975083701312542,0.00833574216812849,1.4103444814682007
1789635565121151000,10.84215087890625,-0.030860314145684242,0.23423810303211212,1.4484069347381592
1789635565131189800,10.852189697265626,-0.08153995126485825,0.48969757556915283,1.4071145057678223
1789635565141229800,10.862229736328125,-0.0810595154762268,0.7164303064346313,1.2461810111999512
1789635565151270000,10.872269775390626,0.03439052030444145,0.5516921877861023,1.0640099048614502
1789635565161310000,10.88231005859375,0.11857917159795761,0.12799392640590668,0.9390192627906799
1789635565171349800,10.892349853515626,0.031944554299116135,-0.1140601709485054,0.8808456063270569
1789635565181389800,10.902389892578125,-0.04806265980005264,-0.08624185621738434,0.8124489784240723
1789635565191430000,10.912429931640625,-0.03421364724636078,-0.06514494121074677,0.6955805420875549
1789635565201470000,10.922469970703125,-0.10746495425701141,0.004250108264386654,0.5121984481811523
1789635565211510000,10.932510009765625,-0.1952456682920456,0.17758417129516602,0.2920125126838684
1789635565221550000,10.942550048828124,-0.16307468712329865,0.3191586136817932,0.12838603556156158
1789635565231590000,10.95258984375,-0.12124224007129669,0.3112523853778839,0.014222325757145882
1789635565241630000,10.9626298828125,-0.06855186820030212,0.3125024735927582,-0.11050548404455185
1789635565251669800,10.972669677734375,-0.01667436584830284,0.23763181269168854,-0.22242991626262665
1789635565261709800,10.982709716796874,-0.031002972275018692,0.1602046638727188,-0.30954405665397644
1789635565271748900,10.992748779296875,-0.02998252585530281,0.08543229848146439,-0.3881688416004181
1789635565281789000,11.002788818359376,0.021030591800808907,0.12226328253746033,-0.4782252311706543
1789635565291829000,11.0128291015625,0.10051054507493973,0.13316260278224945,-0.5821629762649536
1789635565301868800,11.022868896484376,0.12526701390743256,0.23265856504440308,-0.7038699388504028
1789635565311908900,11.032908935546875,0.12510590255260468,0.4837402403354645,-0.8050252795219421
1789635565321948700,11.04294873046875,0.17139697074890137,0.506910502910614,-0.8573500514030457
1789635565331989200,11.0529892578125,0.15156717598438263,0.34068936109542847,-0.8399969339370728
1789635565342029000,11.063029052734375,0.16428643465042114,0.09483138471841812,-0.8726171851158142
1789635565352069000,11.073069091796874,0.16653019189834595,-0.1831243634223938,-0.9178825616836548
1789635565362109200,11.083109130859375,0.1262189894914627,-0.10139860212802887,-0.94820237159729
1789635565372149200,11.093149169921874,0.152442067861557,0.0993272215127945,-0.9779226779937744
1789635565382189300,11.103189208984375,0.18341489136219025,0.16893479228019714,-0.9740283489227295
1789635565392229400,11.1132294921875,0.1700841337442398,0.07170218229293823,-1.03258216381073
1789635565402269200,11.123269287109375,0.07738269120454788,-0.08887284994125366,-1.2062894105911255
1789635565412308200,11.13330810546875,-0.026724418625235558,-0.2158176451921463,-1.3850435018539429
1789635565422348300,11.143348388671875,-0.12328238785266876,-0.21236032247543335,-1.4475364685058594
1789635565432388400,11.153388427734376,-0.19968433678150177,-0.33996152877807617,-1.3756883144378662
1789635565442428200,11.16342822265625,-0.2109992951154709,-0.49627313017845154,-1.2054431438446045
1789635565452468200,11.17346826171875,-0.2389823943376541,-0.24771003425121307,-1.0397616624832153
1789635565462508300,11.18350830078125,-0.27808693051338196,0.1882592886686325,-0.970818817615509
1789635565472548400,11.19354833984375,-0.2644858956336975,0.4152088165283203,-0.9550518989562988
1789635565482588400,11.20358837890625,-0.19872257113456726,0.36277514696121216,-0.9684635400772095
1789635565492628200,11.213628173828125,-0.08248160779476166,0.032569654285907745,-1.0314114093780518
1789635565502668000,11.22366796875,-0.0031175471376627684,-0.5164511203765869,-1.1304501295089722
1789635565512708000,11.2337080078125,0.02836105227470398,-0.9951849579811096,-1.2310184240341187
1789635565522748200,11.243748046875,0.10162967443466187,-1.2660566568374634,-1.2537602186203003
1789635565532788200,11.253788330078125,0.15921884775161743,-1.2234346866607666,-1.2130372524261475
1789635565542828300,11.263828369140626,0.16326552629470825,-0.9026040434837341,-1.2724717855453491
1789635565552867000,11.2738671875,0.09625332802534103,-0.5924354791641235,-1.3953262567520142
1789635565562907100,11.2839072265625,-0.023030458018183708,-0.33845970034599304,-1.4784456491470337
1789635565572947200,11.293947265625,-0.10273807495832443,-0.14422345161437988,-1.553151249885559
1789635565582987300,11.3039873046875,-0.16455644369125366,-0.1391189694404602,-1.6580615043640137
1789635565593027000,11.314027099609374,-0.19433407485485077,-0.3184046447277069,-1.744610071182251
1789635565603067100,11.324067138671875,-0.18720240890979767,-0.5459305047988892,-1.778232216835022
1789635565613107200,11.334107177734374,-0.1561054289340973,-0.6734068393707275,-1.7511018514633179
1789635565623147300,11.344147216796875,-0.13815519213676453,-0.7590000629425049,-1.7787189483642578
1789635565633187300,11.354187255859374,-0.15519168972969055,-0.7278535962104797,-1.8707689046859741
1789635565643227100,11.36422705078125,-0.17316749691963196,-0.5903415083885193,-1.9692821502685547
1789635565653267200,11.37426708984375,-0.1437295526266098,-0.6497917175292969,-1.9886811971664429
1789635565663307300,11.384307373046875,-0.11790914833545685,-0.6999203562736511,-1.9121237993240356
1789635565673347300,11.394347412109376,-0.11567094177007675,-0.7412278652191162,-1.8316059112548828
1789635565683387400,11.404387451171875,-0.07979070395231247,-0.7005475759506226,-1.7980316877365112
1789635565693426200,11.41442626953125,0.005466008558869362,-0.6298710107803345,-1.8040874004364014
1789635565703466200,11.42446630859375,0.0941908210515976,-0.8508532047271729,-1.8556160926818848
1789635565713506300,11.43450634765625,0.07617053389549255,-0.9930026531219482,-1.8843351602554321
1789635565723546400,11.44454638671875,0.0062148841097950935,-0.9096683859825134,-1.9255763292312622
1789635565733586400,11.45458642578125,-0.05129778012633324,-0.9442753195762634,-1.9422236680984497
1789635565743626200,11.464626220703124,-0.09429345279932022,-0.9573532938957214,-1.9196802377700806
1789635565753666000,11.474666015625,-0.0885794460773468,-0.9168226718902588,-1.8749333620071411
1789635565763706000,11.4847060546875,-0.0399320162832737,-0.7173239588737488,-1.7908076047897339
1789635565773746200,11.49474609375,0.024891525506973267,-0.48073118925094604,-1.733519434928894
1789635565783786200,11.5047861328125,0.08956212550401688,-0.34870097041130066,-1.7522225379943848
1789635565793826000,11.514825927734375,0.12992766499519348,-0.2647368311882019,-1.7615598440170288
1789635565803866000,11.5248662109375,0.1949673742055893,-0.36609914898872375,-1.6434292793273926
1789635565813906200,11.53490625,0.2480761855840683,-0.5482909679412842,-1.4599508047103882
1789635565823946200,11.5449462890625,0.22201448678970337,-0.3250317871570587,-1.260396957397461
1789635565833986300,11.554986328125,0.17793352901935577,0.027245767414569855,-1.16386079788208
1789635565844025000,11.565025146484375,0.16105762124061584,0.13039132952690125,-1.2036598920822144
1789635565854065200,11.575065185546874,0.08654472976922989,-0.048003777861595154,-1.1335490942001343
1789635565864105200,11.585105224609375,-0.05606994405388832,-0.18034343421459198,-0.9663321375846863
1789635565874145300,11.595145263671874,-0.14146073162555695,-0.16456881165504456,-0.7832635045051575
1789635565884185300,11.605185302734375,-0.15470781922340393,-0.0985003262758255,-0.5588285326957703
1789635565894225200,11.61522509765625,-0.14492177963256836,0.06283513456583023,-0.3686128258705139
1789635565904265200,11.62526513671875,-0.1127324104309082,0.352816641330719,-0.2358553111553192
1789635565914305300,11.63530517578125,-0.12188578397035599,0.41571563482284546,-0.20893901586532593
1789635565924345300,11.645345458984375,-0.17180407047271729,0.35735753178596497,-0.20585401356220245
1789635565934385400,11.655385498046876,-0.21943968534469604,0.2343401163816452,-0.13317179679870605
1789635565944425200,11.66542529296875,-0.2244163453578949,0.22889235615730286,-0.05851886048913002
1789635565954465000,11.675465087890625,-0.28683754801750183,0.11919419467449188,0.11291114240884781
1789635565964505000,11.685505126953124,-0.40380382537841797,0.15535911917686462,0.4962388277053833
1789635565974545200,11.695545166015625,-0.46480679512023926,0.47807177901268005,0.9106026887893677
1789635565984585200,11.705585205078124,-0.4220196604728699,0.6843413710594177,1.158498764038086
1789635565994624300,11.715624267578125,-0.3267139792442322,0.49504098296165466,1.1904233694076538
1789635566004664000,11.7256640625,-0.3040592670440674,0.21334297955036163,1.143706202507019
1789635566014704000,11.7357041015625,-0.3982033431529999,0.2994453012943268,1.2674169540405273
1789635566024744200,11.745744140625,-0.513514518737793,0.5013653635978699,1.513201117515564
1789635566034784300,11.7557841796875,-0.6119584441184998,0.5082072615623474,1.726103663444519
1789635566044824000,11.765823974609376,-0.6604330539703369,0.541865885257721,1.9742220640182495
1789635566054864100,11.775864013671875,-0.5771199464797974,0.6609312891960144,2.1445930004119873
1789635566064904200,11.785904296875,-0.3830713629722595,0.8089322447776794,2.141700267791748
1789635566074944300,11.7959443359375,-0.20846830308437347,0.7541306018829346,2.02555775642395
1789635566084984300,11.805984375,-0.16732779145240784,0.6689445972442627,1.889229655265808
1789635566095024000,11.816024169921874,-0.22558683156967163,0.7534584999084473,1.9427227973937988
1789635566105064200,11.826064208984375,-0.2620343267917633,0.7590674161911011,2.076598644256592
1789635566115104300,11.836104248046874,-0.22282418608665466,0.8376514911651611,2.091377019882202
1789635566125144300,11.846144287109375,-0.10640676319599152,0.8786508440971375,2.1030819416046143
1789635566135183000,11.85618310546875,0.009585014544427395,0.7186406254768372,2.232938528060913
1789635566145223200,11.86622314453125,0.0933893695473671,0.4762844741344452,2.3881890773773193
1789635566155263200,11.87626318359375,0.08877091109752655,0.561997652053833,2.3907556533813477
1789635566165303300,11.88630322265625,0.033909525722265244,1.0144786834716797,2.325331449508667
1789635566175343400,11.89634326171875,0.001593841123394668,1.190799355506897,2.2618823051452637
1789635566185383400,11.906383544921875,-0.0011452198959887028,0.877526044845581,2.171778678894043
1789635566195423200,11.91642333984375,-0.045466333627700806,0.5713221430778503,2.125683307647705
1789635566205463300,11.92646337890625,-0.0877690464258194,0.3433912694454193,2.153687000274658
1789635566215503000,11.936503173828125,-0.06047028303146362,0.17188438773155212,2.214958667755127
1789635566225543200,11.946543212890624,-0.01983603835105896,0.12301190942525864,2.2012135982513428
1789635566235583200,11.956583251953125,0.0582413375377655,0.10347779095172882,2.087017774581909
1789635566245623000,11.966623046875,0.08095996826887131,0.18140481412410736,1.9691129922866821
1789635566255663000,11.9766630859375,0.053888965398073196,0.26121005415916443,1.9329988956451416
1789635566265703200,11.986703125,0.0038487000856548548,0.17820890247821808,1.9497634172439575
1789635566275742200,11.9967421875,0.03130555525422096,0.08959599584341049,1.9352641105651855
1789635566285782000,12.006781982421876,0.09734262526035309,0.007899541407823563,1.8627773523330688
1789635566295822000,12.016822021484375,0.2458273023366928,-0.00005957111716270447,1.746297836303711
1789635566305862100,12.026862060546875,0.4376300275325775,0.01778627187013626,1.640968680381775
1789635566315902200,12.036902099609375,0.5078945159912109,0.0008393852040171623,1.5125083923339844
1789635566325942300,12.0469423828125,0.33152854442596436,-0.05457114428281784,1.3832508325576782
1789635566335981600,12.056981689453124,0.05090578272938728,-0.09219449758529663,1.3223581314086914
1789635566346021600,12.067021728515625,-0.055476315319538116,-0.018272865563631058,1.354356050491333
1789635566356061700,12.077061767578124,-0.030865395441651344,0.10386867821216583,1.3791110515594482
1789635566366101800,12.087101806640625,0.0011892112670466304,0.3324235677719116,1.3114068508148193
1789635566376141800,12.097141845703124,0.014141116291284561,0.5950039625167847,1.1493433713912964
1789635566386181600,12.107181640625,0.06359414756298065,0.604702889919281,0.9788491725921631
1789635566396221700,12.1172216796875,0.10029604285955429,0.40745359659194946,0.8495836853981018
1789635566406261800,12.12726171875,0.03979567810893059,0.2014557123184204,0.7758495807647705
1789635566416301800,12.1373017578125,-0.04150621220469475,0.11481588333845139,0.7413536906242371
1789635566426340900,12.1473408203125,-0.06737881898880005,0.07849062979221344,0.7349687814712524
1789635566436380700,12.157380615234375,-0.10279753059148788,0.10156496614217758,0.7199379205703735
1789635566446420700,12.167420654296874,-0.11156732589006424,0.026598313823342323,0.6922264099121094
1789635566456460800,12.177460693359375,-0.020650124177336693,-0.03489421308040619,0.6820395588874817
1789635566466500900,12.1875009765625,0.05613893270492554,-0.2133353352546692,0.6720221042633057
1789635566476541000,12.197541015625,0.014289339073002338,-0.2984374165534973,0.5479647517204285
1789635566486580700,12.207580810546874,-0.1075337678194046,-0.03495411574840546,0.2985852360725403
1789635566496620500,12.21762060546875,-0.10168816894292831,0.061923541128635406,0.06269669532775879
1789635566506660600,12.22766064453125,-0.01910487934947014,-0.011794624850153923,-0.04139961302280426
1789635566516700700,12.23770068359375,-0.0013901821803301573,0.06999325752258301,-0.1384861320257187
1789635566526740700,12.24774072265625,0.01941603049635887,0.37563014030456543,-0.30921339988708496
1789635566536780500,12.257780517578125,0.09068810939788818,0.4906860589981079,-0.47924089431762695
1789635566546820600,12.267820556640626,0.10994356125593185,0.3392278254032135,-0.6255083084106445
1789635566556860700,12.277860595703125,0.038518622517585754,0.13439205288887024,-0.7859551906585693
1789635566566900700,12.287900634765625,-0.0014389134012162685,-0.03646784648299217,-0.9849268794059753
1789635566576939800,12.297939697265624,0.021484702825546265,0.07124446332454681,-1.1468594074249268
1789635566586979600,12.3079794921875,0.08815480768680573,0.5475611686706543,-1.2485226392745972
1789635566597019600,12.31801953125,0.1850278228521347,1.1081178188323975,-1.2228436470031738
1789635566607059700,12.328059814453125,0.3312755823135376,1.2695239782333374,-1.0726191997528076
1789635566617099800,12.338099853515626,0.45530545711517334,0.8618065118789673,-0.9097311496734619
1789635566627139800,12.348139892578125,0.5166252851486206,0.24753031134605408,-0.8012803196907043
1789635566637179600,12.3581796875,0.5711120963096619,-0.3939875364303589,-0.8159515857696533
1789635566647219700,12.3682197265625,0.5779271125793457,-0.9653051495552063,-1.0442519187927246
1789635566657259800,12.378259765625,0.41168004274368286,-1.1823776960372925,-1.2791657447814941
1789635566667299800,12.3882998046875,0.2106129676103592,-0.9127504825592041,-1.3695992231369019
1789635566677340000,12.39833984375,0.07507377862930298,-0.2730071246623993,-1.2834594249725342
1789635566687379700,12.408379638671875,-0.0005914212670177221,0.47463327646255493,-1.1479321718215942
1789635566697419500,12.41841943359375,-0.0026307564694434404,0.9780557751655579,-1.1030477285385132
1789635566707459600,12.42845947265625,-0.016845645383000374,0.9787900447845459,-1.1046408414840698
1789635566717499600,12.438499755859375,-0.0821894183754921,0.592007040977478,-1.0981441736221313
1789635566727539000,12.4485390625,-0.0921190157532692,0.057429082691669464,-1.0770093202590942
1789635566737578800,12.458578857421875,-0.1083202064037323,-0.471623957157135,-1.058099627494812
1789635566747618600,12.46861865234375,-0.12929873168468475,-0.8829630017280579,-1.0689245462417603
1789635566757658600,12.47865869140625,-0.11197566241025925,-1.0753308534622192,-1.0940698385238647
1789635566767698700,12.48869873046875,-0.05608176440000534,-1.1055246591567993,-1.1027605533599854
