time,seconds_elapsed,z,y,x
1788862326510494200,0.043494140625,8.426243105316162,3.8091748413085935,-0.15682020874023436
1788862326520501200,0.053501220703125,8.24144066467285,3.9734769302368163,-0.20126257705688474
1788862326530507000,0.063507080078125,8.482806119537353,4.134038079071044,-0.1304839904785156
1788862326540513000,0.073512939453125,8.12068311843872,5.2825066879272455,-0.1283890640258789
1788862326550520000,0.08352001953125,8.029703455352783,6.271611248779297,0.184503165435791
1788862326560526000,0.093526123046875,7.969698776245116,6.469132885742187,0.32890345306396485
1788862326570533000,0.103533203125,7.214777065277099,6.417358274841308,0.44113165588378905
1788862326580539000,0.113538818359375,6.373364819335937,6.215197872161865,0.38352117843627925
1788862326590545000,0.123544921875,6.223278302764892,5.769277812957763,0.244507844543457
1788862326600552200,0.13355224609375,6.8764464431762695,5.440673635101318,0.28042086944580075
1788862326610558000,0.143557861328125,7.682544214630126,5.0297687751770015,0.20605098037719724
1788862326620565000,0.15356494140625,7.792078940582275,4.773888472747802,-0.14215572357177733
1788862326630571000,0.163571044921875,7.015908689880371,4.663156645965576,-0.5283703788757323
1788862326640577000,0.173576904296875,6.513425616455078,4.5881882064819335,-0.6009446166992187
1788862326650584000,0.183583984375,6.309319924926758,4.659266068267822,-0.5383960983276367
1788862326660589800,0.19358984375,6.845920372009277,4.794239186859131,-0.4252700698852539
1788862326670597000,0.20359716796875,7.426214999389648,4.707898289489746,-0.3495534423828125
1788862326680603100,0.21360302734375,8.447940557861328,4.374804983520508,-0.11327566604614257
1788862326690609000,0.22360888671875,9.472209955596924,4.187458703613281,0.09801263046264648
1788862326700616200,0.2336162109375,9.300874899291992,4.2122985458374025,0.263062907409668
1788862326710622000,0.2436220703125,8.346935175323486,4.047098631286621,0.34745851593017574
1788862326720629000,0.25362890625,7.690624645233154,4.158877921295166,-0.03486556167602539
1788862326730635000,0.263635009765625,7.8782702003479,4.500650208282471,-0.7266402038574218
1788862326740642000,0.27364208984375,8.46499924468994,4.473266526794434,-1.082029512786865
1788862326750648000,0.28364794921875,8.549544490814208,4.51351904220581,-0.8822633117675781
1788862326760654000,0.293654052734375,8.467094171142577,4.266317720794677,-0.39324762268066404
1788862326770661000,0.3036611328125,7.646331914520263,4.100519255828857,0.7704840217590332
1788862326780667100,0.313667236328125,7.288398766326904,3.9930794563293457,1.468992356109619
1788862326790674000,0.323673828125,7.5531076873779295,4.316147042846679,2.0874445724487303
1788862326800680000,0.333679931640625,8.1717095413208,4.760271450805663,2.267009696960449
1788862326810686200,0.343686279296875,8.63872850265503,5.007772047424316,2.1746832954406736
1788862326820693000,0.35369287109375,9.159916276550293,3.500472464752197,2.0322282966613767
1788862326830699000,0.363698974609375,7.822754649353027,3.0310593017578125,2.4721628517150878
1788862326840706000,0.3737060546875,8.18502728805542,3.3768718040466306,1.968781952667236
1788862326850712000,0.383712158203125,8.206575102996826,2.948459344482422,3.045723786926269
1788862326860718000,0.393718017578125,3.399766357421875,5.14573791809082,6.5123781532287595
1788862326870724900,0.403724853515625,5.979369008636474,5.9956795074462885,4.996698864746094
1788862326880731100,0.413731201171875,7.121403200531005,2.674472891998291,4.178031534576416
1788862326890738000,0.423738037109375,6.522104597473144,2.348113278198242,5.62457825012207
1788862326900744000,0.433743896484375,6.884377236175537,3.7140053253173826,6.075436350250244
1788862326910750200,0.443750244140625,9.201216255187989,3.1476269950866698,5.529259096527099
1788862326920757000,0.453757080078125,9.612570027923583,2.98122997970581,5.262006336212158
1788862326930763000,0.463762939453125,9.259574920654297,3.6604350631713864,4.55826068572998
1788862326940770000,0.47377001953125,9.66584101486206,4.482992971038818,5.210381362915038
1788862326950776000,0.483776123046875,9.831489842224121,4.619312828063965,5.86070638885498
1788862326960782000,0.493781982421875,9.057414517974854,3.9010523300170896,6.430526383972167
1788862326970788900,0.503788818359375,7.86555100402832,3.6728549842834473,6.694487117004394
1788862326980795100,0.513795166015625,7.239616907501221,3.796006732177734,6.629843672180176
1788862326990802200,0.52380224609375,7.489661343383789,3.8340146835327147,6.058228025817871
1788862327000808000,0.533807861328125,8.42055687637329,3.6227263870239255,5.007921685028076
1788862327010814000,0.54381396484375,9.729287358856201,3.145532068634033,3.9737762054443357
1788862327020821000,0.553821044921875,10.568006127929687,2.8104934738159177,2.9472622436523435
1788862327030827000,0.563826904296875,10.918906308746337,2.4178444015502927,3.050362552642822
1788862327040834000,0.573833984375,10.544812299346923,1.6338929954528807,4.417152425384521
1788862327050840000,0.583840087890625,8.699631007385253,0.46582186050415036,5.837811835479736
1788862327060846000,0.59384619140625,6.824073281860351,-0.3660135787963867,6.227917068481445
1788862327070853000,0.60385302734375,4.948216281127929,-0.9732429748535155,6.328174263000488
1788862327080859000,0.61385888671875,3.163488581085205,-1.027262149810791,6.854300077819824
1788862327090866200,0.6238662109375,4.0711902854919435,-0.6416460449218749,6.604255641937256
1788862327100872000,0.633871826171875,4.755931960296631,-0.5002385093688965,6.076034900665283
1788862327110878000,0.6438779296875,3.812766143798828,-0.6317699630737305,6.33341157913208
1788862327120885200,0.65388525390625,2.4350527259826658,-0.9858125335693358,6.766762079620361
1788862327130891000,0.66389111328125,1.6398784996032714,-0.8665513633728027,7.2708911666870115
1788862327140898000,0.67389794921875,1.537227103424072,-1.1665747589111328,7.112724219512939
1788862327150904000,0.683904052734375,1.546205359649658,-1.7690157516479492,7.064241635894775
1788862327160910000,0.69391015625,1.753752716064453,-1.676539712524414,8.765770828247069
1788862327170917000,0.703917236328125,1.5222633430480956,-1.3976152191162108,11.126603302764892
1788862327180923000,0.7139228515625,-0.012569558715820313,-2.4946084922790526,13.040168979644776
1788862327190930200,0.72393017578125,-2.007089179229736,-5.372588525390625,13.697227697753906
1788862327200936200,0.733936279296875,-3.8453871414184566,-7.466766790008545,13.932308373260497
1788862327210942000,0.74394189453125,-4.540154535675049,-6.623558892822265,13.211055123138427
1788862327220949000,0.753948974609375,-2.398990063476562,-4.2323499847412105,10.360758046722411
1788862327230955000,0.763955078125,-1.2150573425292968,-2.7256489524841307,7.101351761627197
1788862327240962000,0.773962158203125,-2.411409984588623,-2.308010400390625,5.331138909149169
1788862327250968000,0.783968017578125,-3.4338837310791015,-2.8185739044189453,4.929361943054199
1788862327260975000,0.79397509765625,-5.31153638305664,-3.0392893699645995,6.896647519683837
1788862327270981000,0.803981201171875,-9.81906992111206,-1.9844939010620115,7.842506813049316
1788862327280987100,0.813987060546875,-13.872752606964111,-1.774253067779541,6.8134490119934075
1788862327290994000,0.823993896484375,-20.663755978393553,-1.8255787658691405,5.978620820617675
1788862327301000200,0.834000244140625,-24.030153150177,-0.376039298248291,5.726331820678711
1788862327311007000,0.844007080078125,-17.245733833312986,-1.4763245986938476,4.5033436851501465
1788862327321013000,0.854012939453125,-10.27202294769287,-4.948216281127929,3.4323873550415036
1788862327331019000,0.86401904296875,-5.8548705223083495,-5.8732759475708,2.399738251495361
1788862327341026000,0.874026123046875,-3.63260246887207,-4.330063339996338,0.6471826362609863
1788862327351032000,0.884031982421875,-2.90476516418457,-2.9037177009582518,-0.23104046020507812
1788862327361038800,0.894038818359375,-2.7451018409729,-3.1000422370910643,2.1398177337646485
1788862327371045000,0.904045166015625,-1.1722609878540038,-4.371812231445312,5.244947649383545
1788862327381051100,0.914051025390625,0.030825346374511717,-5.089025266265869,12.029965516662598
1788862327391058000,0.924057861328125,1.2176011817932129,-3.2781109855651853,11.980585107421874
1788862327401064000,0.93406396484375,-1.0473135887145995,-4.4479777717590325,11.590479874420165
1788862327411071000,0.944071044921875,-4.910507604980468,-5.828235028839111,7.755717002868652
1788862327421077000,0.954076904296875,-6.268768134307861,-6.676530604553222,4.4565071151733395
1788862327431083000,0.9640830078125,-6.579864712524413,-6.604106004333496,3.9221512321472165
1788862327441090000,0.974090087890625,-7.183802081298828,-5.512050772094726,4.945822079467773
1788862327451096000,0.984095947265625,-7.474847220611572,-3.3693899238586424,5.83526799621582
1788862327461102800,0.994102783203125,-6.721721160888672,-2.053776111602783,7.0373068672180175
1788862327471109000,1.004109130859375,-9.058611618804932,-4.421491915893554,5.681290901947021
1788862327481115100,1.014115234375,-13.818733432006836,-7.537695014190674,3.934870428466797
1788862327491122000,1.024121826171875,-11.700313875579834,-8.210914593505859,2.720860549163818
1788862327501128000,1.0341279296875,-7.123198851776123,-5.616348181915283,1.0951976219177246
1788862327511135000,1.044135009765625,-1.4161702819824218,-12.496834840393065,-8.140435282135009
1788862327521141000,1.05414111328125,-1.78113639755249,-21.3348806312561,-9.82535470046997
1788862327531147000,1.06414697265625,-4.412663297271728,-22.52868943405151,-2.5864859809875487
1788862327541153500,1.074153564453125,-6.08456424407959,-22.72830599746704,5.083937587738037
1788862327551159600,1.08415966796875,-7.218218730163573,-18.61776102218628,5.729623847961426
1788862327561166600,1.09416650390625,-7.246949150085449,-13.171251520538329,3.590404664611816
1788862327571172400,1.10417236328125,-6.331167015075684,-8.672845876312255,2.6792612953186032
1788862327581178400,1.114178466796875,-5.5820811706542965,-5.308992543792725,2.833388027191162
1788862327591185700,1.124185546875,-5.589862326049804,-3.5691561248779293,2.1823148132324217
1788862327601191400,1.13419140625,-5.454739569854736,-3.8417958389282223,0.5559036979675293
1788862327611198500,1.144198486328125,-5.515043524169921,-6.866719998931885,-1.5795745452880858
1788862327621204700,1.154204833984375,-6.8782420944213865,-5.451148267364502,-2.30456873550415
1788862327631210500,1.16421044921875,-6.753743608093261,-7.586327235412597,-2.504484574127197
1788862327641217500,1.174217529296875,-6.082170042419433,-8.713547304534911,-2.5192986968994138
1788862327651223300,1.184223388671875,-5.446808776855469,-8.781333139038086,-1.0749965454101562
1788862327661230600,1.194230712890625,-5.697601400756835,-7.962965084075927,2.5172037704467773
1788862327671236600,1.204236572265625,-6.657526628875732,-5.760149919128418,1.5575778175354003
1788862327681243400,1.214243408203125,-7.740005054473876,-4.961833303070068,2.1363760688781737
1788862327691249700,1.224249755859375,-6.233004747009277,-6.277596752929687,2.1287445510864256
1788862327701255700,1.234255615234375,-5.134215822601318,-7.365911045074462,0.23657705154418943
1788862327711262500,1.244262451171875,-4.62829108428955,-7.793425679016113,-1.1737573638916015
1788862327721268700,1.254268798828125,-5.155464362335205,-8.142829483795165,-1.6940473121643065
1788862327731274500,1.2642744140625,-6.914604032135009,-8.400056524658202,-1.188122573852539
1788862327741281500,1.274281494140625,-8.722226285552978,-8.253411672973632,-0.1710357810974121
1788862327751287600,1.28428759765625,-7.741501430511474,-7.193378887939453,0.30256723480224607
1788862327761294600,1.294294677734375,-7.581987744903564,5.391442863464355,1.9654899253845213
1788862327771300600,1.304300537109375,-0.8913912055969238,4.069394634246826,1.8227356513977049
1788862327781306600,1.314306640625,-5.927594397735596,2.718915260314941,3.189076611328125
1788862327791313700,1.324313720703125,-6.285078633117675,-0.8150760276794433,1.881393592071533
1788862327801319700,1.334319580078125,-5.118503874206542,-5.834819083404541,0.2920926025390625
1788862327811326500,1.344326416015625,-6.310666663360595,-9.915885450744629,-0.601992079925537
1788862327821332500,1.35433251953125,-7.432200503540039,-12.609960868835449,-1.133804123687744
1788862327831339500,1.364339599609375,-8.517821318817138,-11.609034937286376,-1.413476805114746
1788862327841345500,1.374345458984375,-7.738508678436279,-8.456769176483153,0.025438392639160156
1788862327851351600,1.3843515625,-7.823203562164307,-7.167790857696533,1.3019967903137206
1788862327861358600,1.394358642578125,-4.60943674621582,-9.164555042266846,0.3573345977783203
1788862327871364600,1.404364501953125,-4.358195209503173,-9.202413356018067,-2.0343232231140136
1788862327881371400,1.414371337890625,-5.454589932250976,-7.453299405670165,-1.9511247154235838
1788862327891377400,1.42437744140625,-0.7026981872558593,-2.7455507537841797,-1.5280992095947266
1788862327901383700,1.4343837890625,-4.518307445526123,-6.992415586090088,-2.986168020629883
1788862327911390500,1.444390380859375,-5.402516046142578,-7.423371884918213,-2.907309003448486
1788862327921396500,1.454396484375,-6.697479869079589,-9.874435834503172,-2.7590181381225585
1788862327931403500,1.464403564453125,-6.665906334686279,-12.681038730621337,-1.6967407890319823
1788862327941409500,1.474409423828125,-5.735310076904296,-10.975618960571289,-0.28790274963378903
1788862327951415600,1.48441552734375,-4.729446104431152,-9.437494031524658,-1.1168950744628905
1788862327961422300,1.49442236328125,-4.996998139953613,-9.471461767578125,-2.4308628730773925
1788862327971428600,1.5044287109375,-4.259883303833008,-9.176226775360107,-2.439392216491699
1788862327981435600,1.514435546875,-3.0316578521728514,-11.840823585510254,-3.282151200866699
1788862327991441400,1.52444140625,-4.075529776000976,-12.144587921142577,-4.249408671569824
1788862328001448700,1.53444873046875,-4.8506525634765625,-12.094459323883056,-4.045901530456542
1788862328011454500,1.544454345703125,-5.389647212219238,-11.374552812194823,-2.9056629898071287
1788862328021460500,1.55446044921875,-4.234893824005127,-10.87805524291992,-2.290652438354492
1788862328031467500,1.564467529296875,-3.9824551864624023,-10.459369227600098,-2.01112939453125
1788862328041473500,1.5744736328125,-3.5627217079162596,-10.537928969573974,-2.29828395614624
1788862328051480600,1.58448046875,-3.1747114013671873,-11.508029554748534,-3.2044892845153807
1788862328061486600,1.594486572265625,-3.482815227508545,-11.72171205291748,-3.716399526977539
1788862328071492400,1.604492431640625,-3.614197043609619,-8.345887712097168,-3.6616321640014644
1788862328081499600,1.614499755859375,-3.7720647155761715,-6.745513539886474,-4.44363828125
1788862328091505400,1.62450537109375,-4.546289677429199,-10.677540853881835,-4.804713819122314
1788862328101512400,1.634512451171875,-4.9634793167114255,-11.712584159088134,-3.902548706054687
1788862328111518700,1.644518798828125,-6.108955173492431,-9.911994873046874,-3.293074745941162
1788862328121524500,1.6545244140625,-7.771428951263427,-9.151835845947264,-1.7362451164245605
1788862328131531500,1.664531494140625,-8.211513143920898,-6.603507453918457,-0.6878840644836426
1788862328141537500,1.67453759765625,-7.299920861816406,-4.55841032333374,-0.49155952835083006
1788862328151544600,1.684544677734375,-5.529109458923339,-3.5660137351989745,-0.500537784576416
1788862328161550600,1.694550537109375,-5.748178910827637,-2.495655955505371,-0.051475335693359374
1788862328171556400,1.704556396484375,-6.247818869781494,-2.6946739685058594,-2.265812596130371
1788862328181563600,1.714563720703125,-5.902754555511474,-4.174140956878662,-3.037044805908203
1788862328191569700,1.724569580078125,-4.631433473968506,-6.211307294464111,-1.483806478881836
1788862328201576400,1.734576416015625,-5.409549013519287,-6.966827555847168,-1.1489175216674803
1788862328211582500,1.74458251953125,-5.890484272003174,-7.5813891944885246,-1.4419079498291014
1788862328221589500,1.754589599609375,-5.992237842559814,-7.120206099700927,-2.287958961486816
1788862328231595500,1.764595458984375,-5.912331362152099,-4.397250624084473,-3.1967081291198727
1788862328241601500,1.7746015625,-5.544222856903076,-6.6899979888916015,-3.1937153770446773
1788862328251608600,1.784608642578125,-5.410746114349365,-9.50004254989624,-3.0258219856262207
1788862328261614600,1.794614501953125,-5.935225915527344,-7.9004165657043455,-3.0110078628540036
1788862328271621400,1.804621337890625,-6.6325371490478515,-5.164143343353271,-3.318962051391601
1788862328281627400,1.81462744140625,-6.4609028175354,-3.26898309173584,-2.8157307899475095
1788862328291633700,1.824633544921875,-6.228365981292725,-4.080318179321289,-2.6033950302124023
1788862328301640400,1.834640380859375,-5.284900889587402,-3.984999025726318,-3.970484178161621
1788862328311646500,1.844646484375,-4.795885200500488,-2.0069395416259765,-5.9777229949951165
1788862328321653500,1.854653564453125,-5.6947582862854,-4.755782322692871,-6.452972024536132
1788862328331659500,1.864659423828125,-6.498162580871582,-6.3335612167358395,-5.141398427581787
1788862328341665500,1.87466552734375,-5.787982513427734,-5.844246252441406,-4.592826972198486
1788862328351672600,1.884672607421875,-7.12484486541748,-1.8695722213745116,-2.990806786346435
1788862328361678600,1.8946787109375,-8.24892254486084,-2.816778253173828,-3.643675651550293
1788862328371685600,1.904685546875,-9.195829301452637,-4.0732852119445795,-4.4856864479064935
1788862328381691400,1.91469140625,-7.862857527160644,-2.48353530960083,-3.4479496658325193
1788862328391698700,1.92469873046875,-6.447734708404541,-1.1827356201171875,-3.4395699600219722
1788862328401704400,1.934704345703125,-5.604077898406982,1.6843208679199217,-1.7137994758605957
1788862328411710500,1.94471044921875,-7.3654621322631835,-1.8631378044128417,-2.2711995498657225
1788862328421717800,1.9547177734375,-4.955698161315918,-3.0850784767150876,-4.5802574134826655
1788862328431723500,1.9647236328125,-8.187122214508056,-5.174169062805175,-5.307346530151367
1788862328441730600,1.97473046875,-8.481758656311035,-3.6146459564208984,-2.1347300552368162
1788862328451736600,1.984736572265625,-9.954342314910889,-8.966135579681396,0.6373065544128418
1788862328461742600,1.99474267578125,-0.9198223503112792,-12.580781536102295,3.2366613693237305
1788862328471749600,2.00474951171875,-4.064157318115234,-12.430844657135008,5.0471267372131345
1788862328481755400,2.01475537109375,-10.768370879364014,-8.519168057250976,2.025793879699707
1788862328491762700,2.0247626953125,-7.704690579986572,-7.63555800704956,-1.8436849159240722
1788862328501768700,2.034768798828125,-8.525003923797607,-11.042806244659424,-3.9625533851623533
1788862328511774500,2.0447744140625,-9.872340908050537,-10.550797803497314,-3.246986363983154
1788862328521781500,2.054781494140625,-9.2963857711792,-11.640009921264648,-0.9891045608520507
1788862328531787500,2.06478759765625,-8.901192859649658,-13.679271185302733,-0.03621230010986328
1788862328541795300,2.07479541015625,-8.152256652832031,-12.164040809631347,-1.4645032279968262
1788862328551801000,2.084801025390625,-8.065616480255127,-10.164583148193358,-2.7980735527038574
1788862328561807400,2.094807373046875,-7.913584674835205,-8.844480207824706,-4.005649015045166
1788862328571814400,2.104814453125,-6.875398979949951,-7.087136189270019,-5.805490113067626
1788862328581820200,2.114820068359375,-6.244377204895019,-6.8487634864807125,-6.885574337005615
1788862328591827500,2.124827392578125,-6.962637702941894,-7.675810522460937,-5.827935753631592
1788862328601833200,2.134833251953125,-7.714117749023437,-8.479214817047119,-4.356698833465576
1788862328611840300,2.14484033203125,-7.965658560943603,-6.024110652160644,-4.338443045806884
1788862328621846300,2.15484619140625,-7.023689845275879,-4.770446807861328,-4.055029424285888
1788862328631852300,2.164852294921875,-6.919242797851562,-6.114491764831542,-3.7793969581604
1788862328641859300,2.174859375,-6.93929423675537,-7.192331424713134,-3.690961134338379
1788862328651865300,2.184865234375,-7.1309800071716305,-7.846995941162109,-3.4434605377197265
1788862328661872400,2.194872314453125,-7.720851441192626,-8.924685963439941,-3.3270424819946287
1788862328671878400,2.20487841796875,-8.238447912597655,-10.168024813079834,-3.2142157287597652
1788862328681884400,2.214884521484375,-7.900865478515625,-10.250325495147704,-3.264344326019287
1788862328691891200,2.22489111328125,-7.710825721740722,-9.913191973876952,-3.3625065940856933
1788862328701897500,2.2348974609375,-8.029853092956543,-10.152163227081298,-3.0837317382812497
1788862328711904300,2.244904296875,-7.463774037933349,-9.694571434783935,-3.8416462013244628
1788862328721910300,2.25491015625,-8.920196835327149,-7.997082457733153,-4.344428549957275
1788862328731916300,2.264916259765625,-8.633341548919677,-6.7185787712097165,-3.684825992584228
1788862328741923300,2.27492333984375,-5.80354482421875,-1.584512586212158,-3.820996212005615
1788862328751929300,2.284929443359375,-4.906168114471435,4.843769233703613,-3.7517140014648436
1788862328761936100,2.29493603515625,-7.688080805969238,5.1234419151306145,-2.5022400100708007
1788862328771942400,2.3049423828125,-7.034613390350342,2.027589530944824,-2.2393267402648926
1788862328781948400,2.314948486328125,-5.616048906707763,-2.3050176483154297,-3.5667619232177734
1788862328791955200,2.324955078125,-7.243058572387695,-6.4004492256164545,-4.670937801361084
1788862328801961200,2.334961181640625,-9.108141665649413,-9.130587306213378,-4.51351904220581
1788862328811968300,2.34496826171875,-9.883264453125,-9.351901322174072,-3.67734411239624
1788862328821974300,2.354974365234375,-8.224082702636718,-7.400477331542969,-3.8616976402282712
1788862328831980300,2.364980224609375,-6.377255397033691,-5.989993278503418,-4.458003491210937
1788862328841987300,2.3749873046875,-6.227617793273925,-5.133617272186279,-4.486284998321533
1788862328851993300,2.384993408203125,-6.989572471618652,-4.236839112854003,-4.7369279846191406
1788862328862000000,2.395000244140625,-7.243657122802734,-3.2601544731140133,-5.033360077667236
1788862328872006100,2.405006103515625,-6.616825200653076,-2.479195819091797,-5.22833787536621
1788862328882012400,2.415012451171875,-6.260986978912353,-2.120963395690918,-5.540481916809082
1788862328892019200,2.425019287109375,-6.411223133087158,-2.492363928222656,-5.859958200836181
1788862328902025200,2.435025146484375,-6.387580391693115,-3.4771289985656737,-5.729623847961426
1788862328912032300,2.4450322265625,-6.074688162231445,-4.3631332504272455,-5.177012177276611
1788862328922038300,2.455038330078125,-5.912480999755859,-4.482244783020019,-4.405929605102539
1788862328932044300,2.465044189453125,-5.858611462402344,-3.844040402984619,-3.5761890922546384
1788862328942051000,2.475051025390625,-6.332064840698242,-3.3795652809143064,-3.1323639595031736
1788862328952057300,2.485057373046875,-6.937498585510253,-3.5413235305786133,-3.203142546081543
1788862328962064400,2.495064453125,-7.812878567504883,-3.9564182434082027,-3.3366192886352537
1788862328972070100,2.505070068359375,-7.848641954803466,-4.565443290710449,-3.575740179443359
1788862328982076200,2.515076171875,-7.656956184387207,-5.041141233062744,-3.640233986663818
1788862328992083200,2.525083251953125,-8.563760063171387,-5.5264159820556635,-3.283348301696777
1788862329002089200,2.535089111328125,-7.97388862915039,-6.466289771270752,-2.8520927276611325
1788862329012096300,2.54509619140625,-6.691793640136718,-6.298396379852295,-2.6126725616455078
1788862329022102300,2.555102294921875,-7.227795536804199,-5.229534976196288,-2.671180864715576
1788862329032109300,2.565109375,-7.509712782287597,-4.790498246765137,-3.025522710418701
1788862329042115300,2.575115234375,-8.003516874694824,-4.06700043258667,-4.395006060028076
1788862329052121300,2.585121337890625,-9.446771562957764,-3.268234903717041,-5.072714767456055
1788862329062128400,2.59512841796875,-9.083750736236572,-2.920327474975586,-4.708197564697265
1788862329072134100,2.605134033203125,-8.232163133239746,-2.7373206855773926,-4.191947831726074
1788862329082141400,2.615141357421875,-7.692270658874511,-3.0068180099487303,-3.9360675292968748
1788862329092147500,2.6251474609375,-7.447912451934814,-3.510647821807861,-4.103811283111572
1788862329102153200,2.6351533203125,-8.214805171203613,-3.9523780281066894,-4.457255303192138
1788862329112160300,2.64516015625,-8.578574185943603,-4.313902478790283,-4.550329892730713
1788862329122166300,2.655166259765625,-9.062502196502685,-4.343381086730957,-4.39859736251831
1788862329132173300,2.66517333984375,-8.833706300354004,-4.159027558898925,-4.17563733291626
1788862329142179300,2.675179443359375,-8.453926062011718,-3.7370495162963864,-3.8908769729614257
1788862329152185000,2.68518505859375,-8.166621862792969,-3.413533016967773,-3.4913445709228514
1788862329162192400,2.6951923828125,-7.748085485076904,-3.386747885894775,-3.197306679534912
1788862329172198400,2.705198486328125,-7.824251025390624,-3.5627217079162596,-3.2047885597229
1788862329182205200,2.715205078125,-7.963413996887207,-3.619284722137451,-3.4874539932250976
1788862329192211500,2.72521142578125,-8.292167812347412,-3.56900648727417,-3.8371570732116695
1788862329202217200,2.73521728515625,-8.145074047851562,-3.5181297019958495,-3.8022915115356444
1788862329212224300,2.745224365234375,-7.742099980926513,-3.220949420928955,-3.6137481307983395
1788862329222230300,2.755230224609375,-7.592462377166748,-2.708739903259277,-3.463511976623535
1788862329232237300,2.7652373046875,-7.8429557258605955,-2.3307553161621093,-3.5175311515808105
1788862329242243300,2.775243408203125,-7.934683576965331,-2.4501661239624024,-3.6632781776428223
1788862329252249300,2.785249267578125,-7.7973162567138665,-2.666691736602783,-3.9854479385375976
1788862329262256400,2.79525634765625,-8.434173898315429,-2.8658593872070313,-4.250755410003662
1788862329272262400,2.805262451171875,-8.531288703155518,-3.21122297668457,-4.467580297851562
1788862329282269200,2.815269287109375,-8.051101632690429,-3.2722751190185546,-4.431816910552978
1788862329292275200,2.825275146484375,-8.121431306457518,-3.0337527786254883,-4.005050464630127
1788862329302281500,2.835281494140625,-8.532036891174316,-2.789394571685791,-3.7556045791625974
1788862329312288300,2.845288330078125,-7.962965084075927,-2.686743175506592,-3.9815573608398434
1788862329322294300,2.855294189453125,-7.960271607208251,-2.60459213104248,-4.672284539794922
1788862329332301300,2.86530126953125,-7.8900915710449215,-2.7627590782165528,-5.418676907348632
1788862329342307300,2.875307373046875,-7.296329559326171,-3.0192379310607906,-5.577442404937744
1788862329352314000,2.885314208984375,-7.576900066375732,-3.1176994743347164,-5.089025266265869
1788862329362320100,2.895320068359375,-8.116343627929687,-3.2887352554321287,-4.709245027923584
1788862329372326400,2.905326416015625,-7.842506813049316,-3.426401850891113,-4.7478515296936035
1788862329382333200,2.915333251953125,-7.573458401489257,-3.2399533966064453,-4.735132333374023
1788862329392339200,2.925339111328125,-7.756614828491211,-3.001879969024658,-4.695029455566406
1788862329402346500,2.935346435546875,-7.338228088378906,-2.909403929901123,-4.909909054565429
1788862329412352300,2.945352294921875,-7.582436657714843,-2.769492770385742,-5.2168157798767085
1788862329422358300,2.955358154296875,-8.751106343078613,-3.040336833190918,-5.246593663024902
1788862329432365000,2.965364990234375,-8.559270935058594,-3.65175608215332,-4.785410568237304
1788862329442371300,2.975371337890625,-8.56824919128418,-4.0355765357971185,-4.0909424491882325
1788862329452378400,2.98537841796875,-9.280823460388183,-4.474164352416992,-3.459022848510742
1788862329462384000,2.995384033203125,-8.98319426651001,-4.597914650726318,-3.048417263793945
1788862329472390100,3.00539013671875,-9.073276103973388,-4.407276343536377,-2.9569886878967284
1788862329482397400,3.0153974609375,-9.569474398040771,-4.532074105072021,-3.131466133880615
1788862329492403200,3.0254033203125,-9.50602805404663,-4.709394665527343,-3.3955765045166015
1788862329502410200,3.03541015625,-10.133308889007568,-4.518606720733643,-3.605368424987793
1788862329512416300,3.045416259765625,-10.749067628479004,-4.099920705413818,-3.6387376106262206
1788862329522422300,3.05542236328125,-10.190769728851318,-3.349188847351074,-3.689614395904541
1788862329532429300,3.06542919921875,-9.840617736053467,-2.34287596206665,-3.8193501983642575
1788862329542434300,3.075434326171875,-9.880122063446045,-1.5352818145751952,-4.012233069610596
1788862329552441300,3.08544140625,-8.973916735076903,-1.2771569480895995,-4.261978230285644
1788862329562447400,3.095447265625,-8.23515588531494,-1.5478513732910155,-4.670638526153565
1788862329572454100,3.1054541015625,-8.762329163360596,-1.8927660499572754,-5.313780947113036
1788862329582460400,3.11546044921875,-9.390507823944091,-2.771587696838379,-5.492747521209717
1788862329592466400,3.125466552734375,-9.458443296051025,-4.008492129516601,-4.896292032623291
1788862329602473200,3.13547314453125,-10.41268229522705,-4.9534535972595215,-4.083161293792724
1788862329612479200,3.145479248046875,-9.744700032043456,-5.288342554473877,-3.6349966705322263
1788862329622486300,3.155486328125,-8.750657430267333,-4.696974744415283,-3.584868073272705
1788862329632492300,3.1654921875,-9.381679205322266,-4.3442789123535155,-3.369090648651123
1788862329642498300,3.175498291015625,-9.381230292510987,-4.522048385620117,-3.104681002807617
1788862329652505300,3.18550537109375,-8.526350662231446,-4.792293898010254,-3.1836896575927733
1788862329662511400,3.195511474609375,-7.765144171905517,-4.879382983398437,-3.2466870887756345
1788862329672518100,3.20551806640625,-7.823502837371826,-5.109375980377197,-2.801964130401611
1788862329682524400,3.2155244140625,-7.187692658996582,-5.948394024658203,-1.9223942955017088
1788862329692530400,3.225530517578125,-5.951536414337157,-6.612186434936523,-1.0518027168273925
1788862329702537200,3.235537109375,-5.502473965454101,-6.804919668579101,-0.3182791831970215
1788862329712543200,3.245543212890625,-5.691017346191406,-6.880187383270263,0.12524667434692383
1788862329722550300,3.25555029296875,-5.03725065536499,-7.1029977752685545,0.5267243652343749
1788862329732556300,3.265556396484375,-4.452466899871826,-7.309348030853271,1.0269628746032715
1788862329742562300,3.275562255859375,-4.748599717712402,-6.8967971572875975,1.1100117446899413
1788862329752569300,3.2855693359375,-5.088426715850829,-6.037877311706542,0.8445546356201171
1788862329762575400,3.295575439453125,-5.191377387237549,-5.322459928131103,0.6236895324707031
1788862329772582400,3.30558251953125,-6.025457390594482,-4.900182610321044,0.5699696327209473
1788862329782588200,3.315588134765625,-6.275501826477051,-4.850502925872802,0.5647323165893554
1788862329792595500,3.325595458984375,-5.336974775695801,-5.136161111450195,0.501136334991455
1788862329802601200,3.335601318359375,-5.421071109008789,-5.5452703201293945,0.6150105514526367
1788862329812607200,3.345607177734375,-6.053289984893799,-6.173149705505371,0.9136872085571288
1788862329822614500,3.355614501953125,-6.074837799835205,-6.787860981750488,1.177199028778076
1788862329832620300,3.365620361328125,-6.142174721527099,-7.272537180328369,1.426196001434326
1788862329842627300,3.37562744140625,-6.2761003768920895,-7.6354083694458,1.8059762397766113
1788862329852633300,3.38563330078125,-5.882403841400146,-7.933935388946533,2.147000338745117
1788862329862639400,3.395639404296875,-5.008370597839355,-7.967154936981201,2.114678616333008
1788862329872646400,3.405646484375,-4.962431853485107,-7.811980741882324,1.8177976104736326
1788862329882652200,3.415652099609375,-5.234473017120361,-7.6373536582946775,1.60875387802124
1788862329892659500,3.425659423828125,-4.961384390258789,-7.428609201049804,1.6021698234558104
1788862329902665500,3.43566552734375,-4.854992053985596,-7.086836914062499,1.8287211555480956
1788862329912672300,3.44567236328125,-4.783764554595947,-6.701968997192383,2.105700360107422
1788862329922678300,3.45567822265625,-4.448576322174072,-6.563703851318359,2.1645079383850097
1788862329932684500,3.4656845703125,-4.217984774780273,-6.890362740325927,1.502960092163086
1788862329942691300,3.47569140625,-4.158728283691406,-7.4405802093505855,-0.035763387298583985
1788862329952697300,3.485697265625,-4.093935201263427,-7.940968356323242,-1.6490063934326171
1788862329962704400,3.495704345703125,-4.502445859527588,-8.494028939819335,-2.7673978439331055
1788862329972710400,3.50571044921875,-5.312434208679199,-8.879196131896972,-3.0678701522827145
1788862329982716400,3.51571630859375,-5.91188244934082,-9.0144685256958,-2.7964275390625
1788862329992723200,3.52572314453125,-6.097732353210449,-9.103053987121582,-2.3753473220825194
1788862330002729500,3.5357294921875,-5.1508255966186525,-9.380482104492186,-1.6585832000732421
1788862330012736300,3.545736328125,-4.415656049346923,-10.027515103149414,-1.0248679481506346
1788862330022742300,3.5557421875,-4.884620299530029,-10.574739820098877,-0.5307645805358886
1788862330032748300,3.565748291015625,-5.736207902526855,-10.790666882324219,0.23418284988403318
1788862330042755300,3.57575537109375,-5.640888748931885,-10.759093347930907,1.357362703704834
1788862330052761300,3.58576123046875,-4.9735050361633295,-10.477625015258788,2.342277411651611
1788862330062768000,3.59576806640625,-3.9546225921630858,-9.925013344573975,3.292476195526123
1788862330072774400,3.6057744140625,-3.256563170623779,-9.070432989501953,4.219481150817871
1788862330082781400,3.615781494140625,-3.4570775596618653,-8.379406535339355,4.674379466247558
1788862330092787200,3.625787109375,-4.257189826965332,-8.140884194946288,4.64175846862793
1788862330102793200,3.635793212890625,-5.633556506347656,-8.296507302856444,3.839551274871826
1788862330112800300,3.64580029296875,-7.157765138244629,-8.795698348999023,2.191592344665527
1788862330122806300,3.65580615234375,-8.293664188385009,-9.262717310333251,0.8028057441711425
1788862330132813300,3.665813232421875,-8.87994431991577,-9.520991814422606,-0.056114101409912104
1788862330142819300,3.6758193359375,-8.074445098876952,-9.437942944335937,-0.05386953735351562
1788862330152825300,3.685825439453125,-8.818293627166748,-9.418789331054686,-0.699705435180664
1788862330162832400,3.695832275390625,-11.190049646759032,-9.403376657867431,-2.4896704513549803
1788862330172838100,3.705838134765625,-10.85935054244995,-9.13582462234497,-3.3583167411804196
1788862330182845400,3.715845458984375,-6.262483354949951,-8.789862482452392,-1.5496470245361327
1788862330192851200,3.725851318359375,-0.9665092826843261,-8.910320753479004,2.343474512481689
1788862330202857200,3.735857177734375,1.055992569732666,-9.368361458587646,5.847687917327881
1788862330212864500,3.745864501953125,-0.4026747917175293,-9.83837317199707,8.26074391555786
1788862330222870300,3.755870361328125,-4.088248972320557,-10.035894808959961,9.417741867828369
1788862330232877300,3.765877197265625,-8.094496537780762,-10.391134480285643,8.614337573242187
1788862330242883300,3.77588330078125,-9.343820891571044,-11.226561222076416,6.986878994750976
1788862330252890400,3.785890380859375,-8.204629814147948,-12.16823066253662,5.438728346252441
1788862330262896400,3.795896484375,-6.715735656738281,-12.155062553405761,3.8180034599304196
1788862330272902100,3.805902099609375,-4.997596690368652,-11.340734713745116,2.4527099632263183
1788862330282909400,3.815909423828125,-3.7997476722717285,-10.626963343811035,1.8251298530578612
1788862330292915500,3.82591552734375,-3.5214217292785643,-10.405798965454101,1.6602292137145995
1788862330302922200,3.835922119140625,-3.647266954040527,-10.49603044052124,1.2140098793029785
1788862330312928500,3.845928466796875,-3.582922784423828,-10.741136835479736,0.29074586410522457
1788862330322934300,3.855934326171875,-3.6852749053955076,-10.500220293426514,-0.6431424209594726
1788862330332941300,3.86594140625,-4.507084625244141,-9.531167171478272,-1.160140341949463
1788862330342947300,3.875947265625,-5.559186617279052,-7.78205322113037,-1.0862193656921386
1788862330352954400,3.885954345703125,-6.011391455841064,-6.043563540649414,-0.3097498397827148
1788862330362960400,3.89596044921875,-6.143820735168457,-4.69248561630249,0.6112696113586426
1788862330372967200,3.90596728515625,-5.360168604278564,-4.406228880310058,1.5619173080444335
1788862330382973400,3.915973388671875,-4.119672869110107,-5.264101262664795,2.0477906074523924
1788862330392979500,3.9259794921875,-3.5896564765930172,-6.500706420135498,2.0515315475463867
1788862330402986200,3.935986328125,-3.6854245429992676,-6.92043989868164,1.8775030143737792
1788862330412992300,3.9459921875,-4.398447724914551,-6.517465831756591,1.9818004241943359
1788862330422999300,3.955999267578125,-5.06283868560791,-6.151601890563964,2.688389189147949
1788862330433005300,3.96600537109375,-5.115361484527588,-6.187066002655029,3.116951286315918
1788862330443011300,3.97601123046875,-4.484339709472656,-6.436062975311279,3.0282161872863766
1788862330453018400,3.986018310546875,-3.572448152160644,-6.625055268859863,3.0295629257202146
1788862330463024400,3.9960244140625,-3.821744400024414,-6.910114904022216,3.4501942298889157
1788862330473031200,4.00603125,-5.2633530746459956,-7.548917834472656,3.998466410064697
1788862330483037200,4.016037109375,-6.732195793151855,-8.213159157562256,4.425532131195068
1788862330493044500,4.02604443359375,-7.720103253173828,-8.760683149719238,4.8235681571960445
1788862330503050200,4.03605029296875,-8.179191421508788,-9.148992731475829,5.003432556915283
1788862330513056300,4.04605615234375,-8.144176222229003,-9.175029674530029,4.593575160217285
1788862330523063300,4.056063232421875,-7.68628515472412,-8.909871840667725,3.602076397705078
1788862330533069300,4.0660693359375,-7.113921320343017,-8.549694128417968,2.426673020172119
1788862330543076900,4.076076904296875,-6.679523356628418,-8.01234549331665,1.394323191833496
1788862330553082600,4.08608251953125,-6.285976458740234,-7.16958650894165,0.7867945205688476
1788862330563089700,4.096089599609375,-5.744587608337402,-6.244676480102538,0.979976667022705
1788862330573095700,4.106095703125,-5.336076950073242,-5.634155056762695,1.641374875640869
1788862330583101700,4.116101806640625,-5.750573112487793,-5.526864894866943,2.1082441993713377
1788862330593108700,4.126108642578125,-6.7842696792602535,-5.6851814796447755,2.254889051055908
1788862330603114500,4.136114501953125,-7.624933737182617,-5.7070285697937,2.3418284988403317
1788862330613121800,4.146121826171875,-8.09479581298828,-5.532401486206054,2.6411037063598632
1788862330623127800,4.1561279296875,-8.074295461273193,-5.511751496887206,3.090615068054199
1788862330633133600,4.166133544921875,-7.979574858093261,-5.662137288665771,3.4400188728332517
1788862330643140600,4.176140625,-8.317905480194092,-6.012438919067383,3.3903391883850094
1788862330653146600,4.186146728515625,-8.38958189239502,-6.310367388153076,3.171120098876953
1788862330663153700,4.196153564453125,-7.8918872222900385,-6.080374391174316,2.920776387786865
1788862330673159700,4.20615966796875,-7.189637947845458,-5.844246252441406,2.803310868835449
1788862330683166700,4.216166748046875,-6.555174507904052,-5.777358243560791,2.821117743682861
1788862330693172700,4.2261728515625,-6.702268272399902,-5.786486137390137,2.91134921875
1788862330703178800,4.2361787109375,-7.546822908020019,-5.84753827972412,2.8398224441528317
1788862330713185500,4.246185546875,-8.087463570404053,-5.327996519470214,2.8930934310913083
1788862330723191800,4.25619189453125,-8.384793489074706,-4.810699323272705,3.1220389648437497
1788862330733198600,4.266198486328125,-8.37581523284912,-4.881328272247314,3.17321502532959
1788862330743204600,4.27620458984375,-8.027458891296387,-5.034557178497314,3.063829936981201
1788862330753211600,4.286211669921875,-7.982567610168457,-5.166238269805908,2.888305027770996
1788862330763217700,4.2962177734375,-8.260444640350341,-4.950460845184326,3.0169933670043942
1788862330773223700,4.3062236328125,-8.710853827667236,-4.43076944732666,3.3687913734436035
1788862330783230500,4.31623046875,-8.865429472351074,-3.9954736579895016,3.555239827728271
1788862330793236700,4.32623681640625,-8.665513633728027,-3.7777509445190427,3.547159397125244
1788862330803243500,4.336243408203125,-8.20343271331787,-3.7172973526000974,3.442263436889648
1788862330813249500,4.34624951171875,-7.671171756744385,-3.640383624267578,3.4920927589416504
1788862330823256800,4.3562568359375,-7.926752783966064,-3.8838440055847165,3.552845626068115
1788862330833262600,4.3662626953125,-8.72821178970337,-4.520701647186279,3.3110312583923336
1788862330843268600,4.3762685546875,-8.883236347198485,-4.822520693969726,2.9421745651245117
1788862330853275600,4.386275634765625,-8.679729206085204,-4.9260699157714845,2.5477298416137693
1788862330863281700,4.39628173828125,-8.038980986785889,-4.7275008155822755,2.517353408050537
1788862330873288700,4.406288818359375,-7.778910831451416,-4.460846605682373,2.743306189727783
1788862330883294500,4.41629443359375,-7.972392253112792,-4.5838487159729,2.69437469329834
1788862330893300700,4.42630078125,-7.903259680175781,-4.602254141235352,2.421435704040527
1788862330903307800,4.436307861328125,-7.933336838531494,-4.517858532714843,2.110039850616455
1788862330913313500,4.4463134765625,-8.030302005767822,-4.513070129394531,1.970128691101074
1788862330923320800,4.45632080078125,-8.190114966583252,-4.463689720153808,2.3684639923095703
1788862330933326800,4.466326904296875,-8.486995972442626,-4.5964182746887206,3.021033582305908
1788862330943333600,4.476333740234375,-8.853757739257812,-5.335927312469482,2.6918308540344236
1788862330953339600,4.486339599609375,-8.955660947418213,-5.7330655128479,1.4814122772216796
1788862330963345700,4.496345703125,-8.678981018066406,-5.317821162414551,0.9332897346496581
1788862330973352700,4.506352783203125,-9.003844255828858,-5.150376683807373,1.2011410453796385
1788862330983358700,4.516358642578125,-9.375244788360595,-5.509207657623291,1.1959037292480468
1788862330993365800,4.52636572265625,-7.62897395248413,-5.702838716888428,0.3920505218505859
1788862331003371800,4.536371826171875,-7.460631648254394,-5.1782092781066895,0.18405425262451172
1788862331013378600,4.546378662109375,-9.77417863998413,-4.55182626876831,0.9030629386901855
1788862331023384600,4.556384521484375,-12.584971389007567,-4.238634764099121,1.4935329231262207
1788862331033390800,4.566390869140625,-13.144616027069091,-4.225466654968262,1.2580033348083495
1788862331043397600,4.576397705078125,-9.141810126495361,-3.9146693519592284,0.030974983978271482
1788862331053403600,4.586403564453125,-3.595641980743408,-2.7172692466735837,-1.2358569694519042
1788862331063410700,4.59641064453125,-6.010194355010986,-2.3726538452148436,-0.462230558013916
1788862331073416700,4.606416748046875,-10.73919154663086,-3.658789049530029,1.2286743644714355
1788862331083423500,4.616423583984375,-8.760683149719238,-4.647295059967041,1.8601450523376464
1788862331093429500,4.626429443359375,-7.846995941162109,-4.939537300109863,2.699013459014892
1788862331103435800,4.636435791015625,-8.333617428588866,-5.521178665924072,3.2558149826049805
1788862331113442600,4.646442626953125,-6.835445739746094,-5.2159179542541505,2.586186705780029
1788862331123448600,4.656448486328125,-8.77789147415161,-4.812794249725341,1.2795511497497558
1788862331133456000,4.666455810546875,-8.94443812713623,-5.020790518951416,0.3854664672851562
1788862331143461600,4.676461669921875,-8.212710244750976,-5.442918199157715,1.070058504486084
1788862331153468700,4.68646875,-7.870638682556152,-5.215319403839111,1.2692261550903319
1788862331163474400,4.696474365234375,-8.215403721618651,-3.836259247589111,0.08753799819946288
1788862331173480700,4.706480712890625,-8.16542476196289,-2.13877027053833,-0.7007528984069824
1788862331183487700,4.71648779296875,-7.475445771026611,-0.8339303657531738,0.3607762626647949
1788862331193493500,4.726493408203125,-7.079504671478271,0.014814122772216796,0.8129811012268066
1788862331203500800,4.736500732421875,-7.321767951965332,0.886153889465332,-0.35942952423095703
1788862331213506800,4.7465068359375,-7.678204724121093,1.6742951484680175,-1.3462895210266113
1788862331223513600,4.756513671875,-6.452373474121093,1.8136077575683593,-0.22445640563964842
1788862331233519600,4.76651953125,-6.740575498962402,1.1927613395690917,1.1782464920043945
1788862331243525600,4.776525634765625,-8.436119187164307,-0.016909049224853513,0.9207201759338378
1788862331253532700,4.78653271484375,-9.767295310211182,-1.2565069587707518,-0.033219548034667964
1788862331263538700,4.79653857421875,-8.649801685333252,-2.073079362487793,0.376039298248291
1788862331273545700,4.806545654296875,-7.598148606109619,-2.717718159484863,1.9400515327453611
1788862331283551700,4.8165517578125,-8.147019336700438,-2.9933506256103515,2.427121932983398
1788862331293558500,4.82655859375,-9.69801309967041,-3.0259716232299803,0.6763619689941406
1788862331303564500,4.836564453125,-9.712677584838866,-2.440140404510498,-0.32172084808349605
1788862331313571600,4.846571533203125,-8.49747060470581,-1.5912462783813475,1.0856208152770996
1788862331323577600,4.85657763671875,-7.814823856353759,-1.539920580291748,2.633921101379394
1788862331333583600,4.86658349609375,-8.382100012207031,-1.5617676704406738,2.456001990509033
1788862331343590700,4.876590576171875,-8.68930601272583,-1.821538550567627,1.346439158630371
1788862331353596700,4.8865966796875,-9.329754956817627,-1.9092261863708495,0.8074445098876952
1788862331363603700,4.896603759765625,-8.707262525177,-1.852064621734619,0.9976339042663573
1788862331373609500,4.906609375,-6.85684391708374,-2.0670938583374023,1.5732897659301757
1788862331383616800,4.91661669921875,-6.244676480102538,-2.6987141838073727,1.8441338287353515
1788862331393622500,4.92662255859375,-7.03536157836914,-3.227832750701904,1.2575544219970702
1788862331403628500,4.936628662109375,-7.734019550323486,-3.2713772933959957,0.7947253135681152
1788862331413635800,4.9466357421875,-6.778882725524902,-2.7908909477233883,0.7872434333801269
1788862331423641600,4.9566416015625,-6.066757369232177,-2.3594857360839843,0.6877344268798827
1788862331433648600,4.966648681640625,-7.263858199310302,-2.2839187461853028,0.526125814819336
1788862331443654700,4.976654541015625,-8.338705107116699,-2.4040777420043944,0.8828618621826171
1788862331453661700,4.98666162109375,-7.570914562225341,-2.633921101379394,1.6391303115844726
1788862331463667700,4.996667724609375,-6.870311301422118,-2.9701567970275877,1.98554136428833
1788862331473673500,5.006673583984375,-7.442226222991943,-3.4639608894348144,1.8861819953918455
1788862331483680800,5.0166806640625,-8.267178332519531,-4.055029424285888,1.7354969284057615
1788862331493686800,5.026686767578125,-8.705017961120605,-4.474762902832031,1.727566135406494
1788862331503693600,5.036693603515625,-7.988104201507568,-4.324077835845947,1.988085203552246
1788862331513699800,5.046699951171875,-6.562656388092041,-4.10515802154541,2.398391513061523
1788862331523706600,5.05670654296875,-6.552481031036376,-4.498405644226074,2.4802432823181153
1788862331533712600,5.066712646484375,-7.304260352325439,-5.243600910949707,2.47710089263916
1788862331543720000,5.076719970703125,-7.060201420593262,-5.734561888885498,2.8730419921875
1788862331553726000,5.086725830078125,-7.343615042114258,-6.033837096405029,3.0564976943969726
1788862331563732200,5.096732177734375,-7.742698531341552,-6.564601676940917,2.886359738922119
1788862331573739000,5.106739013671875,-6.95874712524414,-7.2243538719177245,3.090615068054199
1788862331583745000,5.1167451171875,-6.687304512023926,-7.528267845153808,3.3221044410705565
1788862331593752000,5.126751953125,-7.391798350524902,-7.490559169006347,3.0852281143188476
1788862331603758000,5.136758056640625,-7.166294481658936,-7.202656419372558,2.8281507110595703
1788862331613765000,5.14676513671875,-6.30752427368164,-6.789058082580566,2.8700492401123046
1788862331623771000,5.15677099609375,-6.5777697860717765,-6.612336072540283,2.882020248413086
1788862331633777200,5.166777099609375,-7.00393768157959,-6.498312218475341,3.0193875686645506
1788862331643784000,5.176783935546875,-6.410774220275878,-6.195595346069336,3.5711014137268062
1788862331653790000,5.1867900390625,-6.21834026184082,-6.1459156616210935,3.7946599937438963
1788862331663797200,5.19679736328125,-6.851008050537109,-6.554725595092773,3.2570120834350584
1788862331673803000,5.206802978515625,-7.364115393829345,-7.25248574142456,2.385373041534424
1788862331683810000,5.21681005859375,-6.76107585067749,-8.13370158996582,2.1499930908203124
1788862331693816000,5.226816162109375,-6.145466748809814,-9.122207600402831,2.321328147125244
1788862331703823000,5.236822998046875,-6.745812815093994,-10.051457119750976,2.2545897758483884
1788862331713829000,5.2468291015625,-8.007706727600096,-10.940154848480224,2.204461178588867
1788862331723835000,5.2568349609375,-8.5157263923645,-11.684452289581298,2.6855460746765134
1788862331733842200,5.26684228515625,-8.448389470672607,-12.147730310821533,3.352331237030029
1788862331743848200,5.27684814453125,-8.03134946899414,-12.29647008895874,3.886238207244873
1788862331753855000,5.28685498046875,-7.336731712341308,-12.096554250335693,4.478653480529785
1788862331763861000,5.296861083984375,-7.612813091278076,-11.829151852416992,4.537311421203613
1788862331773868000,5.306867919921875,-8.041973738861083,-11.507131729125977,3.83685779800415
1788862331783874000,5.3168740234375,-7.392396900939941,-11.073182678222656,3.3168671249389647
1788862331793880800,5.326880859375,-6.308721374511719,-11.069142462921143,3.799897309875488
1788862331803887000,5.33688720703125,-6.126313135528564,-10.895562842559814,4.136432280731201
1788862331813893000,5.34689306640625,-6.415712261199951,-10.5843166267395,3.9113773246765136
1788862331823900000,5.35689990234375,-6.803872205352783,-10.425251853942871,3.5323452743530273
1788862331833906000,5.366906005859375,-6.730250504302978,-10.354323629760742,3.2818519256591796
1788862331843913000,5.376912841796875,-6.564152764129639,-10.117746578216552,3.365200070953369
1788862331853919000,5.3869189453125,-7.259967621612549,-9.798270294189452,3.536086214447021
1788862331863926000,5.396926025390625,-7.7120228225708,-9.802160871887207,3.711760761260986
1788862331873932000,5.40693212890625,-7.260715809631347,-10.076745874786376,4.07927071609497
1788862331883939000,5.41693896484375,-6.477063678741454,-10.388889916229248,4.293701402282714
1788862331893945000,5.426945068359375,-6.07798018951416,-10.452785173034668,3.549254323577881
1788862331903950800,5.436950927734375,-5.731868412017822,-10.070012182617187,2.1329344039916993
1788862331913958100,5.446958251953125,-5.49678773651123,-9.722553666687011,0.9439140045166015
1788862331923964000,5.4569638671875,-5.2816088623046875,-9.638158058166503,-0.06913257293701172
1788862331933971000,5.466970947265625,-4.206163404083251,-9.19358473739624,-0.635211627960205
1788862331943977200,5.476977294921875,-3.338414939880371,-8.151358827209473,-0.9337386474609375
1788862331953984000,5.48698388671875,-2.7615619773864744,-7.288548403930664,-0.850989052581787
1788862331963990000,5.496989990234375,-1.971475429534912,-6.679224081420898,0.213233585357666
1788862331973997000,5.5069970703125,-1.8173486976623534,-6.111798287963867,1.950975077819824
1788862331984003000,5.517003173828125,-2.4480711975097655,-5.66946953125,3.6930560607910152
1788862331994009000,5.527009033203125,-3.8449382286071776,-5.444863488006591,5.082291574096679
1788862332004015900,5.537015869140625,-6.232406196594238,-5.736656815338135,5.555146401977539
1788862332014022100,5.547022216796875,-6.86956311340332,-6.442048479461669,5.416133068084717
1788862332024029000,5.55702880859375,-6.138433781433105,-6.715586019134521,5.166387907409668
1788862332034035000,5.567034912109375,-6.246472131347656,-6.650792936706543,4.893149642944335
1788862332044042000,5.5770419921875,-6.886771437835693,-6.736086370849609,4.4291234336853025
1788862332054048000,5.587048095703125,-7.313986796569824,-6.764667153167724,3.8639422042846676
1788862332064055000,5.597054931640625,-7.572710213470459,-6.302885507965088,3.2507273040771483
1788862332074060800,5.607060791015625,-7.378480603790282,-5.468057316589356,2.5987562644958495
1788862332084067000,5.617067138671875,-6.732943981170654,-4.878185882568359,2.1535843933105467
1788862332094074000,5.62707421875,-6.118083067321777,-4.938340199279785,1.9789573097229003
1788862332104080000,5.637079833984375,-6.196044258880615,-5.535693513488769,2.1220108589172364
1788862332114087200,5.647087158203125,-6.887968538665771,-6.1273605987548825,2.615066763305664
1788862332124093000,5.657093017578125,-7.456441795349121,-6.338199982452392,3.207482036590576
1788862332134100000,5.667099853515625,-7.925406045532226,-6.428581095123291,3.6462194908142087
1788862332144106200,5.677106201171875,-8.346037349700927,-6.518662932586669,4.133888441467285
1788862332154113000,5.687113037109375,-8.724171574401854,-6.367678590393066,4.613776236724854
1788862332164119000,5.697119140625,-8.797942913055419,-5.852775595855713,5.156362187957764
1788862332174126000,5.7071259765625,-8.820987104034423,-5.4604257987976075,5.280711036682129
1788862332184132000,5.717132080078125,-8.951770369720458,-5.436034869384765,4.939836575317383
1788862332194138000,5.72713818359375,-8.818143989562987,-5.633855781555176,4.402188665008545
1788862332204145000,5.737144775390625,-7.788338000488281,-5.743091232299804,3.8709751716613767
1788862332214151200,5.747151123046875,-6.206069978332519,-5.345354481506347,3.629310441589355
1788862332224158000,5.757157958984375,-5.26050996017456,-4.668393962097167,3.865139305114746
1788862332234164000,5.7671640625,-5.697900675964355,-4.388870918273925,3.7681741378784177
1788862332244171300,5.777171142578125,-6.512527790832519,-4.356998108673095,3.0726585556030273
1788862332254177000,5.787177001953125,-7.358578802490234,-4.122815258789062,2.5034371109008786
1788862332264184000,5.79718408203125,-8.454225337219238,-3.962852660369873,2.2002713256835937
1788862332274189800,5.80718994140625,-9.20630393371582,-4.124610910034179,2.2514473861694335
1788862332284196000,5.817196044921875,-9.578452654266357,-4.621407754516602,2.572420046234131
1788862332294203100,5.827203125,-9.675717096710205,-5.157409651184082,2.932298483276367
1788862332304209000,5.837208984375,-10.08018753967285,-5.295824434661865,3.127276280975342
1788862332314216200,5.84721630859375,-10.439467426300048,-5.1234419151306145,2.7431565521240233
1788862332324222200,5.85722216796875,-8.143876947021484,-4.886266313171387,1.4833575660705565
1788862332334229000,5.86722900390625,-5.790227077484131,-4.6173675392150875,0.9154828598022461
1788862332344235000,5.877235107421875,-5.331288546752929,-4.435707488250732,1.260247898864746
1788862332354242000,5.887241943359375,-8.572139768981932,-4.299237993621826,2.378190436553955
1788862332364248000,5.897248046875,-14.496891052246093,-4.684704460906982,3.837755623626709
1788862332374254800,5.9072548828125,-13.82801096343994,-5.437680883026123,3.7364509658813474
1788862332384261000,5.91726123046875,-5.702539441680908,-5.102343013000488,0.33309330596923825
1788862332394267100,5.92726708984375,-4.132392065429687,-3.7294179985046383,-0.9867103591918944
1788862332404274000,5.93727392578125,-8.37641378326416,-3.03270531539917,2.20895030670166
1788862332414280000,5.947280029296875,-7.377582778167724,-3.022380320739746,3.5989340080261227
1788862332424287000,5.957286865234375,-6.322787309265136,-3.103184626770019,2.493112116241455
1788862332434293000,5.96729296875,-8.190563879394531,-2.9979893913269042,1.599326708984375
1788862332444300000,5.977300048828125,-6.320692382812499,-2.3536498695373536,0.999130280303955
1788862332454306000,5.98730615234375,-6.0716954101562495,-1.8330606460571288,0.2657563842773437
1788862332464313000,5.99731298828125,-6.791153009033203,-1.9636942741394041,-0.30615853729248044
1788862332474319000,6.007319091796875,-6.439205364990234,-2.192190895080566,-0.8629600608825683
1788862332484324900,6.017324951171875,-6.783521491241455,-2.201169151306152,-1.0046668716430665
1788862332494332200,6.027332275390625,-6.660818656158447,-1.9885341163635253,-0.7975684280395507
1788862332504338000,6.037337890625,-6.707655226135254,-1.4558242469787597,-1.0347440299987793
1788862332514345000,6.047344970703125,-6.879439195251464,-1.1578957778930663,-1.2942156349182128
1788862332524351200,6.057351318359375,-5.868038631439209,-1.1122563087463377,-1.2170026313781737
1788862332534358000,6.06735791015625,-4.572476258087158,-0.5940612869262695,-1.1798925056457519
1788862332544364000,6.077364013671875,-5.711368060302734,0.13138181610107422,-1.3028946159362793
1788862332554370800,6.087370849609375,-7.478737798309326,0.7179612228393554,-1.666962905883789
1788862332564376800,6.097376953125,-7.351845110321045,1.1174936248779297,-1.5887024391174316
1788862332574383900,6.1073837890625,-6.893954042816162,0.8334814529418945,-0.697161595916748
1788862332584390000,6.117389892578125,-7.474847220611572,0.008978256225585938,0.12015899581909179
1788862332594397000,6.12739697265625,-9.13492679672241,-0.8138789268493651,1.186775835418701
1788862332604403000,6.13740283203125,-9.298630335235595,-1.704073031616211,2.4779987182617185
1788862332614409000,6.147408935546875,-7.164498830413818,-2.466925535583496,3.4391210472106932
1788862332624416000,6.157416015625,-6.723367174530029,-2.854636566925049,3.9459436111450192
1788862332634421800,6.167421875,-8.23560479812622,-3.0903157928466793,3.917961379241943
1788862332644429000,6.177428955078125,-8.965088116455078,-3.191470812988281,3.0119056884765625
1788862332654434800,6.187434814453125,-8.275408400726318,-3.2481834648132324,2.111835501861572
1788862332664441900,6.19744189453125,-7.956231391906738,-3.2430957862854,1.965789200592041
1788862332674448100,6.2074482421875,-8.015936795806883,-3.3276410324096677,1.8014871116638183
1788862332684455000,6.217454833984375,-7.7322238990783685,-3.576488367462158,1.5132850868225096
1788862332694461000,6.2274609375,-6.963685166168212,-4.2509050476074215,1.509843421936035
1788862332704468000,6.237468017578125,-7.185298457336425,-5.538237352752685,1.3697826248168945
1788862332714474000,6.247473876953125,-8.166771500396727,-6.7353381828308105,1.4329296936035156
1788862332724480000,6.25747998046875,-8.367585164642334,-7.254281392669677,1.820790362548828
1788862332734486800,6.26748681640625,-7.268197689819336,-7.066635837554931,2.433257074737549
1788862332744493000,6.2774931640625,-6.284779357910156,-6.5768719604492185,2.5796026512145995
1788862332754499800,6.287499755859375,-5.872378121948242,-6.131101538848877,1.9882348411560058
1788862332764505900,6.297505859375,-5.552752200317382,-5.889736083984375,1.4864999557495115
1788862332774513000,6.307512939453125,-4.800374328613281,-5.974580605316162,1.4251485382080078
1788862332784519000,6.317518798828125,-5.032611889648437,-5.924003095245361,1.294664547729492
1788862332794526000,6.32752587890625,-5.8445455276489255,-5.682787277984619,1.1782464920043945
1788862332804531700,6.33753173828125,-5.801898810577392,-5.411793577575684,1.5801730957031248
1788862332814539000,6.3475390625,-4.98637387008667,-5.13960277633667,2.583343591308594
1788862332824545000,6.357544921875,-4.397998812103271,-5.2810103118896485,3.6809354148864744
1788862332834550800,6.36755078125,-4.677970768737793,-5.910685348510742,4.100519255828857
1788862332844558000,6.37755810546875,-5.105635040283203,-7.031022087860107,4.002805900573731
1788862332854563800,6.387563720703125,-5.620837310028076,-8.110807036590575,3.686322368621826
1788862332864571000,6.39757080078125,-6.355857219696045,-8.750657430267333,3.524564118957519
1788862332874577000,6.407576904296875,-7.026682597351074,-8.865579109954833,3.674800273132324
1788862332884584000,6.417583984375,-7.4597338226318355,-9.170390908813475,4.257339464569092
1788862332894590000,6.42758984375,-8.104821532440186,-10.456376475524902,5.092915843963623
1788862332904596700,6.4375966796875,-9.393949488830566,-12.22015491104126,5.529708009338378
1788862332914603000,6.44760302734375,-10.618434000396729,-13.839682696533202,5.771073464202881
1788862332924609800,6.45760986328125,-10.883442196655272,-15.148263541412353,5.559635530090332
1788862332934615800,6.46761572265625,-9.713425772857665,-15.951218923187255,4.338443045806884
1788862332944623000,6.477623046875,-8.065167567443847,-16.37125167694092,2.9147908836364746
1788862332954628900,6.48762890625,-7.337330262756347,-16.37125167694092,1.8766051887512205
1788862332964635000,6.497634765625,-7.5354504501342765,-15.28982071456909,1.512536898803711
1788862332974642000,6.507641845703125,-8.369231178283691,-13.631686427307129,1.6877625328063963
1788862332984648000,6.51764794921875,-7.639598222351074,-13.127856615447998,3.118298024749756
1788862332994655000,6.527655029296875,-7.20160895614624,-12.262651990509033,4.0164229225158685
1788862333004660700,6.53766064453125,-7.164349192810058,-11.165509079742431,4.615122975158691
1788862333014668000,6.54766796875,-7.04838004989624,-10.339808782196044,4.8494554626464845
1788862333024674000,6.557674072265625,-6.829759510803222,-9.803657247924804,4.4841900718688965
1788862333034680800,6.567680908203125,-6.206518891143799,-9.25044702682495,3.623025662231445
1788862333044686800,6.577686767578125,-5.437680883026123,-8.692598040008544,2.793584424591064
1788862333054694000,6.58769384765625,-4.195090221405029,-8.213608070373535,2.2379800018310547
1788862333064700000,6.597699951171875,-3.227383837890625,-7.4594345474243156,2.113930428314209
1788862333074706700,6.607706787109375,-3.2267852874755856,-6.602310353088378,2.353799507141113
1788862333084713000,6.617712890625,-4.3357495689392085,-6.008997254180908,2.4154501998901368
1788862333094719000,6.627718994140625,-5.779153894805908,-5.817311483764648,2.089389861297607
1788862333104725800,6.637725830078125,-6.168959852600097,-5.8631005905151365,1.6659154426574707
1788862333114732000,6.64773193359375,-5.624877525329589,-6.050446870422363,1.2167033561706542
1788862333124738800,6.65773876953125,-4.778227963256835,-6.146065299224853,1.0531494552612304
1788862333134744800,6.667744873046875,-3.6632781776428223,-6.1738978935241695,1.2514192802429198
1788862333144752000,6.677752197265625,-2.6473884857177734,-5.980566109466553,1.9692308654785156
1788862333154758000,6.6877578125,-2.6601076820373533,-5.792770916748046,3.2664392524719235
1788862333164765000,6.697764892578125,-3.5256115821838376,-5.761646295166015,4.896292032623291
1788862333174771000,6.70777099609375,-4.75623123550415,-5.640290198516845,6.308272461700439
1788862333184778000,6.717778076171875,-5.792770916748046,-5.309142181396484,6.919093160247803
1788862333194784000,6.727783935546875,-6.660818656158447,-4.668244324493408,6.373664094543456
1788862333204790800,6.737790771484375,-7.3036618019104,-4.367921653747558,4.755931960296631
1788862333214797000,6.747797119140625,-7.414692903900146,-4.542249462127685,3.4888007316589356
1788862333224803800,6.757803955078125,-7.880514764404296,-4.696376194000244,2.929754644012451
1788862333234809900,6.767809814453125,-8.828768259429932,-5.08214193649292,3.0986954986572264
1788862333244816000,6.77781591796875,-10.134057077026366,-5.794716205596924,4.02255806427002
1788862333254823000,6.787822998046875,-11.719018576049804,-6.697928781890869,5.3028574020385735
1788862333264829000,6.797828857421875,-12.777106072235107,-7.836521308898925,6.186916365051269
1788862333274835700,6.807835693359375,-11.899481526184081,-9.077166681671143,6.281188055419921
1788862333284842000,6.817842041015625,-9.520542901611327,-9.765050746154785,5.797559320068359
1788862333294849000,6.82784912109375,-7.990648040771484,-9.681852238464355,4.866963062286377
1788862333304854800,6.837854736328125,-7.202357144165038,-8.885480911254882,3.810072666931152
1788862333314862000,6.847862060546875,-5.660042362213135,-7.445069337463378,2.8444612098693844
1788862333324867800,6.857867919921875,-4.316895230865478,-6.00720160293579,2.486528061676025
1788862333334875000,6.867875,-4.087650421905518,-4.917390934753418,2.504634211730957
1788862333344881000,6.877880859375,-4.351760792541504,-4.262726418304443,2.637512403869629
1788862333354888000,6.887887939453125,-4.550629167938232,-4.000411698913574,2.682702960205078
1788862333364894000,6.89789404296875,-4.383035051727295,-4.195389496612549,2.2851158470153807
1788862333374900000,6.90789990234375,-4.891653266906738,-4.693682717132568,1.2553098579406738
1788862333384907000,6.917906982421875,-5.615001443481445,-4.709993215942383,0.07870937957763671
1788862333394913000,6.9279130859375,-5.70164161605835,-3.7618893585205075,-0.7653963432312011
1788862333404919800,6.937919921875,-5.122693727111816,-2.6095301719665525,-0.8171709541320801
1788862333414925800,6.94792578125,-5.118952787017822,-1.750610326385498,-0.5253776268005371
1788862333424932900,6.957932861328125,-5.663184751892089,-1.139639990234375,-0.23014263458251952
1788862333434939000,6.96793896484375,-7.14414811630249,-0.8491934013366699,0.2979284690856933
1788862333444946000,6.97794580078125,-10.02377416305542,-0.9201216255187987,1.1348515869140625
1788862333454952000,6.987951904296875,-12.030264791870117,-1.2099696640014648,2.185157927703857
1788862333464959000,6.997958984375,-11.654225493621826,-1.5204676918029785,3.1413422157287596
1788862333474964700,7.00796484375,-9.932046311950684,-2.3760955101013184,3.740341543579101
1788862333484972000,7.017971923828125,-8.111555224609374,-3.6572926734924316,4.094084838867187
1788862333494978000,7.02797802734375,-7.983615073394775,-4.34801985244751,3.599981471252441
1788862333504984800,7.03798486328125,-9.511115732574462,-3.85616104888916,2.2960393920898436
1788862333514990800,7.047990966796875,-10.11280853729248,-3.080589348602295,1.106420442199707
1788862333524998000,7.057997802734375,-9.704297879028319,-2.7720366096496583,0.0718260498046875
1788862333535004000,7.06800390625,-9.418190780639648,-2.7720366096496583,-0.12015899581909179
1788862333545009700,7.078009765625,-9.400683180999755,-2.942324202728271,0.7761702507019043
1788862333555016700,7.0880166015625,-9.143755415344238,-3.6623803520202634,1.2195464706420898
1788862333565022700,7.098022705078125,-8.578723823547362,-4.134636629486084,1.4238017997741699
1788862333575029500,7.108029541015625,-8.064868292236328,-4.218134412384033,1.5517419509887695
1788862333585035500,7.118035400390625,-7.612064903259277,-4.321683634185791,1.199495031738281
1788862333595042800,7.128042724609375,-7.171082884979247,-4.2880151733398435,0.8056488586425781
1788862333605048600,7.138048583984375,-7.179163315582275,-4.120720332336425,0.7638999671936034
1788862333615055600,7.1480556640625,-7.224204234313964,-3.234716080474853,0.6111199737548828
1788862333625061600,7.1580615234375,-6.7651160659790035,-2.168847428894043,0.6533177780151367
1788862333635068700,7.168068603515625,-6.956203285980224,-0.9075520668029785,0.0526724365234375
1788862333645074700,7.17807470703125,-6.023212826538086,0.06344634399414062,-0.20739771881103514
1788862333655081700,7.188081787109375,-4.835688803100585,0.5967547637939453,0.3182791831970215
1788862333665087700,7.198087646484375,-4.02180987625122,0.927004955291748,0.8728361427307129
1788862333675094500,7.208094482421875,-3.8316204818725583,1.0465654006958007,1.0097545501708984
1788862333685100500,7.2181005859375,-3.883395092773437,0.6842927619934082,0.7091326042175292
1788862333695106800,7.22810693359375,-4.124910185241699,-0.17597382202148437,-0.17657237243652343
1788862333705113600,7.238113525390625,-3.8367081604003905,-1.1858780097961426,-1.41093296585083
1788862333715119600,7.24811962890625,-3.8181530975341795,-1.760187133026123,-2.1595698974609374
1788862333725126700,7.258126708984375,-4.511274478149414,-1.709759260559082,-1.75569800491333
1788862333735132700,7.268132568359375,-5.10114591217041,-1.3409025672912598,-0.4246715194702148
1788862333745139700,7.2781396484375,-4.605845443725586,-0.8684966522216796,1.1219827529907227
1788862333755145500,7.2881455078125,-3.7740100044250484,-0.6787561706542968,2.3689129051208493
1788862333765152800,7.29815283203125,-3.7907694160461425,-1.1857283721923828,3.0713118171691893
1788862333775158500,7.308158447265625,-5.023633633422851,-2.286761860656738,3.1401451148986816
1788862333785165600,7.31816552734375,-6.400149950408935,-3.5907039398193357,3.306542130279541
1788862333795171800,7.328171875,-8.296357665252685,-4.553771557617187,3.9481881752014156
1788862333805178600,7.3381787109375,-9.99220062866211,-5.2539259056091305,5.194669414520264
1788862333815184600,7.3481845703125,-9.430610701751709,-6.261585529327392,6.457012239837646
1788862333825191700,7.358191650390625,-8.087014657592773,-7.6382514839172355,6.438457176971435
1788862333835197700,7.36819775390625,-7.521085240173339,-9.242067321014403,5.4878094802856445
1788862333845204500,7.37820458984375,-7.208941198730468,-10.820444765472411,4.248061933135986
1788862333855210500,7.38821044921875,-7.289895142364501,-12.032808631134033,3.0303111137390135
1788862333865217800,7.3982177734375,-9.52578021774292,-12.46750587005615,1.837400136566162
1788862333875223600,7.4082236328125,-11.972205401611328,-12.518681930541991,1.569848101043701
1788862333885229600,7.4182294921875,-12.975076622009276,-12.595146746063232,2.611774736022949
1788862333895236600,7.428236572265625,-13.198186289215087,-12.784438314819335,4.144512711334229
1788862333905242600,7.43824267578125,-12.259210325622558,-12.85880820388794,5.060294846343994
1788862333915249700,7.448249755859375,-9.472958143615722,-12.74942311553955,5.842450601196289
1788862333925255700,7.458255615234375,-6.7371338340759275,-12.182446234893797,5.983409223937988
1788862333935262700,7.4682626953125,-5.812971993255615,-10.548104326629637,4.4297219841003415
1788862333945268700,7.478268798828125,-5.193023400878906,-8.206724740600585,2.287958961486816
1788862333955275800,7.48827587890625,-3.801393685913086,-6.550685379791259,1.458218448638916
1788862333965281800,7.49828173828125,-3.5262101325988766,-5.274426257324219,1.20667763671875
1788862333975288600,7.50828857421875,-4.27724126586914,-4.5224972984313965,1.6310498809814453
1788862333985294600,7.518294677734375,-4.736329434204102,-4.904073188018798,3.261501211547851
1788862333995301600,7.528301513671875,-4.310011901092529,-5.86699116821289,5.187337171936035
1788862334005307600,7.5383076171875,-3.8596027137756344,-6.593032821655273,6.343886211395263
1788862334015314700,7.548314697265625,-4.2700586608886715,-6.921487361907959,6.293308701324462
1788862334025320700,7.55832080078125,-5.481674338531493,-6.986280444335937,4.853346040344238
1788862334035327700,7.56832763671875,-5.916521215057372,-7.467365340423584,3.1543606872558594
1788862334045333500,7.57833349609375,-5.842001688385009,-8.17844323348999,2.2972364929199216
1788862334055339500,7.588339599609375,-6.26308190536499,-9.242665871429443,2.60474176864624
1788862334065346800,7.598346923828125,-7.7401546920776365,-10.689811137390135,3.4606688621520996
1788862334075352600,7.6083525390625,-9.976189405059813,-12.253823371887206,3.778798407745361
1788862334085359600,7.618359619140625,-11.378293752288817,-13.907618168640136,3.476829723358154
1788862334095366000,7.628365966796875,-11.136180109405517,-14.916325255584717,2.4480711975097655
1788862334105372700,7.63837255859375,-10.6616792678833,-14.066682941436767,0.47105917663574215
1788862334115378700,7.648378662109375,-9.615562779998779,-12.518831568145751,-0.12389993591308593
1788862334125385700,7.6583857421875,-7.955632841491699,-11.274295617675781,1.7877204521179197
1788862334135391700,7.668391845703125,-7.614309467315674,-9.654318919372558,3.9667432380676266
1788862334145398500,7.6783984375,-7.690774282836913,-8.227225092315674,5.466560940551758
1788862334155404500,7.688404541015625,-5.910086798095703,-7.744943095397948,6.925677214813232
1788862334165411600,7.69841162109375,-2.8413188201904296,-8.342745322418212,8.429385494995117
1788862334175417600,7.70841748046875,-1.1653776580810546,-8.6949922416687,7.501033801269531
1788862334185424600,7.718424560546875,-3.4515409683227536,-7.493103008270263,2.9798832412719727
1788862334195430700,7.7284306640625,-3.8227918632507323,-6.530484303283691,-0.9425672660827636
1788862334205437700,7.738437744140625,-0.7719803977966309,-6.33311230392456,-1.8400936134338377
1788862334215443700,7.748443603515625,-0.2258031440734863,-5.341613541412353,-0.7905354606628417
1788862334225450800,7.75845068359375,-4.0723873863220215,-3.7779005821228027,0.9914987625122069
1788862334235456800,7.768456787109375,-7.289745504760742,-3.91347225112915,3.2257378242492676
1788862334245463600,7.778463623046875,-7.530362771606445,-5.542277568054199,5.706878932189941
1788862334255469600,7.788469482421875,-6.123170745849609,-7.694964135742187,8.2490721824646
1788862334265475800,7.798475830078125,-6.8958993316650385,-9.138667736816405,8.568099553680419
1788862334275482600,7.808482666015625,-8.209867130279541,-9.243563697052002,6.188861653900146
1788862334285488600,7.818488525390625,-8.033743670654296,-8.473378950500488,3.1112650573730467
1788862334295495700,7.82849560546875,-6.503998447418213,-7.277624858856201,1.5147814628601073
1788862334305501700,7.838501708984375,-5.639841285705566,-5.456235945892334,0.7007528984069824
1788862334315508500,7.848508544921875,-7.271340079498291,-3.8926726242065426,0.6178536659240722
1788862334325514500,7.858514404296875,-9.587281272888182,-3.6969466384887695,1.6283564041137695
1788862334335521800,7.868521728515625,-9.840168823242188,-4.3534068061828615,3.4229601860046386
1788862334345527600,7.878527587890625,-9.54433528060913,-4.965574243164062,4.934150346374511
1788862334355534600,7.88853466796875,-10.664372744750976,-5.271134230041503,5.045779998779296
1788862334365540900,7.898540771484375,-11.309310816955566,-6.21863953704834,4.393958596801758
1788862334375547600,7.908547607421875,-9.343371978759764,-7.25862088317871,4.7753848487854
1788862334385553700,7.9185537109375,-6.558017622375488,-7.484573664855956,5.5552960395812985
1788862334395560700,7.928560791015625,-5.035604641723633,-7.475595408630371,4.8519993019104
1788862334405566700,7.938566650390625,-3.895066825866699,-7.09297205581665,2.588281632232666
1788862334415573500,7.948573486328125,-1.6831237670898436,-6.048651219177246,1.0148422286987304
1788862334425579500,7.95857958984375,0.27293898925781246,-5.027224935913086,0.25139117431640623
1788862334435586800,7.9685869140625,-0.07826046676635742,-4.542997650146484,-0.745045629119873
1788862334445592600,7.978592529296875,-4.562749813842773,-4.233995998382568,-1.8038813133239746
1788862334455599600,7.988599609375,-8.75305163192749,-3.620332185363769,-2.0114286697387693
1788862334465605600,7.998605712890625,-10.731709666442871,-2.1998224128723143,-0.08200140686035155
1788862334475612700,8.00861279296875,-14.101548503112792,-0.41539398803710936,3.098246585845947
1788862334485618700,8.01861865234375,-13.88592071609497,-0.5883750579833984,4.841674307250976
1788862334495624400,8.02862451171875,-10.181641835021972,-3.459621398925781,4.734384145355224
1788862334505631700,8.0386318359375,-9.175179312133789,-6.484395921325683,4.383633602142334
1788862334515637800,8.0486376953125,-10.720037933349609,-7.658003647613525,5.048473475646972
1788862334525644500,8.05864453125,-10.218003772735596,-8.084321180725096,5.707178207397461
1788862334535650800,8.06865087890625,-9.995043743133545,-7.961019795227051,4.595819724273682
1788862334545658000,8.078658203125,-12.12318974380493,-5.843946977233887,1.8951602516174315
1788862334555664100,8.0886640625,-12.299013928222655,-2.990956423950195,0.2823661582946777
1788862334565671000,8.0986708984375,-8.543858261871337,-1.3156138122558594,-0.21173720932006834
1788862334575677200,8.10867724609375,-5.93073678741455,-1.6633716033935546,-0.49545010604858397
1788862334585684000,8.11868408203125,-6.55637160873413,-2.8227637573242186,-0.0987608184814453
1788862334595690000,8.12868994140625,-6.250961259460449,-3.8896798721313472,0.4887164138793945
1788862334605697300,8.138697265625,-5.792621279144287,-4.25808765258789,0.28520927276611324
1788862334615703000,8.148703125,-7.483825476837158,-2.2622212936401365,-1.0069114356994628
1788862334625710000,8.1587099609375,-7.535001537322998,0.9911994873046874,-1.868674395751953
1788862334635715800,8.1687158203125,-5.630563754272461,2.3988404258728027,0.37753567428588863
1788862334645723100,8.17872314453125,-3.9924809059143063,0.9817723182678222,3.5818753211975096
1788862334655729200,8.188729248046876,-1.036838956451416,-1.5638625968933104,4.16875400314331
1788862334665736000,8.19873583984375,2.8565818557739258,-2.4352023635864257,3.1185972999572753
1788862334675742200,8.2087421875,3.1670798835754392,-2.5239374626159665,1.7479168495178221
1788862334685749000,8.2187490234375,-0.23956980361938476,-2.0968717414855957,-0.3842693664550781
1788862334695755000,8.228755126953125,-2.3624784881591796,-1.4547767837524412,-2.683451148223877
1788862334705761300,8.23876123046875,-2.72609786529541,-0.5813420906066894,-4.313303928375244
1788862334715768000,8.24876806640625,-4.620958841705322,0.8029553817749023,-5.306747979736328
1788862334725774000,8.258774169921875,-7.213280689239501,2.4516625,-5.847687917327881
1788862334735781000,8.268781005859376,-7.330446932983398,4.284573508453369,-4.7369279846191406
1788862334745787100,8.278787109375,-5.853074871063232,5.790975265502929,-1.3795090690612792
1788862334755794200,8.288794189453125,-5.1605520408630365,5.130474882507324,3.0226795959472654
1788862334765800000,8.298800048828125,-5.858611462402344,1.9580080451965332,6.8864721626281735
1788862334775807200,8.30880712890625,-8.172158454132079,-1.601870548248291,8.919897560119628
1788862334785813000,8.31881298828125,-9.364021968078612,-4.455459651947021,8.374318856811524
1788862334795820000,8.328820068359375,-9.830143103790283,-6.459705716705322,6.250512346649169
1788862334805826300,8.338826416015625,-12.358120781707763,-8.461856855010986,4.173392768859863
1788862334815833000,8.3488330078125,-15.562011515808104,-10.99402438583374,2.9314006576538083
1788862334825839000,8.358839111328125,-16.529867536926268,-13.990517401123046,3.540874617767334
1788862334835846100,8.36884619140625,-14.445864629364014,-17.09834079360962,5.4981344749450685
1788862334845852200,8.37885205078125,-10.984148303985595,-19.648614474487303,7.372195824432373
1788862334855859000,8.38885888671875,-9.49256066970825,-20.1235642288208,6.8685156501770015
1788862334865865000,8.398864990234374,-10.326790310668944,-17.39656853790283,4.719420384979248
1788862334875872300,8.408872314453125,-9.60867945022583,-13.369521345520019,3.1194951255798338
1788862334885878000,8.4188779296875,-7.719055789947509,-10.056993711090087,2.525134563446045
1788862334895885000,8.428885009765626,-6.772897221374511,-7.143399928283691,1.9557634811401365
1788862334905891000,8.43889111328125,-6.257096401214599,-4.565892203521728,1.5662567985534668
1788862334915898000,8.448898193359375,-5.42675733795166,-2.548478029632568,1.7745523429870604
1788862334925904100,8.458904052734376,-4.106205484771729,-1.4493898300170898,2.571671858215332
1788862334935911200,8.4689111328125,-2.935590510559082,-1.364246033477783,3.5076550697326656
1788862334945917200,8.478917236328124,-2.883965537261963,-1.8468273056030273,3.9743747558593747
1788862334955923200,8.488923095703125,-3.43493119430542,-2.8522423652648925,3.8009447731018065
1788862334965930000,8.498929931640625,-3.4002152702331543,-4.244620268249512,3.5428199066162107
1788862334975936300,8.508936279296876,-3.2811037376403807,-5.289390017700195,4.0355765357971185
1788862334985943000,8.518943115234375,-4.425382493591308,-6.449081446838378,4.85813444366455
1788862334995949000,8.528948974609374,-6.164021811676025,-7.90370859298706,5.149778133392334
1788862335005956000,8.5389560546875,-7.308150930023193,-9.14270795211792,4.792742810821533
1788862335015962000,8.548962158203125,-7.417236743164062,-9.62693523788452,4.3923125831604
1788862335025969200,8.55896923828125,-7.622988448333739,-8.947879792022704,3.7638346473693844
1788862335035975000,8.568974853515625,-8.554183256530761,-7.711723547363281,2.5641899780273434
1788862335045982200,8.578982177734375,-9.180117353057861,-6.762422589111328,1.041926634979248
1788862335055988000,8.588988037109376,-9.819219558715819,-6.8116533607482905,-0.7324760704040527
1788862335065995000,8.5989951171875,-10.589703580474852,-8.227524367523193,-1.6916531105041503
1788862335076001300,8.609001220703124,-10.635043774414061,-10.824484980773924,0.9099462684631348
1788862335086008000,8.619008056640626,-11.059565656280517,-14.066832579040527,7.341220840454101
1788862335096014000,8.62901416015625,-14.081497064208984,-18.564639672851563,12.153566177368162
1788862335106021000,8.639021240234374,-18.042853348541257,-22.184074032592772,13.681665386962889
1788862335116027100,8.649027099609375,-15.916802274322508,-21.058799252319336,10.499921018218993
1788862335126034000,8.659033935546875,-7.696759786987304,-16.173879677581787,5.743240869903564
1788862335136040000,8.6690400390625,0.3429693878173828,-11.392658962249754,3.3756747032165526
1788862335146047200,8.679047119140625,2.1383213577270506,-8.218396473693847,3.238307382965088
1788862335156053000,8.689052978515624,-2.383278115081787,-7.076063006591797,3.404105847930908
1788862335166060000,8.69906005859375,-6.260687703704834,-8.003067961883545,3.5896564765930172
1788862335176066000,8.709066162109375,-6.81180299835205,-9.26346549835205,3.997119671630859
1788862335186073000,8.719072998046874,-6.312911227416992,-9.82565397567749,4.227711219024658
1788862335196079000,8.7290791015625,-6.097881990814209,-9.31434228363037,3.9433997718811034
1788862335206086100,8.739086181640625,-6.016179859161377,-8.090007409667969,3.2109237014770504
1788862335216092200,8.749092041015626,-5.588964500427246,-6.765415341186523,2.43250888671875
1788862335226099000,8.759098876953125,-5.03695138015747,-5.497386286926269,1.953070004272461
1788862335236105000,8.76910498046875,-4.980986916351318,-4.518008170318604,1.9385551567077635
1788862335246112000,8.779112060546876,-4.867262337493896,-3.9041947196960445,2.180968074798584
1788862335256118000,8.789117919921875,-4.141819234466553,-3.563020983123779,2.3077111251831055
1788862335266124000,8.7991240234375,-3.584269522857666,-3.354875076293945,1.8320131828308104
1788862335276131000,8.809131103515625,-3.1925182762145994,-3.2977135116577148,0.939125601196289
1788862335286137000,8.81913720703125,-2.8679543136596677,-3.3352725502014158,0.4944026428222656
1788862335296144100,8.82914404296875,-2.8473043243408203,-3.4298435157775877,1.174056639099121
1788862335306150000,8.83914990234375,-3.8560114112854,-3.753360015106201,2.7979239151000974
1788862335316157200,8.8491572265625,-5.50950693283081,-4.246415919494629,4.537610696411132
1788862335326163000,8.859162841796875,-6.823175456237792,-4.776731587219238,5.763441946411133
1788862335336170000,8.869169921875,-7.950096250152588,-5.288791467285156,5.953930615997314
1788862335346176300,8.87917626953125,-9.230545225524901,-5.523572867584228,4.843170683288574
1788862335356183000,8.88918310546875,-9.72390040512085,-5.144391179656982,3.0404864707946775
1788862335366189000,8.89918896484375,-8.721927010345459,-4.52683678894043,2.0916344253540036
1788862335376196000,8.909196044921876,-7.14444739151001,-3.8783074142456053,2.4691700996398924
1788862335386202000,8.9192021484375,-6.589890431976318,-3.5954923431396484,3.7536592903137205
1788862335396209000,8.929208984375,-7.688529718780517,-4.531625192260742,4.910657242584228
1788862335406215200,8.939215087890625,-9.031377574920654,-6.8958993316650385,4.688445401000976
1788862335416222200,8.94922216796875,-8.36908154067993,-8.974365647888183,3.017741555023193
1788862335426228000,8.95922802734375,-7.453897956085204,-9.628581251525878,2.096123553466797
1788862335436235300,8.9692353515625,-8.246229067993164,-9.380182829284667,3.0564976943969726
1788862335446241000,8.979240966796874,-10.3544732673645,-8.75903713607788,4.168155452728271
1788862335456248000,8.989248046875,-11.941230417633056,-7.895628162384033,4.10530765914917
1788862335466254000,8.999254150390625,-11.493813982391357,-6.9250786643981925,3.752013276672363
1788862335476261000,9.00926123046875,-10.471489873504638,-6.006752690124511,3.7216368431091307
1788862335486267100,9.01926708984375,-9.656862758636475,-5.308842906188964,3.4591724861145017
1788862335496274000,9.02927392578125,-8.88607946166992,-5.000739080047607,3.0098107620239256
1788862335506280200,9.0392802734375,-7.555651526641845,-4.2791865547180175,2.39420166015625
1788862335516287000,9.049286865234375,-6.285677183532714,-3.1956606658935547,2.0159177978515626
1788862335526293000,9.05929296875,-5.042188696289062,-2.6077345207214355,1.4893430702209471
1788862335536300300,9.06930029296875,-4.453364725494384,-2.1896470558166503,0.8869020774841309
1788862335546306300,9.079306396484375,-4.504989698791504,-1.547552098083496,0.7324760704040527
1788862335556312300,9.089312255859374,-3.8736686485290526,-1.0678139404296874,0.4653729476928711
1788862335566319000,9.099319091796875,-3.104531365203857,-0.7941267631530762,-0.15652093353271485
1788862335576325000,9.1093251953125,-4.829104748535156,-0.8927379440307617,-0.4041711677551269
1788862335586332400,9.11933251953125,-6.124068571472168,-1.0694599540710448,-0.18614917907714842
1788862335596338200,9.129338134765625,-5.439177259063721,-0.5481225425720214,-0.33698388366699217
1788862335606345200,9.13934521484375,-6.50579409866333,0.8993219985961913,-0.8237550086975097
1788862335616351500,9.1493515625,-7.551162398529052,2.127098537445068,-0.5467758041381836
1788862335626358300,9.159358154296875,-6.790704096221924,1.6114473548889159,1.5273510215759276
1788862335636364300,9.1693642578125,-6.341641647338867,-1.117942537689209,3.0602386344909664
1788862335646371300,9.179371337890625,-5.893327386474609,-3.9076363845825193,2.57915373840332
1788862335656377300,9.18937744140625,-6.483947008514404,-5.122394451904297,0.6238391700744629
1788862335666384100,9.199384033203126,-7.264307112121582,-4.753537758636474,-1.3545195892333983
1788862335676390100,9.20939013671875,-7.671471031951904,-2.8389246185302732,-2.41964005279541
1788862335686397400,9.2193974609375,-7.9110408355712885,-0.6549637916564941,-2.309955689239502
1788862335696403200,9.2294033203125,-7.500884163665771,0.8418611587524414,-0.8225579078674315
1788862335706410200,9.23941015625,-6.451026735687256,1.3727753768920898,1.124227317047119
1788862335716416300,9.249416259765624,-4.6724341773986815,1.3226467796325683,2.388814706420898
1788862335726423300,9.25942333984375,-3.2845454025268555,1.0740987197875975,2.828898899078369
1788862335736429300,9.26942919921875,-4.505139336395263,0.7576151878356933,2.734477571105957
1788862335746436400,9.279436279296876,-6.225672504425049,0.289848038482666,2.161066273498535
1788862335756442400,9.2894423828125,-7.00363840637207,-0.1236006607055664,1.2969091117858886
1788862335766449200,9.29944921875,-6.654833152008056,-0.9473556694030761,1.4254478134155273
1788862335776455400,9.309455322265626,-5.86669189300537,-2.621501180267334,2.4787469062805174
1788862335786462200,9.319462158203125,-5.6301148414611815,-4.16890364074707,2.8930934310913083
1788862335796468200,9.32946826171875,-5.666476779174804,-5.240757796478271,2.637961316680908
1788862335806475500,9.3394755859375,-5.378125116729736,-5.877914713287353,2.62374574432373
1788862335816481300,9.349481201171875,-6.385186190032958,-5.827486840820312,2.6631004341125486
1788862335826488300,9.35948828125,-8.512434365081786,-5.390245762634277,2.784606168365478
1788862335836494000,9.369494140625,-10.611101757812499,-4.312705377960205,3.0014310562133786
1788862335846501400,9.37950146484375,-12.190975578308105,-3.017741555023193,3.8290766426086424
1788862335856507400,9.38950732421875,-11.773486663818359,-2.7307366310119625,6.139331607055664
1788862335866513200,9.39951318359375,-8.939500086212158,-4.06655151977539,8.655637551879883
1788862335876520400,9.4095205078125,-6.382791988372802,-6.5482911781311035,8.29336491317749
1788862335886526500,9.4195263671875,-5.608716664123535,-9.228151023864745,5.278316835021973
1788862335896533200,9.429533203125,-5.157559288787842,-11.77947216796875,2.225560080718994
1788862335906539300,9.439539306640626,-5.966200899505615,-13.887566729736328,0.17357962036132812
1788862335916546300,9.44954638671875,-8.191012792205811,-15.224578719329832,-0.3630208267211914
1788862335926552300,9.45955224609375,-10.139294393157959,-15.578172377014159,0.5957073005676269
1788862335936559000,9.46955908203125,-11.029189222717285,-15.090802701568602,1.8691233085632324
1788862335946565400,9.4795654296875,-10.828974108886719,-14.404415013122557,3.05799407043457
1788862335956572400,9.489572509765624,-9.476549446105956,-13.318943835449218,4.595370811462402
1788862335966578200,9.499578125,-7.7042416671752925,-11.554117936706541,5.3028574020385735
1788862335976585500,9.50958544921875,-6.0407204261779786,-9.293393019104004,4.573224446105956
1788862335986591200,9.51959130859375,-4.940584763336181,-6.808810246276855,3.4675521919250487
1788862335996598300,9.529598388671875,-4.517409619903564,-4.635623326873779,2.5502736808776856
1788862336006604300,9.539604248046874,-4.368819479370117,-3.2405519470214843,2.339883209991455
1788862336016611300,9.549611328125,-4.715080894470215,-2.8600235206604,3.0743045692443847
1788862336026617300,9.559617431640625,-5.814169094085693,-3.6846763549804686,4.51351904220581
1788862336036624100,9.5696240234375,-7.625831562805176,-5.485265641021728,5.3950341659545895
1788862336046630400,9.57963037109375,-8.72072990951538,-7.758859392547607,5.3199160888671875
1788862336056637200,9.58963720703125,-8.550741591644286,-9.884611191558838,5.163844068145751
1788862336066643200,9.599643310546876,-7.829637979125976,-11.149198580932616,5.353285274505615
1788862336076650500,9.609650390625,-6.931064168548583,-10.935216807556152,5.412392127990723
1788862336086656300,9.61965625,-6.228814894104003,-8.844480207824706,4.693682717132568
1788862336096663300,9.629663330078126,-5.343858105468749,-6.1918544059753415,3.23696064453125
1788862336106669300,9.63966943359375,-4.592078784179687,-5.092915843963623,2.11961665725708
1788862336116676400,9.64967626953125,-4.41790061340332,-5.858611462402344,1.5924433792114256
1788862336126682400,9.659682373046875,-4.121767795562744,-7.1793129531860345,1.9666870262145995
1788862336136689200,9.669689208984375,-3.538929328918457,-7.912237936401366,3.214365366363525
1788862336146695400,9.6796953125,-4.218433687591553,-8.046612504577636,4.365228176879882
1788862336156702200,9.6897021484375,-5.625326438140869,-8.163030560302733,4.887912326812744
1788862336166708200,9.699708251953124,-7.215076340484619,-8.435520636749267,4.516960707092285
1788862336176715300,9.70971533203125,-8.629600608825683,-8.730905266571044,3.005022358703613
1788862336186721300,9.71972119140625,-9.268553176879882,-9.177124600982665,2.22151986541748
1788862336196728300,9.729728271484374,-10.811915422058105,-10.192565380096434,3.2613515739440917
1788862336206734000,9.739734130859375,-13.152397182464599,-11.518504187011718,6.138134506225586
1788862336216740400,9.749740234375,-15.811457401275634,-13.646799825286864,8.728062152099609
1788862336226747400,9.759747314453126,-16.77168190460205,-16.063746401214598,9.020304392242432
1788862336236753200,9.769753173828125,-13.015179499816893,-16.578948670959473,7.651868505859374
1788862336246760400,9.779760498046874,-7.548917834472656,-14.967202040863036,6.017077684783935
1788862336256766200,9.78976611328125,-4.224568829345703,-12.444312041473388,3.8543653976440426
1788862336266773200,9.799773193359375,-2.3910592704772946,-10.045321977996826,2.1850082901000976
1788862336276779300,9.809779296875,-1.2735656455993651,-8.278700428009033,1.4074913009643555
1788862336286786300,9.819786376953125,-1.2069769119262694,-7.060051782989501,1.4472949035644531
1788862336296792300,9.829792236328124,-1.8305168067932127,-6.4561144142150875,2.216132911682129
1788862336306799000,9.839799072265626,-2.8624177223205565,-6.22462504119873,2.924666965484619
1788862336316805400,9.849805419921875,-4.0714895606994626,-6.058078388214111,3.2372599197387695
1788862336326812200,9.859812255859374,-5.379920767974853,-5.782296284484863,3.201197257232666
1788862336336818200,9.869818115234375,-5.991489654541016,-5.187187534332275,2.7328315574645994
1788862336346825500,9.879825439453125,-5.365405920410156,-4.420893365478515,2.1526865676879883
1788862336356831200,9.889831298828126,-4.506037162017822,-3.5612253318786617,1.64077632522583
1788862336366838300,9.89983837890625,-4.241028965759277,-2.9513024589538572,1.068711766052246
1788862336376844300,9.90984423828125,-4.102464544677734,-2.812887675476074,0.20964228286743164
1788862336386851300,9.919851318359376,-3.712508949279785,-2.7479449554443356,-0.6016928047180176
1788862336396857300,9.929857421875,-3.5021184783935544,-2.605340319061279,-0.81073653717041
1788862336406864100,9.939864013671874,-3.8744168365478515,-2.7385177864074706,0.005985504150390624
1788862336416870400,9.949870361328125,-4.853645315551757,-3.423109823608398,1.4487912796020508
1788862336426877200,9.959877197265625,-5.895871225738525,-4.581753789520263,2.743455827331543
1788862336436883200,9.96988330078125,-7.052420265197753,-5.859808563232422,3.394379403686523
1788862336446890200,9.97989013671875,-8.075043649291992,-6.462249555969238,3.481318851470947
1788862336456896300,9.989896240234375,-8.656086464691162,-5.660491275024413,3.5954923431396484
1788862336466903300,9.9999033203125,-10.263942517089843,-3.767874862670898,4.460996243286132
1788862336476909300,10.009909423828125,-11.758971816253661,-2.2233155166625975,6.0710968597412105
1788862336486916400,10.019916259765624,-12.100744103240967,-2.436249826812744,7.49534757232666
1788862336496922400,10.02992236328125,-11.22356847000122,-5.003582194519042,7.5242276298522945
1788862336506929400,10.039929443359375,-10.067169068145752,-8.10751500930786,5.8180596717834465
1788862336516935400,10.049935302734376,-10.146028085327147,-9.146897805023192,3.3017537269592285
1788862336526942200,10.059942138671875,-10.80248825302124,-8.595333597564697,1.5459060844421386
1788862336536948200,10.0699482421875,-11.308861904144287,-7.8429557258605955,1.8017863868713377
1788862336546954800,10.079954833984376,-12.245593303680419,-7.6090721511840815,2.9809307044982907
1788862336556961000,10.0899609375,-11.544990042877197,-7.7495818611145015,3.0952538337707516
1788862336566968000,10.099968017578124,-9.399336442565918,-7.174674187469482,2.318185757446289
1788862336576973800,10.109973876953125,-6.475118389892578,-5.505167442321777,1.7061679580688476
1788862336586979800,10.119979736328125,-3.579032206726074,-3.290979819488525,1.4514847564697264
1788862336596987100,10.129987060546876,-4.508431363677978,-1.3792097938537597,1.0835258888244628
1788862336606993000,10.139992919921875,-6.261286254119873,0.1649006393432617,0.46238019561767574
1788862336617000000,10.15,-5.046677824401855,0.9781810157775879,-0.2319382858276367
1788862336627006000,10.160005859375,-4.185064501953125,0.8276455863952636,-0.448164623260498
1788862336637013000,10.170012939453125,-4.204517390441894,0.16160861206054686,0.1261444999694824
1788862336647019000,10.18001904296875,-4.22636448059082,-0.3799298759460449,0.6726210289001464
1788862336657026000,10.190026123046875,-4.422090466308593,-0.34237083740234375,0.5587468124389648
1788862336667032000,10.200031982421875,-5.202899482727051,-0.17268179473876952,0.5223848747253418
1788862336677038800,10.210038818359376,-6.412569871520995,0.1497872413635254,0.22131401596069333
1788862336687044900,10.220044921875,-6.851905876159668,0.6762123313903808,-0.5508160194396973
1788862336697052000,10.230052001953124,-5.782595559692383,0.8023568313598632,-0.2371756019592285
1788862336707058000,10.240057861328125,-5.2453965621948235,-0.012569558715820313,0.814627114868164
1788862336717065000,10.25006494140625,-5.575646753692626,-1.2150573425292968,0.8583212951660156
1788862336727071000,10.260071044921874,-5.916221939849853,-1.9737199935913086,0.06763619689941405
1788862336737078000,10.270078125,-6.523750611114502,-2.0226514900207517,-0.6793547210693359
1788862336747083800,10.280083740234375,-6.998550727844238,-1.493383285522461,-1.0054150596618652
1788862336757091000,10.290091064453126,-7.160458615112304,-0.790385823059082,-0.2931400657653808
1788862336767097000,10.30009716796875,-8.176049031829834,-0.19617489852905273,0.8466495620727539
1788862336777104000,10.310103759765624,-8.771457057189942,0.30735563812255856,2.1254525238037107
1788862336787110000,10.32010986328125,-7.6933181221008295,0.21877017669677734,3.60716407623291
1788862336797117000,10.330116943359375,-5.95632481765747,-0.4704606262207031,4.748300442504883
1788862336807123000,10.340123046875,-4.658817155456543,-1.794603781890869,5.210531000518799
1788862336817129700,10.350129638671875,-5.081244110870361,-3.0843302886962887,4.333505004882812
1788862336827136000,10.360135986328125,-6.265476107025146,-3.876511763000488,2.8730419921875
1788862336837143000,10.37014306640625,-7.531410234832763,-4.4644379081726075,1.8683751205444334
1788862336847148800,10.380148681640625,-9.179219527435302,-4.8650177734375,1.81944362411499
1788862336857156000,10.390156005859374,-10.068515806579589,-5.0005894424438475,2.8124387626647946
1788862336867162000,10.400162109375,-9.075221392822264,-5.3962312667846675,4.36029013595581
1788862336877169000,10.4101689453125,-7.20116004333496,-6.223577577972412,5.106083953094482
1788862336887175000,10.4201748046875,-6.3052797096252435,-6.8207812545776365,4.010437418365478
1788862336897182000,10.430181884765625,-5.5081601943969725,-6.945429378509521,2.3172879318237305
1788862336907188000,10.44018798828125,-4.7846623802185055,-7.049128237915038,1.3953706550598144
1788862336917194000,10.450194091796876,-5.313631309509277,-6.885275061798096,0.7166144844055176
1788862336927201000,10.460200927734375,-6.413467697143554,-6.439355002593993,0.09412205276489258
1788862336937207000,10.47020703125,-6.983736605072021,-5.768230349731445,0.053121349334716794
1788862336947213800,10.4802138671875,-6.073042148590088,-5.044582897949218,0.7561188117980957
1788862336957219800,10.4902197265625,-4.70490553741455,-4.543596200561523,1.4384662849426268
1788862336967227000,10.500226806640624,-4.571728070068359,-4.593126247406006,1.7405846069335937
1788862336977233000,10.51023291015625,-4.384980340576171,-5.6109612281799315,2.024447141265869
1788862336987240000,10.520239990234375,-4.1739913192749025,-7.319673025512695,2.2004209632873533
1788862336997246000,10.530245849609376,-5.5361424263000485,-8.64501328201294,2.0751742889404294
1788862337007253000,10.5402529296875,-7.798962270355224,-9.692326870727538,2.480542557525635
1788862337017259000,10.550259033203124,-10.013748443603514,-11.271452503204346,4.002057712554931
1788862337027266000,10.56026611328125,-11.275791993713378,-13.63048932647705,6.277596752929687
1788862337037272000,10.57027197265625,-12.285097631072997,-16.01720910644531,7.6867340675354
1788862337047278800,10.58027880859375,-12.945747651672363,-16.961272748565673,7.396437116241454
1788862337057285000,10.59028515625,-11.843816337585448,-15.619921268463134,6.5105825019836425
1788862337067292000,10.6002919921875,-9.94626188430786,-12.722488346862793,6.131849726867675
1788862337077298000,10.6102978515625,-8.17829359588623,-9.062502196502685,5.636848533630371
1788862337087305000,10.620304931640625,-6.504148085021972,-5.646425340270996,4.395305335235595
1788862337097311000,10.63031103515625,-5.0185459548950195,-3.787178113555908,2.8975825592041016
1788862337107318000,10.640318115234376,-4.038419650268555,-3.69634808807373,1.631199518585205
1788862337117323800,10.65032373046875,-3.208080587005615,-5.044133985137939,1.7350480155944823
1788862337127331000,10.6603310546875,-3.37717107925415,-7.524077992248535,3.8941690002441405
1788862337137337000,10.670337158203125,-4.949413381958007,-9.750535898590087,5.651363381195068
1788862337147344000,10.68034375,-7.286752752685547,-10.803834991455078,5.86055675125122
1788862337157350100,10.69035009765625,-7.950545162963866,-10.862642569732666,6.037428398895264
1788862337167357000,10.70035693359375,-7.87841983795166,-10.319009155273436,5.952434239959716
1788862337177363000,10.710363037109374,-8.531587978363037,-10.014197356414794,4.912303256225585
1788862337187370000,10.720369873046875,-8.512434365081786,-10.22159507522583,3.6311060928344725
1788862337197376000,10.7303759765625,-7.760655043792724,-10.521768108367919,2.946364418029785
1788862337207383000,10.740383056640624,-6.8296098731994626,-10.288931996917723,2.588281632232666
1788862337217388800,10.750388916015625,-5.899911441040039,-9.507374792480467,2.365321602630615
1788862337227396000,10.76039599609375,-5.310488919830322,-8.492981476593018,1.993771432495117
1788862337237401900,10.77040185546875,-5.155314724731445,-7.8724343338012694,1.2529156562805175
1788862337247409000,10.780408935546875,-4.88417138671875,-7.551611311340332,0.7719803977966309
1788862337257415200,10.790415283203124,-4.474014714813232,-7.403320446014404,1.3383587280273437
1788862337267422000,10.800421875,-4.659714981079102,-7.6470801025390625,2.812738037872314
1788862337277428000,10.810427978515625,-6.295702902984619,-8.20358235092163,3.7856817375183103
1788862337287434000,10.82043408203125,-7.541585591888428,-9.026738809204101,4.472967251586914
1788862337297441000,10.83044091796875,-7.756016278076172,-9.81338369216919,5.205592959594727
1788862337307447000,10.840447021484374,-8.289175060272216,-10.211569355773925,5.372738162994384
1788862337317453800,10.850453857421876,-8.934113132476806,-10.102333905029296,4.9449242538452145
1788862337327460000,10.860460205078125,-8.15809251937866,-9.931896674346923,4.687996488189697
1788862337337467000,10.870466796875,-7.060351058197021,-9.388263259887696,4.037671462249755
1788862337347473000,10.880472900390625,-5.970839665222168,-8.337059093475341,3.3461960952758787
1788862337357480000,10.89047998046875,-5.247192213439941,-7.294833183288574,3.1242835289001465
1788862337367486000,10.90048583984375,-5.397278730010986,-6.4266358062744136,2.961627453613281
1788862337377493000,10.910492919921875,-6.106860247039794,-5.716156463623046,2.773233710479736
1788862337387498800,10.920498779296874,-6.483348458099365,-5.346102669525147,2.5513211441040036
1788862337397506000,10.930506103515626,-6.371120255279541,-5.631760855102539,2.7965771766662595
1788862337407512000,10.940511962890625,-5.90559766998291,-6.512228515625,3.3330279861450194
1788862337417518800,10.950518798828124,-6.217143161010742,-7.475445771026611,3.402010921478271
1788862337427525000,10.960525146484375,-7.237521981048584,-7.767987286376953,2.6032453926086423
1788862337437532000,10.970531982421875,-7.08623836364746,-7.346757431793212,1.2605471740722656
1788862337447538000,10.980537841796876,-5.333982023620605,-6.394613359069824,0.5951087501525879
1788862337457545000,10.990544921875,-4.7764323120117185,-4.978891989898681,0.7471405555725097
1788862337467551000,11.000551025390624,-5.182399131011962,-3.2137668159484862,1.5870564254760742
1788862337477558000,11.01055810546875,-5.686827493286133,-1.6840215927124023,2.9008745864868164
1788862337487563800,11.020563720703125,-6.604255641937256,-1.0486603271484374,4.279036917114258
1788862337497571000,11.030571044921874,-6.475866577911376,-1.605611488342285,4.98607459487915
1788862337507576800,11.040576904296875,-5.671714095306396,-2.818124991607666,4.557961410522461
1788862337517584000,11.050583984375,-5.427655163574219,-3.4392706848144527,3.708618371582031
1788862337527590100,11.060590087890626,-5.574150377655029,-3.3414076919555664,3.349039209747314
1788862337537597000,11.070596923828125,-6.478111141967773,-3.149871559143066,3.3726819511413573
1788862337547603500,11.080603515625,-7.127089429473877,-3.1658827827453613,3.385401147460937
1788862337557610500,11.090610595703126,-7.379378429412841,-3.674052085113525,3.1124621582031247
1788862337567616500,11.100616455078125,-7.968202400207519,-4.433462924194336,2.3714567443847656
1788862337577623300,11.110623291015624,-10.079140076446533,-4.648043247985839,1.5891513519287108
1788862337587629300,11.12062939453125,-13.469329627227783,-3.9585131698608396,1.0203788200378416
1788862337597636400,11.13063623046875,-15.780183142089843,-3.171868286895752,1.138293251800537
1788862337607642400,11.140642333984376,-14.47339794845581,-3.077895871734619,2.060210528564453
1788862337617649400,11.1506494140625,-11.655123319244383,-4.025999729156494,3.287538154602051
1788862337627655400,11.160655517578125,-10.671405712127685,-6.210858381652832,3.726724521636963
1788862337637662500,11.170662353515626,-10.214262832641602,-7.594407666015624,3.1624411178588865
1788862337647668500,11.18066845703125,-9.637858782958984,-7.335384973907471,2.3569418968200684
1788862337657674200,11.19067431640625,-10.170718289947509,-6.1541457298278806,0.9045593147277832
1788862337667681500,11.200681640625,-9.576058452606201,-4.4008419265747065,-0.23343466186523437
1788862337677687300,11.210687255859375,-8.560468035888672,-2.957886513519287,-0.6983586967468262
1788862337687694300,11.2206943359375,-7.790133651733398,-1.4731822090148925,-0.7957727767944336
1788862337697700600,11.23070068359375,-7.767089460754394,-0.03232172241210937,-0.34177228698730466
1788862337707707400,11.240707275390625,-7.737161940002441,0.2407669044494629,0.30735563812255856
1788862337717713400,11.25071337890625,-6.205022515106201,-0.9611223289489745,1.3358148887634276
1788862337727720400,11.260720458984375,-4.916792384338379,-2.5368062965393063,2.684498611450195
1788862337737726500,11.2707265625,-4.043656966400146,-2.789244934082031,2.730586993408203
1788862337747733200,11.280733154296875,-2.9409774642944333,-2.0159177978515626,1.345840608215332
1788862337757739300,11.2907392578125,-3.0816368118286133,-1.2026374214172362,-0.17522563400268554
1788862337767746600,11.30074658203125,-3.827879541778564,-0.4381389038085937,-1.5228618934631346
1788862337777752300,11.31075244140625,-3.608810089874267,0.035464112091064454,-2.301725621032715
1788862337787759400,11.32075927734375,-3.2673370780944824,0.7893383598327637,-2.283020920562744
1788862337797765400,11.330765380859376,-3.1215900520324706,1.514931100463867,-1.584512586212158
1788862337807772400,11.3407724609375,-3.4082957008361814,1.5928922920227049,-0.6947673942565917
1788862337817778400,11.3507783203125,-4.205415216064453,1.2373533454895018,-0.0613514175415039
1788862337827785500,11.360785400390625,-4.252401423645019,0.8289923248291016,0.1897404815673828
1788862337837791500,11.37079150390625,-4.089296435546875,0.5542576843261718,0.3227683113098144
1788862337847798300,11.38079833984375,-5.273977344512939,0.5503671066284179,0.982520506286621
1788862337857804300,11.39080419921875,-7.598896794128417,0.8245031967163086,2.2288521080017087
1788862337867811300,11.400811279296875,-9.220818781280517,1.1610381675720214,3.864391117095947
1788862337877817300,11.4108173828125,-9.839570272827148,1.0034697708129883,5.604377173614502
1788862337887824400,11.420824462890625,-9.740360541534423,-0.2507926239013672,6.884077960968018
1788862337897830400,11.430830322265624,-9.597157354736327,-2.439541854095459,7.135918048095703
1788862337907837400,11.44083740234375,-9.203161544036865,-5.040393045043945,6.408230381011962
1788862337917843500,11.450843505859375,-9.344718717193603,-7.8161705947875975,5.543325031280517
1788862337927850500,11.4608505859375,-10.328585961914062,-10.56037461013794,4.652981288909912
1788862337937856500,11.4708564453125,-11.595417915344237,-12.932579542541504,3.3827076705932617
1788862337947863300,11.48086328125,-11.136030471801757,-14.334683889770506,2.6752210800170895
1788862337957869300,11.490869384765626,-9.22575682220459,-14.574403330993652,3.0813375366210938
1788862337967876400,11.50087646484375,-8.124723333740233,-13.788656273651123,2.961028903198242
1788862337977882400,11.51088232421875,-7.856123834991455,-12.133215463256835,1.9099743743896482
1788862337987889400,11.520889404296875,-6.4463879699707025,-10.25286933441162,1.4181155708312987
1788862337997895400,11.5308955078125,-5.138854588317871,-8.042422651672362,1.696890426635742
1788862338007901400,11.5409013671875,-5.352537086486816,-5.959317569732666,1.880795041656494
1788862338017908200,11.550908203125,-6.145766024017334,-4.619911378479004,1.7308581626892088
1788862338027914500,11.56091455078125,-5.956923368072509,-3.962703022766113,1.7865233512878418
1788862338037921500,11.570921630859376,-4.646696509552002,-3.8289270050048825,2.492363928222656
1788862338047927300,11.58092724609375,-3.6332010192871094,-4.080767092132568,3.3467946456909177
1788862338057934600,11.5909345703125,-3.8754642997741695,-4.582202702331543,3.6351463081359863
1788862338067940400,11.6009404296875,-4.60345124206543,-5.363310993957519,3.490297107696533
1788862338077947400,11.610947509765625,-4.329464789581299,-6.437409713745117,3.227234200286865
1788862338087953400,11.620953369140626,-4.077774340057373,-7.411550514221191,2.996343377685547
1788862338097960400,11.63096044921875,-5.1788078285217285,-8.176348307037353,2.9734488243103026
1788862338107966500,11.640966552734374,-7.014861226654053,-9.09781667098999,3.4624645133972165
1788862338117973200,11.65097314453125,-8.020725199127197,-10.315268215179442,4.529829541015625
1788862338127979500,11.6609794921875,-8.674641527557373,-11.308861904144287,5.431246466064453
1788862338137986300,11.670986328125,-9.69112976989746,-11.897985150146484,5.4981344749450685
1788862338147992300,11.680992431640625,-10.468646759033202,-12.075156072998046,4.910956517791748
1788862338157999600,11.69099951171875,-10.163086772155761,-11.750143197631836,4.318840519714355
1788862338168005400,11.70100537109375,-8.631994810485839,-11.243769546508789,4.451718711853027
1788862338178012400,11.711012451171875,-7.829039428710937,-10.624718779754637,4.82626163406372
1788862338188018400,11.721018310546874,-7.679551462554931,-10.109217234802246,4.694879817962646
1788862338198025500,11.731025390625,-7.351845110321045,-9.776572841644287,4.018068936157226
1788862338208031500,11.741031494140625,-6.302286957550049,-9.48732335357666,3.5036148544311523
1788862338218038300,11.751038330078124,-5.106383228302001,-9.216329653167724,3.503016304016113
1788862338228044500,11.76104443359375,-4.370315855407714,-9.353846611022949,3.9686885269165035
1788862338238051300,11.77105126953125,-4.837035541534424,-9.744999307250977,3.98365228729248
1788862338248057300,11.781057373046876,-5.692364084625244,-9.931747036743163,3.0056209091186523
1788862338258064400,11.791064453125,-5.534047499847412,-9.73602105102539,2.429067221832275
1788862338268070400,11.8010703125,-5.341014990997314,-9.338733213043213,2.871096703338623
1788862338278077400,11.811077392578126,-5.8925791984558105,-9.107992028045654,3.9338229652404784
1788862338288083200,11.821083251953125,-7.30336252670288,-9.357886826324462,4.957793087768555
1788862338298090500,11.831090576171874,-7.788338000488281,-10.034996983337402,5.8740241355895995
1788862338308096500,11.841096435546875,-6.7562874473571775,-11.014075824737548,6.867617824554443
1788862338318103300,11.851103271484375,-6.4381579017639154,-11.263072797393798,6.273706175231934
1788862338328109600,11.861109619140626,-6.910264541625976,-10.797999124908447,4.071339923095703
1788862338338116400,11.871116455078125,-7.117512622833251,-10.270376934051512,1.821538550567627
1788862338348122400,11.881122314453124,-5.727080008697509,-9.526827680969237,0.8930372192382812
1788862338358129400,11.89112939453125,-4.346074563598632,-8.046313229370117,0.9111433692932128
1788862338368135400,11.901135498046875,-4.372710057067871,-6.483647733306884,1.364994221496582
1788862338378141400,11.911141357421876,-5.200355643463134,-5.491251145172119,1.986139914703369
1788862338388148200,11.921148193359375,-5.318868625640869,-4.848258361816406,2.668188112640381
1788862338398154500,11.931154541015625,-4.930708681488037,-4.32841732635498,3.286640328979492
1788862338408161300,11.941161376953126,-4.782866728973389,-3.8501755447387693,3.687070556640625
1788862338418167300,11.951167236328125,-5.054758255004883,-3.6062662506103513,3.750666538238525
1788862338428174600,11.961174560546874,-5.30495232849121,-3.4862568923950192,3.496581887054443
1788862338438180400,11.971180419921875,-5.329792170715332,-3.1953613906860348,2.9887118598937987
1788862338448187400,11.9811875,-5.2636523498535155,-2.6755203552246094,2.4583961921691895
1788862338458193400,11.991193359375,-5.085583601379394,-2.0491373458862303,2.3705589187622067
1788862338468200400,12.001200439453125,-4.818181203460693,-1.5834651229858399,2.7576713996887205
1788862338478206500,12.01120654296875,-4.4942157913208005,-1.4059949249267578,3.2632968627929686
1788862338488213200,12.021213134765626,-4.037671462249755,-1.7863737136840818,3.6336499320983884
1788862338498219500,12.031219482421875,-4.163666324615479,-2.769642407989502,3.919158480072021
1788862338508226300,12.041226318359374,-5.276670821380615,-4.071639198303222,4.234744186401367
1788862338518232300,12.051232421875,-7.727734770965576,-5.312883121490478,4.712537055206298
1788862338528239600,12.061239501953125,-11.170447120666504,-6.325480786132812,5.597044931030273
1788862338538245400,12.071245361328126,-13.626748386383056,-7.93588067779541,7.1507321708679195
1788862338548252400,12.08125244140625,-13.807660249328613,-10.468646759033202,8.08851103363037
1788862338558258200,12.091258056640624,-12.14937632446289,-12.839953865814207,7.259219433593749
1788862338568265500,12.101265380859376,-10.032752419281005,-12.95951431121826,5.24779076385498
1788862338578271500,12.111271484375,-10.704774897766113,-10.562768811798096,3.736002053070068
1788862338588278300,12.1212783203125,-14.063241276550292,-7.193528525543212,4.419247351837158
1788862338598284500,12.131284423828125,-16.423026287841797,-3.646069853210449,6.966079367828368
1788862338608291300,12.141291259765625,-15.205574743652344,-2.213439434814453,8.923638500213622
1788862338618297300,12.15129736328125,-12.871976313018799,-5.223549472045898,7.394192552185058
1788862338628304400,12.161304443359375,-9.923666606140136,-7.758859392547607,4.331410078430175
1788862338638310400,12.171310302734375,-5.638793822479248,-8.282890280914307,2.654571090698242
1788862338648317400,12.1813173828125,-2.901024224090576,-8.819490727996826,1.6048633003234862
1788862338658323500,12.191323486328125,-2.925265515899658,-9.178172064208983,0.46507367248535153
1788862338668330500,12.20133056640625,-4.467430660247802,-8.33750800628662,-0.5159504577636719
1788862338678336300,12.211336181640625,-5.3193175384521485,-5.79082562789917,-1.2352584190368652
1788862338688342300,12.22134228515625,-4.619312828063965,-2.158522434234619,-1.3845967475891112
1788862338698349600,12.231349609375,-3.867533506774902,1.0863690032958984,-1.7645266235351562
1788862338708355300,12.241355224609375,-3.716998077392578,3.1290719322204588,-2.270900274658203
1788862338718362400,12.2513623046875,-3.146130619049072,3.827430628967285,-2.21523508605957
1788862338728368600,12.26136865234375,-1.8559551994323729,3.3099837951660156,-1.4021043472290038
1788862338738375400,12.27137548828125,-1.247528702545166,1.591695191192627,-0.046238019561767575
1788862338748381400,12.28138134765625,-2.5802012016296385,-0.6801029090881348,1.4235025245666504
1788862338758388500,12.291388427734375,-3.5519478004455562,-2.2279542823791503,2.4516625
1788862338768394500,12.30139453125,-2.2694038986206055,-2.6403555183410643,2.1097405754089356
1788862338778401300,12.3114013671875,-2.940678189086914,-2.435501638793945,0.30705636291503907
1788862338788407300,12.3214072265625,-5.58627102355957,-1.9161095161437987,-2.129043826293945
1788862338798414600,12.33141455078125,-5.737405003356933,-1.3922282653808593,-3.3635540573120117
1788862338808420400,12.34142041015625,-5.676801773834228,-1.1768997535705565,-3.7104140228271483
1788862338818427400,12.351427490234375,-7.309348030853271,-1.1341033988952636,-3.7921161544799804
1788862338828433400,12.361433349609374,-9.760561618041992,-0.8544307174682617,-3.199102330780029
1788862338838440400,12.3714404296875,-9.648931965637207,0.44846389846801754,-0.8506897773742675
1788862338848446500,12.381446533203125,-8.29351455078125,1.5044564682006836,2.925115878295898
1788862338858453500,12.39145361328125,-8.457517364501953,0.3420715621948242,6.260238790893554
1788862338868459500,12.40145947265625,-8.026710703277587,-1.4870985061645507,8.307730123138427
1788862338878466300,12.41146630859375,-7.893832511138916,-1.3992612327575682,7.3472063446044915
1788862338888472300,12.421472412109376,-10.893767191314696,0.3666121292114258,5.146635743713379
1788862338898479400,12.431479248046875,-12.801646639251707,1.1767501159667968,4.141968872070312
1788862338908485400,12.4414853515625,-10.943596513366698,0.13901333389282225,4.116380841827392
1788862338918492400,12.451492431640625,-8.77819074935913,-1.5625158584594725,4.059817827606201
1788862338928498400,12.46149853515625,-8.167669326019286,-3.3086370567321777,3.959560633087158
1788862338938505500,12.47150537109375,-8.457517364501953,-5.350741435241699,3.772363990783691
1788862338948511500,12.481511474609375,-8.259846089935301,-7.437587457275391,2.473958502960205
1788862338958517200,12.491517333984374,-8.844180932617187,-8.737190045928955,0.9897031112670898
1788862338968524500,12.501524658203126,-9.023147506713867,-8.83654941482544,0.9859621711730956
1788862338978530300,12.5115302734375,-7.143399928283691,-7.7799582946777335,1.9505261650085448
1788862338988537300,12.521537353515624,-4.556764309692382,-6.275352188873291,2.319532495880127
1788862338998543600,12.531543701171875,-3.9579146194458006,-4.872200378417968,1.8634370796203612
1788862339008550400,12.54155029296875,-5.32440521697998,-3.85616104888916,1.2957120109558105
1788862339018556400,12.551556396484376,-6.610989334106445,-3.1585505401611327,0.8283937744140625
1788862339028563500,12.5615634765625,-6.382193437957763,-2.5152584815979004,0.8254010223388671
1788862339038569500,12.571569580078124,-5.124190103149414,-2.0055928031921386,1.2969091117858886
1788862339048576300,12.581576171875,-3.9728783798217773,-1.8405425262451172,2.046144593811035
1788862339058582300,12.591582275390625,-3.3541268882751463,-2.33659118270874,2.720411636352539
1788862339068589600,12.601589599609374,-3.4825159523010254,-3.5173815139770506,2.71352830657959
1788862339078595300,12.61159521484375,-4.145410536956787,-4.995352126312255,2.2981343185424805
1788862339088602400,12.621602294921875,-5.016600666046142,-6.547842265319824,2.300378882598877
1788862339098608400,12.6316083984375,-5.852476320648193,-8.06397046661377,2.927958992767334
1788862339108615400,12.641615478515625,-6.356455770111084,-9.124302526855468,3.6272155151367187
1788862339118621400,12.651621337890624,-7.109282554626464,-9.450512503051756,3.953126216125488
1788862339128628500,12.66162841796875,-7.822904286956787,-9.273640855407715,3.9993642356872554
1788862339138634500,12.671634521484375,-8.253112397766113,-8.966285217285156,4.029142118835449
1788862339148641300,12.681641357421874,-8.434173898315429,-8.990227233886719,4.340537972259521
1788862339158647300,12.691647216796875,-8.939799361419677,-9.290100991821289,4.715380169677734
1788862339168654300,12.701654296875,-9.725696056365965,-9.763554370117188,5.0094180610656736
1788862339178660400,12.711660400390626,-10.014496631622315,-10.23431427154541,5.240757796478271
1788862339188667400,12.72166748046875,-9.611821839904785,-10.775553484344481,5.5267152572631835
1788862339198673400,12.73167333984375,-8.978854776000976,-11.252298889923095,5.820902786254883
1788862339208680400,12.741680419921876,-9.19343509979248,-11.72814646987915,5.870283195495605
1788862339218686500,12.7516865234375,-9.757718503570556,-12.43578269805908,5.680093801116943
1788862339228693500,12.761693603515624,-9.316886122894287,-13.059621868133544,4.949563019561768
