time,seconds_elapsed,z,y,x
1788862326511745300,0.044745361328125,-0.31902561765015125,-0.7868634941518307,-0.16131300838114693
1788862326521752000,0.054751953125,-0.08757891473174095,-0.9111699650391936,0.17702625368386507
1788862326531758000,0.064758056640625,-0.0935720176666975,-0.28774142159223554,0.07797496435586362
1788862326541764000,0.07476416015625,-0.3079477587968111,0.7999217131674289,0.386383070673421
1788862326551771000,0.08477099609375,-0.1540916605591774,1.1249228980958461,0.6028703605974093
1788862326561777200,0.094777099609375,-0.09807400526106357,1.039710712495446,0.6073773166278377
1788862326571784000,0.104783935546875,-1.4632663796782492,0.8697463600218296,0.7457016088105738
1788862326581790000,0.1147900390625,-2.008793645060062,0.4630523957908153,0.6099704018609597
1788862326591796000,0.1247958984375,-1.5258382789254188,0.09272738353610038,0.5449528995599597
1788862326601803000,0.134802978515625,-1.5305968716293572,0.09854629894793034,0.5209560109660029
1788862326611809000,0.14480908203125,-0.7431582079380751,-0.27051380793750285,0.5027743114568293
1788862326621815800,0.15481591796875,-0.823596018743515,-0.7788210574716329,-0.265087946963869
1788862326631822000,0.164822021484375,-1.46389883236289,-0.8712620252817869,-0.560747630867362
1788862326641828000,0.174828125,-1.8148633105874061,-0.8731400941133499,-0.6052652563773095
1788862326651835000,0.1848349609375,-1.8276327757894992,-0.8529939626634121,-0.6828986772865057
1788862326661841000,0.1948408203125,-1.5823165374726056,-0.6716729343950748,-0.6464652817718685
1788862326671848000,0.204847900390625,-0.21916005279719827,-0.880726603719592,-0.43894335205927487
1788862326681854000,0.21485400390625,0.9639584291577339,-1.1077075594007968,-0.21800216973265632
1788862326691860000,0.22485986328125,1.2340005279302597,-1.0667752450317143,-0.07672437977287917
1788862326701867000,0.234866943359375,1.2099456986039876,-1.025579895812273,-0.1329526821469888
1788862326711873000,0.244873046875,0.4481400733411312,-1.0813736792266369,-0.06930036725196986
1788862326721880000,0.254880126953125,-0.5954343288451432,-0.7661497919470072,-0.9642518591463565
1788862326731886000,0.264885986328125,-0.05285831448435783,-0.6574141074180603,-1.5664266021624207
1788862326741893000,0.27489306640625,0.20825228981375693,-0.601195961111784,-1.6852517190292478
1788862326751899000,0.28489892578125,0.20460487322211265,-0.5671253492057323,-1.8692878514751792
1788862326761905000,0.29490478515625,0.24811960529983043,-0.6845026053518056,-1.7514850633934138
1788862326771912200,0.304912109375,-1.0115157146245242,-0.9825111539363861,-0.0852063403815031
1788862326781918000,0.31491796875,-1.013832174873352,-0.9112398154050111,-0.3130988579496741
1788862326791925000,0.324925048828125,-0.39265842461586,-0.22505787866413593,0.48869390978664157
1788862326801931300,0.33493115234375,-0.3821867149621248,-0.1538236572727561,0.26312150572910903
1788862326811937000,0.34493701171875,0.12177344527840614,0.2594058462068438,-0.08434212476760149
1788862326821944000,0.354944091796875,0.24100422033667562,-1.7623136236608028,-0.3708803080499172
1788862326831949800,0.36494970703125,-0.5850426986902952,-1.0993237619370222,-0.8724810456827282
1788862326841957000,0.37495703125,1.3290455407589674,-1.5737348793491721,-1.5236393075764179
1788862326851963100,0.384963134765625,-3.3377088374376296,-0.24072949504852292,1.5213751620367169
1788862326861969000,0.394968994140625,-3.273185804122686,-0.13961831404864788,1.2940043302550912
1788862326871976200,0.40497607421875,-0.6819879921823739,-0.21931319753229617,-0.3347062941238284
1788862326881982200,0.414982177734375,-0.799794871917367,-2.209440720567107,0.5201628147616982
1788862326891989000,0.424989013671875,-1.2181927179455756,-0.5746151204392314,1.4015280086457729
1788862326901995000,0.4349951171875,-1.2479916438817977,-0.45951779192388054,1.3529650532677768
1788862326912001000,0.4450009765625,0.6819008984208107,-0.35332886926829815,0.9861270063459873
1788862326922008000,0.455008056640625,1.5570546704441308,-0.31421704832464453,0.01765986759215593
1788862326932014000,0.46501416015625,1.6478209830403328,0.6618234482929111,0.12223726339787244
1788862326942021000,0.475021240234375,2.0725953783631326,1.242614334757626,0.8222481112658977
1788862326952027100,0.485027099609375,2.1346628352195025,1.3065195284351705,0.6795692406028508
1788862326962033200,0.495033203125,1.788693681064248,0.8407990824788808,1.0745610766023397
1788862326972040000,0.5050400390625,-0.20490473295152187,0.4552171721205115,1.3969137928485869
1788862326982046200,0.515046142578125,-0.1845078416109085,0.5900304239749908,0.9209919786125421
1788862326992053000,0.525052978515625,0.5697510215342044,0.589895691679418,-0.1780903757840395
1788862327002059000,0.53505908203125,0.6333733066171408,0.6957654653832316,-0.3201514068096876
1788862327012065000,0.54506494140625,1.975690416881442,0.3874380596190691,-1.4805103599458933
1788862327022072000,0.555072021484375,3.7164725922137496,-0.18962883788645266,-3.3308266767084596
1788862327032078000,0.565078125,3.9702643979310985,-0.0412938411578536,-3.6749446500390768
1788862327042084900,0.5750849609375,2.9903555354475975,-1.6152280424714087,-1.5325281319528816
1788862327052091100,0.585091064453125,3.4796611473917958,-1.474973476345837,-2.0063065044194457
1788862327062097200,0.59509716796875,2.09171625841856,-2.2682145427055658,-1.6619056224942206
1788862327072104000,0.60510400390625,-1.227466742247343,-3.10322028260529,-1.6276012018322943
1788862327082110000,0.61510986328125,-0.5749526818305254,-2.851685900425911,-2.0245751515597106
1788862327092117000,0.625116943359375,0.07141337735056877,-2.2008912111476064,-2.2372172007650137
1788862327102123000,0.635123046875,2.0127923593074084,-1.599687505120784,-3.188947431990504
1788862327112129000,0.64512890625,0.963857306870818,-1.5203113321974873,-3.0083617322593925
1788862327122136000,0.655135986328125,0.5298842905700206,-1.0686762563474477,-2.592629306048155
1788862327132142000,0.66514208984375,1.2006623219519852,-0.5867199842527508,-2.652595991232991
1788862327142148900,0.67514892578125,1.5504396362185477,-0.7817464433990419,-2.844098806297779
1788862327152155000,0.68515478515625,2.3291338524401186,-0.5091720496699214,-1.7623761675029992
1788862327162161200,0.6951611328125,3.068162413227558,0.3165592275366187,0.6956669734448194
1788862327172168000,0.70516796875,2.5036370173871516,0.4082337410189211,3.0817110461086035
1788862327182174000,0.715174072265625,1.1098024858534334,-1.4995418081521987,4.429965729728341
1788862327192181000,0.725180908203125,-0.5655772429808974,-3.831565244553983,4.956888832405209
1788862327202187000,0.73518701171875,-1.7128320921331643,-3.8670869320511816,4.979546069893241
1788862327212193000,0.745193115234375,-0.5543430245220661,-1.4204039740294216,2.99091024672091
1788862327222199800,0.75519970703125,1.6626315986812115,0.6547904809162021,-0.3401069841235876
1788862327232206000,0.7652060546875,1.1585557031065226,1.7089184258207677,-2.615814366802573
1788862327242213000,0.775213134765625,-0.02817044795155525,1.725236523415148,-3.277015007022023
1788862327252219000,0.785218994140625,-0.9646782678648829,1.507574015699327,-2.1362387062340975
1788862327262226200,0.79522607421875,-4.670008996078372,2.4686942988216876,0.11033961259424686
1788862327272232000,0.80523193359375,-8.753374288010598,3.602945581755042,-0.1743301464676857
1788862327282238000,0.815238037109375,-13.610603891789912,3.33198227648437,-1.0362912594407796
1788862327292245200,0.825245361328125,-20.008350288188456,4.689776357343793,-0.9456944581925868
1788862327302251000,0.8352509765625,-15.959039826071262,5.135879956421256,-1.6549211704343556
1788862327312258000,0.845258056640625,-15.911103185898064,5.302647558680176,-1.4771195484638213
1788862327322264000,0.85526416015625,-2.8768729486525055,0.07661503764688968,-3.3731741185724733
1788862327332270000,0.86527001953125,0.3097241208195686,1.2405407433539628,-4.888943423426151
1788862327342277000,0.875277099609375,1.4190245023697614,3.1376626504331826,-5.9241766982465975
1788862327352283000,0.885282958984375,1.8226783682525156,3.760238084182143,-4.461899329605698
1788862327362290200,0.895290283203125,1.9318144502758978,3.9737990017980334,-4.094743010514974
1788862327372296200,0.905296142578125,2.9888030453085896,3.326782369753718,-1.324656073628366
1788862327382302000,0.915302001953125,5.899071483084559,3.302444047310948,7.980448133796453
1788862327392309000,0.92530908203125,5.262195721304416,3.661221245113015,7.642602664864063
1788862327402315300,0.935315185546875,5.24635634713769,3.770611009636521,7.818470688423514
1788862327412322000,0.945322021484375,-1.0297948831588029,1.2004752749472856,1.4837880664423106
1788862327422328000,0.955328125,-1.604826475444436,0.6475830337554216,0.059448214268684386
1788862327432333800,0.965333740234375,-1.7377987756073474,1.6851567342221736,0.9616025136813521
1788862327442341000,0.975341064453125,-1.5652105043709277,1.685803215432167,1.2242974645614624
1788862327452347100,0.98534716796875,-1.4721587111860512,5.56333087747693,3.7305110544383524
1788862327462354000,0.99535400390625,-1.2644307375073431,5.5332186478078365,4.059576420065761
1788862327472360200,1.005360107421875,-1.5644968031436204,4.365169724690914,3.9959067887097595
1788862327482366200,1.0153662109375,-7.194172084143758,-0.7178969254314899,0.7840938833080232
1788862327492373000,1.025373046875,2.8206968879222867,-0.7717951043576001,-6.6612097013026474
1788862327502379000,1.03537890625,2.9521020848989483,-0.869523657181859,-6.6197419648826115
1788862327512386000,1.045385986328125,5.586441119429469,-12.091833651554584,-12.637647332662343
1788862327522392000,1.05539208984375,5.679750686767697,-12.123034260982275,-12.437540939903258
1788862327532398000,1.065398193359375,0.9675345340788364,-15.972890656769275,1.2558281827263533
1788862327542404600,1.075404541015625,-0.38971068072617054,-13.21977852782011,4.849676996442676
1788862327552410600,1.08541064453125,-0.3966197294622659,-13.201957624447346,4.910622171270847
1788862327562417400,1.09541748046875,-0.27304128058850763,-2.9717051955133673,1.5376802540190517
1788862327572423400,1.10542333984375,0.701445556846261,0.9789350490152835,1.6258306850284336
1788862327582429700,1.1154296875,0.8837579342395067,3.2581326118975875,1.4935947363160549
1788862327592436500,1.1254365234375,0.8218231638520955,3.333499110788107,1.662302220596373
1788862327602442500,1.1354423828125,0.5992652853101491,4.229873950016498,0.5724110345236957
1788862327612449500,1.145449462890625,-0.4012760308355093,1.5751239956200123,-2.787611487661302
1788862327622455600,1.15545556640625,-0.6569441518187522,1.087527525681257,-2.825832789506018
1788862327632461600,1.165461669921875,-0.40136429364085197,-0.8016419610887765,-3.0432804854273794
1788862327642468400,1.17546826171875,-0.45107788035869595,-0.7603431514948606,-3.001285510262847
1788862327652474600,1.185474609375,0.34145839873254297,-0.6387158366888761,0.9996647525068372
1788862327662481700,1.195481689453125,0.3059937021195888,-0.6110054074645042,1.0091466474056243
1788862327672487400,1.2054873046875,-0.18543313976228237,1.1764151849240063,1.91357999766618
1788862327682494700,1.21549462890625,-1.0243559069752692,2.1145155347257854,2.2236880032368003
1788862327692500500,1.22550048828125,0.5386351677805185,0.7130576687067747,0.6286730199716984
1788862327702506500,1.235506591796875,0.5337824670523404,0.7136819380849599,0.561980387532711
1788862327712513500,1.245513427734375,1.1985475217550992,0.12033142977654933,-1.2258924786679446
1788862327722519600,1.25551953125,1.1459779610842467,-0.21954992889761923,-2.1228695215731856
1788862327732525600,1.265525634765625,-2.3447610451608893,-0.524419010901451,-1.0183443916007875
1788862327742532600,1.27553271484375,-2.2514959014862774,-0.35371114658415315,-0.4263838763460517
1788862327752538400,1.285538330078125,-2.2392712106853723,-0.36858255250155925,-0.4977677353411913
1788862327762545700,1.295545654296875,-1.8780840291321277,7.755262829360365,0.6431523578315973
1788862327772551400,1.305551513671875,3.3568367317557333,13.802801703381538,1.2732817140914499
1788862327782557400,1.315557373046875,-0.8515250591546296,8.510400228905677,2.1941833840720353
1788862327792564700,1.325564697265625,1.0627397059053183,3.6607518740355967,0.48556949415579437
1788862327802570500,1.335570556640625,0.1749871490716934,-0.8363485328108072,-0.4287727077113464
1788862327812577500,1.34557763671875,0.14751871190965174,-0.8140811714231967,-0.23638196736350653
1788862327822583600,1.35558349609375,-0.8170230700939893,-4.252054217642545,-0.6756504597239196
1788862327832590600,1.365590576171875,-2.097993438991904,-2.03612004340291,-0.2513497463274747
1788862327842596600,1.3755966796875,-1.770976238065958,0.9835890123009681,1.7138880309268831
1788862327852602400,1.385602294921875,-1.8897329658716915,1.0525883142471313,1.908811468090117
1788862327862609700,1.395609619140625,-1.143202066630125,-0.9495008647382259,2.012147339402139
1788862327872615700,1.40561572265625,2.306190199226141,-0.7925240041315555,-0.07552212784364819
1788862327882622500,1.41562255859375,3.879724879828095,4.924962831312418,-0.0759008980281651
1788862327892628500,1.42562841796875,2.3381010027498004,2.5939538326501843,-1.00597956167683
1788862327902634500,1.435634521484375,2.236824402055144,2.6286019521832467,-0.842115425774455
1788862327912641500,1.4456416015625,-0.23321429711282252,0.6410246981531381,-1.2841719414182007
1788862327922647600,1.4556474609375,-1.2542343376636504,-0.08942600390315056,-0.7965886232219636
1788862327932654600,1.465654541015625,-1.3131833702385425,-3.5712341001957655,1.4855344717182217
1788862327942660600,1.47566064453125,-0.19468086057901382,-1.5395377184540033,1.754520339436084
1788862327952666600,1.48566650390625,-0.007056348252296447,-1.2156862880825996,0.21124533414989707
1788862327962673400,1.49567333984375,0.030340193206071852,-1.259291036531329,0.2860411935456097
1788862327972679700,1.5056796875,0.08012304576784372,-0.9661521398097276,0.034198329938948155
1788862327982686500,1.5156865234375,1.333850310692191,-4.194828940120339,-1.4029738235399125
1788862327992692500,1.5256923828125,0.3119125707745552,-4.020833724695444,-1.6633333172097802
1788862328002699500,1.535699462890625,-0.5300953029721975,-3.634866322150826,-0.5905319437563419
1788862328012705500,1.54570556640625,-0.5950567277044058,-3.6233529944896694,-0.5111377967849373
1788862328022711600,1.555711669921875,0.07744827360063791,-2.967095655891299,0.432709279975295
1788862328032718300,1.56571826171875,0.8914768380537629,-2.277939087253809,0.8122644773900508
1788862328042724600,1.575724609375,1.539791985476017,-3.0495243482530117,0.08151099299490451
1788862328052731400,1.5857314453125,1.5845231076061725,-3.074320935857296,0.07732903113514185
1788862328062737400,1.5957373046875,1.5046274408534168,-3.8055379461109635,-0.7061161790058016
1788862328072743400,1.605743408203125,1.3890239163815974,-2.205852340686321,-0.8581696117356419
1788862328082750500,1.61575048828125,0.8949988747000693,-1.2460299884200094,-2.1565853286921977
1788862328092756500,1.625756591796875,0.6683540191054343,-4.225630321097373,-1.4974164865612982
1788862328102763800,1.635763671875,0.08751812445521354,-2.816981082269549,-1.0160828764095902
1788862328112769500,1.64576953125,0.23623159910738467,-2.9029256737977263,-1.093199433837831
1788862328122775600,1.655775634765625,-1.4360183072686195,-2.1046797848880288,0.11212269661873578
1788862328132782300,1.6657822265625,-2.0219132388740775,2.3747931953310966,1.9961109813585876
1788862328142788600,1.67578857421875,-0.28177929831743237,3.3974300234287975,2.0211615437239407
1788862328152795600,1.685795654296875,-0.27715865277945995,3.399247886505723,2.0052888518095013
1788862328162801400,1.695801513671875,0.2866670703589916,4.864724343448877,2.3396491089746356
1788862328172807400,1.705807373046875,-0.23912147532999514,4.9784179426461455,1.363979491496086
1788862328182814700,1.715814697265625,0.9207909030824899,1.896929014855623,0.511864065232873
1788862328192820500,1.725820556640625,0.7924246354103088,0.7719815668404102,1.3185229777008294
1788862328202827500,1.73582763671875,0.7922796739816665,0.7657856348097324,1.3373892984732985
1788862328212833500,1.74583349609375,-0.005084171396493912,0.09981704953610897,1.2660174221768974
1788862328222840600,1.755840576171875,-0.18060089730024337,-0.22859540514051913,0.6498313972041011
1788862328232846600,1.7658466796875,0.06243102947175502,2.2210165920704603,-0.6576341799095272
1788862328242852400,1.775852294921875,0.45171442469656464,-1.4755956998974085,-0.38884734189510345
1788862328252859600,1.785859619140625,0.4544704454064369,-1.4991443332672119,-0.33019495417922734
1788862328262865700,1.79586572265625,0.14385609774887562,-1.5037871906369924,-0.17593407453298568
1788862328272872400,1.80587255859375,-0.7190034253686666,3.4826147365003823,-0.16745616904497146
1788862328282878700,1.815878662109375,-0.578414804983139,3.965426310250163,0.4080453788399696
1788862328292884500,1.825884521484375,0.19121289220750332,2.663394448623061,-0.3015405221030116
1788862328302891500,1.8358916015625,0.223368025881052,2.6075731926798817,-0.23032851254343986
1788862328312897500,1.8458974609375,1.0094862546235321,4.770990413218736,-2.076399154560268
1788862328322904600,1.855904541015625,-0.5867050789445638,0.743089234355092,-2.325250581265986
1788862328332910600,1.86591064453125,0.2920043397337198,0.78527943983078,-1.3835036916553973
1788862328342916600,1.87591650390625,-0.3565729657560587,3.387110289466381,-0.242169172462821
1788862328352923600,1.885923583984375,-0.28398762201666833,3.274256648224592,-0.15510346795022487
1788862328362929700,1.8959296875,-1.607758437243104,4.506297858780623,0.6492828234106301
1788862328372936400,1.9059365234375,-2.5786177318304775,3.1072762799978255,-0.09492547810226679
1788862328382942500,1.9159423828125,-0.4381956024318933,4.296001495918631,0.19217033906280992
1788862328392949500,1.925949462890625,1.6899316935390234,8.542598032677173,1.1125403863847254
1788862328402955500,1.93595556640625,1.7654513371646403,8.523701609027386,1.0081821862876414
1788862328412961500,1.94596142578125,-1.0013438647001982,5.012673263469338,1.7560837893605232
1788862328422968600,1.955968505859375,-0.5771271032601595,1.037995140749216,-2.121592048983276
1788862328432974600,1.965974609375,-0.8712626098036765,2.8573879114598033,-0.545853720857203
1788862328442981400,1.9759814453125,-0.7657447182774544,2.7983973778307436,-0.6621908203005791
1788862328452987400,1.9859873046875,-3.297465089854598,-0.7294768885880708,2.787943203833699
1788862328462993700,1.99599365234375,2.664171862736344,-5.171835651421547,4.734209373310208
1788862328473000400,2.00600048828125,-2.5776719754129647,-4.50242189413011,6.321411929258704
1788862328483006500,2.01600634765625,-1.5929291169017552,-0.9290531199932098,2.187131565864384
1788862328493013500,2.026013427734375,-0.3676934947073459,-4.365338651517034,-0.7364122408092022
1788862328503019500,2.03601953125,-0.372771820884943,-4.3616561636120075,-0.7305836807861924
1788862328513025500,2.046025634765625,-2.319870934054255,-4.835135260871052,-1.1180714247658847
1788862328523032300,2.0560322265625,-1.9563789826899767,-7.201686697557568,2.7307749171957374
1788862328533038600,2.06603857421875,-0.9967261417716741,-7.14049310092628,2.0467314537882806
1788862328543046100,2.076046142578125,-0.8654460324794053,-4.868005849337577,0.6442433679386973
1788862328553052200,2.08605224609375,-0.8764555022716521,-4.899112350741029,0.7313035194933414
1788862328563058400,2.096058349609375,-0.7865946140825748,-3.597994096827507,-0.38259880289435383
1788862328573065200,2.106065185546875,0.9510176990419625,-0.9880921689391136,-3.5013121304467316
1788862328583071200,2.1160712890625,0.5424345600634813,-1.512933789166808,-3.085781072026491
1788862328593078300,2.126078369140625,-0.14299100535213946,-2.72988322905302,-1.3450097103491425
1788862328603084300,2.136084228515625,-0.15167816967666148,-2.7667911102116105,-1.266229019100964
1788862328613091300,2.14609130859375,-0.9560492634683847,-1.615357806330919,-0.6908698022961616
1788862328623097000,2.15609716796875,0.265705530872941,0.03535129936635494,-0.22217881609648465
1788862328633103400,2.166103271484375,0.24528759674429892,-1.2345230904996394,-0.10234013827294111
1788862328643110400,2.1761103515625,0.15683073013424872,-2.0574387257635594,0.14982435850352047
1788862328653116200,2.1861162109375,0.1748959636569023,-2.1019185034811496,0.18147504978626966
1788862328663123500,2.19612353515625,-0.22123978168070316,-2.9430361503899096,0.3675026483103633
1788862328673129200,2.206129150390625,-0.8418792789310217,-4.920321727508306,0.5384300005972386
1788862328683135200,2.21613525390625,-0.34367724382579323,-4.691557980063557,0.42577509679794306
1788862328693142300,2.226142333984375,-0.8375982406109571,-4.611702937582135,0.6735489574000239
1788862328703148300,2.236148193359375,-0.7948205906361341,-4.6678562019586565,0.6687859807819128
1788862328713155300,2.2461552734375,-0.061489949229359624,-4.951886494073271,0.3329749402865767
1788862328723161300,2.256161376953125,-1.6545780560851095,-2.075745951348543,-0.1931435680091381
1788862328733167000,2.2661669921875,-1.6521335855424404,-2.046118290325999,-0.2395850011885166
1788862328743174400,2.27617431640625,2.860495814347267,8.218751863002776,-0.2494932317405939
1788862328753180200,2.28618017578125,2.8449907867014406,8.19504365515709,-0.18582710751593112
1788862328763187200,2.296187255859375,0.6150725107729434,10.921665252065658,0.8699258082419633
1788862328773193500,2.306193359375,1.6182418373346328,4.580981636103988,0.8898100738853215
1788862328783199200,2.31619921875,0.8687322145432234,0.19369360310733316,-0.4550485375553369
1788862328793206300,2.326206298828125,-1.1511351977169513,-3.1018174300700423,-0.7426955588623881
1788862328803212300,2.33621240234375,-1.1616010621517896,-3.138307378077507,-0.676920771920681
1788862328813219300,2.34621923828125,-2.487860187062621,-4.625702821362018,0.14234569318592546
1788862328823225300,2.356225341796875,-1.8009370765656232,-3.1152211015224456,0.522800177527964
1788862328833231000,2.366231201171875,1.1740823580622672,-0.42090076875984667,-0.2829088868692517
1788862328843238400,2.37623828125,0.6367208634793758,0.3911889365851879,-0.3540799798965454
1788862328853244400,2.386244384765625,0.6312690278142691,0.3618441841572523,-0.31059184356480835
1788862328863251200,2.396251220703125,0.006899111863970756,1.3148159398764372,-0.6176596046566963
1788862328873257500,2.406257568359375,0.4165297140687704,2.1709178054273126,-0.8035127233967184
1788862328883263200,2.41626318359375,0.9615630584537982,2.6404657007172703,-1.4166273781001566
1788862328893270300,2.426270263671875,0.8744979384630918,1.7972069501265882,-1.4970634353399277
1788862328903276300,2.4362763671875,0.8897352550834416,1.7772233157619832,-1.5003613078415392
1788862328913283300,2.446283447265625,1.1460808369368314,0.7405430570036172,-1.0731289979726075
1788862328923289300,2.456289306640625,1.5101263305306434,0.6975017876565456,0.4496899331316352
1788862328933295400,2.46629541015625,1.2786322813391684,1.3216896250382064,1.0886743576288223
1788862328943302400,2.476302490234375,0.7392512636274099,1.3365382346019148,1.146460191643238
1788862328953308400,2.486308349609375,0.7715671408206224,1.3222320613518357,1.1061515621304512
1788862328963315200,2.496315185546875,-0.034977205356955525,0.9858417596638203,0.8928852435469626
1788862328973321200,2.5063212890625,-0.08785071741044521,-0.14476210667788983,0.4748816575333476
1788862328983327500,2.516327392578125,-0.6793032831430434,-0.5658344326123594,0.706322515232861
1788862328993334300,2.526334228515625,-0.9303378991067409,-1.4046712751075625,1.0694549856349824
1788862329003340300,2.53634033203125,-0.9205231920570135,-1.4076818551003931,1.0547922540321946
1788862329013347300,2.546347412109375,0.6562760432988405,-0.8589443955004215,1.4209157229438423
1788862329023353300,2.556353271484375,0.041810266247391696,-0.20335487316101789,1.3129936928853392
1788862329033360100,2.566360107421875,-0.04320201286673546,0.30481384468525646,0.20291297461241484
1788862329043366100,2.5763662109375,-0.02294949843287468,0.2972469165623188,0.1735945256695151
1788862329053372400,2.586372314453125,-1.8107459383964537,1.6740601706683635,-0.9004021950483322
1788862329063379200,2.596379150390625,-0.8581628897339105,1.925732207752764,-0.3898246624946594
1788862329073385200,2.60638525390625,-0.2790624405741691,1.8720599465370178,-0.01490238557755947
1788862329083392300,2.616392333984375,0.23519115014374256,1.3799997751876711,-0.0344794849678874
1788862329093398300,2.626398193359375,0.23143910413384436,1.3850360157892108,-0.03324731282442808
1788862329103404300,2.636404296875,-0.8401017478644848,0.4998258369147777,-0.5886334166586399
1788862329113411000,2.6464111328125,-1.2604092269062994,0.3683157182589173,-0.501352900351584
1788862329123417300,2.656417236328125,-1.397118960031867,0.45257571770101784,-0.2850304090678692
1788862329133424400,2.66642431640625,-0.9212252028465271,0.8032152017548679,-0.027976678945124147
1788862329143430100,2.67643017578125,-0.9168518100678921,0.7979623957931995,-0.030155484288930893
1788862329153436200,2.686436279296875,-0.2300432658612728,1.327545073068142,0.6939014250770211
1788862329163443200,2.696443115234375,-0.11285071863234042,1.2002192543596029,0.7832678077474236
1788862329173449200,2.70644921875,-0.2256903313487768,1.0563546810433269,0.5960659047469496
1788862329183456300,2.716456298828125,-0.5164297657132149,1.0940674488440156,0.20103782839030027
1788862329193462300,2.726462158203125,-0.5156523515999317,1.086077034612,0.2089844034805894
1788862329203468300,2.73646826171875,-0.21473405304849147,1.2844094034358857,0.27587591949254275
1788862329213475300,2.746475341796875,0.060034489724040026,1.7530284934431313,0.47260026859790083
1788862329223481000,2.756481201171875,-0.07684650831520556,2.2342495831310747,0.512415853896737
1788862329233488400,2.76648828125,-0.3304869228631258,2.3104279829263685,0.4048962671592831
1788862329243494400,2.776494384765625,-0.3348632382512092,2.321454403853416,0.4003729445159435
1788862329253500200,2.786500244140625,-0.5248153167426586,1.928688719470799,-0.1756242779314518
1788862329263507500,2.796507568359375,-0.9895791926264762,1.6066890544459222,-0.41155280243903397
1788862329273513200,2.80651318359375,-0.6084329266279935,1.4309113395184279,-0.5280813328012823
1788862329283520300,2.816520263671875,-0.3316834391713142,1.5789526139974592,-0.21331717198789119
1788862329293526300,2.8265263671875,-0.3391413539618254,1.586592315095663,-0.20811054325550793
1788862329303532300,2.8365322265625,-0.6012544133007526,2.0187375314474103,0.13700900833308696
1788862329313539300,2.846539306640625,-0.2612403681576252,2.120224852283299,-0.3881955999881029
1788862329323545300,2.85654541015625,-0.43822892017960546,2.0738132297202942,-1.1868901094481348
1788862329333552400,2.866552490234375,0.11346797374784946,1.8029101302042603,-1.6243118048980831
1788862329343558400,2.876558349609375,0.10874445235729217,1.8018965692475437,-1.6141352787986396
1788862329353565200,2.886565185546875,-0.41633039210438727,1.529375805401802,-0.7872641839072108
1788862329363571200,2.8965712890625,-0.41727731756567954,1.527723362019658,-0.7835226592913269
1788862329373577500,2.906577392578125,-0.006408697998523712,1.3928843912020326,-0.7442541864812374
1788862329383584300,2.916584228515625,-0.12350947529077529,1.6706223051741718,-0.666176382805407
1788862329393590300,2.92659033203125,-0.12200900759994983,1.6712147181093693,-0.6697074795410036
1788862329403597300,2.936597412109375,0.32827333846688267,1.930715549123287,-1.1097630306258797
1788862329413603300,2.946603271484375,-0.807456200325489,1.8813278333589434,-1.306475981554389
1788862329423609300,2.956609375,-1.1613315975606442,1.314556704418361,-1.0478878814712167
1788862329433616400,2.966616455078125,-0.7787842325925827,0.8746525445029139,-0.41440643830448387
1788862329443622400,2.976622314453125,-0.7784826192975044,0.89427962051481,-0.43888300017416476
1788862329453629200,2.986629150390625,-1.5400836618989706,0.18983955802768468,0.7200897593006491
1788862329463635200,2.99663525390625,-1.3071627947747706,0.3632432373002171,0.9246247821569442
1788862329473641500,3.006641357421875,-1.8429776444375514,0.4051642704457044,0.7970555100813508
1788862329483648300,3.016648193359375,-1.9320324769407509,0.19359335760325191,0.538074611288309
1788862329493654300,3.026654296875,-1.939408558666706,0.2221656643539667,0.5161565017297863
1788862329503661300,3.036661376953125,-3.070180182790756,0.6584241612434387,0.13544015158116818
1788862329513667300,3.046667236328125,-2.9226369209617373,1.2936346201598643,0.10542699837237596
1788862329523673300,3.05667333984375,-2.2715970247507093,2.2835557580918073,-0.035783261042833324
1788862329533680000,3.06668017578125,-2.4460925909131763,3.2882588700920343,-0.216935654745996
1788862329543685400,3.076685302734375,-2.476082655507326,3.3536879123359915,-0.2461447980955243
1788862329553692400,3.0866923828125,-0.930225670903921,3.7873037857621905,-0.8202896706745028
1788862329563698200,3.0966982421875,-1.001239819803834,3.54696124420464,-1.487974704477191
1788862329573705500,3.10670556640625,-1.8653484661996365,3.0154508137375116,-1.9952695620983838
1788862329583711500,3.11671142578125,-1.9786825844347475,1.910799134775996,-1.7672195158809423
1788862329593717200,3.12671728515625,-1.9988287158846854,2.0043892726212738,-1.8761688431605696
1788862329603724300,3.136724365234375,-2.9385043521791694,0.37073534662127494,-0.5492445323392748
1788862329613730300,3.146730224609375,-1.5404624320834874,0.780975020635128,-0.5250260368838906
1788862329623737300,3.1567373046875,-1.8101584938973188,1.447706991496682,-0.5611854377627372
1788862329633743400,3.166743408203125,-2.228183999481797,1.5314479355007409,-0.3733712480828166
1788862329643749000,3.1767490234375,-2.2592560140937565,1.6376029558867216,-0.5250198994040489
1788862329653756400,3.18675634765625,-0.7344476627379656,1.3040689204126596,-0.7761720042675733
1788862329663762400,3.196762451171875,-0.6065414137929678,1.3220944064468145,-0.7268271047316491
1788862329673769200,3.206769287109375,-0.4532189840406179,0.7711135518342256,-0.11046543093100189
1788862329683775500,3.216775390625,0.7184960603684186,0.03692892394661903,0.6315713717617094
1788862329693781200,3.22678125,0.6700123077064752,0.13222469666600226,0.4876790336556732
1788862329703788300,3.236788330078125,1.3257950145304203,-0.19169746085405348,1.7108667834095657
1788862329713794300,3.246794189453125,1.5729010588735342,-0.23732290147542953,1.949472710432857
1788862329723801300,3.25680126953125,2.2669395543336868,-0.43020752628743647,2.350096707100421
1788862329733807400,3.266807373046875,2.245603336316347,-0.19160861352682113,2.5463287426441905
1788862329743813400,3.2768134765625,2.1649819856375454,-0.09335516004562378,2.4393795031405983
1788862329753820400,3.2868203125,1.5228098710149525,1.5831576644718646,1.869181760752201
1788862329763826400,3.296826416015625,0.8696101664215325,2.2248165688753128,1.632898431457579
1788862329773833200,3.306833251953125,0.02003331872522831,2.5456875221312045,1.5007919543437658
1788862329783839200,3.316839111328125,0.628089228734374,2.4634458767741916,1.3233918989114462
1788862329793846300,3.32684619140625,0.5053033915430307,2.577852592676878,1.194038592963293
1788862329803852300,3.336852294921875,0.17812135544419289,1.776502308011055,1.3474170637518166
1788862329813858300,3.3468583984375,-0.17082301512956619,1.2219628841340542,1.5261556743115186
1788862329823865300,3.356865234375,-0.2653694307863712,0.7781430120795965,1.6732783726409077
1788862329833871400,3.366871337890625,-0.5514642542153596,0.46778234692215914,1.9067033898949621
1788862329843878100,3.376878173828125,-0.6625719285726547,0.548216650596261,1.8306515390887856
1788862329853884200,3.38688427734375,0.1727747337192297,0.1369108086556196,2.292611901859194
1788862329863890400,3.396890380859375,0.5248597404062748,0.319850378036499,1.9926517808154225
1788862329873897200,3.406897216796875,0.09032967474460601,0.5650403596252203,1.675390834750235
1788862329883903200,3.4169033203125,0.07555237685143947,0.8168681717932224,1.5564716098591684
1788862329893910500,3.42691064453125,-0.031821371674537656,0.8824380838125944,1.5265972805991768
1788862329903916300,3.436916259765625,0.10503683001101016,1.636067416882515,1.9284373750582335
1788862329913923300,3.44692333984375,0.23188655564039945,1.9498650707513092,2.071300808507949
1788862329923929000,3.45692919921875,0.4666781850725412,1.8890707025706768,1.705975796497613
1788862329933935400,3.466935302734375,0.4069540764719248,1.4038842163830996,0.40851285022124645
1788862329943942400,3.4769423828125,0.2966489506691694,1.4609353063821793,0.37628881602995096
1788862329953948200,3.4869482421875,0.12242431040257215,0.46324587253630156,-2.6867285624593493
1788862329963955500,3.49695556640625,-0.7053495785474777,0.0502191981524229,-3.312731340308487
1788862329973961500,3.50696142578125,-1.4892477931529282,-0.1336696347773075,-3.197735134080052
1788862329983967200,3.51696728515625,-1.9919459706336258,-0.18456980093121528,-2.8590643202394244
1788862329993974300,3.526974365234375,-2.0519252230390905,-0.15754852301478384,-2.880629963098466
1788862330003980300,3.536980224609375,-0.5298655858695507,-0.8327589838862418,-1.558063262964785
1788862330013987300,3.5469873046875,-0.5903560026675463,-1.4574568166166544,-1.0695285623278468
1788862330023993300,3.556993408203125,-1.5463906530886888,-1.7644284238576888,-0.456050517672114
1788862330033999400,3.566999267578125,-1.9058675235927103,-1.8043921854555607,0.5802278092218562
1788862330044006400,3.57700634765625,-1.9630963082462547,-1.7803841178804636,0.5688463643120601
1788862330054012400,3.587012451171875,-0.588859042108059,-1.1295546495497226,2.552275668349862
1788862330064019500,3.59701953125,0.3161225896850228,-0.3495978660464287,3.5269548134863373
1788862330074025500,3.607025390625,0.38415275433808566,0.49882338187396524,4.166738863928615
1788862330084032300,3.6170322265625,-0.25211510467678305,0.9094523474663495,4.27878177330941
1788862330094038300,3.627038330078125,-0.2865907902523875,0.9211994838833808,4.2383100621894
1788862330104044500,3.63704443359375,-3.0834543826445935,0.5291401942044496,2.2870680039964615
1788862330114051300,3.64705126953125,-4.351890556401014,0.035116321566700935,0.6744944215565919
1788862330124057300,3.657057373046875,-5.389397036850452,-0.31224983990490435,-0.5123461496613919
1788862330134064400,3.667064453125,-4.972195707130432,-0.32113807975947856,-0.8485938280083238
1788862330144070400,3.6770703125,-4.983527248483896,-0.31927287040948865,-0.8768469858072697
1788862330154076400,3.687076416015625,-6.95669545341134,-0.27253040845692156,-2.5658862605512143
1788862330164083200,3.697083251953125,-6.907412074804306,-0.2913946834027767,-2.5690552459761498
1788862330174089500,3.70708935546875,-4.801040683567524,0.2359638880819082,-3.3798493585526943
1788862330184096300,3.71709619140625,0.8735945598825812,0.27176410025954245,0.021414909276738763
1788862330194102300,3.727102294921875,0.9303086730122566,0.2503466336995363,0.035188144693896174
1788862330204108300,3.7371083984375,4.485456730803847,-0.12093757897615431,3.9054184162721035
1788862330214115300,3.747115234375,1.259156596496701,-0.9511609069049358,8.442531392294168
1788862330224121300,3.757121337890625,-2.9821470945507285,-1.2113590725332497,8.360213174569607
1788862330234128100,3.767128173828125,-2.9203002947077152,-1.2409160064071416,8.323848314246534
1788862330244134400,3.777134521484375,-4.830254795353114,-2.9511902307510374,5.173984353888034
1788862330254141400,3.787141357421875,-4.753592703694105,-2.9940871231913566,5.087348857486248
1788862330264147200,3.797147216796875,-1.5525217031896112,-2.83756911226809,1.8445958932891486
1788862330274153200,3.8071533203125,0.09607698622494935,-2.0701450626015663,0.8054226486712693
1788862330284160300,3.81716015625,0.7841016282230615,-1.7308406270325183,0.4267525635279715
1788862330294166300,3.827166259765625,0.8669786488741635,-1.8206109143286942,0.07307385790869593
1788862330304173300,3.83717333984375,1.01578477024585,-1.911511666959524,0.00043853754773736
1788862330314179300,3.847179443359375,1.2079539402648807,-2.24576524887979,-1.8058137426912784
1788862330324185300,3.857185302734375,0.8032856366425752,-1.6489420960247516,-2.5604589748054742
1788862330334192400,3.8671923828125,0.9666752869009971,-1.7455238169014453,-2.547818688941002
1788862330344198100,3.8771982421875,-0.6369377211004495,1.4814946948081253,-2.140988677240163
1788862330354205400,3.887205322265625,-0.48346390017867086,1.3838392072200774,-2.1212335909344255
1788862330364211200,3.897211181640625,-0.2221405299127102,3.586844341781735,-0.24103885325863955
1788862330374218200,3.90721826171875,1.1163543917149306,3.0321038423746822,0.4675437158606946
1788862330384224500,3.917224609375,1.214396832793951,2.955166733166575,0.43954672477990386
1788862330394230300,3.927230224609375,2.264204576411843,0.8214841411560774,0.40796062316596504
1788862330404237300,3.9372373046875,2.3402941288799046,0.7586644046276807,0.38553003404065966
1788862330414243300,3.947243408203125,1.110896710830927,1.372752580538392,0.8100538156032562
1788862330424250400,3.95725048828125,0.8451438336849212,1.4384440731108188,1.424622176246345
1788862330434256400,3.96725634765625,0.8573930744051933,1.4203379230558872,1.3857950174629687
1788862330444262100,3.97726220703125,1.2276461904674767,1.2106868723601103,1.3938095432229338
1788862330454269400,3.98726953125,2.1859967166155574,0.9663917937844991,1.2683664695210755
1788862330464275500,3.997275390625,1.4010194746017455,0.22491817793250082,2.0763668597258627
1788862330474282200,4.0072822265625,-0.14867723429501056,-0.46538346908688544,2.5474352425813676
1788862330484288300,4.017288330078125,-0.12225275322794914,-0.48325990203917024,2.5632483132630584
1788862330494295300,4.02729541015625,-1.9357675718158482,-1.5684990245223045,3.279404532507062
1788862330504301300,4.03730126953125,-1.897542762839794,-1.6018746399015187,3.2717434963598846
1788862330514307300,4.047307373046875,-1.6940309455513953,-1.6338298670887945,2.295018524609506
1788862330524314400,4.057314453125,-1.0652087263673544,-1.3300859897226094,1.0961873636074364
1788862330534320400,4.0673203125,-1.0478086787551641,-1.3560562972813843,1.050296696178615
1788862330544327700,4.07732763671875,-0.17389701574742794,-0.20549393101632593,-0.9250995600618421
1788862330554333700,4.087333740234375,-0.15460896243155,-0.23237083202600478,-0.9649924483805894
1788862330564340500,4.097340576171875,0.8866150772362947,1.4530185419082642,-0.5353263354934752
1788862330574346500,4.107346435546875,0.8555325412303209,1.6998983762800692,0.027360154481977223
1788862330584352800,4.117352783203125,0.8884171582221985,1.6682389171689749,0.017572043178230523
1788862330594359600,4.127359619140625,-0.9403852458685636,1.416052208560705,0.3273958249799907
1788862330604365600,4.137365478515625,-0.8993190759867429,1.374731187134981,0.3119282067351043
1788862330614372600,4.14737255859375,-1.6396055278807877,1.5668471656620502,0.9185058608852327
1788862330624378600,4.157378662109375,-1.4502894092053173,1.4508984810143708,1.3315351656176149
1788862330634384600,4.167384521484375,-1.407667242053151,1.409213302451372,1.3252305125154553
1788862330644391700,4.1773916015625,-1.8398820165097713,0.686049834793806,1.2200048819340765
1788862330654397700,4.187397705078125,-1.7973668168634176,0.6384001948684453,1.1968439327076077
1788862330664404700,4.19740478515625,-0.7605839745134115,0.9418442125052213,0.7411993289552629
1788862330674410500,4.207410400390625,-0.006582885521650314,0.9900684374481439,0.6699500561252236
1788862330684417800,4.217417724609375,0.0403594829171896,0.936980990383029,0.6504724715866148
1788862330694423600,4.227423583984375,-0.3931219504743814,0.8103840704709291,0.7282273269183933
1788862330704429600,4.2374296875,-0.3407768462091684,0.7548755337387323,0.7236433601289987
1788862330714436900,4.247436767578125,-1.3300339672744272,1.646414038851857,0.8871602900288998
1788862330724442600,4.257442626953125,-1.4624614930361508,1.7136597751289606,1.0040018318630755
1788862330734449700,4.26744970703125,-1.417762519609928,1.6601000343769787,0.9880477452754973
1788862330744455700,4.27745556640625,-0.8875193325996399,1.2732716310888528,0.7341761523202062
1788862330754462700,4.287462646484375,-0.8355500759094953,1.2128197927355766,0.7267158994421362
1788862330764468700,4.29746875,-1.3693459869652986,1.6692612459540366,1.0301343442462385
1788862330774474500,4.307474609375,-1.6135878740489482,2.1099135938882827,1.3137535713419317
1788862330784481800,4.317481689453125,-1.4839344891756772,2.341499413016438,1.3726749852575362
1788862330794487800,4.32748779296875,-1.058414828443527,2.395207037806511,1.2959770916327833
1788862330804494600,4.33749462890625,-1.0094202036499977,2.341367895591259,1.3109341300070285
1788862330814500600,4.34750048828125,-0.24985972696542738,2.311660155069828,1.428475052282214
1788862330824507600,4.357507568359375,-0.9859294379472732,1.6802543491333721,1.3411347686119377
1788862330834513700,4.367513671875,-1.3272750239551065,1.1858423539608716,1.0855797526143491
1788862330844519700,4.377519775390625,-1.2272142287909984,0.982490695670247,0.6944884311847388
1788862330854526700,4.387526611328125,-1.1797697560489178,0.9329735083073377,0.7307287883453071
1788862330864532700,4.39753271484375,-0.09695581488609313,1.2660890261083841,0.7849719813168048
1788862330874539500,4.40753955078125,-0.16178689123690126,1.2218389654934405,0.9251546512499451
1788862330884545500,4.417545654296875,-0.09966624288856983,1.1638146465480328,1.010722372289747
1788862330894551800,4.4275517578125,-0.025226795715093613,1.0902362001180648,0.5788789153635502
1788862330904558600,4.43755859375,0.03419979124367237,1.0329629918009042,0.6726929250925779
1788862330914564600,4.447564697265625,-0.13229893094599246,1.0159539893329144,0.6892302183955907
1788862330924571600,4.457571533203125,-0.2996294277846813,0.9438573058933019,1.4467496907718478
1788862330934577700,4.46757763671875,-0.2389268295407295,0.8779431104809046,1.548816711191833
1788862330944584700,4.477584716796875,-0.812838477885723,-0.4259317486643791,0.7529096404932439
1788862330954590500,4.487590576171875,-0.7544447411060333,-0.4957914668321609,0.8528481975171714
1788862330964596700,4.4975966796875,-0.44571839915215966,0.0110451256275177,0.09401004375778138
1788862330974603800,4.507603759765625,-1.15779582464993,-0.2529366501927376,0.4601107893809676
1788862330984609500,4.517609619140625,-1.0987468388319015,-0.3333323754221201,0.5713143253281712
1788862330994616800,4.527616943359375,1.2904489758610724,-0.5179933617681265,-0.5088612301550806
1788862331004622600,4.53762255859375,1.361290106281638,-0.6284691679626703,-0.39009851099997755
1788862331014629600,4.547629638671875,-3.0469208877563476,0.36235739437639714,0.9375694577954709
1788862331024635600,4.5576357421875,-4.650881686282157,0.307006094032526,1.064360877366364
1788862331034641700,4.5676416015625,-4.5667666482686995,0.14048720583766697,1.056024133914709
1788862331044648700,4.577648681640625,3.7236733173727985,1.0213637394219637,-1.3255581370346248
1788862331054654700,4.58765478515625,4.7956864630579945,1.7870441602915523,-1.381658063788712
1788862331064661800,4.597661865234375,-0.6011246494412422,0.8826882591813803,0.3412453770363703
1788862331074667800,4.607667724609375,-1.063044241809845,-0.6034405251681805,1.3667799358695745
1788862331084674600,4.617674560546875,-1.0107131660699844,-0.7322294021666049,1.3390315127223729
1788862331094680600,4.6276806640625,0.5162029712200165,-1.7765312418445944,2.828767966175079
1788862331104686800,4.637686767578125,0.5592459941327571,-1.8890990518823265,2.823890715527534
1788862331114693600,4.647693603515625,1.2770178318798542,-1.5311714566469192,1.4409808981120587
1788862331124699600,4.65769970703125,0.05593932936489582,-1.648126395727694,0.06779120479803533
1788862331134706700,4.667706787109375,0.8249427571773529,-2.1546683891549705,0.253484383735992
1788862331144712700,4.677712646484375,1.3593383876919745,-2.402045359393954,0.7948150376781821
1788862331154719500,4.687719482421875,1.38301386231184,-2.4874942763596772,0.7320846599336713
1788862331164725500,4.6977255859375,1.012746717724204,0.13183482056558132,-1.3389496796578169
1788862331174731800,4.707731689453125,1.6615303594410418,1.568343249438703,-0.9052849255885929
1788862331184738600,4.717738525390625,1.6753414426505564,1.5033464611321687,-0.9694908557783811
1788862331194744600,4.72774462890625,2.2877409348219633,3.2448131115972996,-0.7338477971486747
1788862331204751600,4.737751708984375,1.5649626670897006,4.088667782254517,-2.2025649895787236
1788862331214757600,4.747757568359375,2.5634943969786166,4.511760215839743,-2.004457953943312
1788862331224764700,4.7577646484375,2.870198877716064,4.168661356423795,-0.4414858761489391
1788862331234770700,4.767770751953125,2.8441443990051747,4.204123714949191,-0.5549471278950572
1788862331244776700,4.777776611328125,-0.2934942860305309,1.8979931369557976,-1.2455230618111788
1788862331254783700,4.78778369140625,-0.3309773367285728,1.9456196882665155,-1.3831465487807988
1788862331264789500,4.79778955078125,1.3980395820081233,0.33487872808128594,-0.399624171975255
1788862331274796800,4.807796875,1.466273160278797,-0.06059066230207681,0.7046455219313502
1788862331284802600,4.817802490234375,1.429644680583477,0.0030988427981734276,0.6242796073183416
1788862331294809600,4.8278095703125,-0.8217009987771511,0.2244818323418498,-2.2642492923364044
1788862331304815900,4.83781591796875,0.06684475426077842,1.2709794284984468,-1.7245939877279102
1788862331314822700,4.84782275390625,1.1259160007864235,1.6470301249235868,0.04779606265872716
1788862331324828700,4.85782861328125,0.8788777609825134,1.712808711257577,0.5287351205348968
1788862331334834700,4.867834716796875,0.8301566924333572,1.816400310896337,0.4858912734560668
1788862331344841700,4.877841796875,-0.15229834740161896,1.55285049675256,-1.3942600634694098
1788862331354847700,4.88784765625,-0.2194166579067707,1.673091033375263,-1.4670001593790947
1788862331364854500,4.8978544921875,1.2705974434435368,1.790245294420421,-1.115951510002464
1788862331374860800,4.90786083984375,2.3784686689734458,1.4058786050707102,-0.627755466735363
1788862331384867600,4.91786767578125,2.307794127291441,1.548167599633336,-0.6492240789607167
1788862331394873600,4.92787353515625,0.8854302513659,0.8007385825082659,-1.634142586299777
1788862331404879600,4.937879638671875,1.156374851936102,1.2740885004296898,-1.8258757029891013
1788862331414886700,4.94788671875,2.2158809827476738,1.9326000476956366,-1.918535281985998
1788862331424892700,4.957892578125,1.5721891112118958,2.2943679517462847,-2.1590248307988045
1788862331434899500,4.9678994140625,1.468265210878849,2.4506875174880025,-2.203814405117929
1788862331444905700,4.97790576171875,0.015555881050229071,2.35574479598999,-1.436850958700478
1788862331454912800,4.987912841796875,0.9647159695267676,2.2155764468431474,-0.8918363190159201
1788862331464918500,4.99791845703125,0.6613187136411667,1.9374200151979921,-0.8833148666471242
1788862331474924500,5.007924560546875,-0.25888416042029855,1.5297522374987602,-1.0768182078793644
1788862331484931600,5.017931640625,-0.3711591249912977,1.6828858666807411,-1.0856176004067062
1788862331494937600,5.0279375,-0.9317489349484444,1.2285247268676758,-1.0247802698671817
1788862331504944600,5.037944580078125,0.3022568536788225,1.6883949854910372,-0.6158326814904809
1788862331514950700,5.04795068359375,0.8864081564873456,1.6992203308880327,-0.3714671680271625
1788862331524957700,5.057957763671875,-0.015747604230046272,1.1844207967251539,-0.4228337826490402
1788862331534963700,5.067963623046875,-0.15388532433211802,1.346405840882659,-0.40931817525476216
1788862331544971000,5.077970947265625,-0.29924481238126754,0.5504787503093481,0.2592816353052854
1788862331554977000,5.08797705078125,-0.434742247107625,0.7056833405464887,0.2951476061955094
1788862331564983000,5.097983154296875,-0.7919383131980896,-0.2202928562194109,0.21834902867525816
1788862331574990000,5.107989990234375,-0.2088420724004507,-0.5453963324785233,0.5722875542744994
1788862331584996000,5.11799609375,-0.3513526007592678,-0.4010463137328624,0.6121595459356903
1788862331595003100,5.128003173828125,-1.322916244223714,-0.13952829767763614,0.23738602983951568
1788862331605009200,5.138009033203125,-0.5850625724345445,0.4011597109794616,0.22177169660031795
1788862331615016000,5.148015869140625,-0.5305523990899325,0.8263245669245719,0.3188341867312789
1788862331625022000,5.15802197265625,-1.3024445340812205,1.030357777738571,0.3914113471642136
1788862331635028200,5.1680283203125,-1.4525456636995075,1.1575099934458732,0.4458060774356127
1788862331645035000,5.178034912109375,-0.8095166399866343,1.7365654344201087,1.3942431123346088
1788862331655041000,5.188041015625,-1.3448434138715266,1.615044502598047,1.1966244447380303
1788862331665048000,5.198048095703125,-2.2425948021501303,1.1211170760720968,0.3649783905297518
1788862331675054000,5.20805419921875,-2.193754491135478,0.4114572331100702,-0.130123340472579
1788862331685060900,5.218060791015625,-1.5408832878440617,-0.4582920495212078,-0.001343669693917036
1788862331695067000,5.22806689453125,-1.797936433444917,-1.3282920920431613,0.07436623580679297
1788862331705074200,5.23807421875,-3.1136434769421815,-2.153455213972926,-0.02542027246057987
1788862331715080000,5.248079833984375,-4.120931929260492,-2.9094220500797032,0.27297289152741433
1788862331725086000,5.2580859375,-4.293676267841458,-3.411371455019712,0.964287368851155
1788862331735093000,5.268093017578125,-4.387786922429502,-3.3627614456295967,0.9773733526565134
1788862331745099000,5.27809912109375,-3.4849890644162893,-3.5169068822026253,2.132908100506663
1788862331755106000,5.28810595703125,-3.5224878972053526,-3.4920173556178806,2.163962141070515
1788862331765111800,5.29811181640625,-3.9731276784077285,-2.94387493930161,2.070136587034166
1788862331775119000,5.308119140625,-3.7717087417453525,-2.496162735983729,1.3468459858655928
1788862331785125000,5.318125,-3.748111593058705,-2.5066338611155747,1.3486549349837005
1788862331795132000,5.3281318359375,-2.0490993519634007,-2.321536821439862,2.0242749995693563
1788862331805138200,5.33813818359375,-2.1745383340120314,-2.032080997145176,1.9469459684342145
1788862331815144000,5.34814404296875,-2.5196985098719598,-1.8379618621021507,1.5780175251044333
1788862331825151000,5.35815087890625,-2.5970585206672547,-1.7966285657167433,1.207188508850336
1788862331835157000,5.368156982421875,-2.250275419780612,-1.692345768943429,1.1248889958262442
1788862331845164000,5.3781640625,-2.5388725814193487,-1.4090969825953243,1.2902350408494472
1788862331855170000,5.388170166015625,-2.4269869084268807,-1.4748288071781397,1.2642932287327944
1788862331865176800,5.3981767578125,-2.8646441661983726,-1.6213678604006767,1.6786702948123216
1788862331875183000,5.40818310546875,-1.9631176432952284,-2.018244194972515,2.0303566575706005
1788862331885190000,5.41818994140625,-1.8077736445873975,-2.1102719058066604,2.0302397531926633
1788862331895196000,5.42819580078125,-0.7809037089645862,-2.18713010455966,0.404263376083225
1788862331905202200,5.4382021484375,-0.29825404777824877,-1.8411200338721274,-0.9130591397866606
1788862331915209000,5.448208984375,-0.061138651573657984,-1.808464549461007,-2.0479833535455167
1788862331925215000,5.458215087890625,0.8309726849913597,-1.6937737559199333,-2.85323546795547
1788862331935222300,5.46822216796875,0.9477677573353052,-1.8007780866116285,-2.925404924370348
1788862331945228000,5.47822802734375,2.731368499174714,-0.029874329259991644,-3.4927445008486506
1788862331955235000,5.488235107421875,2.8514310488820076,-0.1381049868762493,-3.5376267218872903
1788862331965240800,5.49824072265625,4.230613370206952,1.0097656560868025,-1.2962512323990463
1788862331975248100,5.508248046875,3.9431659631252285,1.4346364975214003,0.5107046660646796
1788862331985254100,5.518254150390625,4.045096059292555,1.3626783457696436,0.5537608407199383
1788862331995260000,5.528260009765625,0.8975824614524841,1.5772119078099727,3.0192569280222057
1788862332005267200,5.53826708984375,-0.6015244624137878,0.8957990851670503,3.048727060395479
1788862332015273200,5.548273193359375,-0.03703706049621105,0.3690209439188242,2.776123002180457
1788862332025280000,5.558280029296875,0.3225631441265344,0.32798692274093627,2.512172206020355
1788862332035286000,5.5682861328125,0.37716099575459955,0.2790904976248741,2.515676707009971
1788862332045293000,5.57829296875,-0.6513257274150848,0.09811433727145194,1.6080051054805515
1788862332055299000,5.588299072265625,-0.909084098675847,0.2913724715709686,1.0456414177186786
1788862332065305900,5.598305908203125,-0.8476753979891538,0.9609504795134067,0.4048796082854271
1788862332075312000,5.60831201171875,-0.26010931830108164,1.651845416250825,-0.1481326060242951
1788862332085318100,5.618318115234375,-0.20656828224956988,1.5914888549655675,-0.16416618758887053
1788862332095325000,5.628324951171875,0.7931283997654914,1.3061200077235697,-0.43289223532676696
1788862332105331000,5.6383310546875,0.28880992760658264,0.5628180074006319,-0.06253799697756766
1788862332115338000,5.648337890625,-0.29332243659496304,0.16852525958120823,0.5819431252397597
1788862332125344000,5.658343994140625,-0.6860960120230912,-0.017183189991116524,1.1055068344861267
1788862332135351000,5.66835107421875,-0.6029670624375343,-0.09415127885937691,1.1486286217235029
1788862332145357000,5.678357177734375,-1.3864409141510725,-0.24972177979946136,2.1205995308145877
1788862332155364000,5.688364013671875,-1.4967185674250125,0.07383505153954029,2.7172587252795695
1788862332165370000,5.6983701171875,-1.391559572339058,0.47659635249674315,3.1058406942367554
1788862332175377200,5.708377197265625,-1.4136848949074745,0.5509732558280229,2.9549855313807725
1788862332185383200,5.718383056640625,-1.3216858256459236,0.45544367435276506,3.016046733804047
1788862332195389000,5.728388916015625,-0.6271990018963813,0.009710662153363227,2.0211707499437033
1788862332205396000,5.73839599609375,0.9758990423202514,0.09151625418066978,1.6595453231036663
1788862332215402200,5.74840234375,1.0671405712127684,-0.01938742203712463,1.705452064884454
1788862332225409000,5.758408935546875,2.5594997743844985,0.9968512294560671,2.0298108602561054
1788862332235415000,5.7684150390625,2.6641151641130447,0.8775310225486754,2.137788858285546
1788862332245422000,5.778422119140625,1.1613380273014307,0.9527636659264564,1.031194374693185
1788862332255428000,5.788427978515625,0.2055132202386856,1.083169330471754,0.7558154449373483
1788862332265435000,5.798434814453125,-0.6275450388550758,0.9240046044319867,0.7717090335093438
1788862332275441000,5.80844091796875,-1.0519815805256365,0.4479764072120189,1.1593769563615322
1788862332285447200,5.818447265625,-0.9657646017968654,0.33092882141172886,1.3008921900726853
1788862332295454000,5.828453857421875,-1.2592179712951184,-0.698377693708241,2.0951513474337755
1788862332305460000,5.8384599609375,-1.7835294301688671,-0.7245677814975381,2.1292124608591196
1788862332315467000,5.848467041015625,-0.550370613759756,-0.6439607516050339,1.2394943030409513
1788862332325473000,5.85847314453125,2.415572949486971,-0.4951724581509828,0.3492476643692702
1788862332335480000,5.86847998046875,2.4918390275657174,-0.6408218690574169,0.48297787022739647
1788862332345485800,5.87848583984375,2.2529823406517506,-0.4182777267798781,1.5042751202844082
1788862332355493000,5.8884931640625,-3.4131787967026233,-0.7416416658952831,3.0345407141327856
1788862332365499100,5.8984990234375,-6.216016202807426,-1.6908993695273995,3.9024034523651
1788862332375506000,5.908505859375,0.44466099905371664,-2.099974968197942,1.4895518906660377
1788862332385512200,5.91851220703125,5.8990966175258155,-1.07219200938344,-1.4785919591039418
1788862332395518000,5.92851806640625,2.2117735474288462,-0.09978811570256949,0.6166053463634104
1788862332405525000,5.93852490234375,1.0402268453240393,-0.08796499143987893,3.3261659914210435
1788862332415531000,5.948531005859375,3.2722289417892694,-0.28801088618338105,2.7692905258119103
1788862332425538000,5.9585380859375,1.7231635165333747,-0.4580842519894242,1.7239248562946914
1788862332435544000,5.9685439453125,2.187099709421396,-0.07294453244060277,1.1040469180013983
1788862332445550800,5.97855078125,3.7738521835148333,0.4717074114114046,0.4387165210334584
1788862332455557000,5.98855712890625,2.7824183029323817,0.4922910574957728,-0.1666459303743206
1788862332465564000,5.99856396484375,3.023471038585901,0.1662804032638669,-0.7331095460020005
1788862332475570000,6.00856982421875,2.9103403339684006,0.024372224712371826,-1.1263807687539606
1788862332485576200,6.018576171875,2.770169646733999,0.09111527216434478,-0.9573352846909314
1788862332495583000,6.0285830078125,2.9763550671458243,0.49191067987605924,-1.0529098743516951
1788862332505589000,6.038589111328125,2.665147429770231,0.942655090496689,-1.4633262931719422
1788862332515596000,6.048595947265625,3.1469056950747967,1.001653953562677,-1.5492007420733571
1788862332525602000,6.05860205078125,4.684277175405621,1.3289115391157567,-1.5514973285779357
1788862332535609000,6.068609130859375,4.5408945403873915,2.1104997232131657,-1.7083021936185656
1788862332545614800,6.07861474609375,2.5081074407994746,2.8092554564535615,-2.093708016757667
1788862332555622000,6.088621826171875,1.9255518827497957,3.40945480774343,-2.4678911657452582
1788862332565628000,6.0986279296875,2.455177814644575,3.521041205528378,-1.9557950453221797
1788862332575635000,6.108635009765625,2.294567565971613,2.950487927700579,-1.2213420488219708
1788862332585641000,6.118640869140625,0.858803525725007,2.246205978384614,-0.5007175250574946
1788862332595647700,6.128647705078125,-0.36375031003952024,1.5360720881700516,0.5961927459970117
1788862332605654000,6.138654052734375,1.2152058110892772,0.8312319204494356,1.5749265733517706
1788862332615660000,6.148659912109375,2.5658137798368927,0.4780377834767103,2.1385833696641026
1788862332625666800,6.158666748046875,1.4322002102851867,0.38085166696608064,2.236301401094347
1788862332635672800,6.1686728515625,0.015482231292128562,0.3979574078068137,1.5468487721197306
1788862332645679900,6.178679931640625,0.2609048525929451,0.5107219094604254,0.3556516131274402
1788862332655686000,6.188685791015625,0.7673743653059005,0.6840086843550205,-0.11541223968341946
1788862332665693000,6.19869287109375,0.6410568468570709,0.8430892392426729,-0.24320304555520414
1788862332675699000,6.208698974609375,0.593879500618577,0.8541071846023202,-0.6188162273459136
1788862332685706000,6.2187060546875,1.1747715093702078,0.6011749183237552,-0.7395832720607519
1788862332695711700,6.228711669921875,1.3681430409163235,-0.2954062571316957,-0.8101442703656851
1788862332705719000,6.238718994140625,0.3527133677184582,-1.4173866720348596,-0.8876321453243493
1788862332715725000,6.24872509765625,-0.39758360605835913,-2.0367425592154262,-0.6002414368659258
1788862332725730800,6.258730712890625,0.17333412116765975,-1.8728198249936103,-0.04058262414857745
1788862332735737900,6.26873779296875,1.2252841375112533,-1.2613380321890115,0.40763109895065425
1788862332745744000,6.278743896484375,1.6846458620905875,-0.5760609353333711,0.016720540915429592
1788862332755751000,6.2887509765625,1.7642448839843272,-0.021784546306729314,-0.6262647897861897
1788862332765757000,6.2987568359375,2.274488654538989,0.17950667232275008,-0.8232799385316669
1788862332775764000,6.308763916015625,2.3750018696457147,0.32919103783369064,-0.8729327349729835
1788862332785770000,6.31877001953125,1.3918120857954024,0.7354524558663368,-1.07379593744874
1788862332795776800,6.32877685546875,0.843572054323554,1.1639566853672265,-0.9335980699464678
1788862332805782800,6.33878271484375,1.270923022136092,1.6632108598738908,-0.1589544442899525
1788862332815789800,6.348789794921875,1.867387863072753,1.8900936158776283,0.9923200157672166
1788862332825795800,6.3587958984375,1.641225822558999,1.6441420022666453,1.6975642342440782
1788862332835801900,6.3688017578125,1.0315437726527452,0.8700152400910853,1.789176496145129
1788862332845809000,6.378808837890625,0.3135281892776489,-0.12724106303453445,1.5018794573195278
1788862332855815000,6.38881494140625,-0.5302116228282451,-0.8036854496151209,1.272707129073888
1788862332865822000,6.398822021484375,-1.504957403460145,-0.9503425762593746,1.2670425274409354
1788862332875828000,6.408827880859375,-2.161226432496309,-0.9242506881475449,1.6892093706138431
1788862332885835000,6.4188349609375,-2.814316831496358,-1.7293606176078318,2.511780576354265
1788862332895840800,6.4288408203125,-4.031608508948982,-3.331387817722559,3.163766813504696
1788862332905848000,6.43884814453125,-5.548090053725242,-4.956984693995118,3.4394115545898676
1788862332915854000,6.44885400390625,-6.319063904827833,-6.332064840698242,3.561523438042402
1788862332925860900,6.45886083984375,-5.812941598117352,-7.291435942065715,2.630242120605707
1788862332935867000,6.468866943359375,-4.1273318594306705,-7.819618104892968,1.1823917751155792
1788862332945874000,6.4788740234375,-3.060518035954237,-8.023008341628312,-0.12405337290912866
1788862332955880000,6.4888798828125,-2.8089123421043154,-7.4533157722830765,-0.6938945569448173
1788862332965886000,6.498885986328125,-3.650168520700931,-5.777540029868483,-0.8757697119645774
1788862332975893000,6.50889306640625,-3.3814451033115387,-4.926780694389343,0.24019904143363235
1788862332985899000,6.51889892578125,-2.5507643870040773,-4.3892321528017515,1.4425621759541332
1788862332995905800,6.52890576171875,-2.3523218358039855,-3.325576501095295,2.11835730484575
1788862333005911800,6.538911865234375,-2.158927507904172,-2.457507134374976,2.558226685708761
1788862333015918800,6.5489189453125,-1.8515023116767406,-1.9061743975847958,2.4502958878219125
1788862333025924900,6.5589248046875,-1.2559943330734968,-1.4850199463248253,1.7247703672081232
1788862333035932000,6.568931884765625,-0.39684360134601593,-0.9963970559477805,0.7961760968983173
1788862333045938000,6.57893798828125,0.7950017924219369,-0.6402426078647375,0.08262421493381261
1788862333055945000,6.588945068359375,2.1446990760654208,-0.10287702162861824,-0.2803827293924987
1788862333065951000,6.598950927734375,2.6564877379745244,0.645618455684185,-0.1620895274452865
1788862333075958000,6.6089580078125,2.0632851137042043,1.2894272315979003,0.015344137995690106
1788862333085964000,6.618964111328125,0.6510246986418962,1.533816418197751,-0.19707097058594225
1788862333095969800,6.6289697265625,-0.11213351027369499,1.5013748687982558,-0.6031479719623923
1788862333105976800,6.638976806640625,0.2164887877613306,1.2610486938536167,-1.1267840157926081
1788862333115983000,6.648983154296875,1.0614286233067511,1.0622335099488496,-1.5116864194542168
1788862333125990000,6.658989990234375,2.071281373155117,0.9196762198388576,-1.5456658459454773
1788862333135996000,6.668995849609375,3.3618770640105007,0.9457838900417089,-1.110452474194765
1788862333146003000,6.6790029296875,3.834640706476569,1.0910375796288252,-0.043084523966908456
1788862333156009000,6.689009033203125,3.319813699784875,1.0681979713112115,1.5253782601982355
1788862333166015700,6.699015625,2.286234037390351,1.0577087260007858,3.1387855169832704
1788862333176021800,6.709021728515625,1.177986379763484,1.2079524789601563,4.085907085369527
1788862333186029000,6.719029052734375,0.3978676836967468,1.6900304777383803,4.033295731383562
1788862333196034800,6.729034912109375,-0.3723632400840521,2.1214029561519623,2.596810683386028
1788862333206041900,6.739041748046875,-0.5325134700298308,1.9575082789808511,1.037802833047509
1788862333216048000,6.749048095703125,-0.7334364398688078,1.6849878073960542,0.16822481532990932
1788862333226055000,6.759054931640625,-1.4314374092191458,1.3342425248801708,0.03217734550535679
1788862333236061000,6.76906103515625,-2.517892337232828,0.6273135681867599,0.6969511680364608
1788862333246066700,6.779066650390625,-3.9284734209060668,-0.30736440595090386,1.9634885224342344
1788862333256074000,6.789073974609375,-5.2490767120122905,-1.4501736738711595,3.11073664958477
1788862333266080000,6.799080078125,-5.134326297238469,-2.8252590812712906,3.5092683501482007
1788862333276086800,6.809086669921875,-2.9678596260011196,-3.898666311663389,3.2244635665297507
1788862333286093000,6.819093017578125,-0.8619944307208061,-4.193554097878932,2.437811377041042
1788862333296099800,6.829099853515625,0.09384440486729144,-3.7695734832823273,1.4021943636000156
1788862333306105900,6.83910595703125,1.374414376270771,-2.6508494398266076,0.3721571961179375
1788862333316113000,6.84911279296875,3.1477339625924823,-1.2359569226950406,-0.17675591230988502
1788862333326119000,6.859118896484375,3.8239883795589207,-0.13138473871052264,-0.1725885634973645
1788862333336126000,6.8691259765625,3.826487210637331,0.5581581988960505,0.04422872556596994
1788862333346131700,6.879131591796875,3.5909435937941074,0.8266726497098803,0.24637889911234379
1788862333356139000,6.889138916015625,3.858227333769202,0.6663546619817614,0.19611279307827353
1788862333366144800,6.899144775390625,3.762607151401043,0.08467997841984033,-0.5292408780999481
1788862333376150800,6.90915087890625,3.124599170720577,-0.3936415904343128,-1.6171471739657222
1788862333386158000,6.919157958984375,2.776847809323668,0.0569902997225523,-2.5975816677585244
1788862333396163800,6.929163818359375,3.3588118312209843,1.0597139283433556,-2.922040708634257
1788862333406171000,6.9391708984375,3.74105232219696,1.856471624521911,-2.6250620876193045
1788862333416177000,6.949177001953125,3.4716970366448163,2.374073648884892,-2.269012268954515
1788862333426184000,6.959183837890625,2.5696739623963833,2.592425307908654,-1.7657072116218506
1788862333436190000,6.96918994140625,0.19784780017733572,2.4494825256124138,-0.969508464500308
1788862333446196700,6.97919677734375,-2.4394249497175213,2.026278448346257,0.051138212693482635
1788862333456203000,6.989203125,-2.804795554435253,1.5807020880132914,1.0482843334428966
1788862333466209800,6.999209716796875,-1.448212602931261,0.8181172950714826,1.791209755538404
1788862333476215800,7.0092158203125,0.5964163256198167,-0.5317997688025236,2.2368089122250674
1788862333486223000,7.01922314453125,1.5339362451851366,-1.682315665577352,2.193002795985341
1788862333496228900,7.029228759765625,0.43018239184617996,-1.7089793622277676,1.0633971469007433
1788862333506236000,7.03923583984375,-0.718154115062952,-0.9606270927779376,-0.23847324055433272
1788862333516242000,7.049241943359375,-0.5209504580080508,-0.5363330283179879,-1.3630566775627433
1788862333526249000,7.0592490234375,-0.10810030923485756,-0.5214521239198744,-2.0268528872333467
1788862333536255000,7.0692548828125,-0.010222118806838989,-0.6127702251799404,-1.3871537385955452
1788862333546260500,7.079260498046875,0.06873042187690734,-1.1666633139774203,-0.7206203590460121
1788862333556267800,7.089267822265625,0.5849070896118879,-1.843754181768,-0.5194767321936786
1788862333566273800,7.099273681640625,1.1262766507923603,-1.9674585951089858,-0.3443178798168897
1788862333576280600,7.109280517578125,1.5742530580043792,-2.0792498678162694,-0.532484390065819
1788862333586286600,7.11928662109375,2.0255682542502877,-2.034172270336002,-1.0426562644280493
1788862333596293600,7.129293701171875,2.234375839859247,-1.964914463584125,-1.1924766774088145
1788862333606299600,7.139299560546875,2.0175193878293034,-1.3248770229026674,-1.3356924314275382
1788862333616306400,7.149306396484375,2.440147418773174,-0.22441271262839435,-1.3579017790175973
1788862333626312700,7.159312744140625,2.3545126238465306,0.9997456357233225,-1.6935164201579986
1788862333636319700,7.16931982421875,2.7862732247948645,2.2128483370535075,-2.3073282633453607
1788862333646325500,7.179325439453125,3.9747646319597956,2.947574670602381,-2.043552677621692
1788862333656332800,7.189332763671875,4.960440387406945,3.42515740378797,-1.4430012980237603
1788862333666338600,7.199338623046875,5.2957835181295865,3.775134332279861,-1.1780946624435484
1788862333676345600,7.209345703125,5.292199229902029,3.7475776323124763,-1.3585134811751545
1788862333686352000,7.219351806640625,4.965322898751497,3.2132436688572166,-2.076946851570904
1788862333696357600,7.229357666015625,4.992613056737184,2.34641933376193,-3.3341824168771503
1788862333706364700,7.23936474609375,5.145957113799453,1.722040065461397,-4.489098302176594
1788862333716370700,7.24937060546875,4.571751450943947,1.7239467758655547,-4.661705278113484
1788862333726377700,7.259377685546875,3.6912002037912606,2.185083985684812,-3.7323961375325916
1788862333736383700,7.2693837890625,3.6470471738100048,2.8220658381879327,-2.2983993992194534
1788862333746390500,7.279390625,4.380586489531398,3.368538275465369,-1.0207596360489726
1788862333756396800,7.289396728515625,4.671584282571077,3.3315207964524625,-0.17444179014861583
1788862333766403600,7.299403564453125,3.64550871219635,2.6484812493905423,-0.01737462090998888
1788862333776409600,7.30940966796875,2.104698489588499,1.5670280751869081,-0.039725568927824494
1788862333786417000,7.3194169921875,0.3701169224619865,0.6266828690677881,0.375203724206984
1788862333796422700,7.329422607421875,-1.832550942969322,0.08502923024892807,1.3966577722609042
1788862333806429700,7.3394296875,-2.258026764559746,-0.566372485011816,2.833921111154556
1788862333816435500,7.349435546875,-1.055509170129895,-1.637972958242893,3.391744671268761
1788862333826442800,7.35944287109375,-0.28093232609927654,-2.9714620344072578,2.7217446385219692
1788862333836448800,7.36944873046875,-0.19126900630891322,-4.359997875010967,1.5691569039091466
1788862333846455600,7.37945556640625,-0.03326455622017383,-5.553251382011175,0.4031652055829763
1788862333856461800,7.3894619140625,-1.632657900699973,-6.0704550547063345,-0.7935103848204016
1788862333866468600,7.399468505859375,-4.503223273640871,-5.990038871210813,-1.4655369549587367
1788862333876474600,7.409474609375,-6.213164320507645,-5.855886421352625,-0.8377461246490479
1788862333886480600,7.419480712890625,-6.841171131655574,-5.821714102637768,0.7085700018987059
1788862333896487700,7.42948779296875,-6.673898502483963,-5.781731636339425,1.9007883206322789
1788862333906493700,7.43949365234375,-4.70455248619318,-5.573007637360692,2.6961116000935434
1788862333916500500,7.44950048828125,-1.844563452324271,-5.058845816579461,3.249880916380882
1788862333926506800,7.4595068359375,-0.4153711916834116,-3.7428380365699527,2.378643733279407
1788862333936513500,7.469513427734375,-0.1925502782911062,-1.348272219276428,0.1417167476326227
1788862333946519600,7.47951953125,0.928795345839858,0.7077905419588089,-1.200922141931951
1788862333956526800,7.48952685546875,1.620045087364316,2.1690642865151166,-1.591691391800344
1788862333966532600,7.49953271484375,0.9599830957859754,3.2924586598694323,-1.5137494894638657
1788862333976539600,7.50953955078125,0.12740852855592966,3.431418802270293,-0.2945689295247197
1788862333986545700,7.519545654296875,0.14824644166231155,2.6410230423390866,1.6950611653819678
1788862333996552700,7.529552734375,0.6163374161422253,1.8517320287793875,3.241739695501327
1788862334006558700,7.539558837890625,0.5050529239133,1.411945357763767,3.719300801376998
1788862334016565500,7.5495654296875,-0.6143865743353962,1.3866548491626978,2.7710060975581405
1788862334026571800,7.55957177734375,-1.5043360566914081,1.1030290461957455,1.0243535688877106
1788862334036578600,7.56957861328125,-1.5280091932237148,0.47963411275744433,-0.25594752244651314
1788862334046584600,7.57958447265625,-1.5301146410703659,0.47604924000799653,-0.2701929054200649
1788862334056590600,7.589590576171875,-2.680986803936958,-1.7712673299670219,0.40449937679618597
1788862334066597600,7.59959765625,-4.721785068283975,-3.345912602159381,1.0165388034835456
1788862334076603600,7.609603759765625,-6.602966771170497,-4.992703073108196,0.8977262538373469
1788862334086610400,7.6196103515625,-6.834011907550692,-6.467192273068427,0.1876423402443528
1788862334096616700,7.62961669921875,-6.772777978909016,-6.520180935934186,0.13145371229350566
1788862334106623700,7.639623779296875,-5.488037443822622,-4.926995213922858,-3.1641683800429106
1788862334116629500,7.64962939453125,-3.8028783715128895,-3.700504038709402,-2.0779615815714
1788862334126636800,7.65963671875,-2.7211732683748004,-2.3396154989659785,0.15948650534003972
1788862334136642800,7.669642822265625,-2.7925270244926215,-0.8211965563863516,1.8705743841543792
1788862334146649600,7.679649658203125,-2.6466864749282597,-0.923493147778511,1.850095367488265
1788862334156655600,7.689655517578125,1.289358842536807,-0.417311804357171,4.857787237662077
1788862334166662700,7.69966259765625,3.9962820517629383,-1.155444293087721,5.137029710978269
1788862334176668700,7.709668701171875,3.2829338756769895,-0.6609381898909806,1.6942358204737304
1788862334186675500,7.719675537109375,1.2945552421361206,0.5466074618339538,-3.14210560131669
1788862334196681700,7.729681640625,1.3455717281460762,0.4294961631476879,-3.305560718026757
1788862334206688800,7.739688720703125,5.905118946555256,1.1995406244456768,-4.941607092121243
1788862334216694500,7.749694580078125,3.40710502974689,2.7517665595591065,-3.4220255355030296
1788862334226701800,7.759701904296875,-0.5509557201713323,3.3447996724814173,-1.274397712509334
1788862334236707600,7.76970751953125,-1.8391735759794712,2.089119227662682,1.1475281131356954
1788862334246714600,7.779714599609375,-1.754644111946225,2.042805220255256,1.200265431588888
1788862334256720600,7.789720703125,-0.22493805167675018,-1.9537679234087466,5.310046436759829
1788862334266726700,7.7997265625,-1.6219728405565021,-2.62467864125967,3.803293382054567
1788862334276733700,7.809733642578125,-1.9632476994156836,-2.244353628516197,0.525443093252182
1788862334286739700,7.81973974609375,-0.7674100211411714,-1.3713321923464536,-1.7899810905262827
1788862334296746800,7.829746826171875,-0.6881190422832966,-1.5334183587908743,-1.925683984696865
1788862334306752800,7.839752685546875,0.12863865487277507,1.7719915525883436,-3.456027758347988
1788862334316759600,7.849759521484375,-2.1250737536191937,2.325468315669894,-2.884673101009428
1788862334326765800,7.859765869140625,-3.3194863675266504,1.764823560655117,-1.3719567539855837
1788862334336772600,7.869772705078125,-2.5456647257775065,0.8733487684279679,0.4745838436305523
1788862334346778600,7.879778564453125,-2.416017770645022,0.7440221312910318,0.5183183559387922
1788862334356785700,7.88978564453125,-4.15389136505425,-0.3568775016605854,0.6490536908298731
1788862334366791700,7.899791748046875,-3.0847955681204793,-1.6547925756186246,0.5285410592675208
1788862334376798700,7.909798828125,-0.16485621567964553,-2.2859978905469176,1.4391519291192292
1788862334386804500,7.919804443359375,2.014361216059327,-2.408679098320007,1.5032014997035263
1788862334396811800,7.929811767578125,2.1258184345066544,-2.523683195593953,1.5712670279309153
1788862334406817800,7.93981787109375,5.090245747971535,-1.6643606144309042,-2.2684482053309676
1788862334416824600,7.949824462890625,7.526638782647252,-0.6734905052110552,-3.0857939315080642
1788862334426830800,7.959830810546875,8.405656244361401,-0.1306283673852682,-3.868036780121922
1788862334436837600,7.969837646484375,5.575797560340166,0.04541092108786106,-4.829663551461696
1788862334446843600,7.97984375,5.696521788826584,-0.11827595855146646,-4.747896830140054
1788862334456850700,7.9898505859375,-1.6207009209245442,1.2079837508812545,-4.381145292457938
1788862334466856700,7.999856689453125,-4.460747236961126,2.8683894902065394,-1.394080907510221
1788862334476863700,8.00986376953125,-6.2525803850948805,3.5223654398694633,1.1243901063933968
1788862334486869500,8.019869384765625,-2.9859441487461327,1.4056871741518377,1.6077721735075114
1788862334496875800,8.029875732421875,-2.932536968207359,1.3170379998400807,1.6512860288023947
1788862334506882600,8.039882568359374,-1.568484995996952,-3.9743975522130723,1.4868138440042733
1788862334516888600,8.049888671875,-2.0315970130205154,-4.591192648994922,2.3900904254451394
1788862334526895900,8.059895751953125,-0.9951151994436979,-4.952714761590958,2.1576789691478013
1788862334536901600,8.069901611328126,-2.5470225701272486,-3.712937403824925,-0.2291109534472227
1788862334546909200,8.0799091796875,-2.5067560261905193,-3.810565711145103,-0.21248773542642593
1788862334556915000,8.0899150390625,-1.3911311177939176,1.24403384616673,-3.1694816840201616
1788862334566922200,8.099922119140626,2.4859552302241323,1.5712679047137499,-3.484157289767265
1788862334576928300,8.10992822265625,2.5954233206808563,0.4509247356235981,-3.3782410465732213
1788862334586935000,8.11993505859375,2.390492284244299,-0.7153066166773439,-2.663086405587196
1788862334596941000,8.129941162109375,2.4169839853286743,-0.7766957358807325,-2.6406027711004016
1788862334606948000,8.139947998046875,2.26072316403687,-0.6626812341660261,-3.368972575229406
1788862334616954000,8.1499541015625,1.0387515120744704,2.4670640672713517,-4.828983167982101
1788862334626961000,8.1599609375,2.6050527342915535,4.776640401804447,-3.826902805700898
1788862334636967200,8.16996728515625,4.372739867684245,4.39432743011415,-0.43711686728447674
1788862334646974200,8.17997412109375,4.385176739931106,4.409503664197027,-0.3864791514590382
1788862334656980000,8.18997998046875,10.560721816140413,0.3404764019578695,0.6574684679538011
1788862334666987300,8.1999873046875,12.655665804433822,0.17987492111325262,-0.4702589661687612
1788862334676993000,8.209992919921875,10.183108984965086,0.45255175230354067,-2.228678505000472
1788862334687000000,8.22,7.045909275868534,1.1887184939190745,-4.550157458773255
1788862334697006000,8.230006103515626,7.022295176047086,1.2606255000054836,-4.551066390311718
1788862334707012000,8.24001220703125,5.237028546822071,3.2645039004951713,-7.717023407337069
1788862334717019100,8.25001904296875,2.4720091224581,4.900830845096707,-8.58650380989909
1788862334727025200,8.260025146484375,1.0831155544579028,6.792330236119032,-8.526998897007108
1788862334737032200,8.2700322265625,2.2337778739660976,8.682391118770838,-6.172490364813804
1788862334747038200,8.2800380859375,2.094263604813814,8.846854535740613,-6.355871248221397
1788862334757045000,8.290044921875,2.97988791744709,6.99655166298151,1.9928812056571243
1788862334767051000,8.300051025390625,0.9688754272937774,3.611794658643007,4.7834565115600824
1788862334777058000,8.31005810546875,-1.1401374183624982,0.6353259019896388,5.169329221558571
1788862334787064000,8.32006396484375,-1.509295140403509,-1.391829621452093,3.3103049899443984
1788862334797071000,8.330071044921874,-1.6428420255839824,-1.1913240002423524,3.2695652755379676
1788862334807077000,8.3400771484375,-6.72575202383995,-5.2338031550347806,-0.5975336392119527
1788862334817084200,8.350084228515625,-9.023862961506843,-7.884763069498539,-0.7034604038000106
1788862334827090000,8.36008984375,-8.082548910355568,-10.790679741805791,0.8686123875558376
1788862334837097200,8.37009716796875,-4.96265104919374,-13.420557120752333,3.1015976498395204
1788862334847103200,8.380103271484375,-5.124345585972071,-13.176152152061462,3.1529423448905347
1788862334857110000,8.390110107421876,-2.9805244617849587,-12.885695041769742,1.9394728560745715
1788862334867116000,8.400115966796875,-3.4013708700090644,-8.75470875148475,-0.07087853982150555
1788862334877123000,8.410123046875,-1.6791197921454906,-4.971504217734933,-0.8497334995627402
1788862334887129000,8.420129150390625,-0.5036100316286086,-1.7777789038181304,-1.3447910991623997
1788862334897135900,8.430135986328125,-0.6674865886211395,-1.6041238801330326,-1.3234423139244318
1788862334907142100,8.44014208984375,0.3762392047345638,3.5527065098583694,-1.878904113343358
1788862334917149200,8.450149169921875,1.3446902691364289,5.19629906154871,-1.2659689068600535
1788862334927155000,8.460155029296875,2.536365567034483,5.798014078098535,-0.28005905039608475
1788862334937162200,8.470162353515626,2.869204021459818,5.640221224933862,0.4559130454301834
1788862334947168000,8.48016796875,2.6958985418647528,5.792956794708967,0.5026747966051102
1788862334957174000,8.490174072265624,1.7985551498651504,3.8218566282272337,0.24354864412248134
1788862334967181000,8.50018115234375,1.9156734628140926,2.731459684589505,0.46313832050859927
1788862334977187000,8.51018701171875,1.163666762509942,1.8191256442070007,1.330193249489367
1788862334987194000,8.520194091796874,-0.5997200433403254,0.513216064363718,1.9675088639914988
1788862334997200100,8.5302001953125,-0.6749053404450416,0.5921399634748697,2.0496736447200177
1788862335007207200,8.540207275390625,-2.6538860310435295,-1.5608558162927626,1.5228212691918015
1788862335017213200,8.550213134765626,-2.7000463091939686,-1.2742787623047829,1.1073094999939204
1788862335027220000,8.560219970703125,-3.453872041618824,-0.08864040648341179,0.12887100232392548
1788862335037226000,8.57022607421875,-4.287738694486022,1.027146414476633,-1.2986132853552699
1788862335047233000,8.58023291015625,-4.2949774135679,1.0070482138216494,-1.3646028840914368
1788862335057239000,8.590239013671875,-5.630183815044164,0.4883598555266857,-4.672708318164944
1788862335067246000,8.60024609375,-6.0198670232415195,-1.795622019022703,-3.938657253529131
1788862335077252000,8.610252197265625,-5.892186399745941,-4.833352469107508,1.5720838972717524
1788862335087259100,8.620259033203125,-7.739906854796409,-8.90922535945773,7.4274027478694915
1788862335097265000,8.630264892578126,-7.645407785412669,-8.92662540706992,7.529543856438994
1788862335107272200,8.640272216796875,-12.608847939157485,-14.327884731149673,9.05152429089248
1788862335117278200,8.6502783203125,-5.990042962864041,-10.46840827410221,4.176851677142084
1788862335127285000,8.660284912109375,3.064340809112787,-5.461306088763475,0.5282566893681884
1788862335137291300,8.670291259765625,7.746196894851327,-1.7618951059877872,-0.31914106072336434
1788862335147298000,8.680298095703124,7.874947777926922,-1.8679829063564537,-0.34409634602069855
1788862335157304000,8.690303955078125,0.3565279575705528,-0.25826164460778234,0.013772797025740146
1788862335167311000,8.70031103515625,-1.1410036798030136,-1.6630623913139104,0.3896665493234992
1788862335177317000,8.710317138671876,-0.7294517541468143,-2.5722178016602992,0.7471496156617998
1788862335187324200,8.72032421875,-0.3409861050456762,-2.5216063893198966,0.6532359449505806
1788862335197330000,8.730329833984374,-0.30951720007061956,-2.5633213784992694,0.6207955645948648
1788862335207337200,8.740337158203126,0.09148761260807514,-0.2531318805038929,-0.8118424525856971
1788862335217343000,8.750343017578125,0.7716139025717973,0.9848808056771755,-1.4468354693591594
1788862335227350000,8.76035009765625,1.1217775858074426,2.0228537345945834,-1.6066759027034043
1788862335237356300,8.770356201171875,1.170546585151553,2.6956892830282446,-1.4017688316643238
1788862335247363000,8.780363037109375,1.2472744355231522,2.6296745498508214,-1.3932012020662425
1788862335257369000,8.790369140625,2.544487498691678,3.2453403503417966,-1.3987906926363707
1788862335267375000,8.800375,2.9996956107228994,3.2734412401884794,-2.267623737205565
1788862335277382100,8.810382080078124,3.4337568898290396,3.192841516819596,-3.043247167679667
1788862335287388200,8.82038818359375,3.6871938907593487,3.010397622001171,-2.8789716744974254
1788862335297395000,8.83039501953125,3.791132404139638,2.8892250652253626,-2.9035391295209525
1788862335307401200,8.840401123046876,1.8032506142050027,2.085067321923375,0.2447413610383868
1788862335317408000,8.850407958984375,0.4909089554876089,1.428704769384861,1.79427557284981
1788862335327414000,8.8604140625,-0.4990472537577152,0.753106185978651,2.467854340866208
1788862335337421000,8.870421142578126,-1.6120353839099406,0.22460838133096694,1.904049660515785
1788862335347427000,8.880427001953125,-1.5232634600013493,0.09399228890538215,1.875530545257032
1788862335357434000,8.89043408203125,-1.950935914853215,0.6886719999909401,-1.3257102588564156
1788862335367440000,8.90043994140625,-0.31080431727170943,1.1962380757689475,-1.50625328848958
1788862335377447200,8.910447265625,0.8602724292337894,1.5542583177238702,-0.46369595439136024
1788862335387453200,8.920453125,0.5038596224755049,1.0211498044103384,0.9393047571554779
1788862335397460000,8.9304599609375,0.6405740317761898,0.8689742066055536,1.0227870502233505
1788862335407466200,8.94046630859375,-0.948086906287074,-3.6539246583640574,0.21279314811378716
1788862335417473000,8.95047314453125,0.35015666897296904,-5.013043850347399,-1.2236276024758814
1788862335427479000,8.96047900390625,0.36406361377239227,-5.152282225167751,-0.8295806461110711
1788862335437486000,8.970486083984374,-1.279376962226629,-4.818384324817359,0.5734411082237959
1788862335447492000,8.9804921875,-1.175220422181487,-4.970036483269929,0.6447361198917031
1788862335457499100,8.9904990234375,-3.427056515407562,-3.3861025737285613,0.672994830648601
1788862335467505000,9.0005048828125,-2.319236727803945,-2.5939912420511244,0.633542525704205
1788862335477512200,9.01051220703125,-1.3445476457953451,-1.909589174464345,0.5579954095497727
1788862335487518000,9.02051806640625,-0.5046756150335073,-1.660838285523653,0.256339444373548
1788862335497525000,9.03052490234375,-0.42144028246402737,-1.81428726426512,0.32856881428211926
1788862335507531300,9.04053125,2.108890680581331,-0.44368893915116786,-0.6714630910366773
1788862335517538000,9.0505380859375,3.452002740615606,0.23938947861641643,-1.010072530078888
1788862335527544000,9.0605439453125,4.442995307171344,0.47054392058998346,-1.591083196774125
1788862335537551000,9.070551025390625,4.586307215040922,0.9582686930835247,-1.8238865749984978
1788862335547557400,9.080557373046876,4.640828494301438,0.8441869713515042,-1.7490683576405048
1788862335557563400,9.0905634765625,5.985303074860573,1.6438360050573944,-2.3607481572352347
1788862335567570200,9.100570068359374,5.259207645404339,1.6020478045113384,-2.7520640812009574
1788862335577576400,9.110576416015626,3.2889281476557253,1.2583883886031806,-2.5498481489419937
1788862335587583200,9.120583251953125,3.5908144144564864,1.3701840452246368,-2.465671736130118
1788862335597589200,9.13058935546875,3.6126352011203764,1.2953563293859363,-2.4479908257499337
1788862335607596300,9.14059619140625,1.8853472981333732,3.9155850054994223,-3.0918057391434908
1788862335617602300,9.150602294921875,2.1655577396988868,4.108078877428174,-1.6247890670210121
1788862335627609300,9.160609375,2.87749955611825,2.165704454693198,0.4754531738109886
1788862335637615000,9.170614990234375,3.2788018904387948,-0.9976960097171366,0.7474320858649909
1788862335647622400,9.180622314453124,3.272166397947073,-0.9755871998921036,0.7401404675520956
1788862335657628400,9.19062841796875,2.246550261777639,-3.0115900466561314,-2.9854803306266664
1788862335667635200,9.20063525390625,1.785394639518857,-1.5611176820993422,-4.464116421133279
1788862335677641500,9.210641357421874,1.3924310944765805,0.6829127058118581,-4.931698861569166
1788862335687648300,9.220648193359375,1.4861445664405821,2.502693014535308,-4.041638904576003
1788862335697654300,9.230654296875,1.4532225400477647,2.526059277075529,-4.140259145542979
1788862335707661300,9.240661376953126,3.7306583539545533,3.569009409883618,-0.6881190422832966
1788862335717667300,9.250667236328125,5.595812758886813,3.451355967144668,-0.04180120615810155
1788862335727674400,9.26067431640625,5.24614942638874,3.289188259896636,-0.05265431634485721
1788862335737680100,9.27068017578125,3.3124288502305745,3.008903876312077,-0.5189730204552412
1788862335747687400,9.2806875,3.2293519230931995,3.1615739796355364,-0.6329156259775162
1788862335757693200,9.290693115234374,1.9151368717193602,2.3223943150520325,-1.9739760141789913
1788862335767700200,9.3007001953125,2.6233476849168538,1.0782891572147608,-1.1795973220914602
1788862335777706500,9.31070654296875,3.014582214209437,-0.46583705807328224,-0.4323614894509315
1788862335787713300,9.32071337890625,2.839001190897822,-1.445719324810803,-0.6369663626730442
1788862335797719300,9.33071923828125,2.731252763840556,-1.2286889775186776,-0.681504884840548
1788862335807726300,9.340726318359375,2.517267483332753,-2.0537696818619966,-0.8057970349416136
1788862335817732400,9.350732421875,0.5260258615761995,-1.5188929898321628,-0.7605430579811334
1788862335827739100,9.3607392578125,-1.7979577684938906,-0.49542351030260323,-0.6431184555619954
1788862335837745200,9.3707451171875,-3.7924633604824542,1.0794254677683115,-0.2111962343111634
1788862335847752400,9.38075244140625,-3.9444624326765534,1.3119573355749248,-0.24295535440444946
1788862335857758200,9.39075830078125,-2.546526311042905,1.6276526397585869,4.31250108755976
1788862335867764200,9.40076416015625,0.35498014360666275,-0.26412615272700785,5.315799885720014
1788862335877771300,9.410771240234375,1.454646435371041,-2.6232418864548204,3.059806965075433
1788862335887777300,9.42077734375,1.7922849835544823,-4.976815183624625,-0.14556144036203622
1788862335897784300,9.430784423828126,1.593407255807519,-4.715492982402443,-0.0897550897270441
1788862335907790000,9.4407900390625,-0.6122942782312631,-8.455572660174965,-3.641101124887168
1788862335917797400,9.45079736328125,-2.9849504615336655,-8.986089987951516,-3.0589369042426346
1788862335927803400,9.460803466796875,-4.416694160223007,-8.552291743695735,-1.6731404254749416
1788862335937810200,9.47081005859375,-4.856815177759528,-7.7184046325623985,-0.46384442295134065
1788862335947816400,9.48081640625,-5.0423769123375415,-7.533204717034101,-0.4063341910079121
1788862335957823200,9.4908232421875,-2.519998369601369,-4.96770365640819,2.3215882593661545
1788862335967829200,9.500829345703124,-0.9276385770201683,-2.7345453756451605,2.0806424912184474
1788862335977836300,9.510836181640625,0.24341595765352247,-0.1442179167985916,1.0309835084214807
1788862335987842300,9.52084228515625,0.7520008550852537,2.3254081099152564,0.015573708967864513
1788862335997849300,9.530849365234374,0.6043465340971946,2.43181856636703,0.030884383085370063
1788862336007855000,9.540855224609375,0.5749240402579308,5.042102187049388,-0.10221417380571365
1788862336017862400,9.5508623046875,-0.31950375655591484,4.763891979390382,1.2348828637227416
1788862336027868200,9.5608681640625,-2.066320243616402,3.354989058062434,2.5310078393936157
1788862336037875200,9.570875244140625,-3.7298487911373375,1.2808844441801308,2.800972196754813
1788862336047881500,9.580881591796874,-3.844208160766959,1.3484008140921593,2.807501014001667
1788862336057888300,9.59088818359375,-3.6012563134938476,-2.530227502670884,2.6176132329180835
1788862336067894300,9.600894287109375,-2.7994349041849373,-2.9113422044873234,2.7604984398081895
1788862336077901300,9.6109013671875,-2.062711697730422,-1.4911024811089038,2.3788047690600154
1788862336087907300,9.6209072265625,-1.2979969070225954,1.212373218011856,1.0353484256327152
1788862336097914000,9.6309140625,-1.252946635940671,1.1742816800266505,0.9937503408312797
1788862336107920100,9.640920166015626,0.11538871267735958,2.785146266591549,-1.12730307123065
1788862336117927400,9.650927490234375,0.3496393671005964,1.4184090008199215,-1.1836603337466716
1788862336127933200,9.66093310546875,1.0864099198281765,0.30707857474684713,-0.25923224320560695
1788862336137940200,9.670940185546876,1.106641975995898,-0.08457564126253128,1.0323340462476014
1788862336147946200,9.6809462890625,1.2579191636562346,-0.18525076893270015,1.0188652006044983
1788862336157953300,9.690953369140624,-1.3533102134436368,-0.5748959832072258,1.8252566943079231
1788862336167959300,9.700959228515625,-2.8409640154033897,-0.9957482366502285,0.6056561553910375
1788862336177966300,9.71096630859375,-3.4892362004667516,-1.4357944353848695,-0.7209165655136108
1788862336187972400,9.720972412109376,-4.440667741006613,-2.3698861340671775,-0.45992140428870915
1788862336197979100,9.730979248046875,-6.442890775504708,-3.678522508525848,1.8272426074281334
1788862336207985400,9.7409853515625,-8.915831041333078,-5.526489047291874,4.922597855746746
1788862336217991400,9.750991455078125,-10.851639529681204,-8.138110638579725,6.187534789210558
1788862336227998200,9.760998291015625,-8.786878498205542,-9.664230072534084,5.196668479382992
1788862336238004200,9.771004150390626,-3.2335300855606794,-8.821885514178872,3.5630090004250405
1788862336248011300,9.78101123046875,1.1200468164920807,-6.644809186121821,1.4708841612055896
1788862336258017300,9.791017333984374,3.327612390837073,-4.174443739217519,-0.6533201161026955
1788862336268024300,9.8010244140625,4.819688100892305,-2.2900328451514245,-1.7969319325774906
1788862336278030300,9.8110302734375,5.345038839685917,-0.9186603207945823,-2.1182132201999426
1788862336288037400,9.821037353515624,4.987248899355531,-0.1606178474575281,-1.5567720541104673
1788862336298043100,9.831043212890625,4.16049237075448,0.10626549502313136,-0.674984835422039
1788862336308050400,9.841050537109375,3.108246586334705,0.23010990135669707,-0.15754326231777668
1788862336318056400,9.851056396484376,1.871819123518467,0.3888976107776165,0.045533378423750395
1788862336328063200,9.861063232421875,0.9450199199318885,0.8078226955503225,-0.23194208521991966
1788862336338069200,9.8710693359375,1.2383622302711008,1.47659990850389,-0.7502680399432778
1788862336348076300,9.881076171875,2.2411755830019713,2.2339421246170996,-1.2471774048894644
1788862336358082300,9.891082275390625,2.849938179975748,2.9164164390116927,-1.6998472306147216
1788862336368089000,9.901089111328124,3.0154397078216073,3.1073131048768756,-2.4329350031763313
1788862336378095400,9.911095458984375,3.4310406166076657,3.0521377456218004,-3.333046983106434
1788862336388102400,9.921102294921875,3.830989198231697,3.0627602619230747,-3.869359553158283
1788862336398108200,9.931108154296876,3.908670403805375,2.926504117783904,-3.9324499233216046
1788862336408115500,9.941115478515625,3.0736966664791106,2.3211598048210145,-2.269033604003489
1788862336418121200,9.951121337890624,2.124351869085431,1.1596002437233923,-0.8718918476179242
1788862336428128300,9.961128173828126,1.1645458834320306,-0.33027006524205205,0.027546763095259663
1788862336438134300,9.97113427734375,0.09118190765976905,-1.4705524450331926,0.26896307136416436
1788862336448141300,9.981141357421874,-0.4500649039238691,-1.4060381795465946,0.2119265944123268
1788862336458147300,9.991147216796875,-1.5077964262783528,0.028552433006465434,0.7195812252566218
1788862336468154000,10.001154052734375,-3.2574761938154695,1.7219959340587256,2.0853782875686884
1788862336478160400,10.011160400390626,-3.857424785214662,2.138385655134916,3.783279644812643
1788862336488167200,10.021167236328125,-3.385983331263065,0.26619623699933287,4.522961116550863
1788862336498173200,10.031173095703124,-1.9461995339810847,-3.1879712804347276,3.517772559121251
1788862336508180500,10.041180419921876,-1.4273790737390517,-5.290295442107319,1.2217960031345485
1788862336518186200,10.051186279296875,-1.9546271705865859,-5.3113446598768235,-0.9377993210285901
1788862336528193300,10.061193359375,-2.347026067483425,-4.678839660526812,-1.4192311308577656
1788862336538199300,10.07119921875,-3.1039263850480316,-4.3768359048262235,-0.223998432739079
1788862336548205800,10.081205810546875,-3.2164012561053035,-4.631560607479512,0.4598509694010019
1788862336558212000,10.091212158203126,-1.2619710693955422,-4.610446215519309,-0.06432283456772565
1788862336568219000,10.101218994140625,1.2867489522993565,-3.4576436691120267,-0.7659343956306577
1788862336578225000,10.111224853515624,4.7216889144331216,-1.490529357396066,-1.0187307605698703
1788862336588231000,10.12123095703125,5.479086075603962,0.4663593283817172,-1.206340075327456
1788862336598238000,10.131238037109375,3.244952227807045,2.0365875147841868,-1.6557774950027464
1788862336608244000,10.141243896484376,3.6010698510110375,3.0999598195046185,-2.3187594656810164
1788862336618250800,10.151250732421875,4.9062452713608735,3.1866064218223094,-2.7268285176575184
1788862336628257000,10.161257080078125,5.184374814999103,2.5827690062910316,-2.346456304771453
1788862336638264000,10.17126416015625,5.0776481322050095,1.8497567831836639,-1.5670830202445387
1788862336648269800,10.181269775390625,5.09806781989932,1.797950608100742,-1.5271462927840649
1788862336658277000,10.191277099609374,4.496138868337869,1.7776066159911452,-1.5453399749919772
1788862336668283000,10.201282958984375,3.4823680682629345,1.9663786909177898,-1.580759517288953
1788862336678290000,10.2112900390625,2.46826058357954,2.4840455972105264,-2.309766304147243
1788862336688296000,10.2212958984375,3.1624528082966803,2.8546418276220558,-2.5327389009699224
1788862336698303000,10.231302978515625,4.067283341181278,2.456080316442251,-1.5521122456058858
1788862336708309000,10.24130908203125,3.926977044868469,1.3336210319809614,-1.0035630020543933
1788862336718315800,10.251315673828126,3.5636931832969188,0.4449367472551763,-1.6517355261355637
1788862336728322000,10.261322021484375,3.0339012471854683,0.20801833492740987,-2.5037030683606862
1788862336738328800,10.271328857421874,2.369436052212119,0.6525649138212204,-3.1297289348244663
1788862336748334800,10.2813349609375,2.1740520117998123,1.4419129182651638,-2.8930855400457975
1788862336758342100,10.291342041015625,1.4543535899043083,2.1688839615121482,-1.8822722746022045
1788862336768348000,10.301347900390626,0.3873153100222349,2.8581647410511968,-0.8058670314379036
1788862336778355000,10.31135498046875,0.7941057203650475,3.126529262000322,0.5513318600073457
1788862336788361000,10.32136083984375,2.3714158278524873,2.797473833245039,1.7780206036195159
1788862336798368000,10.331367919921876,3.9267058267116544,1.841337183754146,2.5040914831563827
1788862336808374000,10.3413740234375,4.121099102520942,0.5864049269542098,2.1096856303513047
1788862336818380800,10.351380859375,2.9317233137369154,-0.18927286405563354,0.6677192283332347
1788862336828387000,10.361386962890625,1.6665104859411715,-0.6651897098556161,-0.6591980682253837
1788862336838393900,10.371393798828125,0.05033084183335304,-0.997739118206501,-1.1253984066531062
1788862336848400000,10.38139990234375,-1.411216458967328,-1.0473942527353763,-0.5480392482027411
1788862336858407000,10.391406982421875,-1.1956518003135919,-1.1042729087769985,0.9133765351727604
1788862336868413000,10.401412841796875,0.46275428962707515,-1.6129583439737558,2.1170807090386745
1788862336878420000,10.411419921875,1.738530597013235,-2.2063199581980704,1.7443769849538802
1788862336888426000,10.421426025390625,2.1955004580199717,-2.1838407076254485,-0.02412409517019987
1788862336898433000,10.43143310546875,2.0544892283082006,-1.9500807593286036,-0.02556581841111183
1788862336908439000,10.44143896484375,2.818630018520355,-1.8145955995619296,-1.910243546719849
1788862336918444800,10.45144482421875,1.6874609195113182,-1.2474462849587202,-2.5534309758648277
1788862336928452000,10.4614521484375,0.6044944181352854,-0.4285924923062324,-2.889886744004488
1788862336938457900,10.471457763671875,0.8008329827934503,0.5001917476177216,-2.395973638264835
1788862336948465000,10.48146484375,2.0734365053623915,1.331076754325628,-1.6150424567714332
1788862336958471200,10.49147119140625,2.5333371591240166,1.7432307375282048,-1.1781196507543326
1788862336968478000,10.50147802734375,2.2680232579171657,1.343966046515107,-0.9200117354035376
1788862336978484000,10.51148388671875,2.540239193597436,-0.012477204257249831,-0.6065443364024162
1788862336988491000,10.521490966796875,1.5293015711218119,-1.3457196121841668,-0.6840273890554904
1788862336998497000,10.5314970703125,-0.6791039611786603,-2.2180022126853465,-0.5537462276726961
1788862337008503800,10.54150390625,-3.246715730348229,-3.3298288978427646,0.5396536971732974
1788862337018509800,10.551509765625,-5.120143458107114,-5.260228220623731,2.7213226137176156
1788862337028517000,10.56151708984375,-6.262367619615793,-7.598473015758395,4.7050642351076
1788862337038523000,10.57152294921875,-7.464470788025856,-9.118390672463178,5.098884981501103
1788862337048530000,10.581530029296875,-7.202351298946142,-8.455314886021613,4.254238283683359
1788862337058536000,10.591535888671874,-5.601568545934557,-5.93051408457458,3.6605657038137314
1788862337068543000,10.60154296875,-3.859596284034848,-2.4327403573870656,3.3115134889513254
1788862337078549000,10.611549072265625,-2.260102401790023,1.2649696666896342,2.223150681489706
1788862337088556000,10.62155615234375,-0.6620142946898937,3.7958828135371205,0.7058543131992221
1788862337098562000,10.63156201171875,0.4622404948860407,4.4975458125263446,-0.8192913072869181
1788862337108568800,10.64156884765625,1.3846242201179264,3.6311458403229713,-1.4455018826678394
1788862337118574800,10.651574951171876,1.7287813564151524,1.4753437709629535,0.003391688264906406
1788862337128582000,10.661581787109375,0.6981374552115798,-1.0665881980270147,2.2708096737653016
1788862337138588000,10.671587890625,-1.588522406375408,-2.5586937186986205,2.9205811574757097
1788862337148595000,10.681594970703125,-3.0160920342504975,-3.0007132633328437,3.0161990017563105
1788862337158601000,10.69160107421875,-2.8166537500113247,-2.6191402963548898,3.161912417809665
1788862337168608000,10.70160791015625,-3.2842952271580694,-2.160154419350624,2.445222530080378
1788862337178614000,10.711614013671875,-3.5594559841185807,-2.2580197502970694,1.1076286489456892
1788862337188621000,10.72162109375,-2.9131536378234624,-2.659146143528819,0.1577864234238863
1788862337198627000,10.731626953125,-1.9603198292702435,-2.736605230784416,-0.32841625406891106
1788862337208633900,10.7416337890625,-0.912713395088911,-2.217767819407582,-0.652410892303288
1788862337218640000,10.751639892578124,-0.04490180252194404,-1.308257019752264,-0.9591878537550568
1788862337228647000,10.76164697265625,0.305792042067647,-0.5968278290301561,-1.645530241754651
1788862337238653000,10.77165283203125,0.5678706146150827,-0.2925830164045095,-2.398990647998452
1788862337248660000,10.781659912109374,1.0055191045582295,-0.1318225456058979,-2.365314296106994
1788862337258666000,10.791666015625,1.2921984498769044,-0.2806055783629417,-1.122252217581868
1788862337268673000,10.801673095703125,0.16044541350007055,-0.7784083850175142,0.12357318817675113
1788862337278678800,10.8116787109375,-1.4017162246942518,-1.554198696491122,0.8508081430569291
1788862337288684800,10.821684814453125,-1.8235124809890983,-2.462030164757371,1.6451368585228918
1788862337298692000,10.831692138671874,-1.9932921245455741,-3.0779484787046907,2.133041371497512
1788862337308697900,10.84169775390625,-2.7795214124470946,-3.1856735248863695,1.8180366799265144
1788862337318705000,10.851704833984375,-2.4790374136596918,-3.065486472016573,1.4944550064072013
1788862337328711000,10.8617109375,-1.3085101177304983,-2.7945284274429083,1.0052511012718082
1788862337338718000,10.871718017578125,-0.15872984175384044,-1.9507938760340213,0.20564941383898258
1788862337348724000,10.881723876953124,0.8569190271526574,-0.9333101929157972,-0.1927533996477723
1788862337358731000,10.89173095703125,1.1290572214215993,-0.08092647110521793,-0.3504591590508818
1788862337368737000,10.901737060546875,0.6229588801085949,0.6166518889188766,-0.5277750433310866
1788862337378743800,10.911743896484374,0.08349018411338328,1.0539005658894776,-0.8212450717031955
1788862337388749800,10.921749755859375,0.15859306363165376,0.921663594263792,-0.8079436915814876
1788862337398756900,10.9317568359375,0.6379045203059911,0.11717208896279334,-0.31977117532044647
1788862337408763000,10.941762939453126,0.9111702573001385,-1.047366780206561,0.0308522343814373
1788862337418770000,10.95177001953125,0.10862754797935485,-1.7845453292131424,-0.42534810355752706
1788862337428776000,10.96177587890625,-0.28695348608493804,-1.772414161914587,-1.6955895731702446
1788862337438783000,10.971782958984376,1.2477853076547383,-1.1981295886039733,-2.77883138435632
1788862337448789000,10.9817890625,2.587638073632121,-0.15907061801552771,-2.9610385478094217
1788862337458796000,10.991796142578124,2.4218846168518064,1.3313257606506348,-2.4440371196880935
1788862337468802000,11.001802001953125,2.1982056253254414,2.814064318040013,-1.2506608630910514
1788862337478808800,11.011808837890625,1.4476152215600013,3.6799542948946353,0.17940408873111008
1788862337488815000,11.021815185546876,1.1706056218624115,3.364851111385226,1.3015461239367723
1788862337498822000,11.03182177734375,2.0730133115142584,2.0933508738830686,1.3134464050889014
1788862337508828000,11.041827880859374,2.647134803217649,0.9251087662816048,0.5172527725338936
1788862337518835000,11.0518349609375,2.8000720330446955,0.6370882354870439,-0.05460545041263103
1788862337528841000,11.061841064453125,2.2474042482584715,0.6351695423841476,-0.07563888609111309
1788862337538848000,11.071847900390624,1.5009598582565784,0.5232178184181452,0.03299918328225612
1788862337548854300,11.081854248046875,1.298974812144041,0.0077162734657526015,0.0029226094484329224
1788862337558861600,11.091861572265625,1.0681623154759405,-0.950742681492865,-0.5240267967134714
1788862337568867300,11.101867431640626,-0.27836393691599365,-1.6596920380979776,-1.2495605006337165
1788862337578874400,11.111874267578125,-3.2831144929409026,-1.4759513814672827,-1.916269382880628
1788862337588880400,11.12188037109375,-6.349127034658193,-0.7587664036974311,-2.0897902587920427
1788862337598887400,11.131887451171876,-6.403280649650097,-0.5164303502351045,-1.4740218747094274
1788862337608893400,11.1418935546875,-3.620560148900747,-1.1193643871858716,-0.2692345817819238
1788862337618900200,11.151900146484374,-1.7888702066749333,-3.052574675734341,0.6486249440237879
1788862337628906500,11.161906494140625,-1.4289642971038818,-5.096245865169167,0.38486324069499966
1788862337638913300,11.171913330078125,-0.6206359901189804,-5.422200989821553,-0.29804449668079613
1788862337648919300,11.181919189453126,-0.8777624932169914,-4.646931195090711,-1.5037249390557408
1788862337658925300,11.19192529296875,-0.8530559219837188,-3.051297203144431,-2.9036212548464535
1788862337668932400,11.201932373046875,0.2451449734032154,-1.5324122504882514,-3.56120107422024
1788862337678938400,11.2119384765625,1.090017588931322,-0.177956081879884,-3.822940039549768
1788862337688945400,11.2219453125,1.513871946799755,1.3536331617876887,-3.58664005138129
1788862337698951400,11.231951416015624,1.1871955221354962,2.1441912726737558,-2.9883059094414115
1788862337708958500,11.24195849609375,2.3166239149570464,1.4123491162590682,-2.190274247804284
1788862337718964200,11.251964111328125,3.792175775712728,-0.20224179735258221,-0.8821405621707439
1788862337728971500,11.261971435546876,4.756329435181618,-1.0799335634209215,-0.11504647511094808
1788862337738977500,11.2719775390625,5.796832174837589,-0.46234030199870463,-1.1816682831466196
1788862337748984300,11.281984375,6.297237857466936,0.3808035900406539,-2.6807351672634483
1788862337758990600,11.291990478515626,5.462412004178762,1.2706368986710905,-4.1294636107623575
1788862337768997400,11.301997314453125,5.335140546005964,1.8630008801601825,-5.162076473951339
1788862337779003400,11.31200341796875,5.715794060051441,2.501303021481633,-5.466497812187671
1788862337789010400,11.322010498046875,5.896612399494647,3.4267440884575247,-5.018364753109217
1788862337799016400,11.332016357421875,5.800043538099527,3.8355446695789692,-4.19475295227468
1788862337809023500,11.3420234375,5.034026432621479,3.7269378721266984,-3.5170030360534783
1788862337819029200,11.352029296875,4.525450303018093,3.43038010687232,-3.214646813653409
1788862337829036500,11.36203662109375,4.732102171897888,3.240916104158759,-3.2227631923526525
1788862337839042300,11.372042236328125,4.062069405925274,3.304264832997322,-2.946181754939258
1788862337849049300,11.38204931640625,1.8638222795456647,3.6410645922690628,-2.0013471284464
1788862337859055600,11.3920556640625,-0.266947639888525,4.192692512613535,-0.612949235008657
1788862337869062400,11.4020625,-1.3829174162000417,4.470200417222082,1.0713429913386703
1788862337879068400,11.412068359375,-1.5404899046123026,3.879518251340091,2.505371001572907
1788862337889075500,11.422075439453126,-1.5504571718752382,2.1691303374886513,3.1680665565252304
1788862337899081500,11.43208154296875,-1.3442144683182238,-0.06959113035947084,2.6859450108662246
1788862337909088300,11.442088134765624,-1.2929273486733437,-2.5726348580285907,1.7873162552312016
1788862337919094300,11.45209423828125,-2.131511677712202,-5.104959917500615,0.9704656190946698
1788862337929101600,11.4621015625,-3.580908521991968,-7.4590207059264175,-0.12562164513915777
1788862337939107300,11.472107421875,-4.063401531311869,-9.048695789468288,-1.1929296818733215
1788862337949114400,11.4821142578125,-2.604827108842134,-9.47905879857838,-1.0744511864870787
1788862337959120600,11.49212060546875,-1.1319330691188574,-8.838941278398037,-0.7610106754928827
1788862337969127400,11.50212744140625,-0.9580898293852805,-7.212438977718353,-1.572117799541354
1788862337979133400,11.512133544921875,-0.18881050724089143,-5.1760547304213045,-2.3854686108633874
1788862337989140500,11.522140380859375,1.237983460086584,-2.8780127663373944,-2.3112197178259493
1788862337999146500,11.532146484375,1.40919868940413,-0.44889001492559905,-1.9689748448908329
1788862338009152500,11.542152587890625,0.4593669852763414,1.4000737181842327,-2.0047616130650043
1788862338019159300,11.5521591796875,-0.054019759479165076,2.4935113446921107,-2.097967720028758
1788862338029165600,11.56216552734375,0.7646955014854669,3.0115210730731485,-1.6122712384924291
1788862338039172400,11.57217236328125,1.8301216699957847,3.0745547446131702,-0.6735919197589159
1788862338049178400,11.582178466796876,1.868877809369564,2.871336941835284,-0.09038666562885045
1788862338059185400,11.592185302734375,1.657949578344822,3.059652359035611,-0.02520341483950615
1788862338069191400,11.60219140625,0.5373965658962726,1.5694225691080093,-0.2567594233512878
1788862338079198500,11.612198486328126,0.8733610433876514,0.6237807178854942,-0.4678367074579
1788862338089204200,11.622204345703125,0.12608312517106532,-0.05138005862534046,-0.5813777464419603
1788862338099211500,11.63221142578125,-1.7229156792521476,-0.7793687544822693,-0.2616369662597775
1788862338109217300,11.64221728515625,-1.8237468742668628,-0.69493865917027,-0.19972206961661576
1788862338119224300,11.652224365234375,-3.954256096938252,-2.903042578175664,1.8293126917004585
1788862338129230600,11.662230712890626,-4.968702604317665,-3.546590657326579,2.291809499435127
1788862338139237400,11.6722373046875,-5.987148994988202,-3.861972365516424,1.9434543269261717
1788862338149243400,11.682243408203124,-6.27231442861259,-3.6523411885648964,1.2598515930235386
1788862338159250400,11.69225048828125,-5.0914101155757905,-3.1604274399489163,1.0654001572862266
1788862338169256400,11.70225634765625,-3.9140342689260836,-2.566275552129745,1.4597931506097317
1788862338179263200,11.71226318359375,-3.6210441330254075,-1.9784014294058083,1.5581468495950102
1788862338189269200,11.722269287109375,-3.4238051123961806,-1.6142846241414546,1.0556035704150795
1788862338199276500,11.732276611328125,-2.535319565112889,-1.354447693040967,0.40272739868760105
1788862338209282300,11.7422822265625,-2.4581571227163077,-1.4022037159502505,0.38267917465418577
1788862338219289300,11.752289306640625,-0.1461357331186533,-1.1127607511371373,0.4928694419056177
1788862338229295600,11.762295654296874,-0.057010757988691325,-1.50832366502285,0.8129568435683846
1788862338239302400,11.772302490234376,-0.8522638948231935,-1.8992133264005182,0.14440817867368458
1788862338249308400,11.782308349609375,-1.023226026162505,-1.8812848710000514,-0.8082882672354579
1788862338259315500,11.7923154296875,-0.9463315870523452,-1.9382377613216637,-0.8350096854224801
1788862338269321500,11.802321533203125,-0.7349217099905013,-1.2930080126941204,0.1441530348688364
1788862338279328300,11.812328369140625,-1.834701399001479,-1.411550220966339,1.2653969521909951
1788862338289334300,11.822334228515626,-2.9026158771961925,-1.9503303501754998,2.1496835864797235
1788862338299341600,11.832341552734375,-2.0734107863992453,-2.9783295820891857,3.2616777371585366
1788862338309347300,11.842347412109374,-1.9844155751287935,-3.047524114346504,3.238885475113988
1788862338319354400,11.852354248046876,-1.4026426918894053,-3.4639725798726078,1.6109955194681882
1788862338329360400,11.8623603515625,-1.847075727406144,-3.0185090322643515,-0.8935627044171094
1788862338339367400,11.872367431640624,-0.8901116871803998,-2.5560101787030693,-2.4300439579099415
1788862338349373400,11.88237353515625,0.8594260415375232,-1.458570915338397,-2.7529247896835205
1788862338359380500,11.89238037109375,0.9605383915811777,-1.570323901861906,-2.816186717021465
1788862338369386500,11.902386474609376,0.8911620730161667,1.1945277647197245,-1.947058781158924
1788862338379392500,11.912392578125,0.5194289475291967,1.8114251528322696,-1.3093582589924335
1788862338389399600,11.922399658203124,0.9621241994678974,2.2438562003880738,-0.6580518207997084
1788862338399405600,11.932405517578125,1.3898849171251058,2.621509948095679,-0.20146160676032304
1788862338409412400,11.942412353515625,1.5251865370184183,2.4785809020638463,-0.2266319961130619
1788862338419418400,11.95241845703125,1.193728723296523,2.80200329336822,-0.19786036739796398
1788862338429425400,11.96242529296875,1.2401239792466163,2.851251016139984,-0.6446177542090415
1788862338439431400,11.972431396484374,1.4192647408664225,3.116715723994374,-1.2523597759634255
1788862338449438200,11.982438232421876,1.635093603414297,3.5818618771940467,-1.5751155200526117
1788862338459444500,11.992444580078125,1.749905392986536,3.4273020146012305,-1.6012383878245948
1788862338469451500,12.002451416015624,2.4122768305510283,4.131058186477422,-0.8584253400623798
1788862338479457300,12.012457275390625,2.987890606638789,3.8450223997592925,-0.3957923387274146
1788862338489464600,12.022464599609375,3.3136125070571896,2.932856701681018,-0.04961684834510088
1788862338499470600,12.032470703125,2.70759657844305,1.5617372753024101,0.3047109688326716
1788862338509477400,12.042477294921875,2.8307155931115147,1.412673087516427,0.3499120465621352
1788862338519483400,12.0524833984375,-2.184796108654141,-1.0985787887886167,1.467093536750972
1788862338529490400,12.062490478515626,-5.171452205061912,-2.529740595936775,2.8822394441217183
1788862338539496400,12.072496337890625,-6.070794661924243,-4.890324356390535,4.327656571115553
1788862338549503200,12.082503173828124,-4.925733231163025,-7.707793806698918,4.253054042334854
1788862338559509500,12.092509521484375,-4.831669046065211,-7.837900780558586,4.30827587108016
1788862338569516500,12.1025166015625,-1.7959908523350954,-7.514175022393465,0.684144001172483
1788862338579522300,12.112522216796876,-4.425651373660564,-4.4627296429499985,0.5213724828124046
1788862338589529600,12.122529541015625,-7.561110961091518,-1.0201467648476361,2.533078800448775
1788862338599535400,12.132535400390625,-7.606530065485835,1.5716130648896096,5.209322209250927
1788862338609542400,12.14254248046875,-7.544659592506289,1.4990069706231355,5.285360323792696
1788862338619548400,12.15254833984375,-2.7382939145237204,-3.467189788353443,2.2602190139070153
1788862338629555500,12.162555419921874,1.3856810356944798,-4.515807153142989,0.12491612721830606
1788862338639561500,12.1725615234375,5.04709868016243,-5.000985748285055,-0.8560799459800124
1788862338649568300,12.182568359375,6.143065532886982,-5.6275768474161625,-1.7895061664909124
1788862338659574500,12.192574462890626,6.238311036723852,-5.745600000250339,-1.622844362694025
1788862338669581300,12.202581298828125,3.7367338744759557,-3.7042493627175688,-3.4201568190217015
1788862338679587300,12.21258740234375,4.032252944332361,-0.45700639362484213,-3.657940323746204
1788862338689593300,12.22259326171875,5.05325252661705,2.9165274981707334,-3.7333436475157735
1788862338699600400,12.232600341796875,5.391772533810139,5.344192451989651,-4.212562457470596
1788862338709606400,12.2426064453125,5.437531245422363,5.250851320469379,-4.133166849194467
1788862338719613400,12.252613525390625,6.8989657334983345,6.29795857295692,-3.7548978921979663
1788862338729619500,12.262619384765625,7.973725547543167,4.911226566904783,-2.4931518637299535
1788862338739626500,12.27262646484375,7.421771463984251,2.686191094581783,-0.9795129950337111
1788862338749632300,12.28263232421875,5.8103732089340685,0.659740212278068,0.3806581902205944
1788862338759639600,12.2926396484375,5.834647233968973,0.6028929742880165,0.43039048163890836
1788862338769645600,12.3026455078125,7.191991232973336,-0.22058628620803356,-0.568862256000936
1788862338779652400,12.31265234375,4.563730641573668,0.17551394942477344,-2.9330671295613047
1788862338789658400,12.322658447265624,3.5260692628234622,0.6994840475149452,-4.748403902879357
1788862338799665400,12.33266552734375,3.8144969131141897,0.970666694624722,-5.354457825416326
1788862338809671400,12.34267138671875,3.8044028046011924,0.9114495126329362,-5.477544691380858
1788862338819678200,12.35267822265625,0.39973873826563355,1.0401403360843657,-5.58765166426301
1788862338829684500,12.3626845703125,-0.7530079863011837,1.8965745023295282,-4.2595694155782455
1788862338839691500,12.37269140625,0.6286497852265834,3.358685574492812,-0.9106902186982333
1788862338849697300,12.382697265625,0.9546680382430552,3.0415199054956434,2.5560811981126665
1788862338859704600,12.39270458984375,0.9260580298304557,3.075042235869169,2.479557053619623
1788862338869710300,12.40271044921875,1.5778262403160332,0.3928909181974828,5.331729276257753
1788862338879717400,12.41271728515625,-0.417300698441267,1.8907989876680076,3.076984017586708
1788862338889723400,12.422723388671875,-3.5290012246221303,3.4120480391070243,1.3693947945430873
1788862338899730400,12.43273046875,-2.891228806263208,3.085566552492976,1.002545349444449
1788862338909736400,12.442736328125,-2.951545620059967,3.2216564001545307,0.9374635132029652
1788862338919743200,12.4527431640625,0.6543284163624048,0.09002543110102415,0.7803107115074992
1788862338929749500,12.46274951171875,0.4037842142641544,-1.6070201860964297,0.7057432540401816
1788862338939756300,12.47275634765625,0.3804775729566812,-3.5704955567881465,-0.13160598024576903
1788862338949762300,12.48276220703125,0.10841828914284705,-5.032950912344456,-1.8043191202193498
1788862338959768300,12.492768310546875,0.018800562059879303,-4.831777182614803,-1.8275787075147032
1788862338969775400,12.502775390625,0.3770972828686237,-4.526410087960958,-1.6855702834591269
1788862338979781400,12.512781494140626,2.9555525176137682,-2.878940402576327,-0.9723758366301655
1788862338989788400,12.522788330078125,4.3618496403574945,-1.1939257071733473,-1.179647883234918
1788862338999794400,12.53279443359375,3.4288346309959885,0.22847820850163697,-1.7571628167688846
1788862339009801500,12.542801513671876,3.3054292006015777,0.45034956608414645,-1.7544976892128585
1788862339019807200,12.55280712890625,1.2368845589339732,2.0913775279834868,-2.4964722403243185
1788862339029814500,12.562814453125,2.1294740344047547,2.887944962286949,-2.1589596566081046
1788862339039820500,12.572820556640625,3.2619735052347183,3.4299668498963114,-1.47974259044379
1788862339049827300,12.582827392578125,3.940651349955797,3.4439562122821807,-0.6851660376965999
1788862339059833600,12.59283349609375,3.7908079944908617,3.668192837691307,-0.6370005572035908
1788862339069840400,12.60284033203125,3.2897727817863225,1.5197119049996137,-0.6561214372590184
1788862339079846400,12.612846435546874,2.352115499576926,0.18648352559804915,-0.824395936949551
1788862339089853400,12.622853515625,1.2560802577912806,-1.1697767698228358,-0.34096476999670267
1788862339099859500,12.632859375,0.5607803640931844,-2.2787498191148043,0.5031128957614303
1788862339109866500,12.642866455078124,0.4159054446905851,-2.1024311291784046,0.5740016647160053
1788862339119872300,12.652872314453125,-1.1682575974315403,-2.510918991088867,1.2295520240887998
