time,seconds_elapsed,z,y,x
1788862326502989000,0.035989013671875,-0.613728404045105,0.9804922938346863,1.9585278034210205
1788862326512995300,0.045995361328125,-0.4724940359592438,0.7269638776779175,2.0131890773773193
1788862326523002000,0.056002197265625,-0.45224815607070923,0.3292918801307678,1.962143063545227
1788862326533008100,0.066008056640625,-0.4418535828590393,0.027948277071118355,1.8598328828811646
1788862326543015000,0.076014892578125,-0.3842281103134155,-0.05242885276675224,1.6447088718414307
1788862326553021000,0.08602099609375,-0.3593863844871521,-0.1351383775472641,1.234640121459961
1788862326563027200,0.096027099609375,-0.3541056215763092,-0.23579494655132294,0.7341405749320984
1788862326573034000,0.106033935546875,-0.2454446405172348,-0.21743938326835632,0.27058568596839905
1788862326583040000,0.1160400390625,0.011942945420742035,-0.0695796087384224,-0.032765936106443405
1788862326593047000,0.126047119140625,0.2684069573879242,-0.016520386561751366,-0.11391032487154007
1788862326603053000,0.136052978515625,0.3343295156955719,-0.25932344794273376,-0.017286311835050583
1788862326613059000,0.14605908203125,0.18604923784732819,-0.7470611333847046,0.11253640055656433
1788862326623065900,0.15606591796875,-0.0343015156686306,-1.1533838510513306,0.14732153713703156
1788862326633072000,0.166072021484375,-0.13521480560302734,-1.2663509845733643,0.027849208563566208
1788862326643079200,0.1760791015625,-0.04187953844666481,-1.0634739398956299,-0.16985560953617096
1788862326653085000,0.1860849609375,0.1746290624141693,-0.6834483742713928,-0.3736971616744995
1788862326663091000,0.196091064453125,0.38200142979621887,-0.2847971022129059,-0.5240523219108582
1788862326673098000,0.206097900390625,0.5021387338638306,-0.012085424736142159,-0.6124130487442017
1788862326683104000,0.21610400390625,0.4692077040672302,-0.10011887550354004,-0.6135318279266357
1788862326693111000,0.226111083984375,0.36557719111442566,-0.375417560338974,-0.534083366394043
1788862326703117000,0.236116943359375,0.3154732584953308,-0.5640045404434204,-0.41220301389694214
1788862326713124000,0.2461240234375,0.28296777606010437,-0.6101837158203125,-0.33960071206092834
1788862326723130000,0.256130126953125,0.31968557834625244,-0.6784163117408752,-0.3176828920841217
1788862326733136000,0.266135986328125,0.4292144775390625,-1.0379992723464966,-0.2927085757255554
1788862326743143200,0.27614306640625,0.607758104801178,-1.5799413919448853,-0.3309028148651123
1788862326753149000,0.28614892578125,0.7868937849998474,-2.146239995956421,-0.37254801392555237
1788862326763155000,0.296155029296875,0.9511919021606445,-2.395779609680176,-0.4821575880050659
1788862326773162200,0.306162353515625,1.0652966499328613,-2.1915926933288574,-0.6372012495994568
1788862326783168000,0.31616796875,1.1387133598327637,-1.906031608581543,-0.6903722882270813
1788862326793175000,0.326175048828125,1.225438117980957,-1.8746342658996582,-0.6123589873313904
1788862326803181000,0.33618115234375,1.3699276447296143,-2.156998634338379,-0.4909958243370056
1788862326813188000,0.34618798828125,2.582552433013916,-2.709937334060669,-0.07357275485992432
1788862326823194000,0.356194091796875,4.368188858032227,-3.085681438446045,0.5915088653564453
1788862326833199900,0.366199951171875,5.355112075805664,-2.878286600112915,1.2000830173492432
1788862326843207200,0.376207275390625,4.224804401397705,-3.2080092430114746,0.5196799039840698
1788862326853213200,0.386213134765625,2.0026633739471436,-2.4814698696136475,-0.5038335919380188
1788862326863220000,0.396219970703125,1.043897032737732,-1.4901912212371826,-0.34514620900154114
1788862326873226000,0.40622607421875,1.017956256866455,-1.4275392293930054,-0.18954943120479584
1788862326883232000,0.41623193359375,1.1538594961166382,-1.5172715187072754,-0.43530699610710144
1788862326893239000,0.426239013671875,1.198399305343628,-0.4593593180179596,-0.742169201374054
1788862326903245000,0.4362451171875,1.2430269718170166,0.6051972508430481,-0.7680862545967102
1788862326913252000,0.446252197265625,1.420011281967163,0.8593679666519165,-0.6801342964172363
1788862326923258000,0.456258056640625,1.5619953870773315,0.6932448148727417,-0.6219048500061035
1788862326933264100,0.46626416015625,1.461089015007019,-0.1804017275571823,-0.5030514001846313
1788862326943271000,0.47627099609375,1.1536155939102173,-1.1508711576461792,-0.2557540237903595
1788862326953277200,0.486277099609375,0.9679788947105408,-1.6302177906036377,0.024024643003940582
1788862326963284000,0.496283935546875,0.9245842695236206,-1.6712182760238647,0.10103367269039154
1788862326973290000,0.5062900390625,0.8597331047058105,-1.5252517461776733,-0.0611184798181057
1788862326983296000,0.5162958984375,0.8220992088317871,-1.3597322702407837,-0.3396425247192383
1788862326993303000,0.526302978515625,0.9897441267967224,-1.3293921947479248,-0.5510144233703613
1788862327003309000,0.53630908203125,1.30606210231781,-1.719252586364746,-0.6359434127807617
1788862327013315800,0.54631591796875,1.8002228736877441,-2.404885768890381,-0.46984925866127014
1788862327023322000,0.556322021484375,2.3875794410705566,-3.4084064960479736,-0.023845411837100983
1788862327033328000,0.566328125,2.8813953399658203,-4.792690753936768,0.6262255311012268
1788862327043335000,0.5763349609375,3.1379339694976807,-6.020959377288818,1.2475916147232056
1788862327053341200,0.586341064453125,3.3184378147125244,-6.815574645996094,1.7069588899612427
1788862327063348000,0.596347900390625,3.592054605484009,-7.241350173950195,1.9768351316452026
1788862327073354000,0.60635400390625,3.8582074642181396,-7.236133575439453,2.0206973552703857
1788862327083360000,0.616360107421875,4.168793678283691,-7.230148792266846,1.844024419784546
1788862327093367000,0.626366943359375,4.475881099700928,-7.544030666351318,1.5634111166000366
1788862327103373000,0.636373046875,4.797744274139404,-7.750435829162598,1.2717680931091309
1788862327113379800,0.6463798828125,4.983988285064697,-7.575263977050781,1.0886718034744263
1788862327123386000,0.65638623046875,5.047633171081543,-7.055065155029297,1.0691161155700684
1788862327133392100,0.66639208984375,5.0137128829956055,-6.625266075134277,1.28029465675354
1788862327143399000,0.67639892578125,4.852258205413818,-6.593886852264404,1.5694907903671265
1788862327153405000,0.686405029296875,4.729759693145752,-6.774704456329346,1.8643203973770142
1788862327163412000,0.696411865234375,4.673514366149902,-6.748183727264404,2.289651870727539
1788862327173418000,0.70641796875,4.567588806152344,-6.2726263999938965,2.8875555992126465
1788862327183424000,0.716424072265625,3.990166187286377,-5.291547775268555,3.4607977867126465
1788862327193431000,0.72643115234375,2.7709879875183105,-3.842298746109009,3.7523598670959473
1788862327203437000,0.73643701171875,1.5855989456176758,-2.3539299964904785,3.615943193435669
1788862327213444000,0.746444091796875,1.0721793174743652,-1.7688367366790771,3.2373647689819336
1788862327223449900,0.756449951171875,1.0920486450195312,-2.3501574993133545,3.252825975418091
1788862327233456000,0.7664560546875,1.4730294942855835,-3.0533695220947266,3.569533348083496
1788862327243463000,0.776462890625,2.0562970638275146,-3.400663375854492,4.005148887634277
1788862327253469000,0.786468994140625,2.4117908477783203,-4.030252933502197,4.287492752075195
1788862327263476200,0.796476318359375,2.136239528656006,-5.327442169189453,3.8079473972320557
1788862327273482000,0.80648193359375,1.645111322402954,-6.230398178100586,2.800583839416504
1788862327283488000,0.816488037109375,1.337519884109497,-5.645781993865967,1.8307455778121948
1788862327293495000,0.8264951171875,1.4465888738632202,-3.1016361713409424,0.8466687202453613
1788862327303501000,0.8365009765625,2.227959156036377,-1.077125072479248,0.13435886800289154
1788862327313508000,0.846508056640625,2.954740285873413,-0.23767167329788208,-0.2051885724067688
1788862327323514000,0.85651416015625,3.199483633041382,-0.17163273692131042,-0.3559738099575043
1788862327333521200,0.866521240234375,3.437680959701538,-0.6238678693771362,-0.404594361782074
1788862327343527200,0.876527099609375,3.8613715171813965,-1.2654060125350952,-0.3830677568912506
1788862327353533000,0.886532958984375,4.19382905960083,-1.6862672567367554,-0.31159037351608276
1788862327363540000,0.8965400390625,4.250807285308838,-1.7857952117919922,-0.15578612685203552
1788862327373546200,0.906546142578125,3.4667015075683594,-1.7612993717193604,-0.135724276304245
1788862327383553000,0.916552978515625,2.85982346534729,-1.251747488975525,0.07016577571630478
1788862327393559000,0.92655908203125,2.497567892074585,-0.3334464132785797,0.2639957070350647
1788862327403565000,0.93656494140625,2.2294375896453857,0.4708053171634674,0.09442424029111862
1788862327413572000,0.946572021484375,2.1907544136047363,0.48132988810539246,-0.36775723099708557
1788862327423578000,0.956578125,2.235153913497925,-0.24342383444309235,-0.8968607783317566
1788862327433585000,0.9665849609375,2.3324127197265625,-1.416868805885315,-1.415977954864502
1788862327443591200,0.976591064453125,2.2644078731536865,-2.1677157878875732,-1.6499547958374023
1788862327453597200,0.98659716796875,2.2153267860412598,-2.756679058074951,-1.6800333261489868
1788862327463604000,0.99660400390625,2.134505033493042,-2.997692823410034,-1.5257090330123901
1788862327473610000,1.00660986328125,1.5646926164627075,-1.7680689096450806,-1.101045846939087
1788862327483617000,1.016616943359375,0.611629843711853,-1.1381809711456299,-1.135624885559082
1788862327493623000,1.026623046875,-0.5053651928901672,-1.3639222383499146,-1.4352781772613525
1788862327503629000,1.036629150390625,-0.5827822089195251,-1.7792757749557495,-1.2510337829589844
1788862327513636000,1.046635986328125,0.28863659501075745,-2.5249621868133545,-0.7479586601257324
1788862327523642000,1.05664208984375,0.9254074692726135,-2.4393510818481445,-0.4638020098209381
1788862327533649000,1.06664892578125,0.9013029336929321,-1.5073236227035522,-0.1991887390613556
1788862327543654400,1.076654296875,0.5653907060623169,-0.48936358094215393,0.07814167439937592
1788862327553660700,1.08666064453125,0.6881546974182129,-0.09861179441213608,0.25027135014533997
1788862327563667500,1.09666748046875,1.1858038902282715,0.10544093698263168,0.39069798588752747
1788862327573673500,1.106673583984375,1.613616704940796,0.07271548360586166,0.5321656465530396
1788862327583680500,1.116680419921875,2.0430593490600586,-0.10643988847732544,0.7598571181297302
1788862327593686500,1.1266865234375,2.2286226749420166,-0.29001718759536743,1.00869619846344
1788862327603692500,1.136692626953125,1.6196256875991821,-0.8056067824363708,1.0164988040924072
1788862327613699300,1.14669921875,0.7585521340370178,-0.9606764912605286,0.7331746220588684
1788862327623705600,1.15670556640625,0.07319911569356918,-1.0106632709503174,0.6228984594345093
1788862327633712600,1.166712646484375,-0.38183897733688354,-1.177385687828064,0.6777507662773132
1788862327643718400,1.176718505859375,-0.5285671353340149,-1.4054392576217651,0.7072980403900146
1788862327653724400,1.186724365234375,-0.5897820591926575,-1.0087180137634277,0.5903767347335815
1788862327663731500,1.1967314453125,-0.39214301109313965,-0.6581456661224365,0.25910133123397827
1788862327673737500,1.206737548828125,0.07975714653730392,-0.031614385545253754,0.0022173479665070772
1788862327683744500,1.21674462890625,0.36258217692375183,0.7725987434387207,0.06384050101041794
1788862327693750500,1.22675048828125,0.3703053593635559,1.4142950773239136,0.04414935037493706
1788862327703756500,1.236756591796875,0.3371924161911011,1.7998875379562378,-0.1168627068400383
1788862327713763600,1.246763671875,0.2509526014328003,1.4297443628311157,-0.30655354261398315
1788862327723769300,1.256769287109375,0.0075636436231434345,0.2298068255186081,-0.3808445632457733
1788862327733776600,1.266776611328125,-0.3067846894264221,-0.32735469937324524,-0.27534183859825134
1788862327743782400,1.276782470703125,-0.6009612083435059,0.05835331976413727,-0.09529269486665726
1788862327753789400,1.28678955078125,-0.5985718369483948,0.9662800431251526,-0.8160926699638367
1788862327763795700,1.296795654296875,0.4626312851905823,0.01685354858636856,-1.236807942390442
1788862327773801500,1.306801513671875,1.304029107093811,-0.9108205437660217,-0.16500332951545715
1788862327783808500,1.31680859375,1.6640514135360718,-0.4376694858074188,0.4011825919151306
1788862327793814500,1.326814453125,1.632440447807312,-0.4730932414531708,0.5972418189048767
1788862327803821600,1.336821533203125,1.5404058694839478,-1.0425878763198853,0.39282718300819397
1788862327813827600,1.34682763671875,1.3304356336593628,-1.6444367170333862,0.3607994616031647
1788862327823833300,1.356833251953125,1.0277678966522217,-1.6551802158355713,0.6595414280891418
1788862327833840600,1.366840576171875,1.1099722385406494,-1.7184712886810303,1.1538230180740356
1788862327843846700,1.3768466796875,1.2817152738571167,-1.7939910888671875,1.4304970502853394
1788862327853853400,1.386853515625,0.919321596622467,-1.738067626953125,1.217513918876648
1788862327863859700,1.396859619140625,0.758018970489502,-1.9814672470092773,1.422704815864563
1788862327873865700,1.40686572265625,0.7609756588935852,-1.6967166662216187,0.8683153986930847
1788862327883872500,1.41687255859375,0.3435267508029938,-1.8854175806045532,0.7338199019432068
1788862327893878500,1.42687841796875,0.02430773712694645,-2.825561761856079,0.5410797595977783
1788862327903885600,1.436885498046875,0.08328716456890106,-3.356649875640869,0.9340909719467163
1788862327913891600,1.4468916015625,0.15296292304992676,-3.7405757904052734,1.06086003780365
1788862327923897600,1.456897705078125,0.24362224340438843,-3.1889727115631104,0.7446693778038025
1788862327933904600,1.466904541015625,0.44365254044532776,-1.6499662399291992,0.3326599895954132
1788862327943910700,1.47691064453125,0.47211694717407227,-0.8161715269088745,-0.07017296552658081
1788862327953917400,1.48691748046875,0.4972768723964691,-0.7068117260932922,-0.5007262229919434
1788862327963923500,1.49692333984375,0.5269458293914795,-0.6291070580482483,-0.8766329884529114
1788862327973929700,1.5069296875,0.5487930774688721,-0.6637066006660461,-0.8419005870819092
1788862327983936500,1.5169365234375,0.43038493394851685,-0.8257511854171753,-0.3731064796447754
1788862327993942500,1.526942626953125,0.44253480434417725,-1.014143943786621,0.20704399049282074
1788862328003949600,1.536949462890625,0.33424028754234314,-1.20759117603302,0.40545642375946045
1788862328013955600,1.54695556640625,0.1136607825756073,-1.227103352546692,0.3265645205974579
1788862328023962600,1.556962646484375,0.011784221045672894,-0.8747317790985107,0.148237407207489
1788862328033968400,1.566968505859375,-0.019601663574576378,-0.4354233741760254,-0.12262125313282013
1788862328043974700,1.576974609375,-0.08336759358644485,-0.1369999349117279,-0.43816348910331726
1788862328053981400,1.5869814453125,-0.10072661191225052,0.04934970661997795,-0.8242754936218262
1788862328063987500,1.596987548828125,-0.21712885797023773,0.28363358974456787,-1.3350218534469604
1788862328073994800,1.606994873046875,-0.41260141134262085,0.5593264102935791,-1.9273818731307983
1788862328084000500,1.61700048828125,-0.4946041405200958,0.997022807598114,-2.400876760482788
1788862328094006500,1.627006591796875,-0.4844393730163574,1.3310716152191162,-2.535750389099121
1788862328104013600,1.637013671875,-0.2754424810409546,1.3956103324890137,-1.9433541297912598
1788862328114019600,1.64701953125,0.0468687042593956,0.7161540985107422,-0.943075954914093
1788862328124026600,1.657026611328125,0.2698463797569275,-0.16810032725334167,-0.01672944612801075
1788862328134032400,1.667032470703125,0.28145483136177063,-0.29619091749191284,0.2116219699382782
1788862328144038400,1.677038330078125,-0.02731577679514885,0.03189881145954132,0.04939524456858635
1788862328154045700,1.687045654296875,-0.12037009000778198,0.47401124238967896,-0.028060663491487503
1788862328164051500,1.697051513671875,-0.07854993641376495,0.45594915747642517,0.08779776096343994
1788862328174058500,1.70705859375,0.09830260276794434,0.17986643314361572,0.004969724919646978
1788862328184064500,1.717064453125,0.18688680231571198,0.04201003536581993,-0.06260425597429276
1788862328194071600,1.727071533203125,0.24282144010066986,-0.012703278101980686,-0.021852567791938782
1788862328204077600,1.73707763671875,0.23366442322731018,-0.004775580484420061,0.010952250100672245
1788862328214083300,1.747083251953125,0.1780775934457779,-0.08546590059995651,0.00475560687482357
1788862328224090600,1.757090576171875,0.35970810055732727,-0.3300303816795349,-0.10257324576377869
1788862328234096600,1.7670966796875,0.43992677330970764,-0.49167439341545105,-0.18982239067554474
1788862328244103400,1.777103515625,0.37194931507110596,-0.5981118679046631,-0.24598020315170288
1788862328254109700,1.787109619140625,0.39472654461860657,-0.423163503408432,-0.18352961540222168
1788862328264115500,1.797115478515625,0.5636993050575256,-0.20384792983531952,-0.08070389926433563
1788862328274122500,1.80712255859375,0.777427077293396,-0.3293331563472748,-0.12937822937965393
1788862328284128500,1.81712841796875,0.8198365569114685,-0.37796780467033386,-0.33938926458358765
1788862328294135600,1.827135498046875,0.5651115775108337,-0.4407750070095062,-0.5567426085472107
1788862328304141600,1.8371416015625,0.5235828161239624,-0.77780681848526,-0.9068644046783447
1788862328314147600,1.847147705078125,0.5955467224121094,-1.19339919090271,-1.4480565786361694
1788862328324154600,1.857154541015625,0.4742293655872345,-1.1269946098327637,-1.8696767091751099
1788862328334160600,1.86716064453125,0.3920750916004181,-1.0657835006713867,-1.9435951709747314
1788862328344167400,1.87716748046875,-0.029691582545638084,-1.4613324403762817,-1.8887457847595215
1788862328354173400,1.88717333984375,-0.3892359137535095,-1.534679889678955,-1.7945209741592407
1788862328364180500,1.897180419921875,-0.5640982389450073,-1.1699516773223877,-1.3862237930297852
1788862328374186500,1.9071865234375,-0.5824764966964722,-0.9168083667755127,-1.3821736574172974
1788862328384192500,1.917192626953125,-0.837435781955719,-0.49885639548301697,-1.213800072669983
1788862328394199600,1.927199462890625,-1.2987730503082275,-0.07114581763744354,-0.9467114210128784
1788862328404205600,1.93720556640625,-1.7109872102737427,0.601250946521759,-1.195564866065979
1788862328414212400,1.94721240234375,-2.07924485206604,0.17054110765457153,-1.7244532108306885
1788862328424218400,1.95721826171875,-1.834975004196167,-0.1938624083995819,-1.2773394584655762
1788862328434224600,1.967224609375,-1.803901195526123,-0.48759177327156067,-1.7081559896469116
1788862328444231400,1.9772314453125,-1.6249005794525146,0.7821621298789978,-1.701310634613037
1788862328454237400,1.987237548828125,-1.093481421470642,0.6688640713691711,-1.6154463291168213
1788862328464244500,1.997244384765625,-0.7634755373001099,-0.6419389843940735,-1.8477227687835693
1788862328474250500,2.00725048828125,-0.310901939868927,0.5643768310546875,-0.9662081599235535
1788862328484256500,2.017256591796875,-0.009184443391859531,0.6647910475730896,-0.518092155456543
1788862328494263600,2.027263671875,-0.025433987379074097,0.1709435135126114,-0.12150965631008148
1788862328504269600,2.03726953125,0.42832738161087036,-0.13958026468753815,0.4156248867511749
1788862328514276600,2.047276611328125,0.8131938576698303,-0.21064165234565735,0.5733359456062317
1788862328524282400,2.057282470703125,1.0010005235671997,-0.04872359707951546,0.5231814384460449
1788862328534288600,2.06728857421875,1.2024739980697632,-0.1278437227010727,0.29961785674095154
1788862328544296200,2.077296142578125,1.295742392539978,-0.10793152451515198,0.13622495532035828
1788862328554302200,2.08730224609375,1.3083471059799194,-0.18916326761245728,0.07967112958431244
1788862328564309200,2.097309326171875,1.0888803005218506,-0.36915698647499084,-0.035177960991859436
1788862328574315300,2.107315185546875,0.8497723340988159,-0.5259450078010559,-0.17427699267864227
1788862328584321300,2.1173212890625,0.7886365652084351,-0.5959686040878296,-0.26055195927619934
1788862328594328300,2.127328369140625,0.7311999201774597,-0.6484869122505188,-0.26384976506233215
1788862328604334300,2.137334228515625,0.5083692073822021,-0.46330001950263977,-0.11149483919143677
1788862328614341400,2.14734130859375,0.4211738705635071,-0.3907821476459503,-0.01780855841934681
1788862328624347100,2.15734716796875,0.3458535373210907,-0.30563047528266907,-0.06345274299383163
1788862328634354400,2.1673544921875,0.29184091091156006,-0.2781221568584442,-0.27662894129753113
1788862328644360200,2.177360107421875,0.2254144847393036,-0.281242311000824,-0.4731198847293854
1788862328654366200,2.1873662109375,0.17040981352329254,-0.2714056670665741,-0.5749573111534119
1788862328664373500,2.19737353515625,0.13172847032546997,-0.2583119869232178,-0.6951351165771484
1788862328674379300,2.207379150390625,0.08663129806518555,-0.27130207419395447,-0.7932355999946594
1788862328684386300,2.21738623046875,0.02508857473731041,-0.29857203364372253,-0.7897343039512634
1788862328694392300,2.227392333984375,-0.02485528215765953,0.009427856653928757,-0.9100458025932312
1788862328704398300,2.2373984375,-0.28574174642562866,-0.08756820112466812,-0.6465020775794983
1788862328714405400,2.2474052734375,-0.6092678904533386,-0.2292768657207489,-0.22321471571922302
1788862328724411100,2.2574111328125,-0.8736782073974609,-0.021647771820425987,-0.05717167630791664
1788862328734418400,2.26741845703125,-0.8770958781242371,-0.2083369642496109,-0.19477242231369019
1788862328744424400,2.277424560546875,-0.2180604338645935,-0.9191842079162598,-0.43813687562942505
1788862328754430200,2.28743017578125,0.3089061677455902,-0.6326546669006348,-0.13240863382816315
1788862328764437200,2.297437255859375,0.20130568742752075,-0.32103100419044495,-0.20501840114593506
1788862328774443300,2.307443359375,-0.04278767853975296,-0.5967091917991638,-0.315754234790802
1788862328784450300,2.3174501953125,-0.09349213540554047,-0.8293120861053467,-0.36597347259521484
1788862328794456300,2.327456298828125,0.07263346016407013,-0.8427647948265076,-0.4289151430130005
1788862328804462000,2.337462158203125,0.08019523322582245,-0.8108167052268982,-0.5096811056137085
1788862328814469400,2.347469482421875,-0.062000252306461334,-0.7143780589103699,-0.527809202671051
1788862328824475400,2.357475341796875,-0.08300913125276566,-0.6934605240821838,-0.46034523844718933
1788862328834482200,2.367482177734375,-0.030771227553486824,-0.6447814106941223,-0.4296073019504547
1788862328844488400,2.377488525390625,0.014274809509515762,-0.6146679520606995,-0.4066220819950104
1788862328854494200,2.387494140625,0.06543146818876266,-0.47306475043296814,-0.33327728509902954
1788862328864501200,2.397501220703125,0.10614268481731415,-0.25109535455703735,-0.22426852583885193
1788862328874507300,2.40750732421875,0.14888428151607513,-0.057134658098220825,-0.14780889451503754
1788862328884514300,2.417514404296875,0.18931134045124054,0.06425062566995621,-0.13265524804592133
1788862328894520300,2.427520263671875,0.20772603154182434,0.14971598982810974,-0.14926458895206451
1788862328904526300,2.4375263671875,0.19312205910682678,0.2279852330684662,-0.15805462002754211
1788862328914533400,2.447533447265625,0.16872777044773102,0.2600792646408081,-0.179396390914917
1788862328924539400,2.457539306640625,0.1366633027791977,0.26691770553588867,-0.19930166006088257
1788862328934546200,2.467546142578125,0.07585322111845016,0.3588534891605377,-0.19212204217910767
1788862328944552200,2.47755224609375,0.01629721373319626,0.5099956393241882,-0.18861812353134155
1788862328954558500,2.487558349609375,-0.03335156664252281,0.5940335392951965,-0.19992376863956451
1788862328964565200,2.497565185546875,-0.055754341185092926,0.5450649261474609,-0.19425788521766663
1788862328974571300,2.5075712890625,-0.06202768534421921,0.4324563443660736,-0.17647676169872284
1788862328984578300,2.517578369140625,-0.1077973023056984,0.309032678604126,-0.2284451574087143
1788862328994584300,2.527584228515625,-0.26440075039863586,0.10069677978754044,-0.249762162566185
1788862329004591000,2.537591064453125,-0.4256141483783722,-0.18434827029705048,-0.16120140254497528
1788862329014597000,2.54759716796875,-0.39445996284484863,-0.20084574818611145,-0.13482598960399628
1788862329024603400,2.557603271484375,-0.35216018557548523,0.06892260909080505,-0.24926148355007172
1788862329034610200,2.567610107421875,-0.3362632393836975,0.22648108005523682,-0.27265122532844543
1788862329044616200,2.5776162109375,-0.2698749005794525,0.13931794464588165,-0.25333932042121887
1788862329054623500,2.58762353515625,-0.20715264976024628,0.10554000735282898,-0.15203693509101868
1788862329064629200,2.597629150390625,-0.16593649983406067,0.09243033081293106,-0.019938554614782333
1788862329074635300,2.60763525390625,-0.10617810487747192,0.05886305123567581,0.03513028845191002
1788862329084642000,2.61764208984375,-0.058272894471883774,-0.031090540811419487,0.04840188845992088
1788862329094648300,2.6276484375,-0.042698461562395096,-0.04604685306549072,0.016212791204452515
1788862329104655400,2.6376552734375,-0.04448704048991203,-0.0584300197660923,-0.025968482717871666
1788862329114661000,2.6476611328125,-0.05001869052648544,-0.12820003926753998,-0.09402263164520264
1788862329124667100,2.657667236328125,-0.06537288427352905,-0.13086560368537903,-0.12597844004631042
1788862329134674400,2.66767431640625,-0.06306258589029312,-0.05167784169316292,-0.10935419052839279
1788862329144680200,2.67768017578125,-0.07135886698961258,0.06466314941644669,-0.09740298241376877
1788862329154687200,2.687687255859375,-0.11166634410619736,0.1140698492527008,-0.12995320558547974
1788862329164693200,2.697693359375,-0.15375813841819763,0.0804905816912651,-0.17383037507534027
1788862329174699300,2.70769921875,-0.17247003316879272,-0.019875437021255493,-0.18406757712364197
1788862329184706300,2.717706298828125,-0.16883961856365204,-0.16283924877643585,-0.18876458704471588
1788862329194712300,2.72771240234375,-0.15252216160297394,-0.25193530321121216,-0.1806451380252838
1788862329204719400,2.73771923828125,-0.14144207537174225,-0.2944808900356293,-0.121453195810318
1788862329214725400,2.747725341796875,-0.17046014964580536,-0.3064504861831665,-0.07613497972488403
1788862329224731100,2.757731201171875,-0.2227206975221634,-0.249125674366951,-0.05288558453321457
1788862329234738400,2.767738525390625,-0.27623265981674194,-0.14537769556045532,-0.032455410808324814
1788862329244744200,2.777744140625,-0.31179705262184143,-0.07132983952760696,0.03447648510336876
1788862329254751200,2.787751220703125,-0.326740562915802,-0.055098406970500946,0.037760961800813675
1788862329264757500,2.797757568359375,-0.3369905352592468,-0.09421411901712418,-0.018447451293468475
1788862329274763300,2.80776318359375,-0.3300338387489319,-0.14763979613780975,-0.049321744590997696
1788862329284770300,2.817770263671875,-0.3162945806980133,-0.2355416864156723,-0.04918166249990463
1788862329294776300,2.8277763671875,-0.29971399903297424,-0.280333936214447,-0.08620572835206985
1788862329304783400,2.837783447265625,-0.2672724425792694,-0.24982528388500214,-0.09418562054634094
1788862329314789400,2.847789306640625,-0.2172633409500122,-0.18249072134494781,-0.09544689208269119
1788862329324795100,2.857795166015625,-0.14898601174354553,-0.15172214806079865,-0.09908876568078995
1788862329334802400,2.867802490234375,-0.07975555211305618,-0.16807982325553894,-0.06561150401830673
1788862329344808400,2.877808349609375,-0.02232527919113636,-0.14971385896205902,-0.013971742242574692
1788862329354815200,2.887815185546875,0.014073207974433899,-0.05052708834409714,-0.011318966746330261
1788862329364821200,2.8978212890625,0.0520661287009716,0.0003789678157772869,-0.0013765880139544606
1788862329374828300,2.907828369140625,0.10213355720043182,0.02263314090669155,0.042223621159791946
1788862329384834300,2.917834228515625,0.16411596536636353,0.10747665911912918,0.08243095874786377
1788862329394840300,2.92784033203125,0.22531408071517944,0.2616981863975525,0.1523948609828949
1788862329404847400,2.937847412109375,0.30351701378822327,0.40888285636901855,0.27592983841896057
1788862329414853400,2.947853271484375,0.36602964997291565,0.5214037895202637,0.32799065113067627
1788862329424860200,2.957860107421875,0.3823985159397125,0.557162344455719,0.3840656578540802
1788862329434866200,2.9678662109375,0.3730369508266449,0.5452595949172974,0.44663527607917786
1788862329444872400,2.97787255859375,0.3419016897678375,0.559029757976532,0.4284389615058899
1788862329454879200,2.987879150390625,0.30068978667259216,0.4903726279735565,0.40648120641708374
1788862329464885200,2.99788525390625,0.26369208097457886,0.4140626788139343,0.4048617482185364
1788862329474892300,3.007892333984375,0.18781650066375732,0.39106255769729614,0.39829039573669434
1788862329484898300,3.017898193359375,0.09761737287044525,0.35017266869544983,0.4064077138900757
1788862329494904300,3.027904296875,0.021519672125577927,0.31744667887687683,0.4090591371059418
1788862329504911000,3.0379111328125,-0.05475938692688942,0.3054560422897339,0.39250174164772034
1788862329514917400,3.04791748046875,-0.12630760669708252,0.24384142458438873,0.416582316160202
1788862329524924200,3.057924072265625,-0.18909135460853577,0.1914658397436142,0.561126172542572
1788862329534930200,3.06793017578125,-0.2188282161951065,0.24587847292423248,0.7111180424690247
1788862329544936400,3.0779365234375,-0.21402360498905182,0.23925253748893738,0.8408544659614563
1788862329554942500,3.0879423828125,-0.1936940997838974,0.3890577256679535,0.9842672944068909
1788862329564948200,3.0979482421875,-0.19318516552448273,0.795072078704834,1.098871111869812
1788862329574955300,3.107955322265625,-0.20529988408088684,1.0580302476882935,1.112160325050354
1788862329584961500,3.11796142578125,-0.23097622394561768,1.2256869077682495,1.1548131704330444
1788862329594968300,3.12796826171875,-0.3055684268474579,1.3956319093704224,1.1244525909423828
1788862329604974300,3.137974365234375,-0.3752362132072449,1.4767524003982544,1.0997272729873657
1788862329614980000,3.14797998046875,-0.3638639748096466,1.4994771480560303,1.2070237398147583
1788862329624987400,3.1579873046875,-0.31370145082473755,1.6107299327850342,1.2822476625442505
1788862329634993400,3.167993408203125,-0.3141281008720398,1.7750157117843628,1.32188081741333
1788862329645000200,3.178000244140625,-0.34337547421455383,1.896484136581421,1.3669675588607788
1788862329655006500,3.18800634765625,-0.3396827280521393,1.9993375539779663,1.389355182647705
1788862329665012500,3.198012451171875,-0.267558217048645,2.0373988151550293,1.3267450332641602
1788862329675019300,3.208019287109375,-0.19716820120811462,2.0079212188720703,1.2601423263549805
1788862329685025300,3.218025390625,-0.18243399262428284,1.9055546522140503,1.275946855545044
1788862329695032300,3.2280322265625,-0.21873579919338226,1.7747057676315308,1.3182005882263184
1788862329705038300,3.238038330078125,-0.2425183653831482,1.609715461730957,1.3061840534210205
1788862329715044400,3.24804443359375,-0.21356581151485443,1.404409408569336,1.3093338012695312
1788862329725051400,3.258051513671875,-0.20925867557525635,1.2479681968688965,1.3533886671066284
1788862329735057400,3.268057373046875,-0.2938137650489807,1.2462592124938965,1.3865500688552856
1788862329745064200,3.278064208984375,-0.4200127124786377,1.1938279867172241,1.3937791585922241
1788862329755070200,3.2880703125,-0.5205947160720825,1.134358525276184,1.4968565702438354
1788862329765077200,3.2980771484375,-0.6176624298095703,1.1847490072250366,1.6073905229568481
1788862329775083300,3.308083251953125,-0.7049291729927063,1.2521826028823853,1.6439800262451172
1788862329785089300,3.31808935546875,-0.7370442152023315,1.2336808443069458,1.721026062965393
1788862329795096300,3.328096435546875,-0.708330512046814,1.123301386833191,1.7621817588806152
1788862329805102300,3.338102294921875,-0.6698329448699951,0.9789069294929504,1.665371298789978
1788862329815109400,3.348109375,-0.6097970604896545,0.8735826015472412,1.5663392543792725
1788862329825115400,3.358115478515625,-0.5442848801612854,0.8161116242408752,1.5113884210586548
1788862329835121400,3.368121337890625,-0.5137889981269836,0.6879326105117798,1.43606436252594
1788862329845128200,3.378128173828125,-0.5417894721031189,0.48456668853759766,1.3449277877807617
1788862329855134200,3.38813427734375,-0.5900055170059204,0.2741660475730896,1.307637095451355
1788862329865141500,3.3981416015625,-0.6069455742835999,0.014669223688542843,1.2951849699020386
1788862329875147300,3.408147216796875,-0.5949898362159729,-0.2438928186893463,1.2551372051239014
1788862329885153300,3.4181533203125,-0.5850581526756287,-0.38084080815315247,1.2602957487106323
1788862329895160300,3.428160400390625,-0.6131094694137573,-0.3700701892375946,1.315859079360962
1788862329905166300,3.438166259765625,-0.6695905923843384,-0.36877724528312683,1.347149133682251
1788862329915173400,3.44817333984375,-0.7292089462280273,-0.4616541862487793,1.349823236465454
1788862329925179100,3.45817919921875,-0.7491592168807983,-0.5904494524002075,1.3577280044555664
1788862329935186400,3.4681865234375,-0.6684888601303101,-0.4966212213039398,1.3131786584854126
1788862329945192400,3.4781923828125,-0.478677898645401,-0.331142783164978,1.2122339010238647
1788862329955198200,3.4881982421875,-0.2697787582874298,-0.1793449968099594,1.088114857673645
1788862329965205500,3.49820556640625,-0.11552073806524277,0.04995584115386009,0.9776877164840698
1788862329975211300,3.508211181640625,-0.0018271948210895061,0.38360118865966797,0.8691428303718567
1788862329985218300,3.51821826171875,0.15387184917926788,0.8836498856544495,0.7067214846611023
1788862329995224300,3.528224365234375,0.3243831396102905,1.145183801651001,0.5341816544532776
1788862330005230300,3.538230224609375,0.4351480007171631,1.1959222555160522,0.49005624651908875
1788862330015237400,3.5482373046875,0.481775164604187,1.2348065376281738,0.5355480909347534
1788862330025243400,3.558243408203125,0.49712935090065,1.2777527570724487,0.5612870454788208
1788862330035250400,3.56825048828125,0.522729754447937,1.4851336479187012,0.5864976048469543
1788862330045256400,3.57825634765625,0.572418749332428,1.6845932006835938,0.5300713181495667
1788862330055262200,3.58826220703125,0.6262425780296326,1.7538484334945679,0.4724484980106354
1788862330065269200,3.598269287109375,0.5919149518013,1.7635865211486816,0.4495477080345154
1788862330075275500,3.608275634765625,0.44683393836021423,1.7006983757019043,0.3560582399368286
1788862330085282300,3.6182822265625,0.2592448890209198,1.5839203596115112,0.28081488609313965
1788862330095288300,3.628288330078125,0.10486037284135818,1.7295821905136108,0.3371785581111908
1788862330105295400,3.63829541015625,0.03099679760634899,2.11553955078125,0.4443303048610687
1788862330115301400,3.64830126953125,0.025775671005249023,2.245542049407959,0.5318508148193359
1788862330125307400,3.658307373046875,0.07762182503938675,2.2238950729370117,0.4450080990791321
1788862330135314200,3.668314208984375,0.12337759137153625,1.6060194969177246,0.16307812929153442
1788862330145320400,3.678320556640625,0.16578230261802673,0.6181812286376953,-0.2122289091348648
1788862330155327200,3.6883271484375,0.22859428822994232,0.5491981506347656,-0.5335690975189209
1788862330165333200,3.698333251953125,0.37142202258110046,1.3609682321548462,-0.7287964224815369
1788862330175339300,3.70833935546875,0.5535255074501038,1.8775943517684937,-0.8216893076896667
1788862330185346300,3.71834619140625,0.5717101097106934,1.3536053895950317,-0.7603692412376404
1788862330195352300,3.728352294921875,0.4207876920700073,0.27504968643188477,-0.6235000491142273
1788862330205359000,3.738359130859375,0.08308529853820801,-0.46406593918800354,-0.528846800327301
1788862330215365400,3.748365478515625,-0.32533496618270874,-0.7691483497619629,-0.5102986693382263
1788862330225372400,3.758372314453125,-0.5623038411140442,-0.555446982383728,-0.6061034798622131
1788862330235378200,3.768378173828125,-0.5731927156448364,-0.08305573463439941,-0.7382170557975769
1788862330245384200,3.77838427734375,-0.6796331405639648,0.3398294746875763,-0.8581650257110596
1788862330255391200,3.78839111328125,-0.9154424667358398,0.6498419046401978,-0.9943689703941345
1788862330265397200,3.798397216796875,-1.0845705270767212,0.6743819117546082,-1.183980107307434
1788862330275404300,3.808404296875,-1.1435573101043701,0.3718380033969879,-1.3805971145629883
1788862330285410300,3.818410400390625,-1.1608519554138184,-0.03429405763745308,-1.5369642972946167
1788862330295416300,3.828416259765625,-1.156394124031067,-0.4114016592502594,-1.6300420761108398
1788862330305423400,3.83842333984375,-1.0983350276947021,-0.7481014132499695,-1.6667510271072388
1788862330315429000,3.84842919921875,-0.9783574938774109,-1.0900965929031372,-1.6746851205825806
1788862330325436400,3.8584365234375,-0.8186370730400085,-1.4271574020385742,-1.688759684562683
1788862330335442400,3.8684423828125,-0.6604868769645691,-1.5714067220687866,-1.7169550657272339
1788862330345449200,3.87844921875,-0.5561527013778687,-1.358520269393921,-1.7118418216705322
1788862330355455500,3.88845556640625,-0.5238656401634216,-0.8782921433448792,-1.6203655004501343
1788862330365461200,3.898461181640625,-0.519580066204071,-0.3996773660182953,-1.467060923576355
1788862330375468300,3.90846826171875,-0.5134148597717285,-0.2133128046989441,-1.276545763015747
1788862330385474600,3.918474609375,-0.5383931398391724,-0.23444685339927673,-1.1161649227142334
1788862330395481300,3.9284814453125,-0.5592705011367798,-0.3165832757949829,-0.9949292540550232
1788862330405487400,3.9384873046875,-0.48560237884521484,-0.2800942361354828,-0.799705982208252
1788862330415493400,3.948493408203125,-0.43912649154663086,-0.15921708941459656,-0.5094810724258423
1788862330425500400,3.95850048828125,-0.5095545649528503,-0.07370857894420624,-0.22384348511695862
1788862330435506400,3.96850634765625,-0.5730177164077759,0.04543725773692131,-0.07645855844020844
1788862330445513200,3.97851318359375,-0.5368093848228455,-0.018675416707992554,-0.07751955837011337
1788862330455519500,3.98851953125,-0.416404128074646,-0.30139845609664917,-0.1082598939538002
1788862330465526300,3.9985263671875,-0.33533191680908203,-0.5401692390441895,-0.11675804108381271
1788862330475532300,4.0085322265625,-0.35075801610946655,-0.6958837509155273,-0.156698539853096
1788862330485538300,4.018538330078125,-0.43835365772247314,-0.7513845562934875,-0.24982315301895142
1788862330495545300,4.02854541015625,-0.5793895721435547,-0.6894559264183044,-0.35032713413238525
1788862330505551400,4.03855126953125,-0.7334321737289429,-0.5547438859939575,-0.3800269663333893
1788862330515558100,4.04855810546875,-0.8284242153167725,-0.3863367736339569,-0.3029066026210785
1788862330525564400,4.058564453125,-0.876953125,-0.3106420338153839,-0.18962877988815308
1788862330535570400,4.0685703125,-0.9065626859664917,-0.3077794015407562,-0.13063417375087738
1788862330545577700,4.07857763671875,-0.8994948863983154,-0.35718369483947754,-0.14642459154129028
1788862330555583700,4.088583740234375,-0.8477797508239746,-0.44134092330932617,-0.19657137989997864
1788862330565590500,4.098590576171875,-0.7640257477760315,-0.5407934784889221,-0.22370126843452454
1788862330575596500,4.108596435546875,-0.6911885738372803,-0.6085839867591858,-0.26013436913490295
1788862330585603800,4.118603759765625,-0.6401416063308716,-0.5668202638626099,-0.3576910197734833
1788862330595609600,4.128609619140625,-0.5928502678871155,-0.43896856904029846,-0.45113974809646606
1788862330605615600,4.13861572265625,-0.5477789640426636,-0.32479166984558105,-0.484950453042984
1788862330615622700,4.14862255859375,-0.506367027759552,-0.2865327000617981,-0.4758312404155731
1788862330625628700,4.158628662109375,-0.48008963465690613,-0.3752971887588501,-0.4804430305957794
1788862330635635700,4.1686357421875,-0.4732525050640106,-0.4296645522117615,-0.5122861862182617
1788862330645641500,4.178641357421875,-0.5102611184120178,-0.267486572265625,-0.5526533126831055
1788862330655648800,4.188648681640625,-0.5747280120849609,-0.10583348572254181,-0.5562994480133057
1788862330665654800,4.19865478515625,-0.6022685766220093,-0.05537697300314903,-0.5655339956283569
1788862330675660500,4.20866064453125,-0.5934857130050659,-0.194732204079628,-0.5892400741577148
1788862330685667800,4.218667724609375,-0.5673773884773254,-0.44504910707473755,-0.6228529214859009
1788862330695673600,4.228673583984375,-0.5622708201408386,-0.49684733152389526,-0.6450772881507874
1788862330705680600,4.2386806640625,-0.5832014083862305,-0.45228010416030884,-0.5999601483345032
1788862330715686700,4.248686767578125,-0.5763006210327148,-0.40341296792030334,-0.5403854846954346
1788862330725692700,4.258692626953125,-0.585266649723053,-0.3215058445930481,-0.5554581880569458
1788862330735699700,4.26869970703125,-0.6129552721977234,-0.3430987596511841,-0.6239392161369324
1788862330745705700,4.278705810546875,-0.6259711980819702,-0.40747004747390747,-0.6665410399436951
1788862330755712800,4.288712646484375,-0.6224971413612366,-0.5305456519126892,-0.6372507810592651
1788862330765718800,4.29871875,-0.5644524693489075,-0.5801432728767395,-0.6102617383003235
1788862330775725600,4.3087255859375,-0.4973413348197937,-0.5375041961669922,-0.6247307062149048
1788862330785731600,4.318731689453125,-0.4376755952835083,-0.4751092791557312,-0.6595222353935242
1788862330795737900,4.32873779296875,-0.3697673976421356,-0.44284480810165405,-0.6527690291404724
1788862330805744600,4.33874462890625,-0.27382993698120117,-0.5662985444068909,-0.5984594225883484
1788862330815750700,4.348750732421875,-0.190042644739151,-0.8395546078681946,-0.5419405102729797
1788862330825757700,4.3587578125,-0.17291824519634247,-0.9050822257995605,-0.5491771101951599
1788862330835763700,4.368763671875,-0.18449580669403076,-0.8169704675674438,-0.5606428384780884
1788862330845770500,4.3787705078125,-0.1696321815252304,-0.6183657646179199,-0.5938220620155334
1788862330855776500,4.388776611328125,-0.12600187957286835,-0.593115508556366,-0.6462122797966003
1788862330865782800,4.39878271484375,-0.03635960444808006,-0.8069042563438416,-0.707572877407074
1788862330875789600,4.40878955078125,0.05469147488474846,-0.9884777665138245,-0.7584104537963867
1788862330885795600,4.418795654296875,0.10606171935796738,-1.1252223253250122,-0.7683392763137817
1788862330895802600,4.428802734375,0.1346273124217987,-1.1266531944274902,-0.752180278301239
1788862330905808600,4.43880859375,0.16199955344200134,-1.0096334218978882,-0.7694106698036194
1788862330915815700,4.448815673828125,0.20966215431690216,-0.9513964653015137,-0.8203082084655762
1788862330925821400,4.458821533203125,0.25949627161026,-1.033108115196228,-0.8491193652153015
1788862330935827700,4.46882763671875,0.24935683608055115,-1.1454399824142456,-0.8756194114685059
1788862330945834800,4.478834716796875,0.23297598958015442,-1.0771455764770508,-0.8908151388168335
1788862330955840500,4.488840576171875,0.265766441822052,-1.0382602214813232,-0.8805249333381653
1788862330965847800,4.498847900390625,0.2869289815425873,-1.0933316946029663,-0.8895485401153564
1788862330975853600,4.508853515625,0.2636526823043823,-1.1314383745193481,-0.9300922155380249
1788862330985860600,4.518860595703125,0.23385749757289886,-1.2660419940948486,-1.09566330909729
1788862330995867000,4.528866943359375,0.300811231136322,-1.3328125476837158,-1.277736783027649
1788862331005872600,4.53887255859375,0.35278549790382385,-0.9412074685096741,-1.4035282135009766
1788862331015879700,4.548879638671875,0.32505345344543457,-0.3732241690158844,-1.6518841981887817
1788862331025885700,4.5588857421875,0.26936542987823486,0.08486109226942062,-1.8945631980895996
1788862331035892700,4.568892822265625,0.2481783777475357,0.4065230190753937,-1.8919445276260376
1788862331045898800,4.578898681640625,0.37957847118377686,0.023133281618356705,-1.4858661890029907
1788862331055905500,4.588905517578125,0.44989845156669617,-0.517795205116272,-1.2750738859176636
1788862331065911800,4.598911865234375,0.35292476415634155,-0.09256668388843536,-1.5212106704711914
1788862331075917800,4.608917724609375,0.3044640123844147,0.5239758491516113,-1.5323607921600342
1788862331085924600,4.618924560546875,0.26484817266464233,0.21525079011917114,-1.309636116027832
1788862331095930600,4.6289306640625,0.1435888558626175,0.036192890256643295,-1.2847371101379395
1788862331105937700,4.638937744140625,-0.04616802930831909,0.17385302484035492,-1.1394946575164795
1788862331115943700,4.648943603515625,-0.2575095593929291,0.3638913929462433,-1.127184271812439
1788862331125950500,4.658950439453125,-0.35271066427230835,0.4852375388145447,-1.1005207300186157
1788862331135956700,4.668956787109375,-0.4686870574951172,0.4528537690639496,-1.0180041790008545
1788862331145962800,4.678962646484375,-0.6569469571113586,0.44870269298553467,-0.9023870825767517
1788862331155969500,4.688969482421875,-0.7965767979621887,0.47807255387306213,-0.829219400882721
1788862331165975600,4.6989755859375,-0.7633764743804932,0.6537967324256897,-0.7462382316589355
1788862331175982600,4.708982666015625,-0.7125604152679443,0.47209402918815613,-0.6797382831573486
1788862331185988600,4.718988525390625,-0.7117441892623901,0.5584989786148071,-0.535716712474823
1788862331195995600,4.72899560546875,-0.681647539138794,0.8742979168891907,-0.338210791349411
1788862331206001700,4.739001708984375,-0.5949283242225647,1.1973901987075806,-0.16725556552410126
1788862331216007700,4.749007568359375,-0.5152393579483032,0.967805802822113,0.06970956921577454
1788862331226014700,4.7590146484375,-0.4605598747730255,0.9967226386070251,0.35681936144828796
1788862331236020500,4.7690205078125,-0.39876335859298706,1.255614161491394,0.5396938323974609
1788862331246027800,4.77902783203125,-0.32895925641059875,1.451458215713501,0.5582984089851379
1788862331256033500,4.789033447265625,-0.27507418394088745,1.2512675523757935,0.5737023949623108
1788862331266040600,4.79904052734375,-0.3264329731464386,0.8406717777252197,0.6480064988136292
1788862331276046800,4.809046875,-0.40068936347961426,0.6360592842102051,0.7465149164199829
1788862331286052600,4.819052490234375,-0.35564571619033813,0.9934512376785278,0.8015579581260681
1788862331296059600,4.8290595703125,-0.2632734477519989,1.069796085357666,0.8106896877288818
1788862331306065700,4.839065673828125,-0.11800466477870941,0.6826054453849792,0.8222195506095886
1788862331316072700,4.84907275390625,-0.028964007273316383,0.38721510767936707,0.9567850828170776
1788862331326078700,4.85907861328125,0.025774605572223663,0.40459489822387695,1.094160795211792
1788862331336085500,4.86908544921875,0.07584043592214584,0.6495060920715332,1.222238302230835
1788862331346091800,4.879091796875,0.13350452482700348,0.854026734828949,1.3033502101898193
1788862331356097800,4.889097900390625,0.20444928109645844,0.9078247547149658,1.345229983329773
1788862331366104600,4.8991044921875,0.3070923089981079,0.6605654358863831,1.434518575668335
1788862331376110600,4.909110595703125,0.3775795102119446,0.3778676688671112,1.5054069757461548
1788862331386117600,4.91911767578125,0.38880661129951477,0.5666040182113647,1.5664111375808716
1788862331396123600,4.92912353515625,0.33963266015052795,0.9098972082138062,1.571610450744629
1788862331406130400,4.93913037109375,0.3320474624633789,0.9849666357040405,1.6133406162261963
1788862331416136700,4.94913671875,0.44045037031173706,0.8845342993736267,1.6958032846450806
1788862331426142700,4.959142822265625,0.5845571756362915,0.8922138214111328,1.7136006355285645
1788862331436149500,4.9691494140625,0.6631649136543274,0.8940154314041138,1.6692640781402588
1788862331446155500,4.979155517578125,0.6739075779914856,0.7448928356170654,1.6704336404800415
1788862331456162800,4.989162841796875,0.7068594098091125,0.6714404225349426,1.7601113319396973
1788862331466168600,4.99916845703125,0.7874407768249512,0.7592171430587769,1.7851650714874268
1788862331476175600,5.009175537109375,0.8516626358032227,0.757408082485199,1.7131452560424805
1788862331486181600,5.019181640625,0.8557168245315552,0.6962397694587708,1.6373244524002075
1788862331496188700,5.029188720703125,0.8800157308578491,0.7589907646179199,1.6652727127075195
1788862331506194700,5.039194580078125,1.0042940378189087,0.7657525539398193,1.764832615852356
1788862331516200400,5.049200439453125,1.1290655136108398,0.7664644122123718,1.851564645767212
1788862331526207700,5.059207763671875,1.1521573066711426,0.8693801164627075,1.8593319654464722
1788862331536213800,5.0692138671875,1.1015939712524414,0.667980968952179,1.8211939334869385
1788862331546221000,5.079220947265625,1.1132564544677734,0.4883206784725189,1.8201427459716797
1788862331556227000,5.08922705078125,1.164105772972107,0.7273945212364197,1.828497052192688
1788862331566234000,5.099234130859375,1.1715956926345825,0.7820859551429749,1.8035541772842407
1788862331576240000,5.109240234375,1.1697088479995728,0.631965696811676,1.7856463193893433
1788862331586247000,5.119246826171875,1.1957042217254639,0.812548816204071,1.7518625259399414
1788862331596253000,5.1292529296875,1.2251838445663452,1.0605708360671997,1.6888718605041504
1788862331606259200,5.13925927734375,1.267961859703064,0.8831881284713745,1.6737746000289917
1788862331616266000,5.149265869140625,1.3014687299728394,0.7407587766647339,1.7035349607467651
1788862331626272000,5.15927197265625,1.2857664823532104,0.7929490208625793,1.7104681730270386
1788862331636279000,5.169279052734375,1.2194257974624634,0.667001485824585,1.712389349937439
1788862331646285000,5.17928515625,1.1724718809127808,0.5651057362556458,1.739030361175537
1788862331656291800,5.189291748046875,1.1136822700500488,0.7854080200195312,1.7645982503890991
1788862331666298000,5.199298095703125,1.0165221691131592,1.1605578660964966,1.7299758195877075
1788862331676304100,5.20930419921875,0.889804482460022,1.1917952299118042,1.6617778539657593
1788862331686311000,5.219310791015625,0.7530599236488342,0.8206871747970581,1.5796960592269897
1788862331696317000,5.22931689453125,0.6936948895454407,0.5396283268928528,1.504130482673645
1788862331706324200,5.23932421875,0.672980546951294,0.6236151456832886,1.4050930738449097
1788862331716330000,5.249330078125,0.6348549723625183,0.823312520980835,1.22617769241333
1788862331726337000,5.2593369140625,0.5724406242370605,0.8796242475509644,0.9745720624923706
1788862331736343000,5.269343017578125,0.5377731919288635,0.7762904167175293,0.7149077653884888
1788862331746350000,5.27935009765625,0.5109346508979797,0.400931179523468,0.46636050939559937
1788862331756356000,5.289356201171875,0.4273737072944641,0.11815140396356583,0.1811535358428955
1788862331766361900,5.29936181640625,0.30753543972969055,0.19204081594944,-0.10703590512275696
1788862331776369200,5.309369140625,0.21741513907909393,0.35117506980895996,-0.3182187080383301
1788862331786375200,5.319375244140625,0.09913723915815353,0.31334275007247925,-0.40355998277664185
1788862331796382000,5.3293818359375,-0.05596233531832695,0.20629911124706268,-0.4674593508243561
1788862331806388200,5.33938818359375,-0.17112168669700623,0.08911789208650589,-0.5687105655670166
1788862331816395000,5.34939501953125,-0.26864078640937805,0.07568304240703583,-0.7138563394546509
1788862331826401000,5.359401123046875,-0.3971923589706421,0.093480683863163,-0.8617779016494751
1788862331836408000,5.369407958984375,-0.4949444830417633,-0.08009643107652664,-0.997552216053009
1788862331846414000,5.3794140625,-0.5018343329429626,-0.29226621985435486,-1.1573243141174316
1788862331856420000,5.389420166015625,-0.44157928228378296,-0.3725149929523468,-1.3793333768844604
1788862331866427000,5.399427001953125,-0.37127500772476196,-0.46373650431632996,-1.5833747386932373
1788862331876433200,5.40943310546875,-0.36294305324554443,-0.6177883744239807,-1.7004493474960327
1788862331886440000,5.41943994140625,-0.4139052927494049,-0.6298887133598328,-1.7410471439361572
1788862331896446000,5.429446044921875,-0.4403725862503052,-0.4604211449623108,-1.7564564943313599
1788862331906453200,5.439453369140625,-0.46519139409065247,-0.1720774918794632,-1.7452844381332397
1788862331916459000,5.449458984375,-0.5645406246185303,0.18560129404067993,-1.7052569389343262
1788862331926466000,5.459466064453125,-0.7164427638053894,0.308167427778244,-1.6229149103164673
1788862331936472000,5.46947216796875,-0.7341421842575073,0.24953286349773407,-1.5912678241729736
1788862331946478000,5.47947802734375,-0.5799155831336975,0.21304409205913544,-1.6442949771881104
1788862331956485000,5.489485107421875,-0.3275379240512848,0.009749033488333225,-1.6556587219238281
1788862331966491000,5.499490966796875,-0.09972473233938217,-0.33218806982040405,-1.5574461221694946
1788862331976498200,5.509498291015625,-0.0031286815647035837,-0.6164538860321045,-1.3113982677459717
1788862331986504200,5.519504150390625,-0.04307263717055321,-0.8329901695251465,-0.9123033881187439
1788862331996511000,5.529510986328125,-0.1377653181552887,-0.571739137172699,-0.564335286617279
1788862332006517000,5.53951708984375,-0.2862328290939331,-0.0172658059746027,-0.42104363441467285
1788862332016524000,5.54952392578125,-0.4359584152698517,-0.003746002446860075,-0.41225466132164
1788862332026530000,5.559530029296875,-0.48870018124580383,-0.4375930428504944,-0.5095005035400391
1788862332036536000,5.5695361328125,-0.4435817003250122,-0.7470446228981018,-0.7039581537246704
1788862332046543000,5.579543212890625,-0.40755367279052734,-0.8766888976097107,-0.8833723664283752
1788862332056549000,5.589549072265625,-0.43413519859313965,-0.8009323477745056,-0.944206714630127
1788862332066556000,5.599555908203125,-0.45609989762306213,-0.49715304374694824,-0.8841268420219421
1788862332076562000,5.60956201171875,-0.42554065585136414,-0.19140058755874634,-0.7754472494125366
1788862332086569000,5.61956884765625,-0.37105023860931396,-0.14288285374641418,-0.7077015042304993
1788862332096575000,5.629574951171875,-0.3408486545085907,-0.39353638887405396,-0.6836467385292053
1788862332106582000,5.63958203125,-0.3291456699371338,-0.6636349558830261,-0.7399619817733765
1788862332116588000,5.649588134765625,-0.324577271938324,-0.8121187090873718,-0.8504940867424011
1788862332126595000,5.659594970703125,-0.3111743927001953,-0.8778995871543884,-0.953909158706665
1788862332136601000,5.66960107421875,-0.2869396209716797,-0.859171986579895,-1.0326071977615356
1788862332146606800,5.67960693359375,-0.2942952811717987,-0.826294481754303,-1.06846284866333
1788862332156614100,5.6896142578125,-0.3081591725349426,-0.9020478129386902,-1.0965278148651123
1788862332166620000,5.699619873046875,-0.29969322681427,-1.014374852180481,-1.1334072351455688
1788862332176627000,5.709626953125,-0.27542465925216675,-1.0518077611923218,-1.1778703927993774
1788862332186633200,5.71963330078125,-0.2819483280181885,-0.9294463992118835,-1.2175309658050537
1788862332196640000,5.729639892578125,-0.2959653437137604,-0.6240300536155701,-1.274384617805481
1788862332206646000,5.73964599609375,-0.2762821912765503,-0.6175897121429443,-1.3376898765563965
1788862332216653000,5.749653076171875,-0.1997717022895813,-1.0429208278656006,-1.3956468105316162
1788862332226659000,5.7596591796875,-0.1235046237707138,-1.394601821899414,-1.449953556060791
1788862332236665000,5.7696650390625,-0.1075562834739685,-1.4577096700668335,-1.4843103885650635
1788862332246672100,5.779672119140625,-0.10656745731830597,-1.5120935440063477,-1.453484296798706
1788862332256678100,5.78967822265625,-0.07254423946142197,-1.5112453699111938,-1.378159523010254
1788862332266685000,5.799684814453125,-0.02016359195113182,-1.5307772159576416,-1.3388786315917969
1788862332276691000,5.80969091796875,0.022877085953950882,-1.620474100112915,-1.3630024194717407
1788862332286698000,5.819697998046875,0.01059405505657196,-1.6917914152145386,-1.4202824831008911
1788862332296704000,5.8297041015625,-0.04055009037256241,-1.6366565227508545,-1.453198790550232
1788862332306711000,5.8397109375,-0.09681975096464157,-1.4230295419692993,-1.4934900999069214
1788862332316717000,5.849717041015625,-0.13317322731018066,-1.3458892107009888,-1.5158060789108276
1788862332326723000,5.85972314453125,-0.16468854248523712,-1.5427082777023315,-1.5700982809066772
1788862332336730000,5.869730224609375,-0.18759466707706451,-1.6050938367843628,-1.7340753078460693
1788862332346735900,5.87973583984375,-0.1996723711490631,-1.2645740509033203,-1.9004818201065063
1788862332356743200,5.8897431640625,-0.26781412959098816,-0.5464028716087341,-2.2049341201782227
1788862332366749000,5.8997490234375,-0.43102967739105225,0.2178548276424408,-2.269350290298462
1788862332376756000,5.909755859375,-0.4395403563976288,0.18781037628650665,-1.73493492603302
1788862332386762200,5.91976220703125,-0.2134379744529724,-0.6454365253448486,-1.2198865413665771
1788862332396769000,5.92976904296875,-0.21090824902057648,-0.6960882544517517,-1.404233694076538
1788862332406775000,5.939775146484375,-0.4296261966228485,-0.3478591740131378,-1.5047179460525513
1788862332416782000,5.949781982421875,-0.5332804322242737,-0.5173904299736023,-1.3136364221572876
1788862332426788000,5.9597880859375,-0.5922737121582031,-0.45216426253318787,-1.286916971206665
1788862332436794000,5.969794189453125,-0.6652650833129883,-0.507563591003418,-1.1486070156097412
1788862332446801000,5.97980078125,-0.7227089405059814,-0.5055374503135681,-0.8884265422821045
1788862332456807200,5.98980712890625,-0.7742437720298767,-0.2770116329193115,-0.7435598969459534
1788862332466814000,5.99981396484375,-0.7739045023918152,-0.07579542696475983,-0.5752267837524414
1788862332476820000,6.009820068359375,-0.7835959792137146,0.040518663823604584,-0.4930208921432495
1788862332486827000,6.019826904296875,-0.8103943467140198,0.1859632134437561,-0.3925539255142212
1788862332496833000,6.0298330078125,-0.8069593906402588,0.44222721457481384,-0.1752471774816513
1788862332506840000,6.039840087890625,-0.7900568246841431,0.5395170450210571,0.019046928733587265
1788862332516845800,6.049845703125,-0.7529104948043823,0.5728893280029297,0.2382807433605194
1788862332526853000,6.05985302734375,-0.7149471640586853,0.7317296266555786,0.529977023601532
1788862332536859100,6.069859130859375,-0.6847599744796753,0.9399960041046143,0.7449069023132324
1788862332546865000,6.079864990234375,-0.6716950535774231,1.305766224861145,0.8398795127868652
1788862332556872000,6.089871826171875,-0.5935855507850647,1.5519605875015259,0.9978009462356567
1788862332566878000,6.0998779296875,-0.46340200304985046,1.5794390439987183,1.2274352312088013
1788862332576885000,6.109885009765625,-0.3340405523777008,1.7614285945892334,1.4926525354385376
1788862332586891000,6.11989111328125,-0.2392836958169937,1.9090204238891602,1.6616679430007935
1788862332596897800,6.129897705078125,-0.22336038947105408,1.7017288208007812,1.6583703756332397
1788862332606903800,6.13990380859375,-0.23637178540229797,1.2326257228851318,1.732852578163147
1788862332616910800,6.149910888671875,-0.22694820165634155,1.021090030670166,1.919051170349121
1788862332626916900,6.159916748046875,-0.24834749102592468,1.084689736366272,2.0097334384918213
1788862332636924000,6.169923828125,-0.2755109369754791,1.2098897695541382,2.027245283126831
1788862332646930000,6.179929931640625,-0.1992204338312149,1.088326096534729,2.1158363819122314
1788862332656936000,6.18993603515625,-0.040766071528196335,0.7549893856048584,2.1797432899475098
1788862332666942700,6.199942626953125,0.1330922693014145,0.7557411789894104,2.218679189682007
1788862332676949000,6.209948974609375,0.30582383275032043,0.737686276435852,2.241821527481079
1788862332686956000,6.2199560546875,0.46205177903175354,0.45199355483055115,2.2841670513153076
1788862332696961800,6.2299619140625,0.5953973531723022,0.2750515341758728,2.3335742950439453
1788862332706969000,6.239968994140625,0.6792832016944885,0.3586606979370117,2.2813048362731934
1788862332716974800,6.249974853515625,0.6571916937828064,0.4168339669704437,2.199331045150757
1788862332726982000,6.25998193359375,0.6091623902320862,0.31456753611564636,2.2455484867095947
1788862332736988000,6.26998779296875,0.6005574464797974,0.3993180990219116,2.378652334213257
1788862332746995000,6.279994873046875,0.623292088508606,0.5763860940933228,2.4640095233917236
1788862332757001000,6.2900009765625,0.6347562074661255,0.5994881987571716,2.465162992477417
1788862332767007700,6.3000078125,0.606179416179657,0.5122166872024536,2.4964659214019775
1788862332777014000,6.310013916015625,0.5563705563545227,0.5595147013664246,2.5840775966644287
1788862332787020000,6.32002001953125,0.5156598687171936,0.78677898645401,2.609596014022827
1788862332797026800,6.33002685546875,0.4941900074481964,0.9651500582695007,2.603785276412964
1788862332807032800,6.34003271484375,0.5236469507217407,0.8939046859741211,2.6434757709503174
1788862332817040000,6.350039794921875,0.592661440372467,0.6646134257316589,2.7450482845306396
1788862332827046000,6.3600458984375,0.6649321913719177,0.5589975118637085,2.8197319507598877
1788862332837053000,6.370052978515625,0.6755059957504272,0.5998069643974304,2.799593687057495
1788862332847059000,6.380058837890625,0.6094633340835571,0.6893680095672607,2.6536705493927
1788862332857066000,6.39006591796875,0.4905095398426056,0.7355533838272095,2.422025203704834
1788862332867071700,6.40007177734375,0.41803213953971863,0.7384149432182312,2.145671844482422
1788862332877079000,6.4100791015625,0.482300341129303,0.6697956323623657,1.9157981872558594
1788862332887085000,6.4200849609375,0.6280894875526428,0.5965595245361328,1.7219115495681763
1788862332897090800,6.4300908203125,0.7225238680839539,0.5745977759361267,1.4708231687545776
1788862332907097900,6.440097900390625,0.6867874264717102,0.7254839539527893,1.1664011478424072
1788862332917104000,6.450104248046875,0.4754810333251953,0.99373459815979,0.837741494178772
1788862332927111000,6.46011083984375,0.219761922955513,1.0933349132537842,0.4521882236003876
1788862332937117000,6.470116943359375,0.0463336780667305,0.7709885835647583,0.03255368024110794
1788862332947124000,6.4801240234375,-0.03498168662190437,0.4394090473651886,-0.33382484316825867
1788862332957130000,6.4901298828125,-0.06290146708488464,0.12822161614894867,-0.5956282019615173
1788862332967136800,6.50013671875,0.049314819276332855,0.07070533186197281,-0.83436518907547
1788862332977142800,6.510142822265625,0.0703577846288681,0.009791377931833267,-0.9878785610198975
1788862332987150000,6.520150146484375,0.012822321616113186,-0.2520977556705475,-1.1313047409057617
1788862332997155800,6.53015576171875,-0.03428979590535164,-0.5907322764396667,-1.3033443689346313
1788862333007163000,6.540162841796875,-0.08506669104099274,-0.6541338562965393,-1.4568004608154297
1788862333017169000,6.5501689453125,-0.1873302161693573,-0.41952162981033325,-1.5971879959106445
1788862333027175000,6.5601748046875,-0.30533409118652344,-0.05686541274189949,-1.726479411125183
1788862333037182000,6.570181884765625,-0.3884683847427368,0.2077244371175766,-1.8533499240875244
1788862333047187700,6.580187744140625,-0.4397912323474884,0.35881540179252625,-1.8762470483779907
1788862333057195000,6.590195068359375,-0.4312451481819153,0.2893918752670288,-1.7202084064483643
1788862333067201000,6.600200927734375,-0.35454609990119934,-0.05373673141002655,-1.501462459564209
1788862333077207800,6.610207763671875,-0.2616339921951294,-0.37347450852394104,-1.3109288215637207
1788862333087214000,6.620214111328125,-0.23504580557346344,-0.2437141239643097,-1.1863996982574463
1788862333097220900,6.630220947265625,-0.32979467511177063,0.21060863137245178,-1.066897988319397
1788862333107227000,6.640226806640625,-0.4936973452568054,0.6856670379638672,-0.9517080187797546
1788862333117234000,6.65023388671875,-0.6153385639190674,0.8345934152603149,-0.9132131338119507
1788862333127240000,6.660239990234375,-0.652512788772583,0.5965573787689209,-0.9930509328842163
1788862333137246700,6.670246826171875,-0.5672972202301025,-0.013333382084965706,-1.1165441274642944
1788862333147252700,6.680252685546875,-0.38253405690193176,-0.530711829662323,-1.2013274431228638
1788862333157260000,6.690260009765625,-0.25244051218032837,-0.6997511386871338,-1.1932047605514526
1788862333167265800,6.700265869140625,-0.2755013406276703,-0.5885359644889832,-1.1103389263153076
1788862333177271800,6.710271728515625,-0.45032402873039246,-0.27470266819000244,-1.0106736421585083
1788862333187279000,6.720279052734375,-0.6605470180511475,-0.010001767426729202,-0.9391483068466187
1788862333197284900,6.730284912109375,-0.7845826745033264,0.1528577208518982,-0.9624927639961243
1788862333207292000,6.7402919921875,-0.8506336212158203,0.004424042999744415,-1.0371627807617188
1788862333217298000,6.7502978515625,-0.8705143928527832,-0.393907368183136,-1.1003899574279785
1788862333227305000,6.760304931640625,-0.8313126564025879,-0.7109127640724182,-1.1157795190811157
1788862333237311000,6.77031103515625,-0.7660761475563049,-0.9731789827346802,-1.0948041677474976
1788862333247317800,6.78031787109375,-0.7008654475212097,-1.1168088912963867,-1.1288553476333618
1788862333257324000,6.790323974609375,-0.6372970938682556,-0.9062864780426025,-1.1954690217971802
1788862333267330800,6.800330810546875,-0.5808383822441101,-0.5285621285438538,-1.2237968444824219
1788862333277336800,6.8103369140625,-0.5523212552070618,-0.3892556130886078,-1.2130813598632812
1788862333287343900,6.82034375,-0.5377976894378662,-0.45965495705604553,-1.2036497592926025
1788862333297350000,6.830349853515625,-0.566215991973877,-0.6376851201057434,-1.2302759885787964
1788862333307356000,6.84035595703125,-0.6045106649398804,-0.9328216910362244,-1.286852240562439
1788862333317363000,6.850363037109375,-0.6088851690292358,-1.3041326999664307,-1.323711633682251
1788862333327369000,6.860368896484375,-0.6044920086860657,-1.588847279548645,-1.3826333284378052
1788862333337376000,6.8703759765625,-0.5840916633605957,-1.7321248054504395,-1.4663804769515991
1788862333347381800,6.8803818359375,-0.5514679551124573,-1.7012392282485962,-1.5504904985427856
1788862333357389000,6.89038916015625,-0.532735288143158,-1.6796932220458984,-1.6242609024047852
1788862333367394800,6.900394775390625,-0.555138349533081,-1.4989287853240967,-1.7101768255233765
1788862333377401900,6.91040185546875,-0.6344690918922424,-1.090117335319519,-1.8196899890899658
1788862333387408100,6.920408203125,-0.7025344371795654,-0.7249390482902527,-1.8886616230010986
1788862333397415000,6.930414794921875,-0.7155436873435974,-0.7847248911857605,-1.9030184745788574
1788862333407421000,6.9404208984375,-0.6937377452850342,-1.0504993200302124,-1.9539597034454346
1788862333417428000,6.950427978515625,-0.6064203977584839,-1.2364641427993774,-2.0850419998168945
1788862333427434000,6.96043408203125,-0.4672931432723999,-1.141975998878479,-2.1455352306365967
1788862333437440800,6.970440673828125,-0.41063520312309265,-0.6177036762237549,-2.0212180614471436
1788862333447446800,6.98044677734375,-0.4883273243904114,-0.01709696091711521,-1.8350143432617188
1788862333457453000,6.990453125,-0.5569601655006409,0.1251605749130249,-1.6789264678955078
1788862333467459800,7.0004599609375,-0.5804138779640198,-0.18890227377414703,-1.4901823997497559
1788862333477465900,7.0104658203125,-0.656251072883606,-0.4618707001209259,-1.1940919160842896
1788862333487473000,7.020472900390625,-0.7915569543838501,-0.37135863304138184,-0.8837135434150696
1788862333497479000,7.03047900390625,-0.8662543892860413,-0.02034255675971508,-0.7382642030715942
1788862333507486000,7.04048583984375,-0.8120899796485901,0.0876518189907074,-0.6788339018821716
1788862333517491700,7.05049169921875,-0.6492733359336853,0.024507740512490273,-0.511147141456604
1788862333527499000,7.0604990234375,-0.4748980700969696,0.025475265458226204,-0.2928084433078766
1788862333537505000,7.070505126953125,-0.4303535223007202,0.12158741801977158,-0.10855470597743988
1788862333547511600,7.080511474609375,-0.4391091763973236,0.13051939010620117,0.03785496950149536
1788862333557517800,7.090517822265625,-0.4354502558708191,0.17126362025737762,0.18576906621456146
1788862333567524600,7.100524658203125,-0.41642677783966064,0.2088932991027832,0.26902028918266296
1788862333577530600,7.110530517578125,-0.3629063069820404,0.27232205867767334,0.32611605525016785
1788862333587537700,7.12053759765625,-0.29374879598617554,0.19109565019607544,0.3499065935611725
1788862333597543700,7.130543701171875,-0.24789822101593018,0.1431928426027298,0.378145694732666
1788862333607549700,7.1405498046875,-0.22453376650810242,0.1406463235616684,0.38998904824256897
1788862333617556500,7.150556396484375,-0.20503278076648712,0.13275271654129028,0.469152569770813
1788862333627562800,7.160562744140625,-0.1200326606631279,0.34305402636528015,0.585556149482727
1788862333637569800,7.17056982421875,-0.015860188752412796,0.4672055244445801,0.7213425040245056
1788862333647575600,7.180575439453125,0.09169317036867142,0.4441303014755249,0.9106543660163879
1788862333657582800,7.190582763671875,0.16952112317085266,0.4225009083747864,1.1564944982528687
1788862333667588600,7.200588623046875,0.23744797706604004,0.5423799157142639,1.3819677829742432
1788862333677595600,7.210595703125,0.3101826310157776,0.698828935623169,1.5279759168624878
1788862333687601700,7.2206015625,0.38424861431121826,0.929250955581665,1.594257116317749
1788862333697608700,7.230608642578125,0.47093474864959717,1.2893239259719849,1.6758867502212524
1788862333707614700,7.24061474609375,0.5842320322990417,1.614956259727478,1.7544350624084473
1788862333717621500,7.25062158203125,0.6960480213165283,1.7280149459838867,1.7700563669204712
1788862333727627800,7.260627685546875,0.7798073887825012,1.7324848175048828,1.7423869371414185
1788862333737634600,7.270634521484375,0.8710027933120728,1.7401994466781616,1.819523572921753
1788862333747640600,7.280640625,1.0036303997039795,1.7819770574569702,2.028965473175049
1788862333757648000,7.29064794921875,1.1368083953857422,1.7695027589797974,2.1819827556610107
1788862333767653600,7.300653564453125,1.2196327447891235,1.6639518737792969,2.153074026107788
1788862333777659600,7.31065966796875,1.2396122217178345,1.324735403060913,2.005552291870117
1788862333787666400,7.32066650390625,1.2248554229736328,0.8805736899375916,1.9382960796356201
1788862333797672700,7.330672607421875,1.1985574960708618,0.6236217617988586,1.9480863809585571
1788862333807679700,7.3406796875,1.1704970598220825,0.4552607238292694,2.0251786708831787
1788862333817685500,7.350685546875,1.2065470218658447,0.4773884117603302,2.236368179321289
1788862333827692800,7.36069287109375,1.2754740715026855,0.47415825724601746,2.437511682510376
1788862333837698800,7.37069873046875,1.2684886455535889,0.3947291970252991,2.5088422298431396
1788862333847705600,7.38070556640625,1.183379888534546,0.2167445570230484,2.555506944656372
1788862333857711600,7.390711669921875,1.0802342891693115,0.1445968598127365,2.53928542137146
1788862333867718700,7.40071875,1.0295631885528564,0.2922864556312561,2.4121077060699463
1788862333877724700,7.410724609375,1.0506221055984497,0.4855557680130005,2.3378260135650635
1788862333887731500,7.4207314453125,1.1475603580474854,0.7594059705734253,2.358142614364624
1788862333897737700,7.43073779296875,1.2833762168884277,1.2382575273513794,2.387150526046753
1788862333907744800,7.440744873046875,1.3486101627349854,1.4741445779800415,2.3381893634796143
1788862333917750500,7.45075048828125,1.2315186262130737,1.3164737224578857,2.189204454421997
1788862333927757800,7.4607578125,0.9835517406463623,1.1805100440979004,1.9386733770370483
1788862333937763600,7.470763671875,0.7891952991485596,1.3068735599517822,1.6487808227539062
1788862333947770600,7.4807705078125,0.6402276754379272,1.244938850402832,1.4871032238006592
1788862333957776600,7.490776611328125,0.5558701753616333,0.9296658635139465,1.4498944282531738
1788862333967782700,7.50078271484375,0.5526647567749023,0.6266327500343323,1.4188562631607056
1788862333977789700,7.510789794921875,0.5425335764884949,0.49226000905036926,1.3283778429031372
1788862333987795700,7.520795654296875,0.4815061688423157,0.4164606034755707,1.2061365842819214
1788862333997802800,7.530802734375,0.4127180576324463,0.1968235820531845,1.0902142524719238
1788862334007808800,7.540808837890625,0.32639381289482117,-0.08070043474435806,0.9518103003501892
1788862334017815600,7.550815673828125,0.24146375060081482,-0.0023342606145888567,0.7198180556297302
1788862334027821600,7.560821533203125,0.09533477574586868,0.32890358567237854,0.40272748470306396
1788862334037828600,7.57082861328125,-0.062123823910951614,0.2837827205657959,0.08309728652238846
1788862334047834600,7.580834716796875,-0.1671610325574875,-0.1480395346879959,-0.1733933538198471
1788862334057841700,7.590841552734375,-0.19275107979774475,-0.538867712020874,-0.3326945900917053
1788862334067847700,7.60084765625,-0.18361936509609222,-0.485659658908844,-0.47547465562820435
1788862334077854700,7.610854736328125,-0.21533042192459106,-0.05121205374598503,-0.6360116004943848
1788862334087860500,7.620860595703125,-0.3603142499923706,0.38840579986572266,-0.8243500590324402
1788862334097867800,7.63086767578125,-0.4535166323184967,0.7235941886901855,-1.081300973892212
1788862334107873800,7.640873779296875,-0.43041664361953735,1.0509059429168701,-1.3210842609405518
1788862334117880600,7.650880615234375,-0.5205446481704712,0.872619092464447,-1.4987906217575073
1788862334127886800,7.660886962890625,-0.5509645938873291,0.26239219307899475,-1.6444529294967651
1788862334137893600,7.6708935546875,-0.4210638701915741,-0.1407744288444519,-1.7707277536392212
1788862334147899600,7.680899658203125,-0.33064743876457214,-0.22767497599124908,-1.830564022064209
1788862334157905700,7.69090576171875,-0.5460265874862671,-0.40418848395347595,-1.7837480306625366
1788862334167912700,7.70091259765625,-0.9442892670631409,-0.6482464075088501,-1.6732745170593262
1788862334177918700,7.710918701171875,-1.1320163011550903,-0.11789760738611221,-1.60664963722229
1788862334187925500,7.720925537109375,-1.0292541980743408,1.388464093208313,-1.566667914390564
1788862334197931800,7.730931884765625,-0.9495628476142883,1.732162356376648,-1.2681916952133179
1788862334207938600,7.7409384765625,-0.9357849955558777,0.37708550691604614,-0.8034823536872864
1788862334217944600,7.750944580078125,-0.6154628992080688,-1.0689499378204346,-0.465455561876297
1788862334227951900,7.760951904296875,-0.1953849494457245,-1.410417079925537,-0.4467295706272125
1788862334237957600,7.77095751953125,-0.07875393331050873,-1.107071042060852,-0.6135502457618713
1788862334247964700,7.780964599609375,-0.37280791997909546,-1.060821771621704,-0.774681568145752
1788862334257970700,7.790970703125,-0.9540300369262695,-0.9508382678031921,-0.9365988373756409
1788862334267977700,7.800977783203125,-1.453626036643982,-0.4177141487598419,-1.1504645347595215
1788862334277983700,7.810983642578125,-1.6653432846069336,0.277202844619751,-1.3570441007614136
1788862334287990500,7.820990478515625,-1.7255566120147705,0.5647411346435547,-1.5027354955673218
1788862334297996800,7.830996826171875,-1.6210174560546875,0.15965837240219116,-1.5141879320144653
1788862334308003600,7.841003662109375,-1.3002891540527344,-0.2885841429233551,-1.497261881828308
1788862334318009600,7.851009521484375,-0.9162278175354004,-0.32206085324287415,-1.5768331289291382
1788862334328016600,7.8610166015625,-0.6032429933547974,-0.3909696340560913,-1.662829875946045
1788862334338022700,7.871022705078125,-0.4548969268798828,-0.9028978943824768,-1.6313483715057373
1788862334348029700,7.88102978515625,-0.3610668480396271,-0.9787462949752808,-1.6111397743225098
1788862334358035500,7.891035400390625,-0.25738680362701416,-0.5671893954277039,-1.6711231470108032
1788862334368041700,7.901041748046875,-0.18520314991474152,-0.3983830511569977,-1.588643193244934
1788862334378048800,7.911048828125,-0.1570705771446228,-0.7030771970748901,-1.358152985572815
1788862334388054500,7.921054443359375,-0.17457446455955505,-0.9903888702392578,-1.3519824743270874
1788862334398061800,7.931061767578125,-0.19650320708751678,-1.0703436136245728,-1.5926227569580078
1788862334408067600,7.941067626953125,-0.23594647645950317,-1.1861673593521118,-1.7221357822418213
1788862334418074600,7.95107470703125,-0.36201387643814087,-1.4296573400497437,-1.6208200454711914
1788862334428080600,7.96108056640625,-0.4560428857803345,-1.7573081254959106,-1.5252519845962524
1788862334438087700,7.971087646484375,-0.4330686032772064,-1.5917431116104126,-1.7075560092926025
1788862334448093700,7.98109375,-0.3653971552848816,-0.5682666301727295,-2.0620005130767822
1788862334458100500,7.9911005859375,-0.32400816679000854,0.01161511056125164,-2.168442487716675
1788862334468106800,8.001106689453126,-0.2212247997522354,0.011605523526668549,-1.9764604568481445
1788862334478113500,8.011113525390625,0.10770489275455475,-0.013435115106403828,-1.7172003984451294
1788862334488119600,8.02111962890625,0.359467089176178,-0.3038152754306793,-1.33631432056427
1788862334498126800,8.031126953125,0.1714591085910797,-0.47950536012649536,-0.8785741925239563
1788862334508132600,8.041132568359375,-0.2292957752943039,-0.5415931940078735,-0.7022055387496948
1788862334518139600,8.0511396484375,-0.47638386487960815,-0.595198929309845,-0.8692008852958679
1788862334528145700,8.061145751953125,-0.6285776495933533,-0.602439284324646,-1.007931113243103
1788862334538152700,8.071152587890625,-0.6355492472648621,-0.4387509822845459,-0.9638669490814209
1788862334548159200,8.0811591796875,-0.44308874011039734,-0.3102279007434845,-0.8183915019035339
1788862334558166000,8.091166015625,-0.13535276055335999,-0.3019936680793762,-0.7024223208427429
1788862334568172000,8.101172119140625,0.09952978789806366,-0.3798067271709442,-0.6642584204673767
1788862334578179000,8.111178955078126,0.20274990797042847,-0.2046024054288864,-0.7078221440315247
1788862334588185000,8.12118505859375,0.22143198549747467,-0.17627835273742676,-0.7724046111106873
1788862334598191000,8.131191162109374,0.1978539526462555,-0.17995671927928925,-0.7311980128288269
1788862334608198100,8.1411982421875,0.2039283663034439,0.15293096005916595,-0.6695170998573303
1788862334618204200,8.1512041015625,0.39023247361183167,0.5772824883460999,-0.624940812587738
1788862334628211000,8.1612109375,0.6099768280982971,0.1749313324689865,-0.4809804856777191
1788862334638217000,8.171217041015625,0.6732996106147766,-0.34313657879829407,-0.18605242669582367
1788862334648224000,8.18122412109375,0.557992696762085,-0.43411630392074585,0.20248332619667053
1788862334658230000,8.19122998046875,0.449314147233963,-0.6674659252166748,0.592654287815094
1788862334668237000,8.201237060546875,0.3996368646621704,-0.8936418294906616,0.8740299940109253
1788862334678243000,8.2112431640625,0.4415172040462494,-0.58152836561203,0.8804240226745605
1788862334688250000,8.22125,0.5590997934341431,0.03092595748603344,0.6747869849205017
1788862334698256100,8.231256103515625,0.6695376038551331,0.49284645915031433,0.5577229261398315
1788862334708263200,8.24126318359375,0.7467935085296631,1.2428584098815918,0.63524329662323
1788862334718269200,8.251269287109375,0.7646638751029968,2.511676788330078,0.8091615438461304
1788862334728276000,8.26127587890625,0.8727245330810547,3.33534836769104,1.0109447240829468
1788862334738282000,8.271281982421876,1.1562769412994385,3.017726421356201,1.2913957834243774
1788862334748289000,8.2812890625,1.5916988849639893,2.093031167984009,1.5537582635879517
1788862334758295000,8.291294921875,1.8171054124832153,1.338932991027832,1.8129807710647583
1788862334768302000,8.301302001953125,1.7032848596572876,1.3274332284927368,2.026559829711914
1788862334778308000,8.31130810546875,1.3588718175888062,1.6933531761169434,2.1363110542297363
1788862334788315100,8.321315185546876,1.0855220556259155,1.3769927024841309,2.103168487548828
1788862334798321000,8.33132080078125,0.9673722386360168,0.7038817405700684,1.9562678337097168
1788862334808328200,8.341328125,0.9732351899147034,0.4996822476387024,1.9251072406768799
1788862334818334200,8.351334228515626,1.159400224685669,0.5791158080101013,2.1500790119171143
1788862334828341000,8.361341064453125,1.4830656051635742,0.7340148687362671,2.5293893814086914
1788862334838347000,8.371346923828124,1.625775933265686,0.5990117788314819,2.6244912147521973
1788862334848353000,8.38135302734375,1.5627186298370361,0.4522761106491089,2.4263885021209717
1788862334858360000,8.391360107421875,1.4954136610031128,0.563661515712738,2.098588466644287
1788862334868366000,8.401365966796876,1.512120246887207,0.678049623966217,1.8702235221862793
1788862334878373000,8.411373046875,1.4671401977539062,0.7041105031967163,1.8497605323791504
1788862334888379100,8.421379150390624,1.391543984413147,0.9362161755561829,1.918741226196289
1788862334898386000,8.431385986328126,1.3599019050598145,1.272813081741333,1.9708153009414673
1788862334908392200,8.44139208984375,1.376376748085022,1.4731630086898804,1.9618903398513794
1788862334918399000,8.45139892578125,1.4041905403137207,1.3797129392623901,1.9516634941101074
1788862334928405000,8.461405029296875,1.3845175504684448,1.055324673652649,1.987019419670105
1788862334938412300,8.471412353515625,1.294102668762207,0.8100672960281372,2.0088837146759033
1788862334948418000,8.48141796875,1.1511915922164917,0.8381692171096802,1.928605556488037
1788862334958425000,8.491425048828125,0.9665170907974243,0.8181683421134949,1.7643940448760986
1788862334968431000,8.50143115234375,0.8169089555740356,0.3370091915130615,1.6170876026153564
1788862334978438100,8.511438232421876,0.7700636982917786,-0.30429065227508545,1.4574295282363892
1788862334988444200,8.521444091796875,0.7410283088684082,-0.5593229532241821,1.2454639673233032
1788862334998451000,8.531450927734374,0.68740314245224,-0.38041630387306213,0.9829235076904297
1788862335008457200,8.541457275390625,0.5986165404319763,-0.22142985463142395,0.689037024974823
1788862335018464000,8.551464111328125,0.4728442430496216,-0.14063727855682373,0.38821884989738464
1788862335028470000,8.561469970703126,0.27330076694488525,0.3321462571620941,0.08595778793096542
1788862335038477000,8.57147705078125,0.058095794171094894,1.1161025762557983,-0.2881433665752411
1788862335048483000,8.581483154296874,-0.063798688352108,1.9172248840332031,-0.6711719632148743
1788862335058490000,8.591489990234376,-0.14842063188552856,2.4120047092437744,-0.9781769514083862
1788862335068496000,8.601495849609375,-0.2439841628074646,1.7188193798065186,-1.1564582586288452
1788862335078503200,8.611503173828124,-0.08440196514129639,-0.16260142624378204,-1.0398222208023071
1788862335088509200,8.62150927734375,0.32184460759162903,-1.516678810119629,-0.6243128776550293
1788862335098515000,8.631514892578124,0.2819714844226837,-1.223872184753418,-0.667145311832428
1788862335108522200,8.641522216796876,-0.3665585517883301,0.2727729380130768,-1.4285246133804321
1788862335118528000,8.651528076171875,-0.9883912205696106,1.5715010166168213,-1.868250846862793
1788862335128535000,8.66153515625,-1.1306040287017822,1.3031078577041626,-1.7395051717758179
1788862335138541000,8.671541015625,-0.954062283039093,-0.21449178457260132,-1.501153826713562
1788862335148548000,8.681548095703125,-0.6426700353622437,-1.2731536626815796,-1.294039011001587
1788862335158554000,8.69155419921875,-0.37302470207214355,-1.2170976400375366,-1.0644245147705078
1788862335168561000,8.701560791015625,-0.2642814517021179,-0.6465822458267212,-0.6939635872840881
1788862335178567200,8.711567138671874,-0.33246317505836487,-0.10037241131067276,-0.3713407814502716
1788862335188574000,8.721573974609376,-0.5044719576835632,-0.007480286993086338,-0.313883900642395
1788862335198580000,8.731580078125,-0.6635825037956238,-0.3679782748222351,-0.5211630463600159
1788862335208587300,8.741587158203124,-0.7720168232917786,-0.7960478663444519,-0.7652135491371155
1788862335218593000,8.751593017578125,-0.7974833250045776,-1.0946718454360962,-0.8368623852729797
1788862335228600000,8.76160009765625,-0.7852059006690979,-1.258103370666504,-0.7551345229148865
1788862335238606000,8.771606201171876,-0.8059257864952087,-1.1423141956329346,-0.6397901177406311
1788862335248613000,8.781613037109375,-0.8569173216819763,-0.8359886407852173,-0.5497872233390808
1788862335258619100,8.791619140625,-0.9010589718818665,-0.4160030782222748,-0.538866400718689
1788862335268626000,8.8016259765625,-0.9391533732414246,-0.010350375436246395,-0.6983274221420288
1788862335278632200,8.811632080078125,-0.9621918201446533,0.05426270514726639,-0.9820315837860107
1788862335288639000,8.821638916015624,-0.953174889087677,-0.29762396216392517,-1.2549794912338257
1788862335298645000,8.83164501953125,-0.8836346864700317,-0.8959552645683289,-1.4663748741149902
1788862335308652300,8.84165234375,-0.784750759601593,-1.3374091386795044,-1.6435937881469727
1788862335318658000,8.851657958984376,-0.7073283791542053,-1.5187575817108154,-1.7309556007385254
1788862335328665000,8.8616650390625,-0.6705493330955505,-1.2868807315826416,-1.6478508710861206
1788862335338670800,8.8716708984375,-0.7156915068626404,-0.5203624963760376,-1.4869840145111084
1788862335348678100,8.88167822265625,-0.7992199659347534,0.29212987422943115,-1.413866639137268
1788862335358684200,8.89168408203125,-0.8590550422668457,0.4479133188724518,-1.4856406450271606
1788862335368691000,8.90169091796875,-0.8404523730278015,-0.13805188238620758,-1.6333401203155518
1788862335378697200,8.911697265625,-0.6888852119445801,-0.979995846748352,-1.7450240850448608
1788862335388704000,8.9217041015625,-0.5081148743629456,-1.433361530303955,-1.7608120441436768
1788862335398710000,8.9317099609375,-0.4738740921020508,-1.2598652839660645,-1.762191891670227
1788862335408716000,8.941716064453125,-0.5324711203575134,-0.9378367066383362,-1.8484747409820557
1788862335418723000,8.95172314453125,-0.5058091282844543,-0.9440373182296753,-1.8429553508758545
1788862335428729000,8.96172900390625,-0.43324145674705505,-1.1118340492248535,-1.7008671760559082
1788862335438736000,8.97173583984375,-0.46391335129737854,-1.1499098539352417,-1.6325584650039673
1788862335448742100,8.9817421875,-0.5062575936317444,-1.01198148727417,-1.6720198392868042
1788862335458749000,8.9917490234375,-0.49822282791137695,-0.9443454742431641,-1.7013887166976929
1788862335468755000,9.0017548828125,-0.4623633921146393,-1.0284640789031982,-1.657394289970398
1788862335478762200,9.01176220703125,-0.44012945890426636,-1.1426763534545898,-1.6010833978652954
1788862335488768000,9.02176806640625,-0.4582679569721222,-1.059407353401184,-1.59559166431427
1788862335498775000,9.031775146484375,-0.5297235250473022,-0.9533109664916992,-1.5860847234725952
1788862335508781300,9.04178125,-0.5923634767532349,-0.9533083438873291,-1.5114996433258057
1788862335518788000,9.0517880859375,-0.5473922491073608,-1.0091755390167236,-1.413059949874878
1788862335528794000,9.061794189453124,-0.42941635847091675,-1.0530471801757812,-1.2995331287384033
1788862335538801200,9.07180126953125,-0.3539644777774811,-0.963997483253479,-1.1816920042037964
1788862335548807400,9.081807373046875,-0.33784621953964233,-0.8630074858665466,-1.1248263120651245
1788862335558814200,9.091814208984376,-0.28152701258659363,-0.8643617033958435,-1.0304031372070312
1788862335568820200,9.1018203125,-0.13274286687374115,-0.86574786901474,-1.0209749937057495
1788862335578827300,9.1118271484375,0.0023374564480036497,-0.5688362717628479,-1.06890070438385
1788862335588833300,9.121833251953126,0.09930475056171417,-0.23626792430877686,-0.934334933757782
1788862335598840300,9.13184033203125,0.21507209539413452,0.005387308541685343,-0.6917321085929871
1788862335608846000,9.14184619140625,0.35207682847976685,0.2990732491016388,-0.5070115327835083
1788862335618853400,9.151853271484375,0.36657747626304626,0.10574161261320114,-0.3275424540042877
1788862335628859400,9.161859375,0.2905937433242798,-0.1393190175294876,-0.07810545712709427
1788862335638866200,9.1718662109375,0.11604724079370499,0.01961551234126091,0.17945550382137299
1788862335648872400,9.18187255859375,0.06244420260190964,0.26052212715148926,0.23117755353450775
1788862335658879200,9.191879150390625,0.08113027364015579,0.5841995477676392,0.12064039707183838
1788862335668885200,9.20188525390625,0.11343494802713394,0.8651393055915833,0.01315068919211626
1788862335678892300,9.211892333984375,0.16278891265392303,1.159247875213623,0.02429868094623089
1788862335688898300,9.221898193359374,0.23002228140830994,1.1893136501312256,0.11315638571977615
1788862335698905300,9.2319052734375,0.3108835816383362,1.037746787071228,0.3061050772666931
1788862335708911000,9.2419111328125,0.41684490442276,0.9454067349433899,0.6150168180465698
1788862335718917400,9.25191748046875,0.5505781769752502,0.9920514822006226,1.0325278043746948
1788862335728924200,9.261924072265625,0.6768365502357483,1.2211562395095825,1.3364378213882446
1788862335738930200,9.27193017578125,0.7618856430053711,1.451033115386963,1.4204241037368774
1788862335748937500,9.2819375,0.8315611481666565,1.5553838014602661,1.4628463983535767
1788862335758943200,9.291943115234375,0.9387786388397217,1.2603822946548462,1.5093328952789307
1788862335768950300,9.3019501953125,1.0322002172470093,1.0002447366714478,1.6858086585998535
1788862335778956300,9.311956298828125,1.0736749172210693,1.0282504558563232,1.9304215908050537
1788862335788963300,9.32196337890625,1.1075314283370972,0.9984859228134155,2.060621500015259
1788862335798969300,9.33196923828125,1.0938977003097534,0.9699352383613586,2.1943604946136475
1788862335808976100,9.34197607421875,1.0524990558624268,0.9773103594779968,2.2901394367218018
1788862335818982400,9.351982421875,0.9632717370986938,1.0280382633209229,2.287412166595459
1788862335828989200,9.3619892578125,0.8881900310516357,1.1644484996795654,2.2915523052215576
1788862335838995200,9.3719951171875,0.9789044857025146,1.1447863578796387,2.402576446533203
1788862335849002200,9.382002197265624,1.182462453842163,0.7751932144165039,2.6011722087860107
1788862335859008300,9.39200830078125,1.3670698404312134,0.2238549292087555,2.9596409797668457
1788862335869015300,9.402015380859375,1.443527102470398,0.027090739458799362,3.3568761348724365
1788862335879021000,9.41202099609375,1.4981516599655151,0.36153262853622437,3.4194114208221436
1788862335889028400,9.4220283203125,1.4946922063827515,0.5639494061470032,3.16658878326416
1788862335899034400,9.432034423828124,1.3978644609451294,0.24587075412273407,2.821420669555664
1788862335909041200,9.442041259765626,1.2217872142791748,-0.26657283306121826,2.5463314056396484
1788862335919047400,9.45204736328125,1.1061242818832397,-0.31643787026405334,2.415231227874756
1788862335929054200,9.46205419921875,1.2322629690170288,0.18529236316680908,2.397202968597412
1788862335939060200,9.472060302734375,1.460106611251831,0.726926863193512,2.3441884517669678
1788862335949067300,9.4820673828125,1.5285295248031616,0.8570291996002197,2.169245958328247
1788862335959073300,9.4920732421875,1.3564022779464722,0.743141770362854,1.9161752462387085
1788862335969080300,9.502080322265625,1.0981662273406982,0.8492010831832886,1.7683104276657104
1788862335979086300,9.51208642578125,0.9235536456108093,1.0102773904800415,1.7078615427017212
1788862335989093400,9.52209326171875,0.8450409770011902,0.9999315142631531,1.616963267326355
1788862335999099100,9.53209912109375,0.8058818578720093,0.7815594673156738,1.4752005338668823
1788862336009106400,9.5421064453125,0.7647584080696106,0.3861357271671295,1.4203641414642334
1788862336019112400,9.552112548828125,0.7234336137771606,-0.07092983275651932,1.4397094249725342
1788862336029118200,9.5621181640625,0.6368718147277832,-0.1401403248310089,1.3937104940414429
1788862336039125200,9.572125244140626,0.47108790278434753,0.358602374792099,1.27617347240448
1788862336049131500,9.582131591796875,0.25116485357284546,0.827420711517334,1.106021761894226
1788862336059138300,9.59213818359375,0.015719573944807053,0.8629752397537231,0.8315496444702148
1788862336069144300,9.602144287109375,-0.16197292506694794,0.5382320284843445,0.4640715420246124
1788862336079151400,9.6121513671875,-0.3173428177833557,0.20576435327529907,0.03237258642911911
1788862336089157400,9.622157470703126,-0.4356457591056824,0.1175742968916893,-0.4085129201412201
1788862336099164200,9.6321640625,-0.46682628989219666,0.07926632463932037,-0.8624018430709839
1788862336109170200,9.642170166015624,-0.4673522710800171,0.14398273825645447,-1.25996994972229
1788862336119177200,9.65217724609375,-0.524292528629303,0.31403061747550964,-1.5242245197296143
1788862336129183200,9.662183349609375,-0.6196160912513733,0.08827127516269684,-1.6310007572174072
1788862336139190300,9.672190185546874,-0.6616045832633972,-0.5475403070449829,-1.6397031545639038
1788862336149196300,9.6821962890625,-0.6333247423171997,-1.052852749824524,-1.6141091585159302
1788862336159203300,9.692203369140625,-0.6578505635261536,-1.1008796691894531,-1.6409019231796265
1788862336169209300,9.702209228515626,-0.7550423741340637,-0.5093032121658325,-1.7156187295913696
1788862336179216400,9.71221630859375,-0.7940717935562134,-0.1260910928249359,-1.7073395252227783
1788862336189222400,9.722222412109375,-0.8006420731544495,-0.46954458951950073,-1.5345029830932617
1788862336199229200,9.732229248046876,-0.7214372754096985,-1.2708330154418945,-1.2401320934295654
1788862336209235200,9.742235107421875,-0.5336809754371643,-1.6290143728256226,-1.0590840578079224
1788862336219242200,9.7522421875,-0.5399718880653381,-0.8967108130455017,-1.1867616176605225
1788862336229248300,9.762248291015625,-0.8305009007453918,0.1289939284324646,-1.3812716007232666
1788862336239255300,9.77225537109375,-1.101563572883606,0.5163259506225586,-1.372626543045044
1788862336249261300,9.78226123046875,-1.1290037631988525,0.585119366645813,-1.1781073808670044
1788862336259268400,9.792268310546875,-0.9489282369613647,0.5117580890655518,-1.0034234523773193
1788862336269274000,9.802274169921875,-0.7297497987747192,0.09829940646886826,-0.893912136554718
1788862336279281400,9.812281494140626,-0.5300697088241577,-0.4599015414714813,-0.7700873613357544
1788862336289287400,9.822287353515625,-0.41349995136260986,-1.0239758491516113,-0.654671311378479
1788862336299294200,9.832294189453124,-0.3993484675884247,-1.4555189609527588,-0.5888164043426514
1788862336309300200,9.84230029296875,-0.45924854278564453,-1.601574182510376,-0.5199105739593506
1788862336319307300,9.852307373046875,-0.5871596336364746,-1.5563877820968628,-0.4638374447822571
1788862336329313300,9.862313232421876,-0.7271351218223572,-1.4112814664840698,-0.5084571242332458
1788862336339320000,9.872320068359375,-0.8058363199234009,-1.376212239265442,-0.6247125864028931
1788862336349326300,9.882326416015625,-0.827782392501831,-1.4751789569854736,-0.7457002997398376
1788862336359333400,9.89233349609375,-0.823983371257782,-1.3518147468566895,-0.8915179371833801
1788862336369339100,9.902339111328125,-0.8395223617553711,-0.8363436460494995,-1.0683995485305786
1788862336379346400,9.912346435546874,-0.8900814056396484,-0.2893063724040985,-1.236811637878418
1788862336389352400,9.9223525390625,-0.9567062854766846,0.07615336030721664,-1.3870363235473633
1788862336399358200,9.932358154296875,-0.9539262056350708,0.1607060581445694,-1.5426959991455078
1788862336409365200,9.942365234375,-0.838859498500824,0.037878938019275665,-1.7788845300674438
1788862336419371300,9.952371337890625,-0.6467068791389465,-0.1872875988483429,-2.008850574493408
1788862336429378300,9.96237841796875,-0.4865451455116272,-0.19457827508449554,-2.094184637069702
1788862336439384300,9.97238427734375,-0.4456602931022644,0.17148973047733307,-2.049729347229004
1788862336449391400,9.982391357421875,-0.4762805104255676,0.40503349900245667,-1.990938425064087
1788862336459397400,9.9923974609375,-0.4980308413505554,0.15391260385513306,-1.9376232624053955
1788862336469404200,10.002404052734375,-0.42828211188316345,-0.4466448724269867,-1.8642578125
1788862336479410200,10.01241015625,-0.23210594058036804,-1.0327634811401367,-1.8182004690170288
1788862336489417200,10.022417236328126,-0.16377827525138855,-1.2399510145187378,-1.818258285522461
1788862336499423200,10.03242333984375,-0.4022776782512665,-1.25294828414917,-1.780598759651184
1788862336509430300,10.04243017578125,-0.6287427544593811,-1.1272907257080078,-1.782239556312561
1788862336519436300,10.052436279296876,-0.621957540512085,-1.0238362550735474,-1.7660499811172485
1788862336529443300,10.062443359375,-0.4944709837436676,-1.022735834121704,-1.7031689882278442
1788862336539449000,10.072448974609374,-0.42884695529937744,-0.8722084164619446,-1.6769030094146729
1788862336549456000,10.082455810546875,-0.4640161395072937,-0.7326334714889526,-1.697442889213562
1788862336559462100,10.092462158203125,-0.4902104437351227,-0.7900515198707581,-1.586633324623108
1788862336569469000,10.102468994140626,-0.41043493151664734,-0.94419926404953,-1.3938250541687012
1788862336579475000,10.112474853515625,-0.3437613546848297,-1.1978733539581299,-1.275865912437439
1788862336589482000,10.12248193359375,-0.34663569927215576,-1.1097162961959839,-1.1703287363052368
1788862336599488000,10.132488037109376,-0.3882151246070862,-0.7299817800521851,-1.092159390449524
1788862336609495000,10.1424951171875,-0.2840319871902466,-0.6439656615257263,-0.9168522953987122
1788862336619500800,10.152500732421874,-0.049020007252693176,-0.7880842089653015,-0.7549177408218384
1788862336629508000,10.162508056640625,0.15810628235340118,-0.705256462097168,-0.7240397334098816
1788862336639513900,10.172513916015625,0.24693840742111206,-0.4118970036506653,-0.6785122156143188
1788862336649521000,10.18252099609375,0.3050065040588379,-0.3212009370326996,-0.5059806108474731
1788862336659527200,10.192527099609375,0.36661314964294434,-0.31432145833969116,-0.31953537464141846
1788862336669534000,10.202533935546874,0.42869701981544495,-0.19501610100269318,-0.14927950501441956
1788862336679540000,10.2125400390625,0.5354043245315552,0.129595547914505,0.034816302359104156
1788862336689547000,10.222547119140625,0.6197452545166016,0.17633934319019318,0.2524956464767456
1788862336699553000,10.232552978515624,0.6193923950195312,0.0751275047659874,0.5081721544265747
1788862336709559800,10.242559814453125,0.5623546838760376,0.312170147895813,0.7341991662979126
1788862336719565800,10.25256591796875,0.5270747542381287,0.6078939437866211,0.8463813662528992
1788862336729573000,10.262572998046876,0.5045912861824036,0.7925831079483032,0.8795917630195618
1788862336739579000,10.272578857421875,0.48605671525001526,0.9167420864105225,0.8901770114898682
1788862336749585000,10.2825849609375,0.46454957127571106,0.9701597690582275,0.937183678150177
1788862336759592000,10.292592041015626,0.41482114791870117,1.1662895679473877,1.0240392684936523
1788862336769598000,10.302597900390625,0.40161189436912537,1.33742356300354,1.091231346130371
1788862336779605000,10.31260498046875,0.45440158247947693,1.2056143283843994,1.2040326595306396
1788862336789610800,10.32261083984375,0.5517249703407288,0.9760695695877075,1.4602479934692383
1788862336799618000,10.3326181640625,0.6065301299095154,0.6315566897392273,1.6608316898345947
1788862336809624000,10.3426240234375,0.6127909421920776,0.6184938549995422,1.7405600547790527
1788862336819630800,10.352630859375,0.621802568435669,0.9641641974449158,1.7326734066009521
1788862336829637000,10.36263720703125,0.6128727197647095,0.9435044527053833,1.6572496891021729
1788862336839644000,10.372643798828125,0.6459353566169739,0.5792948007583618,1.6097365617752075
1788862336849650000,10.38264990234375,0.6987892389297485,0.47122958302497864,1.6929951906204224
1788862336859657000,10.392656982421874,0.711013674736023,0.48647165298461914,1.8999994993209839
1788862336869663000,10.4026630859375,0.7171168327331543,0.4075576663017273,2.166828155517578
1788862336879670000,10.412669921875,0.746810257434845,0.4836795926094055,2.4461514949798584
1788862336889675800,10.42267578125,0.8332748413085938,0.6097730994224548,2.588515520095825
1788862336899683000,10.43268310546875,0.881514847278595,0.37444043159484863,2.6011765003204346
1788862336909688800,10.442688720703124,0.8712605834007263,0.203064426779747,2.560648202896118
1788862336919696000,10.45269580078125,0.8145376443862915,0.33854955434799194,2.5000076293945312
1788862336929702100,10.4627021484375,0.7823083400726318,0.5763850212097168,2.4322993755340576
1788862336939709000,10.472708984375,0.8232816457748413,0.7184526920318604,2.44999098777771
1788862336949715000,10.48271484375,0.9397017359733582,0.694352388381958,2.5890228748321533
1788862336959722000,10.492721923828125,1.0641485452651978,0.6689556837081909,2.7125871181488037
1788862336969728000,10.50272802734375,1.1073384284973145,0.7974218130111694,2.717264175415039
1788862336979734800,10.51273486328125,0.98903888463974,0.8016610145568848,2.7222061157226562
1788862336989740800,10.52274072265625,0.7977765202522278,0.7287287712097168,2.7417359352111816
1788862336999748000,10.532748046875,0.706305205821991,0.5536285638809204,2.7484183311462402
1788862337009753900,10.54275390625,0.7605769634246826,0.36458781361579895,2.7005834579467773
1788862337019761000,10.552760986328124,0.9027072191238403,0.1648893505334854,2.607743978500366
1788862337029767000,10.562766845703125,1.0770978927612305,0.18360471725463867,2.4873275756835938
1788862337039774000,10.57277392578125,1.1039596796035767,0.6867147088050842,2.219644784927368
1788862337049780000,10.582780029296876,0.8913019299507141,1.2128405570983887,1.7518763542175293
1788862337059787000,10.592787109375,0.4326329231262207,1.4543272256851196,1.1786870956420898
1788862337069793000,10.60279296875,-0.07976114004850388,1.3615232706069946,0.6583120822906494
1788862337079799800,10.6127998046875,-0.3901842534542084,0.9859514832496643,0.24137666821479797
1788862337089805800,10.622805908203125,-0.5126185417175293,0.5755900740623474,-0.06887760013341904
1788862337099812000,10.63281201171875,-0.5317440629005432,0.47031664848327637,-0.2473330944776535
1788862337109819000,10.64281884765625,-0.45839419960975647,0.3552936613559723,-0.2467871457338333
1788862337119825000,10.652824951171874,-0.34639814496040344,-0.07329978048801422,-0.13252022862434387
1788862337129832000,10.66283203125,-0.26032957434654236,-0.5806481838226318,-0.07744445651769638
1788862337139838000,10.672837890625,-0.1931566745042801,-0.5671670436859131,-0.16021177172660828
1788862337149845000,10.682844970703124,-0.2378879338502884,-0.3269086182117462,-0.30519986152648926
1788862337159850800,10.692850830078125,-0.3658512234687805,-0.4266866147518158,-0.41032761335372925
1788862337169858000,10.702858154296875,-0.4529123604297638,-0.46614691615104675,-0.5540546774864197
1788862337179863800,10.71286376953125,-0.5338791012763977,-0.33904436230659485,-0.7351579070091248
1788862337189870800,10.722870849609375,-0.6589512825012207,-0.2135184109210968,-0.9051013588905334
1788862337199877000,10.732877197265625,-0.8235809803009033,-0.14416196942329407,-1.0132726430892944
1788862337209884000,10.7428837890625,-0.937403678894043,-0.27955174446105957,-1.0858967304229736
1788862337219890000,10.752889892578125,-0.9875278472900391,-0.441316694021225,-1.1235383749008179
1788862337229897000,10.76289697265625,-0.9631492495536804,-0.17500589787960052,-1.0749250650405884
1788862337239903000,10.772903076171875,-0.8693982362747192,0.2500881254673004,-0.9230452179908752
1788862337249909800,10.78290966796875,-0.6981010437011719,0.20841312408447266,-0.7734032869338989
1788862337259916000,10.792916015625,-0.4606107473373413,-0.34243616461753845,-0.6629305481910706
1788862337269923000,10.802923095703125,-0.23827354609966278,-0.7646987438201904,-0.6373636722564697
1788862337279928800,10.8129287109375,-0.12637658417224884,-0.8079087734222412,-0.7053222060203552
1788862337289936100,10.82293603515625,-0.17597369849681854,-0.7421643733978271,-0.756280243396759
1788862337299942100,10.832942138671875,-0.31164735555648804,-0.5894483327865601,-0.6947859525680542
1788862337309949000,10.842948974609374,-0.4306075870990753,-0.2697739601135254,-0.6441073417663574
1788862337319955000,10.852954833984375,-0.5037875175476074,-0.0852307379245758,-0.6967383027076721
1788862337329962000,10.8629619140625,-0.5283551812171936,-0.08632530272006989,-0.7939565181732178
1788862337339968000,10.872968017578126,-0.4828715920448303,-0.2770542502403259,-0.9132831692695618
1788862337349974800,10.882974853515625,-0.43136152625083923,-0.421069473028183,-0.9821221232414246
1788862337359981000,10.89298095703125,-0.448416143655777,-0.2821187674999237,-0.9720532298088074
1788862337369987800,10.90298779296875,-0.54169762134552,-0.10284755378961563,-1.0318210124969482
1788862337379993900,10.912993896484375,-0.6369005441665649,-0.09807543456554413,-1.2540844678878784
1788862337390001200,10.923001220703124,-0.7059440612792969,-0.33981508016586304,-1.4356811046600342
1788862337400007000,10.9330068359375,-0.7707425355911255,-0.8023270964622498,-1.516465187072754
1788862337410014000,10.943013916015625,-0.8445150256156921,-1.0934593677520752,-1.6489014625549316
1788862337420020000,10.95302001953125,-0.8861463665962219,-0.7758840322494507,-1.8840570449829102
1788862337430027000,10.963027099609375,-0.9084135890007019,-0.06030275672674179,-2.1102168560028076
1788862337440033000,10.973032958984374,-0.9282732605934143,0.31293314695358276,-2.2205889225006104
1788862337450039800,10.983039794921876,-0.9263963103294373,0.18122412264347076,-2.251758337020874
1788862337460046000,10.993046142578125,-0.8597139120101929,-0.19648030400276184,-2.2806355953216553
1788862337470052000,11.003052001953124,-0.7036330103874207,-0.703921914100647,-2.2519054412841797
1788862337480059000,11.013058837890625,-0.5047518610954285,-0.9362172484397888,-2.1820895671844482
1788862337490065000,11.02306494140625,-0.3997149169445038,-0.8326037526130676,-2.145008087158203
1788862337500072000,11.033072021484376,-0.4347858130931854,-0.6358845829963684,-2.19400691986084
1788862337510078000,11.043077880859375,-0.5312218070030212,-0.5191664695739746,-2.2449002265930176
1788862337520084700,11.053084716796874,-0.5767442584037781,-0.6871653199195862,-2.2433667182922363
1788862337530091000,11.063091064453126,-0.5664405226707458,-0.9345181584358215,-2.246643543243408
1788862337540098000,11.07309814453125,-0.5084861516952515,-1.1092913150787354,-2.2766644954681396
1788862337550104300,11.083104248046874,-0.445915162563324,-1.160671591758728,-2.2940597534179688
1788862337560111600,11.093111572265625,-0.4426192343235016,-1.0150680541992188,-2.2254621982574463
1788862337570117400,11.103117431640625,-0.49143123626708984,-0.7488217949867249,-2.0530591011047363
1788862337580124400,11.11312451171875,-0.48816460371017456,-0.33096566796302795,-1.825432538986206
1788862337590130400,11.12313037109375,-0.35868892073631287,0.13433118164539337,-1.622487187385559
1788862337600137500,11.133137451171875,-0.23701520264148712,0.17202848196029663,-1.3835159540176392
1788862337610143500,11.1431435546875,-0.21260520815849304,-0.32720714807510376,-1.0900137424468994
1788862337620150300,11.153150390625,-0.322519987821579,-0.6378185749053955,-0.8450021147727966
1788862337630156500,11.163156494140624,-0.48896756768226624,-0.41502729058265686,-0.6596503257751465
1788862337640163300,11.173163330078125,-0.5682131052017212,-0.3137454092502594,-0.6086827516555786
1788862337650169300,11.18316943359375,-0.5579809546470642,-0.20369693636894226,-0.5990999341011047
1788862337660176600,11.1931767578125,-0.48708418011665344,-0.08789470046758652,-0.5121285319328308
1788862337670182400,11.203182373046875,-0.36537423729896545,-0.10737572610378265,-0.4534796178340912
1788862337680189400,11.213189453125,-0.2227981835603714,0.08425895124673843,-0.41304296255111694
1788862337690195200,11.2231953125,-0.057741060853004456,0.28306153416633606,-0.3622050881385803
1788862337700202500,11.233202392578125,0.10840769857168198,0.3735027611255646,-0.30373406410217285
1788862337710208500,11.24320849609375,0.25201040506362915,0.2798580229282379,-0.1283329427242279
1788862337720215300,11.25321533203125,0.32901784777641296,0.1345767229795456,0.07524655014276505
1788862337730221600,11.2632216796875,0.33005887269973755,0.05166878551244736,0.2194729745388031
1788862337740228400,11.273228271484374,0.3381040096282959,0.01380902249366045,0.33925768733024597
1788862337750234400,11.283234375,0.3455430269241333,-0.051476772874593735,0.40140336751937866
1788862337760241400,11.293241455078125,0.453350692987442,0.007131945341825485,0.3429717421531677
1788862337770247400,11.303247314453126,0.5928454995155334,0.22777403891086578,0.31477364897727966
1788862337780254500,11.31325439453125,0.6615521311759949,0.5005555152893066,0.4002251625061035
1788862337790260200,11.32326025390625,0.7461977601051331,0.7758102416992188,0.6475856900215149
1788862337800267500,11.333267578125,0.8644354343414307,0.9991373419761658,0.9181665778160095
1788862337810273500,11.3432734375,0.9695892930030823,1.251055121421814,1.0974897146224976
1788862337820279300,11.353279296875,1.05232572555542,1.5593854188919067,1.230739951133728
1788862337830286600,11.36328662109375,1.1552026271820068,1.7496116161346436,1.375240445137024
1788862337840292400,11.373292236328124,1.2346385717391968,1.7840079069137573,1.4904236793518066
1788862337850299400,11.38329931640625,1.2506729364395142,1.7735779285430908,1.5145434141159058
1788862337860305400,11.393305419921875,1.233933925628662,1.6706990003585815,1.5299911499023438
1788862337870312400,11.4033125,1.2503641843795776,1.454159140586853,1.6846981048583984
1788862337880318500,11.413318359375,1.306198239326477,1.2055624723434448,1.947343349456787
1788862337890325200,11.4233251953125,1.332053780555725,0.9934528470039368,2.1263797283172607
1788862337900331500,11.43333154296875,1.360148549079895,0.8819875717163086,2.26911997795105
1788862337910338300,11.44333837890625,1.3569213151931763,0.6693003177642822,2.38905930519104
1788862337920344300,11.45334423828125,1.3008798360824585,0.3350200653076172,2.3713207244873047
1788862337930351600,11.4633515625,1.2511587142944336,0.3465816378593445,2.334317922592163
1788862337940357400,11.473357421875,1.2413220405578613,0.5425559282302856,2.398102045059204
1788862337950364400,11.483364501953124,1.2598026990890503,0.4103965759277344,2.487859010696411
1788862337960370200,11.4933701171875,1.2826499938964844,0.3274947702884674,2.5031356811523438
1788862337970377500,11.50337744140625,1.3119757175445557,0.7107816934585571,2.3969669342041016
1788862337980383500,11.513383544921876,1.301946997642517,1.0359206199645996,2.3037538528442383
1788862337990390300,11.523390380859375,1.2804486751556396,0.9382343292236328,2.337333917617798
1788862338000396500,11.533396484375,1.2958638668060303,0.8220840096473694,2.4152889251708984
1788862338010403300,11.5434033203125,1.3361217975616455,0.9963050484657288,2.4206857681274414
1788862338020409300,11.553409423828125,1.3923006057739258,1.3089056015014648,2.3785898685455322
1788862338030416400,11.56341650390625,1.4600099325180054,1.340052843093872,2.390951633453369
1788862338040422400,11.57342236328125,1.5173237323760986,1.0524141788482666,2.4826300144195557
1788862338050429400,11.583429443359375,1.5040644407272339,0.767641544342041,2.5325448513031006
1788862338060435200,11.593435302734376,1.3546797037124634,0.8304399251937866,2.398763418197632
1788862338070442500,11.6034423828125,1.0853105783462524,0.9993708729743958,2.1461992263793945
1788862338080448500,11.613448486328124,0.8127267360687256,0.7681558132171631,1.9238708019256592
1788862338090455300,11.623455322265626,0.682167649269104,0.20357948541641235,1.660222053527832
1788862338100461600,11.633461669921875,0.716244101524353,-0.09482424706220627,1.3601155281066895
1788862338110468400,11.64346826171875,0.8178943395614624,0.10860823839902878,1.1576436758041382
1788862338120474400,11.653474365234375,0.8623605966567993,0.25802940130233765,1.0268405675888062
1788862338130481400,11.6634814453125,0.8118385672569275,0.2780310809612274,0.7972814440727234
1788862338140487400,11.6734873046875,0.6776487827301025,0.6921318769454956,0.5578640699386597
1788862338150494500,11.683494384765625,0.5066331028938293,1.2734999656677246,0.3524552583694458
1788862338160500500,11.69350048828125,0.35358497500419617,1.2133748531341553,0.13858531415462494
1788862338170507500,11.703507568359376,0.2697409391403198,0.6485500335693359,-0.11213292926549911
1788862338180513300,11.71351318359375,0.22585417330265045,0.19401873648166656,-0.4351746439933777
1788862338190519300,11.723519287109376,0.13554345071315765,0.19468346238136292,-0.772728443145752
1788862338200526600,11.733526611328125,-0.014309963211417198,0.3627297282218933,-1.0188567638397217
1788862338210532400,11.743532470703125,-0.14166685938835144,0.26766952872276306,-1.1615794897079468
1788862338220539400,11.753539306640626,-0.18840134143829346,-0.11800786107778549,-1.2307682037353516
1788862338230545400,11.76354541015625,-0.2177586853504181,-0.3268668055534363,-1.2212274074554443
1788862338240552400,11.773552490234374,-0.2331051528453827,-0.03224156051874161,-1.1657111644744873
1788862338250558500,11.783558349609375,-0.2256144881248474,0.23331980407238007,-1.0936928987503052
1788862338260565500,11.7935654296875,-0.23824025690555573,0.05633118376135826,-0.9631614685058594
1788862338270571500,11.803571533203124,-0.20852898061275482,-0.39953941106796265,-0.796780526638031
1788862338280578300,11.813578369140625,-0.2044151872396469,-0.6648688316345215,-0.7254576086997986
1788862338290584300,11.823584228515625,-0.26559972763061523,-0.5141791701316833,-0.798132061958313
1788862338300591400,11.83359130859375,-0.48953959345817566,-0.4258839190006256,-0.9051429629325867
1788862338310597400,11.843597412109375,-0.7728384137153625,-0.5038248300552368,-1.0753437280654907
1788862338320604400,11.8536044921875,-0.9167447090148926,-0.5014423131942749,-1.3134238719940186
1788862338330610400,11.8636103515625,-0.8824527859687805,-0.026098178699612617,-1.5406203269958496
1788862338340617500,11.873617431640625,-0.8327710032463074,0.4422391951084137,-1.6140987873077393
1788862338350623500,11.88362353515625,-0.8070060014724731,0.3111474812030792,-1.5270568132400513
1788862338360630500,11.893630615234375,-0.718031108379364,-0.1510387808084488,-1.4197455644607544
1788862338370636500,11.903636474609375,-0.620151162147522,-0.3823130130767822,-1.4322727918624878
1788862338380643300,11.913643310546876,-0.6089214086532593,-0.3191438913345337,-1.5521427392959595
1788862338390649300,11.9236494140625,-0.6681700944900513,-0.28756946325302124,-1.6850334405899048
1788862338400656400,11.933656494140624,-0.7453745603561401,-0.3732742369174957,-1.795615315437317
1788862338410662400,11.943662353515625,-0.7961834073066711,-0.43164435029029846,-1.8850077390670776
1788862338420669400,11.95366943359375,-0.8083817958831787,-0.36800438165664673,-1.9610497951507568
1788862338430675500,11.963675537109374,-0.8070957064628601,-0.2701859474182129,-2.0019023418426514
1788862338440682500,11.9736826171875,-0.8131957054138184,-0.1940123438835144,-1.9702461957931519
1788862338450688300,11.983688232421875,-0.8043489456176758,-0.2173381745815277,-1.8517183065414429
1788862338460695600,11.993695556640626,-0.7555353045463562,-0.40257886052131653,-1.7077168226242065
1788862338470701600,12.00370166015625,-0.6113885641098022,-0.7149463891983032,-1.64243745803833
1788862338480708400,12.013708251953124,-0.41626670956611633,-0.9535195231437683,-1.703193187713623
1788862338490714400,12.02371435546875,-0.32323798537254333,-0.9950352907180786,-1.8029214143753052
1788862338500720400,12.033720458984375,-0.4161394238471985,-0.9369131326675415,-1.7906285524368286
1788862338510727400,12.0437275390625,-0.6273882985115051,-0.9345871210098267,-1.6395418643951416
1788862338520733400,12.0537333984375,-0.7609492540359497,-1.0822460651397705,-1.5043331384658813
1788862338530740500,12.063740478515625,-0.7027336359024048,-1.259417176246643,-1.5022600889205933
1788862338540746500,12.07374658203125,-0.6123651266098022,-1.258309245109558,-1.4554156064987183
1788862338550753300,12.083753173828125,-0.7113828063011169,-1.1190088987350464,-1.3365691900253296
1788862338560759300,12.09375927734375,-0.8643033504486084,-1.0808141231536865,-1.1888302564620972
1788862338570766300,12.103766357421875,-0.8229748010635376,-0.9803863167762756,-1.1590229272842407
1788862338580772400,12.1137724609375,-0.7629290819168091,-0.7656353712081909,-1.2020180225372314
1788862338590779400,12.123779296875,-0.8032343983650208,-0.7365661859512329,-1.04282808303833
1788862338600785400,12.133785400390625,-0.656467854976654,-1.0079920291900635,-0.7254427075386047
1788862338610792400,12.14379248046875,-0.3963468074798584,-1.3163267374038696,-0.5394741296768188
1788862338620798500,12.153798583984376,-0.2998889684677124,-1.42951238155365,-0.41203442215919495
1788862338630805500,12.163805419921875,-0.2556602656841278,-1.7322936058044434,-0.4317047894001007
1788862338640811500,12.1738115234375,-0.27315643429756165,-2.090599775314331,-0.6955987811088562
1788862338650818300,12.183818359375,-0.38944149017333984,-2.191603422164917,-1.0821150541305542
1788862338660824300,12.19382421875,-0.5980887413024902,-1.8161005973815918,-1.3886744976043701
1788862338670831400,12.203831298828124,-0.8050352334976196,-1.360678791999817,-1.5355947017669678
1788862338680837400,12.21383740234375,-0.8758588433265686,-1.3816293478012085,-1.5174460411071777
1788862338690844400,12.223844482421875,-0.8014458417892456,-1.4999200105667114,-1.276605486869812
1788862338700850400,12.233850341796876,-0.6388987302780151,-1.1994837522506714,-0.9563685655593872
1788862338710857500,12.243857421875,-0.4938243627548218,-0.7700692415237427,-0.8029718399047852
1788862338720863200,12.25386328125,-0.3553820550441742,-0.5079146027565002,-0.7424421906471252
1788862338730870500,12.26387060546875,-0.2532186806201935,-0.5540363192558289,-0.6093813180923462
1788862338740876500,12.27387646484375,-0.25701314210891724,-0.6933526396751404,-0.5226898193359375
1788862338750883300,12.28388330078125,-0.3373623192310333,-0.6347732543945312,-0.5461815595626831
1788862338760889300,12.293889404296875,-0.3745560348033905,-0.6294897794723511,-0.5216613411903381
1788862338770896400,12.303896484375,-0.2938971221446991,-0.6576827764511108,-0.449420690536499
1788862338780902400,12.31390234375,-0.09943711012601852,-0.0788535326719284,-0.5024588704109192
1788862338790909400,12.323909423828125,0.16216494143009186,0.6306005716323853,-0.6416503190994263
1788862338800915500,12.33391552734375,0.36369964480400085,1.2074934244155884,-0.7236253619194031
1788862338810922500,12.343922607421876,0.46308669447898865,1.7315561771392822,-0.6796525716781616
1788862338820928300,12.35392822265625,0.4584682285785675,2.2305049896240234,-0.5607764720916748
1788862338830934500,12.3639345703125,0.3918748199939728,2.2174086570739746,-0.36378487944602966
1788862338840941300,12.37394140625,0.2762494385242462,1.3662117719650269,-0.1100282296538353
1788862338850947300,12.383947265625,0.24303369224071503,0.8513835668563843,0.20691482722759247
1788862338860954600,12.39395458984375,0.22378462553024292,1.0088320970535278,0.4406551420688629
1788862338870960400,12.40396044921875,0.10536344349384308,1.4121651649475098,0.7687251567840576
1788862338880967400,12.413967529296874,0.05022775009274483,1.6504697799682617,1.0197174549102783
1788862338890973400,12.423973388671875,0.17965763807296753,1.441062331199646,1.043858528137207
1788862338900980500,12.43398046875,0.39563387632369995,0.9416484832763672,1.1960989236831665
1788862338910986500,12.443986572265626,0.5688834190368652,0.7547169327735901,1.6372621059417725
1788862338920993300,12.4539931640625,0.6712292432785034,0.5955858826637268,2.023958921432495
1788862338930999600,12.46399951171875,0.7438933253288269,0.3687375485897064,2.1139330863952637
1788862338941006300,12.47400634765625,0.8243314623832703,0.3742835819721222,2.057518720626831
1788862338951012400,12.484012451171875,0.9228824973106384,0.6085368394851685,1.9998714923858643
1788862338961019400,12.494019287109374,0.9599747657775879,0.6693440079689026,1.963882327079773
1788862338971025400,12.504025390625,0.9413595199584961,0.4619322121143341,2.0397629737854004
