time,seconds_elapsed,z,y,x
1788862654599792600,0.048792724609375,-0.8190998763680457,-0.1818500205785036,-0.27625980424359436
1788862654609798700,0.058798583984375,-0.47828737432360646,-0.33987244471535083,-0.26985812050774693
1788862654619804700,0.0688046875,-0.09142623780965804,-0.6164407303862274,0.08636281694024801
1788862654629810700,0.078810791015625,0.4016425260603428,-0.5779200072035193,0.40613998361006376
1788862654639817700,0.088817626953125,0.42441725244820117,-0.5631783651456237,0.5465906568296254
1788862654649823700,0.09882373046875,1.014516650006175,-0.3095100396774709,0.6896003668822348
1788862654659829500,0.10882958984375,0.09172025232017039,-0.00767448015064001,1.5399578435622154
1788862654669835800,0.118835693359375,-0.12027473115324973,-0.41823052663728594,1.7276400774255394
1788862654679842800,0.1288427734375,0.759611330088973,-0.6836296219095588,0.7973398799806832
1788862654689848600,0.1388486328125,0.8125526466816664,-0.6756865539506077,0.9883525734409689
1788862654699854600,0.1488544921875,1.5204951643317937,-0.6225692962691187,0.4286591278016567
1788862654709860900,0.15886083984375,1.2192062789022922,-0.4960182613253593,0.07641279307305812
1788862654719867600,0.16886767578125,0.5760737948149443,-0.9083885176271199,0.14069763371795416
1788862654729873700,0.178873779296875,-0.014011574217677115,-1.3388424198910593,0.225984638120234
1788862654739879700,0.188879638671875,0.00469429529607296,-1.3992489577978848,0.23116817823797464
1788862654749885700,0.1988857421875,-0.2295943530499935,-1.3963792475804686,-0.05611059427857399
1788862654759891700,0.2088916015625,-0.5937888997256755,-0.9227499281957745,-0.30555969461649657
1788862654769898800,0.218898681640625,-0.917349822717905,-0.9652642510592937,-0.2582087453767657
1788862654779904500,0.228904541015625,-1.5414952822625636,-0.9802084299519658,-0.14680734876990317
1788862654789910800,0.238910888671875,-1.611725002786517,-0.9837991479203104,-0.4086325310781598
1788862654799916800,0.248916748046875,-2.016246883675456,-0.8794073378145694,-0.24716172005310652
1788862654809923600,0.258923583984375,-3.1235499539285896,-1.078202940236032,-0.16460034122243522
1788862654819929600,0.2689296875,-3.273624195539951,-1.0738707562506198,-0.6514278726153075
1788862654829935900,0.278935791015625,-1.6879063251912594,-0.5428425563424826,-2.025004482887685
1788862654839941600,0.288941650390625,-1.7223042693555355,-0.4737051610998809,-2.1293980465590954
1788862654849949200,0.29894921875,-0.6797966196179389,0.17628478766679762,-2.6457211370274423
1788862654859955200,0.308955078125,-1.342960668864846,0.03291647343486547,-1.7765512617193162
1788862654869961200,0.318961181640625,-1.424860953438282,-0.6430206942759454,-0.3492037521623075
1788862654879967200,0.32896728515625,-0.5737403834313154,-0.35988545130491256,-0.5709725992184131
1788862654889974000,0.33897412109375,0.5268786790132522,-0.48343277438804505,-1.176982390352711
1788862654899980000,0.34897998046875,0.5061544554144144,-0.4296205201797187,-1.2526068825922905
1788862654909986300,0.358986328125,1.4065718480318783,-1.419175162886828,-0.6981256917085498
1788862654919992300,0.368992431640625,1.2970786231338978,-1.0723523145116864,-0.7798858371589332
1788862654929999000,0.3789990234375,1.3526198930919169,-0.8395042203627526,-0.6818204535957425
1788862654940005000,0.389005126953125,1.3442618145912886,-0.829464180124551,-0.7709726089935749
1788862654950011100,0.39901123046875,0.591540828537941,-0.7076723224066197,-0.7368326581783592
1788862654960017200,0.40901708984375,-1.1410317368537186,0.8693431860484182,-1.529785847507417
1788862654970024200,0.419024169921875,-0.766439130282402,0.9826431097529827,-0.7896700760051608
1788862654980030000,0.429030029296875,0.09224339941143989,0.2715286840684712,0.10455492824558169
1788862654990036200,0.4390361328125,0.08473872286975383,0.29216946716755626,0.024434257097914813
1788862655000043300,0.449043212890625,0.4195078530967235,-0.26088161784783004,0.5440256286472082
1788862655010049000,0.459049072265625,0.39994273640513417,-0.23715251334458587,0.30948965447656807
1788862655020055000,0.469054931640625,1.1518664346009493,-0.547508940718323,0.5299584517847746
1788862655030061300,0.479061279296875,2.163140741685033,-0.8995159137330949,0.7532812502846121
1788862655040068000,0.489068115234375,2.1693372582376003,-0.931585268819332,0.7084956214882433
1788862655050074000,0.49907421875,2.8393063113242385,-0.6819447375625372,0.7192736936774105
1788862655060080000,0.509080078125,2.7682266959726807,-0.7705847056545316,0.2825686220642179
1788862655070086100,0.519086181640625,0.16374913122057913,-1.922081722421199,0.3695605672208592
1788862655080093200,0.52909326171875,-1.9205232409328221,-2.863574491140246,0.8571193720303475
1788862655090099200,0.53909912109375,-1.8604034110128878,-3.0320415907934306,0.6483830980919301
1788862655100105000,0.54910498046875,-5.155440981459617,-3.9960830220595,1.2246109144248067
1788862655110111200,0.559111328125,-4.626534596011043,-1.7972826457113027,0.11159838048368692
1788862655120118000,0.569117919921875,-4.014293509271741,-1.3649626573145388,-0.2811605088319629
1788862655130124000,0.5791240234375,-3.910837226450443,-1.414761584228277,-0.5631690127953887
1788862655140130000,0.589130126953125,-3.8907670828461645,-1.3955200004026294,-0.7397513221040367
1788862655150136300,0.59913623046875,-3.9753129134923215,-1.6312153006762264,-0.7810435558266937
1788862655160143000,0.60914306640625,-3.3277439082622524,-2.2486361281409857,-0.3650574471153319
1788862655170149000,0.619149169921875,-2.1013737290799614,-2.3460332570537923,-0.9497881572470068
1788862655180155100,0.629155029296875,-2.1013030019313095,-2.2465409094274045,-1.0837196578308939
1788862655190161200,0.6391611328125,-0.9378624493926763,-1.6882912328556179,-1.9529284038446844
1788862655200168200,0.649168212890625,-1.5705039346039293,-1.531567177966237,-1.9060769285596906
1788862655210174200,0.65917431640625,-2.0354080957412717,-1.1491957540869713,-1.8362006976485252
1788862655220180200,0.66918017578125,-1.6985241653174161,-0.441556895558536,-1.6459613266482949
1788862655230186200,0.679186279296875,-0.9104168085843324,0.470558679767698,-1.2175725402206181
1788862655240193000,0.689193115234375,-0.18670447487235067,1.1186484940014778,-0.5144628495544195
1788862655250199000,0.699198974609375,-0.4118897793084383,0.8692454247623681,0.4255240446463227
1788862655260205300,0.709205322265625,-1.377284378749132,0.13739099338799715,0.7366898887068033
1788862655270211300,0.71921142578125,-1.7577186970859764,-0.7299925830252468,0.08604337572753429
1788862655280218000,0.729218017578125,-1.7176596584200858,-1.9802425272278485,-1.404360601723194
1788862655290224000,0.73922412109375,-1.7954565993279217,-3.3238813876152036,-3.150858816614747
1788862655300230100,0.749230224609375,-1.7421552172511816,-4.637822882744669,-3.628225568962097
1788862655310236200,0.759236083984375,-2.213710068449378,-5.6719291993618,-1.1752046400904654
1788862655320243200,0.7692431640625,-3.12438874284029,-6.655297846910357,1.545811976417899
1788862655330249000,0.7792490234375,-2.329500932186842,-6.39825668400824,0.9736638306140899
1788862655340255200,0.789255126953125,-2.7250971638202666,-7.548935370129346,2.772691274166107
1788862655350262300,0.79926220703125,-2.4504560468196868,-6.600302520397305,2.106311770004034
1788862655360268000,0.80926806640625,-1.083510691255331,-5.503255471220612,1.7738339655846356
1788862655370274000,0.819274169921875,-0.343208603400737,-4.887406715378165,3.1398253814250228
1788862655380280300,0.8292802734375,0.4286053517878055,-4.403339004087448,3.078970222967863
1788862655390287000,0.839287109375,-2.2737866437494754,-4.291334965412318,7.015568498140573
1788862655400293000,0.849293212890625,-3.570079669463634,-3.5130350092053413,9.313553179079294
1788862655410299100,0.859299072265625,-2.5996996828258037,-2.3979119128510353,11.990263620871305
1788862655420305200,0.86930517578125,-0.6247615456163883,-1.4041066269621252,13.197599429237842
1788862655430312200,0.879312255859375,0.8497007663369178,-0.6165826230749487,13.568095121884346
1788862655440318200,0.889318115234375,0.48908816980123515,-0.5022191617920995,13.54302147090435
1788862655450324000,0.899323974609375,-0.9181161309152841,-1.0010808298498393,13.519238444256782
1788862655460330200,0.909330322265625,-1.0746978547245263,-0.8568634975731372,13.58339556686878
1788862655470337300,0.919337158203125,-8.929372075429558,5.829250927883386,10.933785897970198
1788862655480343000,0.929343017578125,-9.032370677611231,5.907530099350214,10.973746152436732
1788862655490349000,0.93934912109375,-7.570248207271098,4.072209399406612,9.458501163718104
1788862655500356000,0.949356201171875,2.246293072146177,-3.4246541304409504,7.9779083861857645
1788862655510362000,0.959362060546875,7.014243387016654,-3.234131266324222,6.474725006660819
1788862655520368000,0.9693681640625,0.027007176325842736,6.414615698134899,-2.137013197737932
1788862655530374100,0.9793740234375,-0.13966434514746068,6.39482554051578,-2.124313290640712
1788862655540381200,0.989381103515625,-0.23185294563174247,6.384593484836817,-2.1155577372550964
1788862655550387200,0.99938720703125,-0.24001871643066405,6.380580157542228,-2.116224092209339
1788862655560393200,1.009393310546875,1.0961544842511415,3.360960533687472,-3.0850860754996536
1788862655570399000,1.01939892578125,2.2617114444218576,3.2858073852866885,-4.157714722734689
1788862655580406300,1.02940625,2.3338135346889493,3.2577538417130705,-4.1812843988925215
1788862655590412000,1.039412109375,-0.5062415491759776,1.612972664760053,-0.6785217773765325
1788862655600418000,1.04941796875,-2.3495735600091514,0.46576428509801626,0.686202979528904
1788862655610424000,1.059424072265625,14.865918425905704,-3.2802219863697886,-1.7241548656582832
1788862655620431000,1.06943115234375,20.647120485413073,-5.942981351959705,2.4484628271758555
1788862655630437000,1.07943701171875,20.397508595728873,-6.080099665886164,2.423907647112012
1788862655640443100,1.089443115234375,-1.6977369604624808,4.197629676754772,-8.087118117967247
1788862655650450200,1.0994501953125,-5.273745873844623,7.57113960315287,-8.242254319143294
1788862655660456200,1.109456298828125,-10.832146893703937,8.1281258356601,-8.090431772559882
1788862655670462200,1.119462158203125,-10.771058511012791,8.1013974032104,-8.114713980901241
1788862655680468000,1.129468017578125,-14.05384567169547,7.482336699584126,-7.347124511539936
1788862655690475300,1.139475341796875,-4.566007938855886,1.0750129120230674,-1.0479156462609767
1788862655700481300,1.149481201171875,0.09966229736581445,-3.078777915266156,1.7864958787590264
1788862655710487000,1.159487060546875,1.3431659821785986,-2.0982202334851023,2.2092753008723256
1788862655720493000,1.1694931640625,0.4830046121038496,0.04478694397062063,2.426564883622527
1788862655730500000,1.1795,-0.6624421647131442,0.7995271608918905,3.1496874347478148
1788862655740506000,1.189506103515625,-0.5904285564471036,0.7816603725507855,3.1352853999078274
1788862655750512000,1.19951220703125,-0.8248569785900414,1.537617271785438,2.5969302181124685
1788862655760519200,1.209519287109375,1.1239806488096713,2.5020757594197987,-0.6076543434709311
1788862655770525200,1.219525146484375,-0.27812552505023774,1.8532912409201263,-0.4965542678982019
1788862655780531200,1.22953125,-0.6336690746933221,1.3194491526350378,-0.8918599921524524
1788862655790537200,1.239537109375,-0.632412352630496,1.2908522959649562,-0.9019248745709657
1788862655800544300,1.249544189453125,-2.3182073847562075,2.500949093477428,-3.503878473803401
1788862655810550300,1.25955029296875,-4.92035212264657,3.2755972491785883,-4.812619477680325
1788862655820556300,1.269556396484375,-3.894104702836275,2.6341189620390533,-1.2492822682142257
1788862655830562000,1.27956201171875,-2.364022210469842,1.7378072511747478,0.04212999972105026
1788862655840569300,1.2895693359375,-2.380729745773226,1.6724264319866895,0.022864742758870123
1788862655850575000,1.2995751953125,-1.0764204407334328,1.0958163383379578,1.3764426672279835
1788862655860581000,1.3095810546875,2.7911411230921743,0.4481318900346756,3.4230811820358036
1788862655870588200,1.319588134765625,2.94228971593678,0.44301498541235923,3.4082945317924023
1788862655880594200,1.32959423828125,3.7653707708954807,1.6350518100991844,5.328147326117754
1788862655890600200,1.33960009765625,4.010772933930158,1.665047427651286,5.3269110623210665
1788862655900606200,1.349606201171875,4.639346146789193,1.7141899364829063,5.125020124232769
1788862655910613000,1.359613037109375,1.6681167520940303,-0.054091071149706835,1.052439261165261
1788862655920619300,1.369619384765625,0.5831144340414554,-0.8424535716876387,0.4659428565353155
1788862655930625300,1.379625244140625,1.337557933038473,1.4640806186705826,1.117787639388442
1788862655940632000,1.389632080078125,1.5531050560355186,1.4799690926760434,1.1398492490708827
1788862655950638000,1.39963818359375,-2.2288567841768265,4.849797115691006,-3.138108056113124
1788862655960644400,1.409644287109375,0.9946468512795865,3.0178140357375143,-2.7145594031929967
1788862655970650000,1.419650146484375,0.553970099556446,0.6253598037704825,-3.0313562388777733
1788862655980657200,1.4296572265625,0.12636325728669762,0.33825375747233627,-4.1969653676271435
1788862655990663200,1.4396630859375,0.23719430665969848,0.3157823979452252,-4.188357698279619
1788862656000669200,1.449669189453125,-0.6142426358200609,1.0297224024444818,-4.545256827250123
1788862656010676200,1.45967626953125,-1.1477519850194453,-0.5059545489281415,-3.191975255379081
1788862656020682000,1.469681884765625,-0.014898732315748928,-3.128480103807151,-4.268746409246325
1788862656030688000,1.47968798828125,-0.16385186094269155,-2.915323675338924,-4.5470857962429525
1788862656040694300,1.4896943359375,-0.1126993274629116,-2.847038074620068,-4.51292166083455
1788862656050701000,1.499701171875,0.8657597746036946,-3.520306753773987,-5.176985873791575
1788862656060707000,1.50970703125,1.4576687058016657,-5.808713166767358,-4.41215710131526
1788862656070713000,1.519713134765625,1.624123588849604,-5.682253024977445,-4.32310285333395
1788862656080720100,1.52972021484375,-6.343643050289153,-5.246165793001651,0.9308493557602167
1788862656090726100,1.53972607421875,-6.255161633759736,-5.192722372105718,0.9770838681906461
1788862656100732200,1.549732177734375,-3.535984215377271,-3.406025125555694,0.6355985814511775
1788862656110738000,1.559738037109375,-1.2073679570704698,-3.8205864621609447,1.6419056215167045
1788862656120745200,1.5697451171875,0.1636003703996539,-5.686880100256205,2.81748318657279
1788862656130751200,1.579751220703125,0.7327145553350448,-6.796794229790568,6.695209001538157
1788862656140757000,1.589757080078125,0.748024060408771,-6.604078531804681,6.802734725755453
1788862656150764300,1.599764404296875,2.61029940277338,-5.859908516475558,5.292887796688079
1788862656160770300,1.609770263671875,2.385577624195814,-4.157818183109164,1.043959602111578
1788862656170776000,1.619776123046875,-3.0354291874051094,-1.209943360516429,-4.626683649092913
1788862656180782000,1.629781982421875,-2.8764059156626463,-0.8545768479406833,-13.098190960502624
1788862656190789000,1.6397890625,-2.9880647941619154,-0.5496446375727653,-12.911229295998812
1788862656200795100,1.649795166015625,6.243289994180202,0.9648661916524172,-8.752047423321008
1788862656210801200,1.65980126953125,4.216275632774829,0.39120413415431976,-1.7188392235934733
1788862656220808200,1.66980810546875,2.5907047677263617,2.9022213249206543,0.15182488467097283
1788862656230814200,1.679814208984375,0.9469912200048566,5.246306078255176,-1.1383633944272995
1788862656240820200,1.6898203125,0.998774014212191,5.43203381704986,-0.9277028744280338
1788862656250827000,1.699826904296875,-0.6772118638217449,6.402549412766098,3.7568501953095197
1788862656260833300,1.709833251953125,0.382216233317554,7.523587578383087,10.73743681191802
1788862656270839300,1.71983935546875,-1.1988695933163165,7.419252759161591,9.555881341496109
1788862656280845000,1.729844970703125,-3.489937334473431,4.863297525516152,5.754450246182084
1788862656290852000,1.73985205078125,-3.3937057422086596,4.837890112537146,5.775082115322351
1788862656300858400,1.7498583984375,-3.6319077646061775,1.7616519448816774,3.86679174849689
1788862656310864100,1.759864013671875,-2.4287144628718496,-2.957588407355547,4.483986658251285
1788862656320871200,1.76987109375,-2.6646505861639973,-1.4475211135357617,5.156031348568201
1788862656330877200,1.779877197265625,-3.217245305714011,-0.44239480768740175,4.668275888675451
1788862656340883200,1.78988330078125,-3.3197821356028316,-0.33975159481465816,4.745398291322589
1788862656350889200,1.79988916015625,-2.1464941427886486,-0.5688403364300727,3.4134640433847903
1788862656360896000,1.80989599609375,0.7754939588755368,-1.118869589406252,0.5478811350315809
1788862656370902000,1.819902099609375,1.7602417858228085,2.2439538155436516,0.2191021851301193
1788862656380908300,1.829908203125,1.0577706853210926,3.423235495814681,-1.2303086876749991
1788862656390915000,1.8399150390625,1.1726444342136382,3.553323180451989,-0.964323755338788
1788862656400921000,1.849921142578125,0.48873161144852634,1.2763245889186858,-0.801587016031146
1788862656410927000,1.859927001953125,0.46623920913338657,2.6406904493838548,-1.259798401531577
1788862656420934100,1.86993408203125,-1.0905369366303086,0.9445943879961967,-1.1767463165745138
1788862656430940200,1.879940185546875,-0.30176380946487186,-0.36355332616269587,0.5807593222826719
1788862656440946200,1.8899462890625,-0.2692529942214489,-0.3319453049778938,0.6819871153995394
1788862656450952000,1.899951904296875,-0.3715957628428936,-2.3752198963105675,0.1500526143014431
1788862656460959200,1.909959228515625,3.022659722203016,-2.9117472781568763,-7.579485991215705
1788862656470965200,1.91996533203125,2.018182527913153,-5.0765200049579144,-9.849460383200645
1788862656480971000,1.929970947265625,1.3243103289306164,-7.919271488299965,-8.158035820755362
1788862656490978300,1.939978271484375,1.2616095426067708,-7.841617755255102,-8.030420079189538
1788862656500984000,1.949984130859375,0.07209346856921911,-8.547239721003175,-4.61751250064373
1788862656510990000,1.959989990234375,-1.2058324180662632,-4.396962454792857,2.014046158760786
1788862656520996000,1.96999609375,1.2892270328506827,-0.371011240953207,3.2616984876856208
1788862656531003100,1.980003173828125,1.273985624577105,-0.38207039510607715,3.220143072982132
1788862656541009200,1.990009033203125,2.9651404301702975,2.897569699722528,0.8072256064400076
1788862656551015200,2.00001513671875,3.007128683333099,4.872487378665805,-1.3062591239333152
1788862656561022000,2.01002197265625,4.725800733666122,4.098783225816488,-3.545756836850941
1788862656571028200,2.0200283203125,1.826146628884971,2.8119331512302157,-3.196021608160436
1788862656581034200,2.0300341796875,1.9436115633144972,2.729835882779956,-3.285046922308206
1788862656591041000,2.040041015625,-0.6629062750935554,0.6594423983752727,-2.5941905640155074
1788862656601047000,2.050047119140625,0.021579086862504482,-0.9555354687273502,-3.113748690882325
1788862656611053300,2.06005322265625,-0.10985036777257919,-1.92024734660089,-1.0290051940858365
1788862656621059000,2.07005908203125,-0.35709377475976944,-2.344196981537342,0.446208228495717
1788862656631066000,2.080066162109375,-0.7185448679462075,-1.393534671804309,1.1604548147261142
1788862656641072400,2.090072265625,-0.7850757339522242,-1.378733408513665,1.1318076891735196
1788862656651078100,2.100078125,-0.4665206564232707,0.032408816173672673,1.0805325522273779
1788862656661085200,2.110085205078125,-1.8205112533465027,2.068728181540966,2.3678461526721715
1788862656671091200,2.12009130859375,-3.123878162969649,2.3314134878098964,2.386700490745902
1788862656681097200,2.13009716796875,-3.738046710640192,1.0235568655520677,3.41705505361408
1788862656691103200,2.140103271484375,-3.6189953838020563,0.8851976116538047,3.2641435427501797
1788862656701110000,2.150110107421875,-4.156806960240006,-0.5835153429925442,3.602005962817371
1788862656711116000,2.160115966796875,-4.995866505575179,-0.7325128952831029,-1.3063669682219623
1788862656721122300,2.170122314453125,-3.3548876435145734,-0.9709200848639011,-1.7020108383893966
1788862656731129000,2.180129150390625,-0.392483068048954,-0.6141273388773203,-0.8473562490373849
1788862656741135000,2.190135009765625,-0.4591033659040928,-0.7002700833261013,-1.0178998627036808
1788862656751141000,2.20014111328125,2.4051442021921274,-1.5654969200968742,-1.9322393976897
1788862656761148200,2.210148193359375,-0.09206950414925813,-1.2691507517665623,-0.6576800648778677
1788862656771154200,2.220154296875,-0.24129209736734628,-1.0641203466087579,3.038268210223317
1788862656781160200,2.23016015625,-1.139244561176002,-0.7041174064040183,5.263007037687301
1788862656791167200,2.240167236328125,-1.1684008052945136,-0.7266290979415178,5.215982836183906
1788862656801173200,2.25017333984375,-1.286339494715631,-0.10798165129125117,1.6764356676280499
1788862656811179300,2.26017919921875,2.0334338730588555,-2.2562609239310025,-2.6779069581001997
1788862656821185000,2.27018505859375,1.7490838474705814,-4.751654429107904,-4.692483862736821
1788862656831192300,2.2801923828125,-2.484387250255048,-1.4484674544751643,-1.3278981242895125
1788862656841198000,2.290197998046875,-2.469666650985181,-1.5163666862249374,-1.395451319080591
1788862656851203600,2.30020361328125,-2.11474875895977,0.8345569732189178,1.942481974762678
1788862656861211000,2.3102109375,-0.6268725464209914,2.924581040766835,2.4348247624456882
1788862656871217000,2.320216796875,-0.7981307380974292,2.0936323211729526,0.829552881321311
1788862656881222700,2.33022265625,-0.9200698953315615,1.0733674829035997,0.6456716471761464
1788862656891230000,2.34022998046875,-0.9288590587258339,1.0258137045681477,0.5923392854392528
1788862656901235700,2.350235595703125,0.3312497239291668,-0.1558650999724865,-0.18739947139918803
1788862656911241700,2.36024169921875,2.3584052473708987,1.5768109257936476,-1.1767407636165619
1788862656921247700,2.370247802734375,0.9917924847617745,1.1619698954641817,-1.7078712548553943
1788862656931254800,2.3802548828125,0.7687243186101317,0.12481062101721763,-1.6644512153238058
1788862656941260800,2.3902607421875,0.8096548794135451,0.1647264518201351,-1.6013988390833138
1788862656951266800,2.400266845703125,0.8196741691246628,-0.6154957046210765,-0.8925906445145606
1788862656961273600,2.410273681640625,-1.671584428204596,-1.668253530216217,1.1507996821522712
1788862656971280000,2.42027978515625,-1.674762181457877,-1.3296230483859777,2.9248341387450694
1788862656981286000,2.430285888671875,-0.5809449079826474,-0.4591097956448793,2.3978707040578127
1788862656991292700,2.440292724609375,-0.5353443095415831,-0.40054070229828354,2.4922177977502344
1788862657001298700,2.450298583984375,1.109695518347621,1.1596727244377136,-0.5289946482539176
1788862657011305000,2.460304931640625,2.490318101608753,0.46141281189024447,-3.285743672400713
1788862657021310700,2.470310791015625,0.9690028530657291,-0.4634808503359556,0.008996376404166222
1788862657031317800,2.48031787109375,1.0669424182921647,-0.4190285451471805,0.1373076990187168
1788862657041323800,2.49032373046875,0.6379127036124468,1.9455635741651056,-0.9132277743518352
1788862657051329800,2.500329833984375,2.1372098893538114,4.730072711896896,-2.8694880990982052
1788862657061336800,2.5103369140625,-0.1391121180921793,1.7979378947496414,-1.8152578628629445
1788862657071342600,2.520342529296875,-0.10424538737237453,1.8288970966368912,-1.7430314155638218
1788862657081348900,2.530348876953125,-0.9412631977468728,0.6321317821234465,0.9092185387104749
1788862657091356000,2.54035595703125,-0.8979302519768476,0.6729349171549082,1.0066068997949362
1788862657101361700,2.550361572265625,1.4995543753728269,7.769012537771463,2.143931014302373
1788862657111367700,2.56036767578125,-0.5132908831655979,14.209914185285568,0.37864480457156896
1788862657121374700,2.570374755859375,-0.4603080655187368,14.282579608523845,0.5489920188829303
1788862657131380700,2.580380615234375,-2.676249838542938,14.643899476546048,-0.9858213013976812
1788862657141386800,2.59038671875,-2.7869366571396585,14.721453840869664,-0.9624711132094264
1788862657151392800,2.600392822265625,-4.2626358174115415,-3.4061393995851277,-0.2134340763658285
1788862657161399800,2.61039990234375,4.350254479631781,-3.881652048498392,-0.4602925756886601
1788862657171405800,2.62040576171875,4.402591400590539,-3.988007559892535,-0.5830898110568523
1788862657181411800,2.630411865234375,3.3697885677874084,-7.940332981029153,0.7794412351965904
1788862657191419000,2.6404189453125,3.3791263049751517,-8.02353382680714,0.6632289311766624
1788862657201425000,2.6504248046875,1.8738064979434013,-10.804641631662845,2.078366362980008
1788862657211431000,2.660430908203125,3.9246111925199627,-6.345073375353217,3.0989129408001896
1788862657221437700,2.670437744140625,3.9813580388754604,-6.338394628241658,3.1560382650792596
1788862657231444000,2.68044384765625,-0.6932914764851331,1.2232874107360838,2.212403077504039
1788862657241449700,2.69044970703125,-0.5977689092725516,1.2722154000341892,2.3733590708747503
1788862657251455700,2.700455810546875,-3.944312210550904,1.8575649727165697,0.2987874240025878
1788862657261462800,2.710462890625,-3.168999745722115,2.5687685379892584,0.6401110904395579
1788862657271468800,2.72046875,-3.1406039645820854,2.618834006884694,0.7515244697451591
1788862657281474800,2.730474853515625,-1.13069738984406,-2.931140545412898,-0.7576482133224606
1788862657291481900,2.74048193359375,-1.149485092422366,-2.8769015902251005,-0.6839774124339223
1788862657301487600,2.750487548828125,0.2672051217809319,-5.287168834519386,-1.4577058229416608
1788862657311494000,2.760493896484375,1.5362141269892453,-2.549864515554905,0.10429507173299789
1788862657321500700,2.770500732421875,1.5604796764567495,-2.5292168643236157,0.17058569924235342
1788862657331506700,2.780506591796875,0.5163800813525915,-3.300126418018341,-0.05941665008664131
1788862657341512700,2.7905126953125,0.5543021079897881,-3.297564458575845,-0.008939385519921779
1788862657351519700,2.800519775390625,-0.31498803269714115,-1.644062507289648,0.5992673311367631
1788862657361525800,2.81052587890625,-0.8240589600801468,0.480768669745326,1.307119247893989
1788862657371531800,2.82053173828125,-0.8182499815404415,0.48109366391599173,1.3152175064146518
1788862657381538800,2.830538818359375,-0.6320984643757342,-3.356809259226918,-2.6885177839636802
1788862657391544800,2.840544921875,-0.6014759470969439,-3.3924522350162265,-2.719072788964212
1788862657401550800,2.85055078125,-1.3583739265739916,-4.744759408897162,-2.2571552424222228
1788862657411556600,2.860556640625,-2.526269704955816,-3.8592619375139474,-0.10866086572706699
1788862657421564000,2.87056396484375,-2.4675527275711295,-3.959395213392377,-0.2164800199329853
1788862657431570000,2.88056982421875,-1.9033295295476913,-2.6225164947897195,2.837544270087778
1788862657441575700,2.89057568359375,-1.8364888669401407,-2.760503408244252,2.6907681932389735
1788862657451582700,2.900582763671875,-0.9554512975752353,-3.165086663931608,1.3073960190087557
1788862657461588700,2.910588623046875,-0.013200257834792136,-3.005130495253205,1.2738500154986976
1788862657471594800,2.9205947265625,0.08566986624002457,-3.2001147226929665,1.1167203024178742
1788862657481601800,2.930601806640625,0.7619348046004771,-4.196372077909111,2.817652697920799
1788862657491607600,2.940607666015625,0.9173194275796412,-4.450847774237394,2.6829046202570197
1788862657501613800,2.95061376953125,0.9655027359902858,-5.011911631447076,2.6302497193902727
1788862657511620900,2.960620849609375,1.5202899971485138,-4.30991603950262,0.501065607842803
1788862657521626600,2.970626708984375,1.6921207280158996,-4.577560429483652,0.4338572809666395
1788862657531633000,2.9806328125,4.865741996058821,-3.438945690643787,-0.5765238766700029
1788862657541639700,2.9906396484375,5.048108149465918,-3.650948857423663,-0.5456576137632131
1788862657551645700,3.000645751953125,2.7868945715636015,-0.13884528384953737,-0.9527443767040967
1788862657561651700,3.010651611328125,2.3784324286162852,2.2086294041842223,-0.2240127535253763
1788862657571658800,3.02065869140625,2.510967506405711,2.073976019066572,-0.1589396851122379
1788862657581664800,3.030664794921875,-1.1426894409328698,7.255489599415659,0.2532224813967943
1788862657591670800,3.0406708984375,-1.0473732099473476,7.164568388518691,0.31453765858113764
1788862657601676800,3.0506767578125,-2.973350624632835,1.764403581677377,0.694276395869255
1788862657611683800,3.060683837890625,-1.5048691406548023,-2.313961125488579,0.276515094178915
1788862657621689900,3.07068994140625,-1.4543155959814786,-2.4145848152324554,0.2742377968966961
1788862657631696000,3.08069580078125,0.7483481777966022,-5.247199227702617,0.573651536104083
1788862657641703000,3.090702880859375,0.822130037844181,-5.374178424930572,0.5927490352839231
1788862657651709000,3.100708984375,0.21119594205021858,-3.8154780331060287,1.4262971237212418
1788862657661714700,3.110714599609375,1.6043723019361495,-2.258887180781364,0.5725584801703691
1788862657671721700,3.1207216796875,1.715855823868513,-2.4205077755406497,0.6455535737544298
1788862657681728000,3.13072802734375,1.8950223044514656,1.7918807866677642,-3.0265786492124196
1788862657691733800,3.140733642578125,1.9930653300523757,1.7058385799840092,-2.9135549121007323
1788862657701740800,3.15074072265625,4.740536822766066,1.9845403705522418,-4.287153003552556
1788862657711746800,3.160746826171875,4.045233421936631,0.37034517825990915,-5.438489861321449
1788862657721752800,3.1707529296875,4.103266508710385,0.29745588313788174,-5.375534515714645
1788862657731759900,3.180759765625,4.103443034321069,-0.8090040142893791,-5.778044472259283
1788862657741765600,3.190765625,4.134223957031965,-0.8801286378264427,-5.760864789399505
1788862657751771600,3.200771728515625,3.9336680669397115,-0.5342480387374758,-5.162144278490543
1788862657761779000,3.210779052734375,2.722707638335228,1.7702241045244036,-5.371724602037668
1788862657771784700,3.22078466796875,2.6946675387650725,1.7347005173310637,-5.4429760668247935
1788862657781790700,3.230790771484375,2.4920406876176595,1.100269518354535,-1.6825445058971642
1788862657791797800,3.2407978515625,2.447086862647533,1.0854280691839755,-1.7698603857785462
1788862657801803800,3.2508037109375,2.0776433094024656,1.1324977172642945,1.786796907532215
1788862657811809800,3.260809814453125,1.1307909133464098,1.012068526201695,1.0866977968588472
1788862657821816600,3.270816650390625,1.0964788938999175,1.0363789377242325,1.0408315332189202
1788862657831822800,3.28082275390625,1.094344219958782,1.3766669775031506,-0.44015258171856403
1788862657841828900,3.290828857421875,1.0537819079458712,1.421835760398209,-0.48435237345099447
1788862657851835600,3.300835693359375,-0.708567956072092,2.566607852824032,-0.4535428091675043
1788862657861843000,3.310843017578125,-0.7783493483066558,2.648334534396231,-0.2373281621724367
1788862657871848700,3.3208486328125,-2.0009990456610915,2.4088921565487977,-0.14567571439146995
1788862657881855700,3.330855712890625,-2.6348873160630464,2.201775300505757,0.7640566190600395
1788862657891861800,3.34086181640625,-2.7089742965370416,2.2878017250984906,0.6988549558311701
1788862657901867800,3.35086767578125,0.06498188299834728,0.29478783297240735,3.4350381618112324
1788862657911873800,3.360873779296875,-0.6873585793048143,-1.2712594144836067,2.445606268700957
1788862657921880800,3.370880859375,-2.0776210975706575,-1.509886384294927,1.3697230035841463
1788862657931886600,3.380886474609375,-1.7197604300916194,-0.9269999868556856,1.653407843261957
1788862657941892900,3.390892822265625,-1.766186665701866,-0.7832710226178169,1.6785715106129646
1788862657951899600,3.400899658203125,1.101129350054264,-0.11604746884703636,-0.7742197011560201
1788862657961905700,3.41090576171875,-0.8289046465456485,0.7487026903226971,-2.686688230448961
1788862657971911700,3.42091162109375,-0.8967606236755847,0.9105746294945478,-2.66296774764359
1788862657981918700,3.430918701171875,1.0832236910074948,1.7616823400199413,-0.33028760089874265
1788862657991924700,3.4409248046875,1.0059165794432163,1.9422271232187747,-0.2919967409491539
1788862658001930800,3.4509306640625,1.768855592650175,2.4901371920838953,-0.5164508085012436
1788862658011937800,3.460937744140625,1.4915765283614397,2.6185405768960712,-0.642166269403696
1788862658021943800,3.47094384765625,1.4285440258651971,2.821984005123377,-0.5356266336143016
1788862658031949800,3.48094970703125,1.1039081671178341,3.3135938023567197,-1.5156521082147956
1788862658041956600,3.49095654296875,1.0265823508530854,3.5192689351588484,-1.4029235546573995
1788862658051963000,3.500962890625,1.3631371954530476,3.2621108678787945,-1.6912994747608898
1788862658061969000,3.510968994140625,0.6272621302604675,2.789944606783986,-2.07295485932529
1788862658071975700,3.5209755859375,0.5315776504844427,2.9786218430340288,-1.9688839517369865
1788862658081982000,3.53098193359375,-0.04574526760876178,0.9809154091775417,-1.9204738488331436
1788862658091988000,3.540988037109375,-0.14461246907413006,1.1455676267176866,-1.8310802858948707
1788862658101994800,3.550994873046875,0.53865094987154,-0.9572861117869615,-1.0083280244991182
1788862658112000800,3.561000732421875,-0.1511246274471283,-0.6052998892992735,-1.9431053673580287
1788862658122006800,3.5710068359375,-0.2934603837609291,-0.4451157570838928,-1.893986239401996
1788862658132013800,3.581013916015625,0.3586497720301151,1.7441449297636746,-2.629156955717504
1788862658142019800,3.591019775390625,0.2009685625463724,1.9010458025246857,-2.582872758926451
1788862658152025600,3.601025634765625,0.19483225174844263,2.0454875912070274,-0.06551730504930019
1788862658162033000,3.611032958984375,-0.029258243188261986,1.5544009410649537,-0.2976546205803752
1788862658172039000,3.621038818359375,-0.18115034787654877,1.6848235567450522,-0.2565513335585594
1788862658182044700,3.631044677734375,-1.1008131237119436,-0.4368710758298635,-0.6335360959634184
1788862658192052000,3.641052001953125,-1.2659352968513964,-0.31885318369269366,-0.6130784143462776
1788862658202057700,3.6510576171875,-2.3127269075185057,-1.3993939192265272,1.4780895625397563
1788862658212063700,3.661063720703125,-2.808932215848565,-1.7519056268930435,2.265050087325275
1788862658222070800,3.67107080078125,-2.975499034838378,-1.6581401324808596,2.2642823178231715
1788862658232076800,3.681076904296875,-3.0844542073369023,-2.254553535491228,3.231358294479549
1788862658242082800,3.691082763671875,-3.8656267963707447,-2.858846878096461,4.226972091095149
1788862658252089900,3.70108984375,-3.851233529359102,-3.6907746718555687,5.425381957945227
1788862658262095600,3.711095703125,-4.100796319204568,-4.879440266543626,6.022915889418125
1788862658272102000,3.721101806640625,-4.702788983651995,-5.712707784473896,5.000958860278129
1788862658282108700,3.731108642578125,-4.561989643125235,-5.422787849798798,3.1321698982357975
1788862658292114700,3.74111474609375,-3.7113048341870307,-4.463233793079853,1.4687038945570587
1788862658302120700,3.75112060546875,-2.3309371024698016,-3.4053614009499547,1.243088089749217
1788862658312127700,3.761127685546875,-1.0250453505441546,-2.39487269128561,1.9067770396530628
1788862658322133800,3.7711337890625,-0.3517261102467775,-1.7964269056648015,2.326085863046348
1788862658332139800,3.781139892578125,-0.12992723337858914,-1.8668962801635265,2.784426135623455
1788862658342146800,3.791146728515625,-0.45089375596344466,-2.5065187103033066,2.9607945099204778
1788862658352152800,3.80115283203125,-1.3483698344320059,-2.868095183435082,2.134025414098799
1788862658362158800,3.811158935546875,-1.7289546671554445,-3.2316800737798212,1.4138465152099728
1788862658372165600,3.82116552734375,-1.5827777252435684,-3.266904531896114,0.8641460557967424
1788862658382172000,3.831171875,-1.303767891639471,-2.7473990119993683,0.06601327187269926
1788862658392178000,3.841177978515625,-1.242388417047262,-1.9282441905736922,-0.61501376632303
1788862658402184700,3.851184814453125,-1.4539748197197913,-0.8728431569933891,-0.9675719434797764
1788862658412190700,3.861190673828125,-1.1696133959546684,0.0885129807114601,-0.5649117648094892
1788862658422197000,3.871197021484375,-0.13193360476493834,0.3587725216269493,0.35669980700612064
1788862658432203800,3.881203857421875,1.5628180562764404,-0.02437982349693775,0.5326674915477633
1788862658442209800,3.891209716796875,2.8675200138956307,-0.010740005201101303,-0.970373849157989
1788862658452215600,3.901215576171875,4.2989755432933565,0.5709451997548342,-2.53325649510324
1788862658462222800,3.911222900390625,5.745139981523156,1.3793068244874476,-2.607886788673699
1788862658472228900,3.921228759765625,5.698409210008382,2.0701877326995133,-1.6999813783884048
1788862658482234600,3.931234619140625,3.8603433030098673,2.6070816097706553,-0.2585679340779781
1788862658492242000,3.941241943359375,1.2968126656740904,3.089320936590433,0.9506512038171291
1788862658502248000,3.951248046875,-0.704233726260066,3.347960182338953,2.00459180945605
1788862658512253700,3.961253662109375,-1.7967554069668052,2.8041064031273124,3.2984631609812376
1788862658522260700,3.9712607421875,-2.1274504196226593,1.602832671278715,4.180475420597196
1788862658532266800,3.981266845703125,-2.2050386862158775,0.6349895096421241,3.4832296535283325
1788862658542272800,3.991272705078125,-1.4159955099374055,0.03774667007029056,2.4165052619010208
1788862658552279800,4.00127978515625,-0.8780816421687603,-0.39348727665543554,2.0843591736540197
1788862658562285800,4.011285888671875,-0.5502040250211954,-0.8306067742884159,1.7742536523014305
1788862658572291800,4.021291748046875,-0.11200316189229488,-0.6754238113611937,1.2165320912569761
1788862658582299000,4.031298828125,0.35269232493042946,-0.05455108987689018,1.017940779235959
1788862658592304600,4.0413046875,0.678213149818778,0.05886661498844623,1.6012275741696356
1788862658602311000,4.051310791015625,0.0799257696300745,0.008248188385367393,1.9456459917515516
1788862658612317700,4.061317626953125,-0.3754904321938753,0.43143151512444017,1.7090815074279904
1788862658622323700,4.07132373046875,-0.018670213678479194,0.7027659917950629,1.8837410319805143
1788862658632331000,4.0813310546875,-0.27831483707726,0.8264420558243989,1.562867740637064
1788862658642336800,4.091336669921875,-0.589105125823617,1.1380857465296983,0.2853933971613645
1788862658652342800,4.1013427734375,0.8983692279160023,1.2776742499619722,-0.05330196659862995
1788862658662349800,4.111349853515625,2.0250655654251575,1.0299538731127977,0.5885089134961367
1788862658672355800,4.12135595703125,1.8469442099809645,0.41240825022459027,0.883679023784399
1788862658682361900,4.13136181640625,1.149444175890088,-0.10438976427912712,0.8054553818970919
1788862658692368600,4.14136865234375,0.18874971696436404,-0.44263855331540103,0.7961556386321783
1788862658702374700,4.151374755859375,0.03526186751723289,-0.27667817578613757,1.2865572291195393
1788862658712381000,4.161380859375,0.0008873042285442352,-0.21430238363295792,1.4249392793715
1788862658722387700,4.1713876953125,-0.11417699880003929,-0.45948213608860966,0.720854606193304
1788862658732393700,4.181393798828125,-0.04663958609998226,-0.35595337255299087,-0.26475188340991734
1788862658742399700,4.191399658203125,0.5628630155861377,0.08960077594816684,-0.4277759152263403
1788862658752406800,4.20140673828125,1.678027905255556,0.21092238580584524,0.49008799449354407
1788862658762412800,4.211412841796875,1.1152093133330345,-0.17036621127277612,1.0521157282993197
1788862658772418800,4.221418701171875,0.08105097426772118,-0.6019000177279115,0.2893611317485571
1788862658782425900,4.23142578125,0.7669447417169809,-0.9266676861613988,-1.2190268306821583
1788862658792431900,4.241431884765625,1.071459018933773,-0.5908794420197606,-2.3020503229424354
1788862658802438000,4.25143798828125,0.15739479375779628,-0.11762626247107982,-1.7401579059541223
1788862658812444700,4.261444580078125,-1.2006576457768678,0.2356067452073097,-0.11511983260810374
1788862658822451000,4.271450927734375,-2.251228190460801,0.3758177644520998,0.4622872566372156
1788862658832456700,4.281456787109375,-0.7928758863091468,0.5325868275269866,0.13690408665388823
1788862658842463700,4.291463623046875,0.7173498129427432,0.47627077380418775,0.3947217868864536
1788862658852469200,4.30146923828125,1.7457167091250418,-0.2025096545085311,1.2634867346554994
1788862658862475300,4.311475341796875,2.1386346614599225,-1.2980083051994442,1.1350550005316733
1788862658872482000,4.32148193359375,1.6502052478283642,-2.4416855881258845,-0.6759598179340363
1788862658882488300,4.33148828125,1.7323861029088496,-2.6148253557652232,-2.426520459958911
1788862658892495000,4.3414951171875,2.532224813967943,-1.9920456316158175,-3.2685119670927523
1788862658902501000,4.351501220703125,2.245209368562698,-0.8577551857158541,-3.6426851792082187
1788862658912507100,4.361507080078125,1.948267572426796,-0.19996143133044242,-3.3222444340631365
1788862658922514200,4.37151416015625,1.884735888236761,0.4485986307635903,-3.671564067690074
1788862658932520200,4.381520263671875,2.3695137936234474,1.1782336325228213,-4.185659545236826
1788862658942526200,4.391526123046875,2.528385089674592,0.9637032853528856,-3.810632054379582
1788862658952533200,4.401533203125,1.9858792179405689,0.6469695780321956,-3.32049349874258
1788862658962539300,4.411539306640625,2.0652485227316615,0.1851581222131848,-2.308415474060178
1788862658972545000,4.421544921875,1.9190508302927016,0.5187257676959037,-2.6724627212196586
1788862658982552000,4.431552001953125,2.3257623301804062,0.8717027547866105,-3.2878105418026444
1788862658992558300,4.441558349609375,1.798455196622014,0.7249833765611052,-3.058935735198855
1788862659002564000,4.451564208984375,1.4174047922134398,0.27744740659296513,-2.496376086473465
1788862659012571100,4.461571044921875,1.8833990866750479,0.0974754548460245,-2.874307482078671
1788862659022577200,4.4715771484375,2.366557866427302,0.7349576580867171,-4.00213486944437
1788862659032583200,4.481583251953125,2.2633342233181,1.8807526638194918,-4.3720267509788275
1788862659042590200,4.491590087890625,1.4052046513319014,2.9369620911732315,-4.030183152320981
1788862659052596000,4.501595947265625,0.6763970403075218,3.677751231892407,-3.2442876264184712
1788862659062603300,4.511603271484375,0.43184652566611764,3.6013591893464323,-1.889267686447501
1788862659072609300,4.521609375,0.08028641963601112,2.511987497103214,-0.144601363158226
1788862659082615000,4.531614990234375,0.243733937561512,0.6906818785086274,1.554439519509673
1788862659092622000,4.5416220703125,0.645735944584012,-0.550797899261117,1.7325585368663072
1788862659102628400,4.55162841796875,1.012235845592618,-0.9676169516652822,0.7876128512144088
1788862659112634000,4.561634033203125,0.704752197176218,-1.0649851467445492,0.04399170193970203
1788862659122641200,4.57164111328125,-0.574530072504282,-0.9442281850323081,-0.6135188515901565
1788862659132647000,4.58164697265625,-1.6185393589764832,-0.3950564256682992,-1.283735741958022
1788862659142653200,4.591653076171875,-0.4294838881880045,0.5854582937538624,-1.0793629239261149
1788862659152660200,4.60166015625,0.999178795620799,1.2347259195953606,-0.16890227620005607
1788862659162666000,4.611666015625,0.9182891493946314,1.1342770018965005,0.5238637151062489
1788862659172673300,4.62167333984375,0.6860819834977387,0.4182230739831924,0.9288333397626877
1788862659182679300,4.63167919921875,0.2641886965692043,-0.7064332821309566,1.0407096604049204
1788862659192685000,4.64168505859375,-0.8078735489547252,-1.4417694181412457,0.4428945739030838
1788862659202692400,4.6516923828125,-1.5586591830313206,-1.4522341135323047,0.060250762823224065
1788862659212698000,4.661697998046875,-1.458104466870427,-1.2566022358387707,0.5863724859893321
1788862659222704000,4.6717041015625,-1.0638280856639146,-0.8445224869161844,1.271926646220684
1788862659232711200,4.681711181640625,-1.0805448271870612,-0.3467424766153097,1.3375994340926407
1788862659242717200,4.69171728515625,-1.0593582467734812,-0.527438650983572,1.5145803873300552
1788862659252723200,4.70172314453125,-1.2883400208830833,-1.2546043400198221,1.983879860816896
1788862659262730200,4.711730224609375,-2.012184748803079,-2.059108704802394,2.1228847191423177
1788862659272736000,4.721736083984375,-2.4831205913200973,-2.5054285769790408,1.5986466177657246
1788862659282742300,4.7317421875,-2.4044448217511176,-2.5897534583508968,0.7155515313491225
1788862659292749000,4.7417490234375,-2.1336393373906613,-2.3141344362288714,-0.2276364969804883
1788862659302755000,4.751755126953125,-1.8628236238971352,-1.6234487583279609,-0.7199749007493257
1788862659312762400,4.761762451171875,-1.6623679793089627,-0.6437053155392408,-0.6738505706951021
1788862659322768100,4.77176806640625,-1.0573194344222545,-0.11013386088907719,0.3070581164807081
1788862659332774100,4.781774169921875,-0.7503843597993254,0.3139560593008995,1.1146236223995685
1788862659342781200,4.79178125,-0.7531254752010107,0.5169155034035444,1.3818316667899488
1788862659352787200,4.801787109375,-0.7038707381665706,0.12410393405258655,1.847506520038843
1788862659362793200,4.811793212890625,-0.8425140697032213,-0.7518781054884195,2.7019337303757665
1788862659372800000,4.821800048828125,-1.370534904488921,-1.3610066131651402,2.896141712746024
1788862659382806000,4.831805908203125,-2.0622569397002457,-1.379401517033577,1.7506728702276944
1788862659392813300,4.841813232421875,-2.0423226974353192,-1.1324024401962756,0.6465785328879952
1788862659402819000,4.851819091796875,-1.5232649213060736,-0.8670984758615493,0.1722320051446557
1788862659412825000,4.8618251953125,-1.1847212409764527,-0.42456104483306406,-0.3532636950775981
1788862659422832000,4.87183203125,-1.0377665926903485,0.031190672555565832,-1.276766195206344
1788862659432838100,4.881838134765625,-0.9706079501748085,0.3390080829709768,-2.5503677889019247
1788862659442844200,4.89184423828125,-0.4536410088449716,0.06922200478613376,-2.1191572230517863
1788862659452851000,4.901850830078125,-1.1079466288536786,-1.0847300039172172,0.31535949635803695
1788862659462857200,4.911857177734375,-2.4153259889885783,-1.9339321730822323,2.2948048818588256
1788862659472863200,4.92186328125,-2.278379232236743,-2.6044150209099053,3.5448967128902673
1788862659482870000,4.9318701171875,-2.036452636358142,-3.719377666005492,4.019959864470362
1788862659492876000,4.9418759765625,-2.3323329407423734,-4.281892891067266,2.8609315754160285
1788862659502883000,4.951883056640625,-2.0476056062743067,-3.36760362496376,0.7143295883387327
1788862659512889000,4.96188916015625,-0.6128741239458322,-2.3711399335205554,-0.666159723931551
1788862659522895000,4.97189501953125,0.9022609746575355,-1.42680448872149,-1.2625611442431808
1788862659532902100,4.981902099609375,1.2390741779327392,-0.052421676632761954,-1.9233008889526129
1788862659542908200,4.991908203125,1.627742071607709,1.0292243897944688,-1.5025982731133698
1788862659552914200,5.0019140625,2.2480542365998026,0.7156167055398225,0.47241409837603565
1788862659562921000,5.0119208984375,1.5288585035294293,-0.1984504422456026,2.2111142067372795
1788862659572927200,5.02192724609375,0.00611819061934948,-0.5576192697137594,2.364176524248719
1788862659582934000,5.03193408203125,-0.7623673507988452,-0.7877677495151758,2.099334916728735
1788862659592940000,5.04193994140625,-0.8378355564981699,-1.063107370173931,2.211357952365279
1788862659602946000,5.051946044921875,-1.202695873606205,-1.0941495741695164,2.1530197451651096
1788862659612953000,5.061953125,-1.6280208885490894,-0.7654144634097814,1.812380846121907
1788862659622959000,5.071958984375,-1.1396060879647731,-0.3266308319568634,1.5871464418470858
1788862659632965000,5.081965087890625,-0.0874853912293911,-0.06318214010000228,1.5483657525539398
1788862659642972200,5.09197216796875,0.6211959620893002,0.07887304570674895,1.6726456276953219
1788862659652978200,5.101978271484375,0.3981687124699354,0.1214572189360857,1.337220079386234
1788862659662985000,5.11198486328125,0.15111702866256235,-0.05799333928525448,0.6184066236317157
1788862659672991000,5.121990966796875,0.5860802250444889,-0.43586803626716136,0.2364963875234127
1788862659682997200,5.131997314453125,1.0451461815476417,-0.5164964012086392,-0.27453531853854657
1788862659693004000,5.142004150390625,1.4479016372859477,-0.167872933152318,-0.8141004606455564
1788862659703010000,5.152010009765625,1.6496195568948984,0.19127952770292758,-1.1263584838569163
1788862659713016300,5.162016357421875,1.2889356486886738,0.12987608771324158,-1.139874968034029
1788862659723023000,5.172023193359375,0.6784668323189019,-0.24866321065723895,-0.71261869276762
1788862659733029000,5.182029052734375,0.24874504372179507,-0.5719479470565915,-0.18123393450677394
1788862659743036200,5.1920361328125,1.0295236650019883,-0.7325082191079855,0.48600189422369
1788862659753042200,5.202042236328125,1.4023977772176266,-0.8399462650418281,0.6075625735342502
1788862659763048200,5.212048095703125,1.4153712405592203,-0.707327600622177,0.20234394255280494
1788862659773055000,5.222054931640625,1.1497913818925618,-0.19675415972173213,-0.1712836183786392
1788862659783061200,5.232061279296875,0.5072492649137974,0.3908656959801912,-0.16932839265763758
1788862659793067300,5.2420673828125,0.37829029204547404,0.5606397865787148,-0.10674714106023311
1788862659803074000,5.252073974609375,0.75590546130836,0.06652472852617501,-0.3989513872802257
1788862659813080000,5.262080078125,0.7416565712034702,-0.5466913407251238,-0.8134399509102106
1788862659823087000,5.272087158203125,0.04287701869606971,-0.920787103690207,-1.1097153920918703
1788862659833093000,5.282093017578125,-1.0724392621427774,-0.7815408378243446,-0.8777712610453366
1788862659843099100,5.29209912109375,-1.5731331140637397,-0.3304416224166751,-0.24727029499411582
1788862659853106000,5.30210595703125,-0.9871838219225406,-0.527623359900713,0.1171738425284624
1788862659863112000,5.31211181640625,0.09279752616286277,-1.4564990775004028,0.010998363876342773
1788862659873118000,5.322117919921875,0.9179512957423925,-2.738356750626862,-0.44228900922536846
1788862659883125000,5.332125,1.7463678665101527,-2.4624095194637774,-1.6893220372080802
1788862659893131000,5.342131103515625,2.1019506521850824,-0.7821490328505635,-2.2001298713862893
1788862659903138000,5.352137939453125,2.2374597773492333,0.5110112477958202,-1.7959668869376182
1788862659913143800,5.362143798828125,3.036969987106323,0.8462675770178437,-1.9081229013040661
1788862659923150000,5.372150146484375,3.464296989521384,0.8511907126337289,-2.384266833858192
1788862659933156900,5.382156982421875,2.8266028970956802,1.6298890205085277,-3.487089543826878
1788862659943163000,5.392162841796875,2.1887311100155116,1.8934923184052108,-4.173505873845517
1788862659953170200,5.402170166015625,1.4503145436465739,1.3850117581307888,-3.8793899487853047
1788862659963176000,5.412176025390625,1.4263561604321002,1.315258130685985,-2.8646365674138066
1788862659973182000,5.422181884765625,0.9831400994896888,1.8993433825209736,-2.537585464218259
1788862659983189000,5.43218896484375,0.9278232859373092,1.8878508053869008,-2.286809206929803
1788862659993195000,5.442195068359375,1.4819184731781483,0.909443871898949,-0.4638689728707075
1788862660003201000,5.452200927734375,2.0830396154880524,0.38724282930791376,0.01772737987041473
1788862660013207800,5.462207763671875,2.9351252311348914,0.21088322283923625,-0.9235901784121989
1788862660023213800,5.4722138671875,3.07959098521471,0.08551262985169887,-2.3034768486142156
1788862660033221000,5.48222119140625,1.8785674287348983,0.46294922767728564,-4.264906100431085
1788862660043227000,5.492226806640625,1.2022200727880001,1.2830918910965323,-5.4042678582459684
1788862660053233000,5.50223291015625,1.1800187623739242,2.064192876198888,-4.872082889518142
1788862660063240000,5.512239990234375,1.2450503297328948,2.4973311952412125,-3.7359915316760537
1788862660073246000,5.522245849609375,1.662673684257269,2.4548633418679238,-2.582294959038496
1788862660083253000,5.5322529296875,2.3450129740953445,1.882273882037401,-1.4805723192662
1788862660093258800,5.5422587890625,2.825545496997237,0.8320113803893328,-0.20692834773361682
1788862660103265000,5.55226513671875,2.340872805550694,-0.1162348081126809,0.04717150101959705
1788862660113272000,5.56227197265625,1.4975392361581326,-0.5037853881955147,-1.0009510659903287
1788862660123277800,5.57227783203125,1.5881851372450588,-0.6523822507306933,-1.6170763006865978
1788862660133283800,5.582283935546875,1.4140601579606533,-0.2817918655380606,-1.7503572284072637
1788862660143291000,5.592290771484375,0.8847276560544967,0.6014174949079751,-1.6184528497368096
1788862660153297000,5.602296875,0.2971013706117868,1.495637786450982,-1.34170394680202
1788862660163304000,5.612303955078125,0.2740723772019148,1.8361361079797147,-0.7862292879015207
1788862660173310000,5.62231005859375,0.9531640634208917,1.1413882952064276,0.3287742737263441
1788862660183316000,5.63231591796875,-0.046131636577844616,0.06518821922540664,0.44818040535151954
1788862660193323000,5.642322998046875,-0.18314122943282127,-0.8278326333999634,0.19583236870169637
1788862660203328800,5.652328857421875,0.2132557971894741,-1.4204974975317717,0.41459377757012844
1788862660213336000,5.662336181640625,-0.4265677084803581,-1.458822844272852,0.4522819954514503
1788862660223341800,5.672341796875,-0.5503928255915641,-1.3103899401277304,0.5900806928575039
1788862660233347800,5.682347900390625,-0.1155401038467884,-1.221138708269596,1.1297171466350555
1788862660243355100,5.692355224609375,0.25776070934832096,-1.536841318976879,2.100446677362919
1788862660253361000,5.70236083984375,-0.3364753496229648,-2.1763918529242274,2.468467504328489
1788862660263368000,5.712367919921875,-1.4788573320418594,-2.5953297971785068,1.4771885220468044
1788862660273374000,5.7223740234375,-1.217377309909463,-3.0705460934936997,0.5778951650232076
1788862660283380000,5.7323798828125,-1.825861382202804,-3.308113909640908,0.27671500066518784
1788862660293387000,5.742386962890625,-3.0270769541233777,-2.965111788597703,0.5085670695140958
1788862660303392800,5.752392822265625,-3.0541736353635787,-2.3475199884802103,1.4797417136609554
1788862660313398800,5.762398681640625,-2.6277052956044673,-1.7428209876835346,2.4727277921214696
1788862660323406000,5.772406005859375,-2.4217580678626893,-1.4397183308303356,3.224932353085279
1788862660333411800,5.782411865234375,-2.663431565763056,-1.4520622640967369,3.161598821815848
1788862660343419000,5.7924189453125,-2.7063468706429004,-1.5553279927819967,2.5376073837891218
1788862660353425200,5.802425048828125,-2.2966969792157412,-1.810736001524329,2.423590251725912
1788862660363431000,5.812430908203125,-2.6338299159646033,-1.5643699618935585,2.030827782213688
1788862660373438000,5.82243798828125,-2.546859488520026,-1.3084037347465753,1.7759475967377423
1788862660383443700,5.832443603515625,-1.6538821827754377,-1.6598317388296127,2.408334814926982
1788862660393451000,5.842450927734375,-1.0672381863683462,-1.8887579833596944,3.5586695099160073
1788862660403457000,5.85245703125,-1.2058768417298793,-1.6481120749413967,3.3791523161992427
1788862660413462800,5.862462890625,-1.8830206087514758,-1.2826958775162696,1.2546762362122534
1788862660423470000,5.872469970703125,-1.4210516242831945,-1.2885451880663632,0.7837640668317675
1788862660433476000,5.88247607421875,-1.4740329806253314,-1.2484434793025254,1.708604829826951
1788862660443483000,5.89248291015625,-1.7027403217077255,-1.1636726077288388,2.1313927275076505
1788862660453489200,5.9024892578125,-1.4012854320615529,-1.0092208816856145,1.7917083527103066
1788862660463495000,5.912494873046875,-0.7060644488185643,-0.763311353650689,1.5173825852692127
1788862660473502000,5.922501953125,-0.06895283245593309,-0.5859592290133238,1.3826350921273232
1788862660483508000,5.932508056640625,0.14926321748942137,-0.444388027331233,0.41754122919887304
1788862660493515000,5.942514892578125,0.5264440869882703,-0.17978724282979963,-1.3631354418873787
1788862660503521000,5.95252099609375,1.346028824263811,0.27606851945519445,-2.662470611776411
1788862660513527000,5.962527099609375,1.6284622025758027,0.9938210679799317,-3.2166938093110917
1788862660523534000,5.9725341796875,1.1141586352363229,1.9110054710030555,-3.0187691445052622
1788862660533540000,5.9825400390625,0.6974848365217446,2.0416133801221847,-1.660709398446977
1788862660543547000,5.992546875,0.5170762469232082,0.8588245685130357,0.823868113683164
1788862660553553000,6.002552978515625,-0.10076806665062904,-0.6611439415961503,2.6262629878416655
1788862660563559200,6.01255908203125,-1.0443015474170445,-1.6671458612352608,2.6436183195292946
1788862660573566000,6.02256591796875,-1.3839829996049404,-2.097734495794773,1.9898744250565765
1788862660583572000,6.032572021484375,-1.2179793674558401,-2.146157458180189,1.7609335674792528
1788862660593579000,6.0425791015625,-0.8105027284145355,-1.476526843267679,1.4507909289866685
1788862660603585000,6.0525849609375,0.09338497066199779,-0.6028168403118849,1.5807050106227396
1788862660613591000,6.062591064453125,0.9112649498462676,-0.4664654191046953,2.4745541307657954
1788862660623597800,6.072597900390625,0.9055494948089122,-0.8464023093134164,2.995861731648445
1788862660633604000,6.08260400390625,0.9405839833110571,-1.1775240229487418,2.3093968863129613
1788862660643611000,6.09261083984375,1.2185954535275696,-1.3775982670038938,1.0104559764385224
1788862660653617000,6.102616943359375,1.314745212727785,-1.2934902432531117,0.1581558412581682
1788862660663623000,6.112622802734375,0.456283047786355,-0.6299953546166419,-0.6777659905731678
1788862660673630000,6.1226298828125,-0.11081365984678268,0.36954058387875555,-1.303700671622157
1788862660683636000,6.132635986328125,-0.03492927456200123,1.0902309394210576,-1.2290922976225613
1788862660693642800,6.142642822265625,0.2965039892405271,1.2129501411169767,-0.18311667951345442
1788862660703649000,6.15264892578125,0.9180570942044257,0.7189958265841007,1.0773241115748882
1788862660713655000,6.162655029296875,1.2882178558081387,0.09835399124622345,1.3507540992200373
1788862660723661800,6.172661865234375,1.6170932518213987,-0.5369079055964946,0.9979097985982894
1788862660733667800,6.182667724609375,2.345213465103507,-1.1585282305777072,0.7085293776273727
1788862660743675000,6.1926748046875,2.2020377508342266,-1.2541294159844516,-0.03236906868517399
1788862660753681000,6.202680908203125,1.7370803982049225,-0.861433289706707,-1.1707505832910536
1788862660763687000,6.21268701171875,1.7346850275009869,0.11390051994621753,-1.734617807483673
1788862660773694000,6.22269384765625,1.6512971347182988,0.7942638335362077,-1.227093817281723
1788862660783700000,6.232699951171875,0.661152124902606,0.9731576346576213,-0.7019815634191036
1788862660793707000,6.24270703125,-0.3817494925886392,1.2938976550102232,-0.5782289270222186
1788862660803712800,6.252712646484375,-0.653690118458867,1.60078129170686,0.13071487662494183
1788862660813719000,6.262718994140625,-0.8897896156191826,1.8013453651055693,0.7850520608156919
1788862660823725800,6.272725830078125,-1.1670306859850883,1.319536538657546,1.2209358791738747
1788862660833731800,6.28273193359375,-1.7664076149761676,0.6327826472476125,2.038829886883497
1788862660843739100,6.2927392578125,-0.7975228353321552,-0.48428544569462534,3.1662101150035857
1788862660853745400,6.302745361328125,1.8183143278241156,-2.3846900277063248,3.4308734433472154
1788862660863751700,6.312751708984375,2.6320962240397927,-4.501104966312647,2.138354675474763
1788862660873758500,6.322758544921875,1.5110732559919355,-5.577312641078233,-0.2610322783648968
1788862660883764500,6.332764404296875,0.4536462695419788,-4.902921679896116,-1.5321479004636407
1788862660893771800,6.342771728515625,0.10930559337139129,-3.4365786692515012,-1.9367723649442194
1788862660903777500,6.352777587890625,0.8542337335914373,-1.7644567731693386,-2.817209338067472
1788862660913783600,6.362783447265625,1.4419149640917777,-0.07015197911262512,-3.93431367136687
1788862660923790300,6.372790283203125,0.6639186670064926,0.3570867604970932,-4.004245577988028
1788862660933796600,6.382796630859375,0.49623453442454335,-0.25708500204384327,-3.010184856033325
1788862660943803600,6.3928037109375,1.3714426669836044,-0.7375830381542444,-2.2199115534380076
1788862660953809400,6.402809326171875,2.949765750905871,-0.7327522569969296,-1.6010682919546961
1788862660963815400,6.4128154296875,3.0902228538662193,0.11936813770234585,-2.1854329452529546
1788862660973822700,6.42282275390625,2.4765777455478903,1.5175520966172218,-3.640823476989567
1788862660983828500,6.432828369140625,2.4915420904457566,2.636252759197354,-3.8947266341269016
1788862660993835500,6.44283544921875,2.949387565243244,3.249457430271804,-3.530715627324581
1788862661003841500,6.452841552734375,3.0620272714734074,3.4140658086702227,-3.7088846213027833
1788862661013848600,6.4628486328125,2.4078911628127098,3.2008620339289307,-4.539421252964437
1788862661023854600,6.4728544921875,2.713550518411398,2.8724352584660053,-4.623500927403569
1788862661033860400,6.4828603515625,3.064775693398714,2.4740821293398736,-3.7725866936236616
1788862661043867600,6.49286767578125,3.169477592366934,2.328542024026811,-3.3878958868861195
1788862661053873700,6.502873779296875,3.534593345540762,2.299204285861552,-2.973303278359771
1788862661063880400,6.51288037109375,4.373819479614496,1.5509133912101387,-1.5025807374566793
1788862661073886700,6.52288671875,4.614095385676622,0.3028828766226768,-0.5581231275826692
1788862661083892500,6.532892578125,3.9922997041285035,-0.2967582562625408,-1.859871496093273
1788862661093899500,6.5428994140625,4.196242898571491,-0.3309095321893692,-3.4282360805809495
1788862661103905500,6.552905517578125,3.8839462969154117,-0.04860387191027402,-4.351373839050531
1788862661113912600,6.56291259765625,2.199713107278943,1.1846581126123665,-5.395940174883604
1788862661123918600,6.572918701171875,0.08987550123631953,3.6250609674513337,-6.0842462641716
1788862661133924600,6.582924560546875,-0.8903981029063462,6.265261587491631,-4.292775519609451
1788862661143931600,6.592931640625,-0.9715238959759473,7.089348020100593,1.221916706904769
1788862661153937700,6.602937744140625,-0.3707663262814283,4.638996018177271,6.210739723709225
1788862661163944400,6.6129443359375,0.3438713050931692,0.7539630950689316,6.432560520148277
1788862661173950500,6.622950439453125,0.3172048319637775,-2.0653195421412587,4.96494471308887
1788862661183956700,6.632956787109375,-1.3706728516548872,-3.9768788476347923,4.2231022639244795
1788862661193963500,6.642963623046875,-3.066513476976752,-5.06890076212585,4.040663629803062
1788862661203969500,6.652969482421875,-2.825377739214897,-5.822563412943482,4.2286634051829575
1788862661213976600,6.6629765625,-2.0605431215196846,-6.597935791265964,4.053489209106564
1788862661223982600,6.672982666015625,-1.4840624994695186,-7.155983515524864,3.1019962937682863
1788862661233989400,6.6829892578125,-1.8140701143831013,-6.629079702070355,0.9076011666417121
1788862661243995400,6.692995361328125,-1.8546172288268803,-5.299816134646535,-1.3054939847797156
1788862661254001700,6.703001708984375,-2.011046976944804,-3.730802730861306,-2.394657002708316
1788862661264008400,6.713008544921875,-1.9830635759979485,-2.0275012681394813,-2.2295734080135823
1788862661274014500,6.723014404296875,-1.612653808069229,-0.7697247278243303,-0.9013362610280513
1788862661284021500,6.733021484375,-1.332632459335029,-0.011867547926306723,1.1200450629264116
1788862661294027500,6.743027587890625,-1.240478784033656,0.13919336663484572,3.275715322600305
1788862661304033500,6.753033447265625,-1.3779045564740895,-0.1484533624112606,4.525120340411365
1788862661314040300,6.763040283203125,-1.2977040615558624,-0.6279068579047918,4.734417755363881
1788862661324046600,6.773046630859375,-1.0889324240431189,-1.0589724623262882,4.722494385597109
1788862661334053600,6.7830537109375,-1.07475601465255,-1.3287725690364838,4.875403558373451
1788862661344059400,6.793059326171875,-1.3033867833673953,-1.329559335500002,4.317451403443515
1788862661354065400,6.8030654296875,-1.3005845854282378,-1.126914948695898,3.1346444716557857
1788862661364072400,6.813072509765625,-0.7693181928500533,-1.4409826516777275,3.4059701804980635
1788862661374078500,6.823078369140625,-0.17227818237394094,-1.270567048305273,3.8042461527347564
1788862661384085500,6.83308544921875,-0.383635452465713,-0.30455986992418765,2.313150685888529
1788862661394091500,6.843091552734375,-0.539764464071393,0.46620998303890226,-0.06335720440596342
1788862661404098600,6.8530986328125,-0.23605741158425805,0.9351087667703628,-1.8844836670413612
1788862661414104600,6.8631044921875,-0.23784078786969184,0.7586679117590188,-1.6739131634131073
1788862661424110300,6.8731103515625,-0.3945201268345117,-0.001980944684147835,-0.7453399358913302
1788862661434117600,6.88311767578125,0.6666659198880195,-0.888630508711934,0.589951805780828
1788862661444123400,6.893123291015625,0.16618366489112377,-1.5641110186964273,1.5544386427268384
1788862661454130700,6.903130615234375,-1.1380611966103316,-1.5782663852989673,0.9208239285692572
1788862661464136700,6.91313671875,-1.5133920543283224,-1.3730278903484343,-0.20368191315829753
1788862661474142500,6.923142578125,-1.328992349267006,-1.0597498764395714,-0.8781549996659159
1788862661484149500,6.9331494140625,-1.2722189071655272,-0.473549239885807,-0.9850222599744796
1788862661494155500,6.943155517578125,-1.5825217046558857,-0.20439912151694298,-0.18697920016050337
1788862661504162600,6.95316259765625,-2.004640617033839,-0.4162216710329055,1.2823755595207214
1788862661514168600,6.96316845703125,-1.0424217250198125,-1.0906114631712436,3.6259734061211346
1788862661524175600,6.973175537109375,-0.5351923338502645,-1.9768419250041245,5.0173184589266775
1788862661534181600,6.983181640625,-0.8083703925609588,-2.4203116684466597,3.6355244937986133
1788862661544187600,6.993187744140625,-0.8032365368038415,-2.1193898627638816,0.6399994467586279
1788862661554194400,7.0031943359375,0.6062070672720671,-1.2688047148078678,-1.142998653012514
1788862661564200700,7.01320068359375,2.0167332058876752,-0.1549140828579664,-1.0401222159057855
1788862661574207500,7.02320751953125,2.02446467692256,0.6245949568778276,0.026671149304509163
1788862661584213500,7.033213623046875,1.3852858988970518,0.47332419895827765,1.2170932322710752
1788862661594219500,7.043219482421875,0.4065986871629953,-0.7098901445865631,2.3535089997619387
1788862661604226600,7.0532265625,-0.02668985400497913,-2.2671266013383864,3.2759120142161846
1788862661614232600,7.063232666015625,0.5893412726670503,-3.260580005049705,3.714062608462572
1788862661624239400,7.0732392578125,0.651927784961462,-3.076207772517204,3.131896926513314
1788862661634245600,7.08324560546875,-0.025164251872897146,-1.662971790421009,1.1361328588962554
1788862661644252400,7.09325244140625,0.2524222709298134,-0.3991431104600429,-0.2540110014259815
1788862661654258400,7.103258544921875,1.4387690672814846,0.2248801840096712,-0.7442319746494293
1788862661664264400,7.113264404296875,2.239785005426407,0.44576632994711396,-0.6874737301170826
1788862661674271500,7.123271484375,2.1529338204473256,0.16068974364995955,-0.12505202855765818
1788862661684277500,7.133277587890625,1.2161503984630107,-0.4804115268707275,0.577502950835228
1788862661694284500,7.143284423828125,-0.045728316473960876,-1.2398361022159456,1.117556168720126
1788862661704290600,7.15329052734375,-1.299114512875676,-1.8846993556186555,1.151594631922245
1788862661714297600,7.163297607421875,-1.7012912919431924,-2.424472879779339,1.0875450613379478
1788862661724303400,7.173303466796875,-0.7559890479385852,-2.861014285263419,1.315860480493307
1788862661734309400,7.183309326171875,0.18185118962228297,-3.1776150138542056,0.9788421100348234
1788862661744316700,7.193316650390625,1.2915461234480141,-3.1391493818596006,0.17402794865071772
1788862661754322400,7.203322509765625,2.2731150280982253,-2.6998732907146215,-0.2283434762060642
1788862661764329500,7.21332958984375,2.0230665005624293,-1.7075708106040954,-0.5444833092868328
1788862661774335700,7.223335693359375,1.9907348412781953,-0.26356238136440513,-0.5929425120294094
1788862661784341500,7.233341552734375,2.4999019225120542,0.8968728518784046,-0.7456950329393148
1788862661794348500,7.2433486328125,2.755176660263538,0.6754115364015102,-1.027472577691078
1788862661804354300,7.253354248046875,2.577051797688007,-0.14272504789233206,-1.2519026798456907
1788862661814361600,7.263361572265625,2.5133576164126397,-0.5700514657855034,-1.7549860572516918
1788862661824367600,7.27336767578125,2.807717579361796,-0.7596092842623591,-2.1849521759986876
1788862661834374400,7.28337451171875,2.254061368060112,-0.5049830735474825,-2.444452422490716
1788862661844380700,7.293380615234375,1.0807195992320775,0.25898206783682104,-2.5166373687356707
1788862661854386400,7.303386474609375,0.18695815737247465,1.260449266655743,-2.10678581725657
1788862661864393500,7.3133935546875,-0.08740706529617309,1.6201465019121766,-1.4731225877821446
1788862661874399500,7.3233994140625,-0.19931611916422842,1.3413025263942777,-0.98138478025496
1788862661884406300,7.33340625,0.3869394624471664,0.6018479952797293,-0.3209481101453304
1788862661894412500,7.34341259765625,1.7619535581767558,-1.0758578384146094,-0.1329822370350361
1788862661904418600,7.35341845703125,2.89215761154592,-2.276874819023162,-1.0244979457944632
1788862661914425300,7.36342529296875,3.38392289160192,-1.881342592536658,-2.49463128863275
1788862661924431400,7.373431396484375,2.9185096118986604,-0.10505714214667677,-3.632675534108281
1788862661934438400,7.3834384765625,1.6615356201380491,1.5188633253462611,-4.033553505536914
1788862661944444400,7.3934443359375,-0.09375146588683128,1.9376156839005647,-4.058137327173352
1788862661954451200,7.403451171875,-0.08702946415543555,1.4367235329285264,-2.9119828404784203
1788862661964457500,7.41345751953125,0.07760229511857032,-0.44615240665525197,-0.8777993180960416
1788862661974463500,7.42346337890625,0.4712070606738329,-2.0231902730725704,-0.14238310258686543
1788862661984470300,7.43347021484375,1.2729799546658993,-1.4340500759355723,-0.30076749190390106
1788862661994476300,7.443476318359375,1.7800339892685413,-0.19856632371023297,-0.7566817063778638
1788862662004483600,7.453483642578125,0.7973995012134313,0.7851156275711954,-2.290221645721793
1788862662014489300,7.4634892578125,-0.6691881318420171,1.626970648843795,-2.7706553844243285
1788862662024496400,7.473496337890625,-0.31377953369021416,1.4268956741362808,-0.5914496431231498
1788862662034502400,7.48350244140625,1.500292918780446,0.6913974794320762,0.890527282243967
1788862662044508400,7.49350830078125,2.4636305856913325,0.09304185631275176,0.19987609113454818
1788862662054515500,7.503515380859375,2.7262311362862586,-0.15786533387899399,-1.4927315436154602
1788862662064521200,7.513521240234375,2.7872061217308044,-0.06207651694566011,-3.5055443611890076
1788862662074528500,7.523528564453125,2.4224025032460688,0.22508710475862026,-4.98232664052248
1788862662084534500,7.533534423828125,1.501920812243223,0.7287149643048644,-5.3017532401889556
1788862662094541300,7.543541259765625,0.7721072390466928,1.7052821151450275,-4.729901446983218
1788862662104547600,7.553547607421875,1.2494319058179855,2.7855153921648856,-3.208095200052857
1788862662114553300,7.56355322265625,2.81442438352406,2.782247330279648,-1.131019461405277
1788862662124560400,7.573560302734375,3.861685365268588,2.194332291023433,-0.1967816322505474
1788862662134566400,7.58356640625,3.60636211220026,1.4710677010789512,-0.588608866739273
1788862662144573400,7.593573486328125,2.7645734341621395,0.5967199847415089,-1.4268541730821132
1788862662154579500,7.603579345703125,2.5805250267565247,-0.2048334212809801,-2.1287954044908286
1788862662164586200,7.613586181640625,2.616635035535693,-0.3309723682925105,-2.538022686591744
1788862662174592500,7.623592529296875,1.566401759982109,0.24073212539702651,-2.5309780287772417
1788862662184598500,7.6335986328125,0.2568377492845058,1.0468389569401741,-1.90392866448462
1788862662194605300,7.643605224609375,0.5650795225918293,1.362804602497816,-0.6063198799967765
1788862662204611300,7.653611328125,1.9226286887794732,1.0954127259731292,0.9154711693644523
1788862662214618400,7.663618408203125,1.9601006335616111,0.32144846088290213,1.7787603160709142
1788862662224624400,7.673624267578125,0.7497609672039747,-0.5988859306037425,1.777925034290552
1788862662234631400,7.68363134765625,0.026591654327511784,-1.483927474913001,1.6272066495567559
1788862662244637400,7.693637451171875,-0.7523965764045715,-2.434878538459539,2.0113935984253883
1788862662254643500,7.7036435546875,-2.924039773496985,-3.1738229280948635,2.1748738495767115
1788862662264650200,7.713650146484375,-4.005925493898988,-4.024845882946253,2.3008716345518825
1788862662274656300,7.72365625,-3.029210459020734,-5.272955600249767,3.0308243239581585
1788862662284663600,7.73366357421875,-2.248364033201337,-6.1212839091897004,3.4937516320645807
1788862662294669300,7.74366943359375,-2.839710800471902,-5.655455618944764,2.4784943928241727
1788862662304676400,7.75367626953125,-3.126388976746797,-4.265186670938134,0.5978969195663929
1788862662314682400,7.763682373046875,-2.7411326450809836,-2.82134395365417,-0.5553589235663414
1788862662324688400,7.7736884765625,-2.5534499728262423,-2.0315514203131197,0.10529401964247226
1788862662334695400,7.7836953125,-2.872845592832565,-1.3937766638666391,1.4329472292602061
1788862662344701200,7.793701171875,-2.217939961104095,-0.9639940849930048,2.1398148111552
1788862662354708500,7.80370849609375,-0.5615343973308802,-0.8531389240920543,2.685644274353981
1788862662364714500,7.813714599609375,-0.24789661019891499,-0.6197118610113859,2.4506050999015567
1788862662374721300,7.82372119140625,-0.7384612822934985,0.015072481447458267,1.632668714354932
1788862662384727600,7.8337275390625,-0.9581891981065273,0.6829933698326349,1.3667095009818673
1788862662394733300,7.8437333984375,-0.6058958093658089,1.410215172970295,1.0138166850432753
1788862662404740400,7.853740234375,-0.13259265319555996,1.7663813114911318,1.3120748244747518
1788862662414746600,7.86374658203125,-0.06029752457439899,1.1341910771787167,2.091550254201889
1788862662424753400,7.87375341796875,0.2849699110522866,0.18762042067348955,2.3236980911269782
1788862662434759400,7.883759521484375,0.6226961375191807,-0.3938987800657749,2.3878882392257452
1788862662444766500,7.893766357421875,-0.06568915448486805,-0.4291910427212715,1.1728475555703044
1788862662454772500,7.9037724609375,-0.5613765764206647,-0.46780105162262914,-0.8959773643434047
1788862662464778500,7.913778564453125,-0.3856006150588393,-0.8379033610373735,-1.644448291736841
1788862662474785300,7.923785400390625,-0.7366390353024005,-1.0764970131009817,-1.4522881818071007
1788862662484791600,7.93379150390625,-1.4740537311524151,-1.3969056095421313,-0.7810133068189025
1788862662494798300,7.94379833984375,-2.069682705786824,-2.2525059553116558,0.600278261744976
1788862662504804400,7.953804443359375,-2.4655805507153272,-3.3603052846491335,2.4962241107821463
1788862662514811400,7.963811279296875,-3.1791303868532177,-4.2638697431206705,3.9918168890476227
1788862662524817400,7.9738173828125,-3.720200088304281,-4.353600867450237,3.1488048066943883
1788862662534823400,7.983823486328125,-2.7102739809587595,-3.8648487977355717,1.3389023333847523
1788862662544830200,7.993830322265625,-1.4427496613502502,-2.5840041010439396,-0.03731120126247406
1788862662554836500,8.00383642578125,-0.5497919370889663,-0.6572130318880081,-0.7409802793771028
1788862662564843500,8.013843505859375,0.02751519891321659,1.0212439124345778,-0.6179699857801199
1788862662574849300,8.023849365234375,0.4276166330114007,1.6807289809077977,0.33543723874688147
1788862662584856600,8.033856689453126,0.1934188778191805,1.1639561008453367,1.5353379286766051
1788862662594862300,8.0438623046875,0.10618775361180305,0.08209025418758392,2.158030266803503
1788862662604868400,8.053868408203124,1.0479092165201902,-0.9455921668618917,2.558110950374603
1788862662614875400,8.06387548828125,1.978573863363266,-1.4980635522931813,2.460008303540945
1788862662624881400,8.07388134765625,2.4110265382289886,-1.147806930077076,1.1123410644203424
1788862662634888400,8.083888427734376,2.0529548583477735,-0.17161095063686369,-1.057782960280776
1788862662644894500,8.09389453125,1.654998911845684,0.6933060895323753,-2.28403565056324
1788862662654901500,8.103901611328125,1.5034025752335787,1.3786176731795072,-2.359433713635802
1788862662664907500,8.113907470703126,1.0606634841531515,1.5893091728389261,-1.6798042672783136
1788862662674914300,8.123914306640625,0.8204308327108621,1.2480723079025744,-0.6729150434106588
1788862662684920300,8.13392041015625,1.4602671978622674,0.3929933556586504,0.0020697920113801954
1788862662694926600,8.143926513671875,1.642093253043294,-0.3436170380711555,-0.12161562436819076
1788862662704933400,8.153933349609375,-0.18131985922455787,-0.13077742046713828,-1.0274275695055723
1788862662714939400,8.163939453125,-2.1070868460297585,0.3867845641463995,-1.1416022302180528
1788862662724946400,8.173946533203125,-2.1199621096938848,0.20156389809101818,0.8328624442607164
1788862662734952400,8.183952392578124,-1.6529507471442222,-0.49108518883734936,3.05396554557085
1788862662744959200,8.193959228515626,-1.0776707330554722,-1.3971940710946917,4.371122495615482
1788862662754965200,8.20396533203125,-1.287277360087633,-2.7151585381299257,4.341887633302807
1788862662764971500,8.213971435546876,-1.0802601650267838,-3.3447175471559163,3.7695302286624908
1788862662774978300,8.223978271484375,-0.04324935913980007,-2.9465666626036167,3.5329812341690063
1788862662784984300,8.233984375,0.0958423006862402,-2.6416587098941204,2.9202883120089766
1788862662794991600,8.24399169921875,0.2815215241640806,-2.9279560701578853,2.039344850668311
1788862662804997400,8.253997314453125,1.284800740841031,-3.3906156672388312,1.3849573975950478
1788862662815004400,8.26400439453125,1.3603957877904176,-3.417416580402851,0.38667584307491776
1788862662825010200,8.27401025390625,1.4056155702203512,-2.9353341977104543,-0.8998340397715568
1788862662835016400,8.284016357421875,1.6312568017303943,-1.8784896873235701,-2.134407399153709
1788862662845023500,8.2940234375,1.9046809441566466,-0.28698621931076046,-2.9094033453792334
1788862662855029500,8.304029541015625,2.1141396871507165,1.1720958604201674,-2.9403274759531017
1788862662865036800,8.314036865234375,1.6754489946782587,2.054971751128137,-2.518811790165305
1788862662875042600,8.32404248046875,1.3705869269371032,1.828862317584455,-2.2503303648382422
1788862662885049600,8.334049560546875,1.8200374983549117,0.9135862324006855,-2.3089584948956965
1788862662895056000,8.344055908203124,1.8829887523084878,0.32718320514261723,-2.1730659233719107
1788862662905061600,8.3540615234375,1.459697289019823,-0.07790083967372774,-1.9132845218509436
1788862662915068700,8.364068603515625,2.006117703849077,-0.6118744453839957,-1.7650965323776007
1788862662925074700,8.37407470703125,3.2490438810348508,-0.9790867324456572,-1.7406079878091811
1788862662935081700,8.384081787109375,3.9000527975857255,-0.7473905848108232,-2.2202643123984336
1788862662945087700,8.394087646484374,3.0499031184375283,-0.20979718116819857,-3.0114743113219737
1788862662955094500,8.404094482421876,1.5181348649412392,0.5698955445714294,-3.5583898161917924
1788862662965100800,8.414100830078125,1.09505675214231,1.29557318700701,-3.3979823966145513
1788862662975107600,8.424107666015624,-0.08833177892565727,1.098075369311124,-2.974472322139144
1788862662985113600,8.434113525390625,-0.039187516528367994,0.11547332222089171,-1.8195318869203327
1788862662995119600,8.44411962890625,1.3740069645136594,-1.0133778552345931,0.3174327955007553
1788862663005126700,8.454126708984376,1.9923194801211357,-0.47315191113129257,-0.513374469795823
1788862663015132700,8.464132568359375,2.9423908382236954,0.2835007152825594,-2.290904367288947
1788862663025139500,8.474139404296874,2.433100422871113,0.1509600845351815,-3.0853175461679694
1788862663035145700,8.484145751953125,1.5304846434265373,0.37617549184858795,-3.0819010157227513
1788862663045152800,8.49415283203125,1.887169837385416,0.5940370292678475,-1.9096867896199226
1788862663055158500,8.504158447265626,2.0227327385634184,0.3488514315932989,-1.408829271569848
1788862663065164500,8.51416455078125,1.5262696560800075,0.6303448987066745,-2.514047936764359
1788862663075171600,8.524171630859374,1.4268138410717248,1.0168772416576743,-3.0151749194055792
1788862663085177600,8.534177490234375,1.3185925358057022,1.4826239910989998,-2.7169080121457574
1788862663095184600,8.5441845703125,1.5601999827325344,2.2696891453027725,-2.4597066902458664
1788862663105190700,8.554190673828124,1.314258305993676,2.706236103744805,-2.4978549268543717
1788862663115197700,8.56419775390625,0.7013134548991918,2.699150529398024,-2.3480998341947794
1788862663125203700,8.57420361328125,1.1738842051416636,2.0288804475381967,-1.221724399203062
1788862663135209500,8.58420947265625,2.5098884789973495,0.8673258548766374,-0.12439677951931953
1788862663145216800,8.594216796875,3.2693951796680687,0.22520137878805396,-0.6018710838943719
1788862663155222500,8.604222412109374,2.8740011926084756,0.07203676994591951,-1.916732031956315
1788862663165229600,8.6142294921875,1.946409961861372,0.1373217275440693,-3.020397622489929
1788862663175235800,8.62423583984375,1.3358832778245209,0.4526502442419529,-3.09932269064486
1788862663185242600,8.63424267578125,0.9940133756816386,1.168907585772872,-2.552661452797055
1788862663195248600,8.64424853515625,0.4471066386401653,1.9381471604287623,-1.646919650286436
1788862663205255700,8.654255615234375,0.5284814380347729,1.8129402335703373,0.08793547308444977
1788862663215261700,8.66426171875,1.248188627758622,0.6336816419139504,1.7110136445343493
1788862663225267700,8.674267822265625,1.2290607334405184,-0.6595733312785625,2.0291461127370596
1788862663235274500,8.6842744140625,0.23622516936659813,-1.6898989603132009,1.7295388967841863
1788862663245280800,8.69428076171875,-0.9783628020852804,-2.4237463190704585,1.5397235964149236
1788862663255287600,8.70428759765625,-1.5242892959177494,-2.660159119963646,1.5824989083021879
1788862663265293600,8.71429345703125,-1.3404554080456494,-2.5946231102138757,1.845755292457342
1788862663275300900,8.72430078125,-0.9368401206076145,-2.753691974663734,2.259717786386609
1788862663285306600,8.734306640625,-0.7081254730015992,-2.9362030894994735,1.9157763386666773
1788862663295312600,8.744312744140625,-0.649523646429181,-2.7577883040666578,0.5171832144290208
1788862663305319400,8.7543193359375,-0.8160974796816706,-1.9892220986276863,-1.1416869858920573
1788862663315325700,8.76432568359375,-1.0184241788387298,-1.1511883892089128,-1.8598457771301269
1788862663325332700,8.774332763671875,-1.861421355883777,-0.33428280801475047,-1.6647072359114885
1788862663335338500,8.78433837890625,-2.4280893167108295,0.3476876485109329,-0.8371522504091262
1788862663345345800,8.794345703125,-1.3680568239375948,0.4254308134049177,1.1949386836081743
1788862663355351800,8.804351806640625,-0.11419628802239894,-0.1330804367125034,3.6695255475997923
1788862663365358600,8.814358642578124,-0.3594061433553695,-1.0605144310712813,4.628957439243793
1788862663375364600,8.824364501953125,-1.521996216544509,-1.757359800645709,3.7270182438865302
1788862663385370600,8.83437060546875,-2.0181851582616566,-2.117799963223934,2.1773168588146565
1788862663395377700,8.844377685546876,-2.1581784431025386,-2.2468039442777634,1.3268778413310647
1788862663405383700,8.8543837890625,-2.659959797999263,-1.7943039221614598,1.1156842373684048
1788862663415390700,8.864390625,-2.6892200870141387,-1.315871586409211,1.0866180096209048
1788862663425396700,8.874396728515626,-1.7659063874557612,-1.4696084421813487,2.079641789743304
1788862663435403500,8.884403564453125,-1.0721183596253394,-1.7535843737602232,3.6532249856621024
1788862663445409800,8.894409912109374,-1.4522361593589186,-1.5895032341063022,3.4297210584416984
1788862663455416600,8.90441650390625,-1.4024036224365233,-1.2921481809943913,1.6577508409023285
1788862663465422600,8.914422607421875,-0.7326385674893856,-1.031682304340601,0.3336754897713661
1788862663475428600,8.9244287109375,-0.771685214242339,-0.49661739626228807,0.6195072783499955
1788862663485435600,8.934435546875,-1.5933979034572838,-0.4920066875964403,1.2797732680678366
1788862663495441700,8.944441650390624,-1.4691034152686595,-0.8963327536523341,1.403627611273527
1788862663505448700,8.95444873046875,-1.2012123570501803,-1.2743711167633534,1.8054466629445551
1788862663515454700,8.964454833984375,-1.2309101606994866,-1.2729343619585036,1.949384593757987
1788862663525461800,8.974461669921874,-1.0644231289476156,-1.0568325276881456,1.5220026462852954
1788862663535467500,8.984467529296875,-0.8672229790240525,-1.0233242258399724,0.42266310225725173
1788862663545473500,8.9944736328125,-0.35593349880874153,-1.0990677413493395,-1.2981979825526475
1788862663555480800,9.004480712890626,0.6346218453735113,-1.1013806944668292,-2.4870477016359565
1788862663565486600,9.014486572265625,0.7917185329675674,-0.991293595328927,-2.4632313572406765
1788862663575493600,9.02449365234375,0.17407938657701014,-0.9347633143335581,-1.83238669231832
1788862663585499600,9.034499755859375,-0.09397475324869155,-1.1337824963778256,-1.2418711151748896
1788862663595506700,9.044506591796875,0.2553326054185629,-1.6406109055310487,0.11426876873672008
1788862663605512700,9.0545126953125,0.34519407812952996,-1.9143015899389981,1.457263339871168
1788862663615519700,9.064519775390625,-0.07108370700478553,-1.6324001265466213,1.8857552944123743
1788862663625525800,9.07452587890625,-0.38292905776202674,-1.0531728361368178,1.615181280720234
1788862663635531800,9.08453173828125,-0.38711949518918987,-0.46830607853531836,1.1715361807107925
1788862663645538600,9.09453857421875,-0.5104103592932224,0.17439853552877901,0.6633838294774294
1788862663655544800,9.104544921875,-0.6502648201853036,0.7912263655364513,0.28320144007503983
1788862663665551600,9.114551513671875,-0.4334168437227606,1.2080027478426694,0.44308337447345253
1788862663675557600,9.1245576171875,0.27279168974161144,0.989650504297018,1.3207745560199022
1788862663685564700,9.134564697265626,1.1285317362427711,0.34901977389752864,2.3275270017653704
1788862663695570700,9.14457080078125,0.9539631048440933,-0.14671967048645018,2.2387182529777285
1788862663705577700,9.15457763671875,0.5737509048253298,-0.5000274969667196,1.0124883590489626
1788862663715583500,9.16458349609375,0.4019084835201502,-0.5829828435510397,-0.039894203492999075
1788862663725589800,9.17458984375,0.1762163986057043,-0.23397066843807696,-0.4452934517383575
1788862663735596500,9.184596435546876,-0.46172728466689583,0.0008113163828849792,-0.26635435017049314
1788862663745602600,9.1946025390625,-0.8607230956107378,-0.24933541083037852,0.35078327643871304
1788862663755609900,9.20460986328125,-0.1149690259605646,-1.0708487780809401,1.135913663187623
1788862663765615600,9.21461572265625,0.1467792917191982,-1.8531033171325921,1.3386983352452515
1788862663775622700,9.22462255859375,0.1502875921010971,-2.2853847270846366,0.7884054628968238
1788862663785628700,9.234628662109374,0.7580641006469726,-2.5319164786711332,0.2803343602061272
1788862663795635700,9.2446357421875,1.1062889247745276,-2.0739926779404283,-0.008248188385367393
1788862663805641700,9.254641845703125,1.0301362439423798,-1.018586091402173,-0.2044628344029188
1788862663815647500,9.2646474609375,0.8149334043383598,0.21927198873907328,0.04918985510468483
1788862663825654800,9.27465478515625,0.6434972257465124,1.2943018518969416,0.6251929227709769
1788862663835660800,9.284660888671874,0.2564946349352598,1.4077385537236928,1.3135399285912512
1788862663845667600,9.29466748046875,-0.2392921557217836,0.6070499478369951,1.6512012731283903
1788862663855672800,9.3046728515625,-0.38472996970415113,-0.7992842920467257,1.4608663327991962
1788862663865680000,9.314679931640624,0.15988836413919924,-2.223113856610656,1.0329822810232638
1788862663875686000,9.324685791015625,0.9588128829628229,-2.9624323402553796,0.6599170301496983
1788862663885693000,9.33469287109375,1.6993530173569917,-3.1695880670040846,0.34901743580996986
1788862663895699000,9.344698974609376,1.7417840458512306,-2.9091879490628836,-0.2884054384589195
1788862663905705000,9.354705078125,2.0367770460069177,-2.1206325563013553,-1.0765589724212885
1788862663915712000,9.3647119140625,2.455698623648286,-1.146417229284346,-1.529105171766877
1788862663925717800,9.3747177734375,1.8698434395313261,-0.3438543539583683,-2.527365098977089
1788862663935725000,9.38472509765625,1.886499975299835,-0.0839534177109599,-3.4338404764592645
1788862663945730800,9.394730712890626,2.468251231229305,0.1411024151265621,-3.790113582485914
1788862663955737900,9.40473779296875,2.2046558243781327,0.6293525266684591,-4.307933341252803
1788862663965744000,9.414744140625,1.7857044361203909,1.7827013087816534,-4.912439449825882
1788862663975751000,9.4247509765625,1.8380308356851338,3.269593917110562,-4.416382610055804
1788862663985757000,9.4347568359375,2.1515537642657754,3.5549914059251546,-2.8830823246866464
1788862663995763000,9.444762939453126,2.3274387389600277,2.3683941419437526,-1.7291092731952666
1788862664005770000,9.45477001953125,2.8491408921182155,0.7368273974813521,-0.9999959572225808
1788862664015776000,9.46477587890625,2.9013918883591887,-0.07265095632150768,-0.6540531065523624
1788862664025782800,9.47478271484375,1.2185621357798575,0.33201910086646674,-1.2080179454118012
1788862664035789000,9.4847890625,0.3767997612267732,0.9533778523020445,-1.8775217190742493
1788862664045795800,9.4947958984375,0.048519993019104,0.7729562570914625,-1.0332534991800784
1788862664055801900,9.5048017578125,0.16726970656216145,0.1410990541256964,-0.7056552834957838
1788862664065809000,9.514808837890625,0.8522533734291792,-1.2865538681186734,-0.21286592108905314
1788862664075815000,9.52481494140625,0.07856792528033256,-2.41089385176003,-0.18050971188545226
1788862664085821000,9.534821044921875,-0.15815525673627853,-1.6443436623185872,-1.1817179675072431
1788862664095827700,9.54482763671875,1.1094482655882836,-0.6856351165130734,-1.6073159541726112
1788862664105834000,9.554833984375,1.7162217345714568,-0.5512909434750676,-1.8674533295243978
1788862664115841000,9.564841064453125,1.8494483017563819,0.02736804552748799,-3.149889094799757
1788862664125846800,9.5748466796875,2.1144085672199724,0.8987783932387828,-3.5904882512420415
1788862664135854000,9.58485400390625,1.6292881320059298,1.8668176619693635,-3.261583629134297
1788862664145859800,9.59485986328125,1.6790917350947856,2.7373206855773926,-2.7688597331792115
1788862664155867000,9.604866943359376,1.7477461691260336,2.9758845270246264,-1.962224786108732
1788862664165873000,9.614872802734375,1.8244956468075513,2.6071856546670196,-1.5242688376516103
1788862664175879000,9.62487890625,2.779006448662281,2.1063176152229306,-1.4245014724761247
1788862664185886000,9.634885986328126,3.2006963219732043,1.8715037739589808,-1.2559399725377558
1788862664195892000,9.64489208984375,2.243475092115998,1.935661773353815,-1.4559236157000064
1788862664205899000,9.65489892578125,1.1236240904569625,1.9564312973991036,-1.7931173427253961
1788862664215905000,9.664905029296875,0.8430623512357472,1.9814765990674494,-1.6379688665896652
1788862664225911800,9.674911865234375,1.7982301556944846,1.7781515365228056,-0.5785363855361938
1788862664235917800,9.684917724609376,1.1900643555700778,1.0116007625594734,0.4481768982201814
1788862664245924900,9.6949248046875,0.3527326569408178,0.1112836154460907,0.39978257740736006
1788862664255931000,9.704930908203124,1.463630536815524,-0.8772840620502829,0.39406186167299745
1788862664265937000,9.71493701171875,1.7407734075039625,-1.6013918248206376,0.26420389413833617
1788862664275944000,9.72494384765625,0.9369447500258684,-1.7682237244874237,-0.6957943992167711
1788862664285950000,9.734949951171876,0.7027963869333267,-1.7614555455267429,-1.3485866920530796
1788862664295956700,9.744956787109375,0.15538813011050223,-1.6599667633861301,-1.1658908683001994
1788862664305962800,9.754962646484374,-0.4280068013727665,-2.0682325069785117,0.01608136622905731
1788862664315970000,9.764969970703126,-1.6540747827380895,-2.664772751238942,1.2134867322117089
1788862664325975800,9.774975830078125,-2.078482098314166,-3.2276977261453865,1.8001789516746998
1788862664335982800,9.78498291015625,-1.6365180832594632,-3.8233956743627786,2.1107383542746305
1788862664345988900,9.79498876953125,-1.8757441880077121,-3.8841736759304997,2.15924841042161
1788862664355996000,9.804995849609375,-2.4000953943699597,-3.5887434534013267,2.214685635483265
1788862664366002000,9.815001953125,-2.2203145812809466,-3.2179256891936063,2.3610645297080275
1788862664376007700,9.825007568359375,-1.7068039178848267,-2.965802108949423,2.5712702916771173
1788862664386015000,9.835014892578124,-0.97301091966331,-2.8256284991055725,3.269138574558496
1788862664396021000,9.84502099609375,-0.8942296438932418,-2.7400433885395525,3.737950849050283
1788862664406027800,9.85502783203125,-1.4330439676329492,-2.3515678025662896,2.5263679046332834
1788862664416034000,9.865033935546874,-1.4889698529943822,-1.7346628156691788,0.8836749321311712
1788862664426040800,9.875040771484375,-1.5860668299168348,-1.2479828760534524,0.1550198813199997
1788862664436046800,9.885046875,-1.4977224837705492,-0.5206505982786417,-0.04803250176310539
1788862664446054000,9.895053955078126,-0.9677093061238526,0.3961152870714664,-0.2119353622406721
1788862664456060000,9.905059814453125,-0.21664456284493205,0.9847866976529359,-0.27853198695927855
1788862664466066000,9.91506591796875,0.4390098414242267,0.9768716867446899,0.818487589688599
1788862664476072700,9.92507275390625,0.2852554499953985,0.7671107459336519,2.196473394705355
1788862664486079000,9.935078857421875,-0.4619219304561615,0.7448749487280846,1.1320309765353798
1788862664496085800,9.945085693359376,-0.2265525011360645,0.6850450416654348,0.2096510506957769
1788862664506091800,9.955091796875,-0.2582517077356577,0.8629647370576858,0.13132307165116072
1788862664516099000,9.96509912109375,-0.5690653773576021,1.0445464620888232,0.837635650011897
1788862664526104800,9.975104736328126,-1.2604089346453546,0.46155660427510736,2.047898159480095
1788862664536111900,9.98511181640625,-1.3348779001742601,-0.6067337214946746,2.489884386366606
1788862664546118100,9.9951181640625,-1.1534645174473523,-1.4495172557890414,2.8039830690085887
1788862664556124000,10.0051240234375,-1.7817489764928818,-1.7080144627183675,2.339324991586804
1788862664566131000,10.015130859375,-1.8586448769077657,-1.447401286548376,0.5842787285804748
1788862664576136700,10.02513671875,-1.5184721340715883,-1.2739251265615223,-0.9565876081287861
1788862664586144000,10.03514404296875,-0.9950298592478036,-0.8734235872298478,-2.030896755796671
1788862664596150000,10.04514990234375,-0.12231880420148372,-0.4923088854134082,-1.6055547897189855
1788862664606156800,10.05515673828125,0.3050245648264885,-0.9629244099348783,0.5781552772641182
1788862664616163000,10.0651630859375,0.28790830259174105,-1.8682710756480694,1.9540981782764195
1788862664626169900,10.075169921875,-0.4096878853499889,-2.733393867522478,1.523219620859623
1788862664636176000,10.08517578125,-1.5882038419455289,-3.024475247192383,0.09226444219946861
1788862664646182000,10.095181884765625,-1.46968998298496,-2.6672528776168822,0.022079145339131353
1788862664656189000,10.10518896484375,-1.5343611925989389,-1.4340326864093542,0.9297042773783206
1788862664666195000,10.11519482421875,-1.389664552372694,-0.23886136308908462,1.5464017590045929
1788862664676201700,10.12520166015625,-0.6708627870559692,0.6255535727769136,1.8688585201472043
1788862664686208000,10.1352080078125,-0.3131216543033719,0.9543155715435743,1.9805191522121428
1788862664696215000,10.145215087890625,-0.5126289121255279,0.7821247751921415,1.5301438671648502
1788862664706220800,10.155220703125,-0.6181809981822968,0.27907588457763194,0.7415630477011204
1788862664716228000,10.16522802734375,-0.1406184310019016,-0.1453121417760849,0.23282091388106343
1788862664726233900,10.17523388671875,0.9523094924181699,-0.3046352732479572,0.2852133644193411
1788862664736241000,10.185240966796876,1.8292843423888085,-0.317326997038722,0.09150865539610385
1788862664746247000,10.195246826171875,1.8874089068382978,-0.20578853004872796,-0.723760264506936
1788862664756253000,10.2052529296875,1.400192376127839,-0.16889993811249732,-1.5449059674888848
1788862664766260000,10.215260009765625,0.3943248965233564,0.13705343199670314,-1.920831283968687
1788862664776266000,10.225265869140625,-0.31221827572286126,0.34486791491508484,-0.9076531890898942
1788862664786273000,10.23527294921875,-0.2273421902090311,-0.2696510536283254,1.5414841763466596
1788862664796279000,10.245279052734375,-0.4397106831699609,-1.3708213202148676,3.3408202474564312
1788862664806285800,10.255285888671875,-0.9352356080204248,-2.1131904236018655,2.9124942971318957
1788862664816291800,10.265291748046875,-1.2004431262433528,-2.354667522147298,1.2977356257379054
1788862664826299000,10.275298828125,-0.4649842406362295,-1.9023703291267156,-0.06072130294442177
1788862664836305000,10.285304931640624,0.2974637741833925,-1.3416823194921015,-0.9401952762544155
1788862664846311700,10.295311767578125,0.7536299175918102,-1.259964405748248,-1.0257517452478409
1788862664856318000,10.30531787109375,0.8021715379208326,-1.416018890812993,-0.5765262147575616
1788862664866324000,10.315323974609376,0.6240957751840353,-1.420088332208991,-0.03397299675047397
1788862664876330800,10.325330810546875,0.09935177011191844,-1.3158701251044869,0.45246553532481193
1788862664886337000,10.3353369140625,-1.5619038640409708,-0.8188897407487035,0.29495617527663703
1788862664896344000,10.345343994140626,-2.222065224340558,-0.10815583881437778,0.5233136800080538
1788862664906349800,10.355349853515625,-1.4044056099087,0.41091830392777917,1.7294494649350642
1788862664916357000,10.365357177734374,-1.0971364810258148,0.426198582907021,2.4865496889859435
1788862664926363000,10.37536279296875,0.389010423502326,-0.4979574126943946,2.69463480553925
1788862664936370000,10.385369873046875,2.8724346739441153,-2.228199197050929,2.2344565038800237
1788862664946376000,10.3953759765625,4.713860997286439,-4.117415737833082,0.3529249646425247
1788862664956382000,10.4053818359375,4.849726680803299,-4.7546261383950705,-1.9494348626405
1788862664966389000,10.415388916015624,3.3726515560030936,-3.5193846704930065,-3.7990479995697735
1788862664976395000,10.42539501953125,3.0389713900566098,-1.4370903204143046,-4.282661537352204
1788862664986402000,10.435402099609375,2.255139226424694,0.4151721619799733,-4.243506169527769
1788862664996408000,10.445407958984376,1.5533330195724964,1.4884589808627962,-4.476134775707125
1788862665006414800,10.455414794921875,1.82561734431386,2.421325083272904,-5.068845817068219
1788862665016420900,10.4654208984375,2.4280583370506763,3.668546473434567,-5.827139050295949
1788862665026428000,10.475427978515626,3.0178748260140416,4.092019138509035,-5.616010328263044
1788862665036434000,10.485433837890625,2.5722002660036085,3.2444436937630177,-4.419760562056303
1788862665046441000,10.49544091796875,2.144199309849739,1.2689254185780883,-2.554320325919986
1788862665056447000,10.505447021484375,1.9085329434096812,-0.8645650118611753,-0.6468798539221287
1788862665066453000,10.515452880859375,0.7002244906187057,-0.7486386851757765,-1.20257429305315
1788862665076459800,10.525459716796876,-0.08149988707900047,0.719096802740544,-2.1889655032932755
1788862665086465800,10.5354658203125,-0.9541022210538387,1.3287383745059371,-1.4188105673581362
1788862665096473000,10.54547314453125,-0.6296136618226766,0.8543978381119668,-0.09339549205601215
1788862665106478800,10.555478759765625,-0.11450374653637409,-1.0161356295101345,1.1235101086884736
1788862665116486000,10.56548583984375,-0.6175520526289939,-1.9179079438678919,0.37016426873505115
1788862665126492000,10.575491943359374,-0.38188802427649493,-1.2033860478274523,-0.7733785741567611
1788862665136499000,10.5854990234375,-0.2041010153532028,-0.2355724045462906,-1.2601134588301182
1788862665146505000,10.5955048828125,-0.14509294606745243,0.587724777381122,-1.6979864051789044
1788862665156510700,10.6055107421875,0.20687983241677282,0.7716206245735288,-1.40908646120131
1788862665166518000,10.61551806640625,-0.07473521524965762,0.7429631237573922,-1.1022048703312872
1788862665176524000,10.62552392578125,0.8974228869765997,0.92874960700199,-1.1674912892341613
1788862665186531000,10.635531005859375,2.0459253981024026,0.5745806336477398,-0.7975292650729418
1788862665196537000,10.645537109375,1.5006553223520516,-0.08542612061202526,-1.3479694369375705
1788862665206544000,10.6555439453125,1.8707395115882157,-0.09480097493976354,-2.7230717954725026
1788862665216550000,10.6655498046875,1.9243267248690128,0.4793079495429992,-3.615525077342987
1788862665226557000,10.675556884765625,1.1335521947532892,1.4179220940858124,-3.981431104111671
1788862665236563000,10.68556298828125,0.6624199528813361,2.5123604220688343,-3.9556080960690974
1788862665246570000,10.695570068359375,0.3184983789056539,3.3592420393317934,-3.470446159800887
1788862665256576000,10.705575927734374,1.0335860921353102,3.648896016547084,-2.214015773397684
1788862665266582000,10.71558203125,2.2260125006616116,3.094093265558779,-0.8963175560832023
1788862665276588800,10.7255888671875,2.2475977250039576,1.8074308224990963,-0.6018740065038204
1788862665286594800,10.7355947265625,2.1945646384745836,0.5834592288911342,-1.3114105153471232
1788862665296602000,10.74560205078125,2.499016371849179,-0.48484600218683477,-1.6054104128122328
1788862665306607900,10.75560791015625,1.9083949962437152,-1.0580661611363291,-1.558687824603915
1788862665316615000,10.765614990234376,1.008714685729146,-0.8732564139693975,-1.7168103481143713
1788862665326621000,10.775620849609375,1.2345026322335004,-0.4647063004776835,-1.2740922998219728
1788862665336628000,10.7856279296875,1.3142647357344626,-0.04744564178586006,-0.31360008547008034
1788862665346634000,10.795634033203125,0.46620647590756414,0.3908411460608244,0.3428431310892105
1788862665356641000,10.80564111328125,0.048688335323333734,0.47372225836515425,0.7439549112737178
1788862665366647000,10.81564697265625,-0.014176409390568733,0.15621639762818812,1.2698685446470974
1788862665376653000,10.825653076171875,-0.1609393344968557,-0.2372451600641012,1.9508090736031531
1788862665386659800,10.835659912109374,-0.40587329549789425,-0.7989116593420506,2.4784026228874922
1788862665396666000,10.845666015625,-1.1192734940320253,-1.3356570678532123,2.3968770168453455
1788862665406673000,10.8556728515625,-0.7847668141335249,-2.0429566114246844,2.1403496486842633
1788862665416679000,10.865678955078126,-0.028355741390585897,-2.74437469574213,2.1981319755673407
1788862665426686000,10.87568603515625,-0.5132815308153629,-3.0274224065601825,1.7671628172576426
1788862665436692000,10.88569189453125,-1.4591972305431962,-2.793767379942536,0.4217798896819353
1788862665446699000,10.895698974609376,-1.1744143664956093,-2.3952543840795752,-0.5487409667313099
1788862665456704800,10.905704833984375,-1.6590838430717587,-1.9927081871777772,-0.694655166053772
1788862665466712000,10.915712158203124,-2.4568524698585272,-1.4473171153962612,0.14629121594130992
1788862665476717800,10.9257177734375,-2.0970605420559645,-1.1608481979578733,2.325617953273654
1788862665486723800,10.935723876953125,-1.2003797056183219,-1.414596164533496,4.825931379196048
1788862665496731100,10.945731201171874,-0.6406894748494029,-2.119875600454211,5.9093082149386404
1788862665506737000,10.95573681640625,-0.6733075498595833,-3.2935458705842495,5.273460627162456
1788862665516744000,10.965743896484375,-1.5783502641901372,-4.3064480711311095,3.0551153001278637
1788862665526750000,10.97575,-1.3670017619267105,-4.850815060561895,1.5437845622435211
1788862665536757000,10.985757080078125,-1.8800038912788033,-4.739340890979767,1.079502916918695
1788862665546763000,10.995762939453124,-1.9216855627104639,-3.722135440281033,0.8585036659955978
1788862665556769800,11.005769775390625,-1.7010148130893705,-2.690996741297841,1.8710943163752556
1788862665566776000,11.015776123046875,-1.5415452588841319,-2.131873496761918,3.2494153446957466
1788862665576782000,11.025781982421876,-1.157385198022425,-1.6172878976106644,4.024093018752336
1788862665586788900,11.035788818359375,-0.9950210914194584,-1.039457029995322,3.458422544530034
1788862665596795000,11.045794921875,-0.39436172140240666,-0.13987491915822028,1.7528896694943308
1788862665606802000,11.055802001953126,-0.019447043269872663,0.9325415466308593,-0.39912031410634513
1788862665616808000,11.065807861328125,0.37604689703285693,1.9719804564476011,-1.9148904957428574
1788862665626814700,11.075814697265624,0.7109989826112986,3.012799422445893,-2.7901749084085226
1788862665636821000,11.085821044921875,0.9018544396832585,3.5492023011296987,-3.1829110744357108
1788862665646828000,11.095828125,1.3820242667526006,3.252339415448904,-2.748973713970184
1788862665656833800,11.105833740234376,1.5749001237362623,2.521791682758927,-1.6399901432842015
1788862665666841000,11.115841064453125,0.8189458548501134,1.7486381495296954,-0.450178885692358
1788862665676847000,11.12584716796875,0.25227321784794327,1.132619882339239,0.15486381397545337
1788862665686852900,11.135852783203125,0.18625059362500904,0.8476496790260076,0.14081716844439507
1788862665696860000,11.14585986328125,0.16811960138976573,0.8340922783166169,-0.2323562189787626
1788862665706866000,11.155865966796876,0.45178106019198894,1.0028577763944864,-0.5823445456475019
1788862665716873000,11.165873046875,0.8277706740796565,1.1629472160637377,-0.6695645639389753
1788862665726879000,11.17587890625,0.9559130698680877,1.1343085660785437,-0.31345687760710716
1788862665736886000,11.185885986328126,0.7885723438963294,0.8766723598927258,-0.06649404112696647
1788862665746892000,11.19589208984375,0.5742039092898369,0.6097498544454574,-0.40472354094088075
1788862665756898800,11.20589892578125,-0.6779886934131384,0.6049906772196293,-1.0150304447472094
1788862665766904800,11.21590478515625,-2.2088032994464037,0.70592357904315,-1.3093114972412585
1788862665776912000,11.225911865234375,-2.9685312416523693,0.6746013890624046,0.7310381465554237
1788862665786918000,11.23591796875,-4.510699308609962,0.15995909128785132,5.744118821781873
1788862665796925000,11.245925048828125,-5.760100819289684,-1.558206763088703,11.229243008506298
1788862665806931000,11.255930908203124,-4.481341404439509,-4.802653963983059,14.96665492837429
1788862665816937000,11.26593701171875,-2.460882456026971,-7.954360337337851,13.320398125910758
1788862665826944000,11.275944091796875,-1.611661874422431,-9.048051646345852,6.51711511862278
1788862665836950000,11.285949951171874,-0.8235714688241481,-8.110823403203486,1.242992812681198
1788862665846957000,11.29595703125,1.1824591412633656,-5.517908850473165,-0.8106126185297966
1788862665856963300,11.30596337890625,1.7102379839867352,-3.4346184750944375,-1.2191641933262347
1788862665866970400,11.315970458984374,0.8787667018234729,-2.76585090675205,-1.1320002891361713
1788862665876976000,11.32597607421875,1.2562076835632323,-2.495524730341136,-0.4834913727074861
1788862665886983400,11.3359833984375,1.415634859931469,-2.4690847594439984,0.5345329931586981
1788862665896989400,11.345989501953126,0.36074294491708275,-2.550867847378552,1.0380980166018008
1788862665906995200,11.3559951171875,0.07415069335997104,-2.3036335004806516,0.7217179450243711
1788862665917002500,11.36600244140625,0.8906108688741922,-1.4047843800932167,0.10797229894101619
1788862665927008500,11.376008544921875,2.0858400598615408,0.15602876610159874,-0.8279121283769607
1788862665937015300,11.386015380859375,3.551489535284042,1.5959481724619864,-2.064158389407396
1788862665947021300,11.396021240234376,5.344785157185792,2.4189172914788126,-3.133519559279084
1788862665957028400,11.4060283203125,6.122998311892151,2.547844992426038,-4.076409481444955
1788862665967034400,11.416034423828124,5.928132157874107,2.1944325365275144,-4.833464112788438
1788862665977041200,11.426041259765626,5.0547290289103985,1.6264634299740195,-5.83592149168849
1788862665987047400,11.43604736328125,3.6936096030205485,1.192747895565629,-6.685829178774356
1788862665997054500,11.446054443359374,2.6770360204845667,1.1713809901490806,-6.536655100873112
1788862666007060200,11.456060302734375,1.4977069939404726,1.5438655185252428,-5.118306305807828
1788862666017067500,11.466067626953125,0.45830257091522214,1.8154279587328432,-3.148954444298148
1788862666027073300,11.4760732421875,0.18271628201901913,1.377256321698427,-2.020374192738533
1788862666037079300,11.486079345703125,0.058981765800714486,0.5388312748745083,-2.084126826202869
1788862666047086300,11.49608642578125,0.6315782398939133,0.08800269310176372,-1.7896382684379815
1788862666057092400,11.50609228515625,0.7722837646573781,-0.04668430202454328,-1.2052800448805092
1788862666067099400,11.516099365234375,0.5734966378033161,-0.5550926738455891,-0.08419219490289688
1788862666077105400,11.52610546875,-0.7030506539553404,-1.0142693972468375,1.2032470777481794
1788862666087112400,11.536112548828125,-1.7924474806398152,-0.6230123638615012,1.533760304096341
1788862666097118500,11.546118408203125,-0.9508142854243516,0.09813815653845667,2.227740931889415
1788862666107125200,11.556125244140626,-1.844308016258478,0.7349914142258465,2.3628403072088955
1788862666117131300,11.56613134765625,-1.6698071893990039,0.8727771060198545,2.215388230794668
1788862666127137500,11.576137451171874,0.2842179236412048,-0.11245543570443987,2.205637821152806
1788862666137144300,11.586144287109375,0.9460814116835594,-1.8629707772828636,0.338299057918787
1788862666147150300,11.596150390625,0.9085901776790618,-1.99776634735018,-2.1799445769697425
1788862666157157400,11.606157470703126,0.35729835742115973,-1.1463573157906533,-3.146310067269206
1788862666167163400,11.616163330078125,0.14348375730514526,0.3847837457180023,-3.9611318279266357
1788862666177170200,11.626170166015624,0.24639701929092406,2.112812822461128,-4.458741742357612
1788862666187176200,11.63617626953125,0.14272855502367018,2.889821277552843,-3.281429900854826
1788862666197183500,11.64618359375,1.0314987644672393,1.9026719424217937,-1.1248241138964892
1788862666207189200,11.656189208984374,2.488636432132125,0.46445378702133894,0.04617313763201236
1788862666217196300,11.6661962890625,3.8947470923930405,-0.251239637016505,-0.5834370170593262
1788862666227202300,11.676202392578125,3.653966159418225,-0.6231168471492826,-2.2497294763356446
1788862666237209300,11.686209228515626,2.0125304935008286,-0.44544776551723475,-3.8094764546036717
1788862666247215400,11.69621533203125,1.0169354015856982,0.6356424205929041,-5.41528726491034
1788862666257221000,11.70622119140625,0.7418091314166784,1.4561886963769792,-5.9624494380176065
1788862666267228400,11.716228515625,0.11713292599618434,2.2542452001944184,-4.889079617026448
1788862666277234400,11.726234375,0.592598228636384,2.4680118695154785,-2.467399582836032
1788862666287241200,11.7362412109375,1.6826970661103724,1.586321973721683,-0.0914238997220993
1788862666297247500,11.74624755859375,2.3056530236095187,0.16364187145382164,0.6493991432666778
1788862666307254300,11.756254150390625,1.9759674802571534,-0.7557324428290129,-0.49576340978145594
1788862666317260300,11.76626025390625,1.3187410043656824,-0.8722901992857456,-2.266655476695299
1788862666327267300,11.776267333984375,1.3205126902133226,-0.5821361635938287,-2.7338720064282414
1788862666337273300,11.7862734375,1.21820323933959,0.23100363532602786,-2.403373393127322
1788862666347280400,11.7962802734375,0.565833555829525,1.313542558939755,-2.1914947295099494
1788862666357286100,11.8062861328125,-0.1164116259843111,2.5661703381896017,-1.8905185632914303
1788862666367292400,11.81629248046875,0.44439387255012985,3.265185453018546,-0.9505985968470573
1788862666377299200,11.82629931640625,1.6739730769068002,2.9515093797028062,0.1530190628916025
1788862666387305200,11.83630517578125,2.0319179155379534,2.043712982749939,0.20718670640885828
1788862666397312500,11.8463125,2.106622735649347,1.1236293511539697,-0.7244003159761429
1788862666407318300,11.856318359375,2.401758943668008,0.45275896531343457,-1.4795996748417615
1788862666417325300,11.8663251953125,2.015323923611641,-0.034141339054703713,-1.0425538269668817
1788862666427331300,11.876331298828125,-0.8061006940633058,-0.7138257304698229,-0.18314707465171812
1788862666437338400,11.88633837890625,-3.0764702228456735,-1.8371394398033618,0.5905278521031141
1788862666447344400,11.896344482421876,-0.9381564639031886,-3.407580246043205,2.3321558306097985
1788862666457351200,11.90635107421875,1.7034318111032247,-5.139888607540726,4.4794460922122
1788862666467357400,11.916357421875,0.29686639281213284,-6.698477063423395,4.935045249387621
1788862666477363500,11.926363525390625,-2.2044529952824115,-6.783263132566213,2.0145260512322185
1788862666487370200,11.936370361328125,-2.3741145654171705,-5.984699848270416,-1.0432523306250572
1788862666497376500,11.94637646484375,-3.3572818451747297,-5.177136095917224,-1.0457412248313427
1788862666507383300,11.95638330078125,-4.324288555987179,-4.269198829188943,1.5473632975131273
1788862666517389300,11.966389404296875,-4.61285941414088,-2.92733238530159,4.27918246306479
1788862666527396400,11.976396240234376,-3.864256677061319,-2.0838485937833786,5.980611117652058
1788862666537402400,11.98640234375,-2.792824546134472,-2.0354817454993723,6.095730950260162
1788862666547409400,11.996409423828124,-2.7229569369211792,-1.8968822531044482,4.313016343605518
1788862666557415200,12.006415283203125,-2.639300748591125,-1.46656600574553,2.356367896324396
1788862666567422500,12.01642236328125,-2.1757409878000615,-0.788800599694252,0.7689338697075844
1788862666577428200,12.02642822265625,-1.1286740673229099,-0.2190595150321722,-0.3531973518431186
1788862666587434200,12.036434326171875,-0.47538551540225743,0.12744155404269694,-0.7244757192999124
1788862666597441500,12.046441650390625,-0.32690847985446453,0.18294015390276908,-0.05847907697558403
1788862666607447300,12.056447265625,0.008495733405649662,-0.10335574505627154,0.858176918259263
1788862666617454300,12.066454345703125,0.5152978390738367,0.10405424871444702,0.995825393539667
1788862666627460400,12.07646044921875,0.5104422157362103,1.1143921517312525,0.4301128337413072
1788862666637467400,12.08646728515625,0.5880749059930444,2.508707160258293,-0.7562620196610689
1788862666647473400,12.096473388671875,1.3373945591703056,3.695236911961436,-1.43974755692482
1788862666657480200,12.106480224609374,2.006120041936636,4.257538786533475,-1.0999071147829294
1788862666667486500,12.116486572265625,2.1243021847248076,3.422133087530732,-0.14252923305928705
1788862666677493200,12.1264931640625,1.600290585580468,2.090132204097509,-0.17322540009617804
1788862666687499300,12.136499267578126,0.41072628848701714,1.0650953291207552,-1.8540443973749874
1788862666697506300,12.14650634765625,-1.1460469346672295,0.3476841413795948,-3.175813809651136
1788862666707512300,12.15651220703125,-3.6981419857531783,-0.8552496326357125,-1.506993877723813
1788862666717518300,12.166518310546875,-5.343773349794745,-2.211259168165922,3.277103854349255
1788862666727525000,12.176525146484375,-5.738517348513007,-4.12242888981998,8.317264259681105
1788862666737531400,12.186531494140626,-4.967042562150955,-7.343254392108321,11.608270382654666
1788862666747538400,12.196538330078125,-5.347892475551366,-10.000411992168425,10.57723105239272
1788862666757544200,12.206544189453124,-4.730594689944386,-10.273201343822478,7.328833068045974
1788862666767551500,12.216551513671876,-2.8610300673544407,-8.86278860245347,4.945852474606037
1788862666777557200,12.22655712890625,-1.0948664902672172,-6.88008100028634,2.2788889353245496
1788862666787564300,12.236564208984374,-0.3430088430449366,-5.003323835843801,0.0072463178664445875
1788862666797570300,12.2465703125,0.4198775631919503,-3.420765306308865,-1.365094759261608
1788862666807577300,12.256577392578125,1.4076146350830792,-2.1531483399808407,-1.6814169631719589
1788862666817583400,12.266583251953126,1.6830436875909567,-1.6048796669363974,-1.3446300633817911
1788862666827590100,12.276590087890625,1.7177885454967616,-1.6987205646723509,-0.9195634071141481
1788862666837596400,12.286596435546874,1.6462229001939295,-1.6502052478283642,-0.6767483379632234
1788862666847602400,12.2966025390625,1.4515344408303499,-1.1163584833681583,-0.567370263877511
1788862666857609200,12.306609130859375,1.3219938686817885,-0.05264437947273254,-0.6747597944945096
1788862666867615200,12.316615234375,1.2878998759001492,1.1569015061587093,-1.052417049333453
1788862666877622300,12.326622314453125,1.2066478261023759,2.175644833949208,-1.509720672339201
1788862666887628300,12.336628173828124,1.1743798797041176,2.9760020159244536,-2.1221113966822625
1788862666897635300,12.34663525390625,1.3880340285614132,3.4439988823801277,-2.9163083024621006
1788862666907641000,12.35664111328125,2.03403154669106,3.632145957276225,-3.848037363666296
1788862666917648400,12.3666484375,3.164791772638261,3.7057583059757944,-4.438513193321228
1788862666927654100,12.376654052734375,3.6951302367165684,3.4554835684686895,-4.408375244688988
1788862666937661200,12.3866611328125,3.3727935948222876,2.68501182166934,-3.951184434407949
1788862666947667500,12.39666748046875,2.92780730933696,1.854847530451417,-3.428793129941821
1788862666957673200,12.406673095703125,2.2710563420027494,1.298493750628829,-2.897072271594405
1788862666967680300,12.41668017578125,0.9847954654812813,0.9896277079433202,-2.645319278228283
1788862666977686300,12.426686279296876,0.16166998685896394,0.8405424773693084,-3.043393298152089
1788862666987693300,12.436693359375,0.5901601878345012,0.9672709147065878,-3.6257027724862096
1788862666997699300,12.44669921875,1.112695869207382,1.2627058134108782,-3.944735404399037
1788862667007706000,12.4567060546875,1.1289052457302808,1.065220416805148,-3.608816519615054
1788862667017712400,12.46671240234375,0.5845967084884643,0.5522767396420241,-2.630623228877783
1788862667027719200,12.47671923828125,-0.38743864414095874,0.18130407713353633,-1.6554542543977497
1788862667037725200,12.48672509765625,-1.6688491580218077,0.1825000089198351,-0.9331547100931405
1788862667047732500,12.496732421875,-2.591753692257404,0.593521480961144,0.09490706566274165
1788862667057738200,12.50673828125,-3.0713667622268197,0.8235746836945415,1.2447282581716774
1788862667067745300,12.516745361328125,-3.165284816852212,0.8773530356332659,2.3641087197095154
1788862667077751300,12.526751220703124,-1.9441537073671817,0.7011462816387415,3.3643396547317503
1788862667087757300,12.53675732421875,-0.4628671023517847,-0.07716302691847085,4.098654631000757
1788862667097764400,12.546764404296875,-0.07109715100824833,-1.0798565526619552,4.838697921788692
1788862667107770000,12.55677001953125,-0.45683016027510165,-1.5685259125292301,5.651811124962568
1788862667117777400,12.56677734375,-0.3079734777599573,-1.8778408680260181,5.53474132733047
1788862667127783400,12.576783447265624,0.7867594492554664,-2.279253092461824,3.0832325565874577
1788862667137790200,12.586790283203126,1.61675481364727,-2.3662279038205742,-0.2737146498054266
1788862667147796500,12.59679638671875,1.4843641127645968,-1.6599714395612477,-2.8866631057828664
1788862667157803300,12.60680322265625,1.1369383300602436,-0.4511950769975781,-3.9734371827483175
1788862667167809300,12.616809326171875,0.8971580985605716,0.35452538557648655,-3.824575239536166
1788862667177816300,12.62681640625,0.5031149415880442,0.6133844115555286,-3.9945787549763914
1788862667187822300,12.636822265625,0.5062877264052629,0.6482222084417939,-4.577549908089638
