time,seconds_elapsed,z,y,x
1788862654594788900,0.043788818359375,0.9426104426383972,1.960963487625122,-0.1342986822128296
1788862654604795600,0.053795654296875,1.1221381425857544,2.0611956119537354,-0.20708687603473663
1788862654614801700,0.0638017578125,1.273275375366211,2.019848108291626,-0.2696378529071808
1788862654624807700,0.0738076171875,1.4246689081192017,1.9803348779678345,-0.36640700697898865
1788862654634813700,0.083813720703125,1.517055630683899,1.886910319328308,-0.4489508867263794
1788862654644820700,0.09382080078125,1.456545114517212,1.8655563592910767,-0.47252413630485535
1788862654654826800,0.10382666015625,1.2972904443740845,2.0466012954711914,-0.4450286030769348
1788862654664832500,0.11383251953125,1.0558093786239624,2.362485885620117,-0.3924300968647003
1788862654674838800,0.1238388671875,0.7306949496269226,2.4782044887542725,-0.3292287588119507
1788862654684845600,0.133845458984375,0.3814043402671814,2.189828872680664,-0.20569324493408203
1788862654694851600,0.1438515625,0.057076867669820786,1.8243337869644165,0.026247583329677582
1788862654704857600,0.153857666015625,-0.2022516429424286,1.4957817792892456,0.33264079689979553
1788862654714863900,0.16386376953125,-0.40938565135002136,1.0887463092803955,0.6258519291877747
1788862654724870700,0.17387060546875,-0.5237876176834106,0.5422137379646301,0.8213231563568115
1788862654734876700,0.183876708984375,-0.6075447797775269,-0.10039637982845306,0.8971907496452332
1788862654744882700,0.193882568359375,-0.6565338969230652,-0.8394853472709656,0.86776202917099
1788862654754888700,0.203888671875,-0.6815186142921448,-1.5502654314041138,0.7540463805198669
1788862654764895700,0.213895751953125,-0.7341471910476685,-2.2736587524414062,0.6217842102050781
1788862654774901500,0.223901611328125,-0.8157778978347778,-2.812680959701538,0.47874635457992554
1788862654784907500,0.233907470703125,-0.9480147957801819,-3.1685478687286377,0.2981320917606354
1788862654794913800,0.243913818359375,-1.1251543760299683,-3.2640767097473145,0.083328977227211
1788862654804920600,0.253920654296875,-1.3010740280151367,-3.0212531089782715,-0.13969211280345917
1788862654814926600,0.263926513671875,-1.4371293783187866,-2.4623024463653564,-0.3622828423976898
1788862654824932900,0.273932861328125,-1.450645923614502,-1.7421427965164185,-0.577339768409729
1788862654834939000,0.28393896484375,-1.247573733329773,-1.4329005479812622,-0.5467211604118347
1788862654844945700,0.293945556640625,-0.9042031168937683,-1.2169504165649414,-0.4689781367778778
1788862654854952200,0.3039521484375,-0.5161086320877075,-0.9606853127479553,-0.4058351218700409
1788862654864958000,0.3139580078125,-0.21149680018424988,-0.6008219122886658,-0.3426889181137085
1788862654874964200,0.323964111328125,-0.009082178585231304,-0.440160870552063,-0.3525441884994507
1788862654884971300,0.33397119140625,0.07034286856651306,-0.5419676303863525,-0.46712324023246765
1788862654894977000,0.34397705078125,0.09460453689098358,-0.7743098139762878,-0.5852016806602478
1788862654904983000,0.353983154296875,0.1787087619304657,-0.9452077746391296,-0.6176232695579529
1788862654914989300,0.3639892578125,0.4283236563205719,-0.9812608957290649,-0.5618508458137512
1788862654924996000,0.37399609375,0.8332256078720093,-0.8875391483306885,-0.42312756180763245
1788862654935002000,0.384002197265625,1.218510389328003,-0.6809558868408203,-0.19155558943748474
1788862654945008000,0.394008056640625,1.3972277641296387,-0.37943601608276367,0.027825772762298584
1788862654955014100,0.40401416015625,1.3027726411819458,-0.17226657271385193,0.04180736839771271
1788862654965021200,0.414021240234375,1.0310885906219482,-0.17353689670562744,-0.1054859459400177
1788862654975027200,0.424027099609375,0.7861220240592957,-0.382215291261673,-0.20275737345218658
1788862654985033200,0.434033203125,0.6240598559379578,-0.7192721366882324,-0.2441287785768509
1788862654995039200,0.444039306640625,0.49546247720718384,-0.8114870190620422,-0.25211241841316223
1788862655005046000,0.4540458984375,0.5097748637199402,-0.6488916873931885,-0.22435294091701508
1788862655015052000,0.464052001953125,0.6277656555175781,-0.4474475383758545,-0.17954899370670319
1788862655025058300,0.474058349609375,0.762862503528595,-0.3043862581253052,-0.026090189814567566
1788862655035064300,0.484064208984375,0.8910170197486877,-0.2692703604698181,0.3147803246974945
1788862655045071000,0.494071044921875,1.1185036897659302,-0.4049554765224457,0.8051324486732483
1788862655055077000,0.5040771484375,1.3851464986801147,-0.8879058957099915,1.3408353328704834
1788862655065083400,0.51408349609375,1.4897490739822388,-1.4633140563964844,1.7221977710723877
1788862655075089200,0.524089111328125,1.3778960704803467,-1.9716383218765259,1.906870722770691
1788862655085096200,0.53409619140625,0.9682459831237793,-1.986358880996704,1.864639401435852
1788862655095102000,0.54410205078125,0.5781717300415039,-1.4150216579437256,1.559643030166626
1788862655105108200,0.554108154296875,0.39759156107902527,-1.1040294170379639,1.1148173809051514
1788862655115114200,0.5641142578125,0.38984230160713196,-1.2167633771896362,0.6768956780433655
1788862655125121000,0.57412109375,0.43967777490615845,-1.515244960784912,0.24615730345249176
1788862655135127000,0.584126953125,0.4670489430427551,-1.770633578300476,-0.14494600892066956
1788862655145133300,0.59413330078125,0.4425651729106903,-1.8218543529510498,-0.48545217514038086
1788862655155139300,0.604139404296875,0.37723276019096375,-1.585953950881958,-0.7725976705551147
1788862655165146000,0.61414599609375,0.3075205385684967,-1.3959816694259644,-0.9659924507141113
1788862655175152000,0.624152099609375,0.28928160667419434,-1.3640027046203613,-1.0253572463989258
1788862655185158100,0.634158203125,0.37414324283599854,-1.3471342325210571,-0.9413920044898987
1788862655195165200,0.644165283203125,0.5814521908760071,-1.3289844989776611,-0.7399592995643616
1788862655205171200,0.654171142578125,0.8356218934059143,-1.375859022140503,-0.4573148190975189
1788862655215177000,0.664177001953125,1.1185671091079712,-1.7083475589752197,-0.1666153520345688
1788862655225183200,0.674183349609375,1.4137533903121948,-2.327479839324951,0.08275293558835983
1788862655235190300,0.684190185546875,1.6969406604766846,-3.1809639930725098,0.2504276931285858
1788862655245196000,0.694196044921875,2.0464794635772705,-4.119743824005127,0.3566928803920746
1788862655255202000,0.7042021484375,2.4487502574920654,-4.891686916351318,0.4009157419204712
1788862655265208300,0.714208251953125,2.8786683082580566,-5.508606910705566,0.4157325029373169
1788862655275215000,0.724215087890625,3.3230276107788086,-6.07857084274292,0.5405993461608887
1788862655285221000,0.73422119140625,3.850529909133911,-6.789793014526367,0.8777275681495667
1788862655295227100,0.74422705078125,4.544456481933594,-7.553963661193848,1.4372273683547974
1788862655305233200,0.754233154296875,5.218384265899658,-8.298293113708496,2.1685805320739746
1788862655315240200,0.764240234375,5.6422858238220215,-9.003399848937988,2.952603340148926
1788862655325246200,0.77424609375,5.618143558502197,-9.369105339050293,3.5879313945770264
1788862655335252000,0.784251953125,5.103751182556152,-9.554944038391113,3.761441707611084
1788862655345258200,0.79425830078125,4.63723611831665,-9.730079650878906,3.5903992652893066
1788862655355265000,0.80426513671875,4.602170944213867,-9.620577812194824,3.5114822387695312
1788862655365271000,0.81427099609375,4.940096855163574,-9.271665573120117,3.7292795181274414
1788862655375277000,0.824277099609375,5.415939807891846,-8.193463325500488,3.850857734680176
1788862655385283300,0.834283447265625,5.780534744262695,-6.412167549133301,3.4724106788635254
1788862655395290000,0.8442900390625,5.8183135986328125,-4.159681797027588,2.6147143840789795
1788862655405296000,0.854296142578125,5.469281196594238,-1.7957098484039307,1.5934706926345825
1788862655415302100,0.86430224609375,4.753262042999268,-0.07632486522197723,0.6680694222450256
1788862655425309200,0.87430908203125,3.8189876079559326,1.0983800888061523,0.058813247829675674
1788862655435315200,0.884315185546875,2.9309890270233154,1.894543170928955,-0.30793970823287964
1788862655445321000,0.894321044921875,2.260289192199707,2.65932035446167,-0.7676599025726318
1788862655455327200,0.9043271484375,1.5673954486846924,2.3326845169067383,-1.3969496488571167
1788862655465334300,0.914334228515625,0.8699889183044434,1.7662649154663086,-1.787840723991394
1788862655475340000,0.924340087890625,0.7885103225708008,2.0775558948516846,-2.027871608734131
1788862655485346000,0.934345947265625,0.7031514644622803,2.1263420581817627,-1.8590174913406372
1788862655495352300,0.944352294921875,0.6985207796096802,2.0470731258392334,-0.9706777334213257
1788862655505359000,0.954359130859375,0.5267631411552429,1.6690733432769775,0.4620922803878784
1788862655515365000,0.964365234375,0.31702321767807007,1.1394579410552979,1.9078326225280762
1788862655525371100,0.97437109375,0.05154921114444733,0.7716740965843201,2.5001604557037354
1788862655535377200,0.984377197265625,0.1743539571762085,0.13624945282936096,1.8727694749832153
1788862655545384200,0.99438427734375,0.1419193148612976,-0.5194711089134216,1.169777274131775
1788862655555390200,1.00439013671875,0.08237476646900177,-0.6427025198936462,0.7655373811721802
1788862655565396000,1.01439599609375,-0.012586365453898907,-0.7727175354957581,0.7012894153594971
1788862655575403300,1.0244033203125,-0.19119872152805328,-1.2346702814102173,0.7942507863044739
1788862655585409300,1.0344091796875,-0.6097903847694397,-1.3079005479812622,0.8771701455116272
1788862655595415000,1.0444150390625,-1.1364057064056396,-0.6101882457733154,0.7935636639595032
1788862655605421000,1.054421142578125,-1.2291902303695679,-0.1827988475561142,0.6577304601669312
1788862655615428000,1.064427978515625,-1.273328423500061,-2.850600004196167,2.3692514896392822
1788862655625434000,1.07443408203125,-0.9282993674278259,1.0708847045898438,4.909068584442139
1788862655635440000,1.084440185546875,-0.7432571053504944,3.648364305496216,4.199143409729004
1788862655645446100,1.094446044921875,-0.3736412227153778,2.625290632247925,2.073884963989258
1788862655655453200,1.104453125,-0.2288619428873062,1.1882050037384033,0.8010548949241638
1788862655665459200,1.114459228515625,-0.43677040934562683,-0.486748069524765,-0.6035386323928833
1788862655675465200,1.12446533203125,-0.573832094669342,-1.7013542652130127,-1.513866662979126
1788862655685472300,1.13447216796875,-0.3928458094596863,-1.7070274353027344,-1.2836008071899414
1788862655695478300,1.144478271484375,-0.24680206179618835,-1.8757644891738892,-0.7529861330986023
1788862655705484000,1.154484130859375,-0.2698226869106293,-1.834218144416809,-0.132735937833786
1788862655715490000,1.164489990234375,-0.1866055727005005,-1.638838768005371,0.3759984076023102
1788862655725497300,1.174497314453125,-0.16285522282123566,-1.3065170049667358,0.6037527322769165
1788862655735503000,1.184503173828125,-0.13748915493488312,-0.979094386100769,0.5676663517951965
1788862655745509000,1.194509033203125,-0.028660140931606293,-0.587867259979248,0.3838951885700226
1788862655755515100,1.20451513671875,0.2144411951303482,-0.3939425051212311,0.3019888699054718
1788862655765522200,1.214522216796875,0.2286747246980667,-0.6210126876831055,-0.038664039224386215
1788862655775528200,1.224528076171875,-0.03777321055531502,-0.08735594153404236,-0.08953840285539627
1788862655785534200,1.2345341796875,-0.37106168270111084,0.11572526395320892,-0.36799877882003784
1788862655795541000,1.244541015625,-0.41245707869529724,0.3112628161907196,-0.7413574457168579
1788862655805547300,1.25454736328125,-0.46065229177474976,0.5982269644737244,-1.1927403211593628
1788862655815553300,1.26455322265625,-0.6714428067207336,0.8565964102745056,-1.359315276145935
1788862655825559000,1.27455908203125,-0.8031992316246033,0.7431966662406921,-1.2586296796798706
1788862655835566000,1.284566162109375,-0.8218187689781189,0.49955254793167114,-0.9596626162528992
1788862655845572400,1.294572265625,-0.5931475162506104,0.07204436510801315,-0.5191696882247925
1788862655855578000,1.304578125,-0.23575660586357117,-0.7855464816093445,-0.057921621948480606
1788862655865584000,1.314584228515625,-0.022949790582060814,-1.7165247201919556,0.30975571274757385
1788862655875591000,1.3245908203125,0.10199321061372757,-2.4941365718841553,0.5357502698898315
1788862655885597200,1.33459716796875,0.35673999786376953,-2.9142422676086426,0.8665281534194946
1788862655895603200,1.344603271484375,0.5935680270195007,-2.8922975063323975,1.3111953735351562
1788862655905610000,1.35460986328125,0.6993386149406433,-2.869375228881836,1.6021345853805542
1788862655915616300,1.3646162109375,0.8268231153488159,-2.7292420864105225,1.6074522733688354
1788862655925622300,1.374622314453125,0.41626352071762085,-2.9138646125793457,1.44070303440094
1788862655935628300,1.384628173828125,0.06353982537984848,-2.783665657043457,1.1628408432006836
1788862655945635000,1.394635009765625,0.02321983501315117,-1.8294118642807007,0.9421691298484802
1788862655955641300,1.404641357421875,-0.010241186246275902,-1.4894814491271973,0.8556137084960938
1788862655965647000,1.414647216796875,-0.26022306084632874,-1.5137377977371216,0.8523646593093872
1788862655975654100,1.424654052734375,-0.40983012318611145,-1.4164656400680542,0.8414505124092102
1788862655985660200,1.43466015625,-0.3703535497188568,-1.465070366859436,0.7374780178070068
1788862655995666200,1.444666259765625,-0.1853802502155304,-1.5231622457504272,0.641966700553894
1788862656005672200,1.454672119140625,0.012593556195497513,-1.119027018547058,0.636368989944458
1788862656015679200,1.46467919921875,0.3635483980178833,-0.6952946186065674,0.6555850505828857
1788862656025685000,1.47468505859375,0.5725663304328918,-0.5008226037025452,0.47941213846206665
1788862656035691300,1.484691162109375,0.6759166717529297,-0.6624743938446045,0.31148597598075867
1788862656045698000,1.494697998046875,0.91895592212677,-1.1230581998825073,0.3052422106266022
1788862656055704000,1.5047041015625,1.2634187936782837,-1.7167843580245972,0.5235380530357361
1788862656065710000,1.5147099609375,1.2839618921279907,-2.2031705379486084,0.7396421432495117
1788862656075716400,1.52471630859375,0.9383829236030579,-1.643180251121521,0.20705118775367737
1788862656085723100,1.53472314453125,0.7759524583816528,-0.6239205598831177,-0.7868573069572449
1788862656095729200,1.544729248046875,1.1192342042922974,-0.2613658308982849,-1.516157865524292
1788862656105735200,1.554735107421875,1.8270456790924072,-0.003965713083744049,-1.8006422519683838
1788862656115742200,1.5647421875,2.7506465911865234,0.1379389613866806,-1.8110097646713257
1788862656125748200,1.574748291015625,2.942816972732544,0.43855658173561096,-1.6878608465194702
1788862656135754000,1.58475390625,2.7497849464416504,0.6404705047607422,-1.4896210432052612
1788862656145760000,1.594760009765625,2.8693504333496094,0.4968513250350952,-1.2860732078552246
1788862656155767300,1.604767333984375,3.175018548965454,0.2657416760921478,-1.3181440830230713
1788862656165773000,1.61477294921875,3.4792120456695557,0.36971068382263184,-1.7102833986282349
1788862656175779000,1.624779052734375,4.281179904937744,2.091092824935913,-2.48720645904541
1788862656185786400,1.634786376953125,4.9216084480285645,3.4659488201141357,-2.5011417865753174
1788862656195792100,1.644792236328125,4.763984680175781,2.564070224761963,-2.0051138401031494
1788862656205798100,1.654798095703125,3.8931267261505127,1.2046420574188232,-1.3211838006973267
1788862656215805000,1.664804931640625,2.956106662750244,0.6682497262954712,-0.6588484644889832
1788862656225811200,1.674811279296875,2.7221343517303467,-0.01768978126347065,-0.3886694610118866
1788862656235817200,1.684817138671875,3.0755081176757812,-0.21441669762134552,-0.5371865034103394
1788862656245823200,1.6948232421875,2.7406067848205566,-0.1039961725473404,-1.0925626754760742
1788862656255830000,1.704830078125,1.6590089797973633,-0.1387256532907486,-1.751389503479004
1788862656265836300,1.714836181640625,0.49005573987960815,-0.3181532025337219,-2.1312220096588135
1788862656275842300,1.72484228515625,-0.05699670687317848,-0.16769233345985413,-1.9429997205734253
1788862656285849000,1.73484912109375,0.22707869112491608,-0.09367536008358002,-1.3002740144729614
1788862656295855000,1.744855224609375,0.8350988626480103,-0.046784549951553345,-0.535057008266449
1788862656305861000,1.754861083984375,1.266479253768921,0.0978165715932846,0.11620090901851654
1788862656315867100,1.7648671875,1.4991804361343384,0.44382086396217346,0.5240392684936523
1788862656325874200,1.774874267578125,1.5345075130462646,0.9468967914581299,0.6668003797531128
1788862656335880000,1.7848798828125,1.5529557466506958,1.2524620294570923,0.4258229434490204
1788862656345886200,1.79488623046875,1.602460265159607,1.4052643775939941,0.11971335113048553
1788862656355893200,1.804893310546875,1.705940842628479,1.5718700885772705,-0.09929649531841278
1788862656365899000,1.81489892578125,2.0592174530029297,1.037984013557434,0.00504029868170619
1788862656375905300,1.8249052734375,2.4361090660095215,-0.7385390400886536,-0.030120618641376495
1788862656385911300,1.834911376953125,2.7049574851989746,-1.9173636436462402,-0.2035326212644577
1788862656395918000,1.84491796875,2.578892707824707,-2.9583096504211426,-0.6601856350898743
1788862656405924000,1.854924072265625,2.397149085998535,-3.711089611053467,-0.9760751724243164
1788862656415930400,1.864930419921875,2.30673885345459,-3.498603582382202,-0.8079450130462646
1788862656425937200,1.874937255859375,1.6458345651626587,-2.5582594871520996,-0.25190120935440063
1788862656435943200,1.884943115234375,0.5353305339813232,-1.5723284482955933,0.2870434820652008
1788862656445949200,1.89494921875,-0.25343838334083557,0.22638866305351257,0.7336643934249878
1788862656455956200,1.904956298828125,-0.09542026370763779,0.8336631655693054,0.9231099486351013
1788862656465962200,1.914962158203125,0.6263715028762817,-0.07446464896202087,0.9180571436882019
1788862656475968000,1.924968017578125,1.1805415153503418,-0.774367094039917,1.0412869453430176
1788862656485974000,1.93497412109375,1.176417350769043,-0.9233767986297607,1.1273304224014282
1788862656495981300,1.944981201171875,0.6617633104324341,-0.6507356762886047,0.9137294888496399
1788862656505987000,1.954987060546875,-0.024773256853222847,-0.1074841171503067,0.4236420691013336
1788862656515993000,1.9649931640625,-0.3293352723121643,1.0911293029785156,-0.004244812298566103
1788862656526000400,1.97500048828125,-0.19353990256786346,0.8289962410926819,-0.17396141588687897
1788862656536006100,1.985006103515625,0.208219513297081,0.4080497920513153,-0.0986834317445755
1788862656546012200,1.99501220703125,0.5335757732391357,0.1864582896232605,0.1295129805803299
1788862656556018200,2.00501806640625,0.26088565587997437,-0.3951246738433838,0.044920869171619415
1788862656566025200,2.015025146484375,-0.7099210023880005,-0.9492899179458618,-0.703246533870697
1788862656576031200,2.02503125,-1.2908471822738647,-0.5153919458389282,-1.1788825988769531
1788862656586037200,2.035037353515625,-1.283204197883606,0.09198957681655884,-1.3026090860366821
1788862656596044000,2.0450439453125,-1.0378801822662354,0.2534911334514618,-1.2609007358551025
1788862656606050300,2.05505029296875,-0.774973452091217,0.7465173602104187,-0.9889587163925171
1788862656616056300,2.065056396484375,-0.41228821873664856,1.229701280593872,-0.4648025631904602
1788862656626063000,2.07506298828125,0.06282743066549301,1.539101481437683,-0.004236290231347084
1788862656636069000,2.085069091796875,0.32527610659599304,1.5604417324066162,0.0896100401878357
1788862656646075100,2.0950751953125,0.34458985924720764,1.1751799583435059,-0.1755097657442093
1788862656656081200,2.1050810546875,0.07164809107780457,0.2636886239051819,-0.6281262636184692
1788862656666088200,2.115088134765625,-0.5171011686325073,-0.09971221536397934,-1.3776921033859253
1788862656676094000,2.125093994140625,-1.0433471202850342,0.34557950496673584,-2.21018123626709
1788862656686100200,2.135100341796875,-1.1256159543991089,1.6704432964324951,-2.423931121826172
1788862656696107300,2.145107177734375,-0.7509475350379944,3.492434024810791,-2.125786304473877
1788862656706113000,2.155113037109375,-0.36362534761428833,4.933831691741943,-1.5003315210342407
1788862656716119000,2.165119140625,-0.158418670296669,5.287415981292725,-0.8796055912971497
1788862656726126000,2.1751259765625,-0.5050884485244751,4.032866954803467,-0.4320880174636841
1788862656736132000,2.185132080078125,-1.4263397455215454,1.800293207168579,-0.3718550503253937
1788862656746138000,2.19513818359375,-2.3352651596069336,-0.22989444434642792,-0.10061955451965332
1788862656756144000,2.20514404296875,-2.4517457485198975,-0.9630458950996399,0.07053542137145996
1788862656766151200,2.215151123046875,-1.402013897895813,-1.358660101890564,-0.30639374256134033
1788862656776157200,2.2251572265625,-0.27073776721954346,-0.38014841079711914,-0.4650084376335144
1788862656786163200,2.2351630859375,0.01501090731471777,1.2324517965316772,-0.5546560287475586
1788862656796170200,2.245170166015625,-0.4951964318752289,2.6469643115997314,-0.7805895805358887
1788862656806176300,2.25517626953125,-0.8286095261573792,2.6743834018707275,-0.9081382155418396
1788862656816182000,2.26518212890625,-0.813815712928772,0.9703086018562317,-0.5120960474014282
1788862656826189000,2.27518896484375,-0.9135896563529968,-0.365293025970459,-0.2612465023994446
1788862656836195300,2.2851953125,-0.9767665266990662,0.10654082149267197,-0.29390645027160645
1788862656846201000,2.295201171875,-0.7985333800315857,0.16162191331386566,-0.1368292272090912
1788862656856206800,2.305206787109375,-0.7974843978881836,0.10908786952495575,-0.20191314816474915
1788862656866214000,2.3152138671875,-0.6950357556343079,0.4489642083644867,-0.31209585070610046
1788862656876219600,2.3252197265625,-0.46632564067840576,0.6980014443397522,-0.44859829545021057
1788862656886225700,2.3352255859375,-0.37151870131492615,0.8835790753364563,-0.7285564541816711
1788862656896233000,2.34523291015625,-0.21226592361927032,0.8135155439376831,-0.7909681797027588
1788862656906238700,2.35523876953125,0.04424229636788368,0.5067710280418396,-0.7076436877250671
1788862656916244700,2.36524462890625,0.2892318069934845,0.10141769796609879,-0.4310542047023773
1788862656926251800,2.375251708984375,0.49670377373695374,-0.3735986351966858,-0.1549895852804184
1788862656936257800,2.3852578125,0.5829044580459595,-0.7190654873847961,0.07437755912542343
1788862656946263800,2.395263916015625,0.6365487575531006,-0.8799201250076294,0.23839712142944336
1788862656956269800,2.405269775390625,0.7744190096855164,-0.8008482456207275,0.249574676156044
1788862656966276900,2.41527685546875,0.8830384016036987,-0.6840036511421204,0.22884996235370636
1788862656976283000,2.425282958984375,0.847377359867096,-0.7755479216575623,0.23836196959018707
1788862656986289000,2.435288818359375,0.8291714787483215,-0.9840324521064758,0.18399007618427277
1788862656996295700,2.445295654296875,1.1525484323501587,-1.0350607633590698,0.20491400361061096
1788862657006302000,2.455302001953125,1.3643736839294434,-1.2387864589691162,0.25690609216690063
1788862657016307700,2.4653076171875,1.2668430805206299,-1.97910737991333,0.20757663249969482
1788862657026314800,2.475314697265625,0.6489670872688293,-2.0863888263702393,0.22759507596492767
1788862657036320800,2.48532080078125,-0.024143951013684273,-2.0030593872070312,0.25883421301841736
1788862657046326800,2.495326904296875,-0.15889723598957062,-2.2094507217407227,0.5577189326286316
1788862657056332800,2.505332763671875,-0.10139825940132141,-2.143867015838623,0.7901934385299683
1788862657066339800,2.51533984375,-0.06645545363426208,-1.7616331577301025,0.7883007526397705
1788862657076345600,2.525345703125,0.16969288885593414,-1.6253631114959717,0.6892058253288269
1788862657086352000,2.535351806640625,0.42648980021476746,-1.5173003673553467,0.42908531427383423
1788862657096358700,2.545358642578125,0.6365362405776978,-1.661563754081726,0.44267168641090393
1788862657106364700,2.55536474609375,0.7660531997680664,-2.0751914978027344,0.5250304937362671
1788862657116370700,2.56537060546875,0.750831663608551,-2.64993953704834,0.8627510070800781
1788862657126377700,2.575377685546875,0.4114573299884796,-2.803924322128296,1.764294981956482
1788862657136383700,2.5853837890625,-0.5495720505714417,-1.5018806457519531,2.3857977390289307
1788862657146389800,2.5953896484375,-1.8052003383636475,-0.01775156706571579,1.6184415817260742
1788862657156396800,2.605396728515625,-2.592655897140503,-0.10696320235729218,0.43754351139068604
1788862657166402800,2.61540283203125,-2.10676646232605,-0.8840605616569519,-0.19142481684684753
1788862657176408800,2.625408935546875,-1.1887075901031494,-0.2632116675376892,-0.8428377509117126
1788862657186414600,2.63541455078125,-0.609247088432312,1.662906289100647,-1.2244268655776978
1788862657196422000,2.645421875,-0.15946689248085022,3.0803017616271973,-1.3980532884597778
1788862657206428000,2.655427978515625,0.619033932685852,2.791820526123047,-1.649247407913208
1788862657216433700,2.66543359375,1.6734811067581177,1.3893359899520874,-1.8212887048721313
1788862657226440700,2.675440673828125,2.3744096755981445,0.4301401972770691,-1.7954823970794678
1788862657236447000,2.685447021484375,2.5151844024658203,0.3783299922943115,-1.5919705629348755
1788862657246452700,2.69545263671875,1.974567174911499,0.5042218565940857,-1.1823489665985107
1788862657256459800,2.705459716796875,1.6244946718215942,0.2478577345609665,-0.8743770122528076
1788862657266465500,2.715465576171875,1.477675199508667,-0.09360744804143906,-0.34803733229637146
1788862657276471800,2.725471923828125,1.3858778476715088,0.1843048632144928,0.025650236755609512
1788862657286478800,2.735478759765625,1.0582275390625,0.1778469681739807,0.20715105533599854
1788862657296484600,2.745484619140625,0.7217028141021729,-0.5259096026420593,0.08236091583967209
1788862657306491000,2.755490966796875,0.5987926125526428,-0.7476904392242432,-0.00030067088664509356
1788862657316498000,2.765497802734375,0.6301209330558777,-0.37421220541000366,-0.12188782542943954
1788862657326503700,2.775503662109375,0.6376878023147583,-0.19881296157836914,-0.17473958432674408
1788862657336509700,2.785509765625,0.40137434005737305,-0.40167099237442017,-0.2842053472995758
1788862657346516000,2.795515869140625,-0.033492181450128555,-1.067942500114441,-0.41107437014579773
1788862657356522800,2.805522705078125,0.5206019282341003,-0.5382940769195557,-0.43865591287612915
1788862657366528800,2.81552880859375,0.15307104587554932,0.13312582671642303,-0.08418731391429901
1788862657376534800,2.82553466796875,-0.3432311415672302,-0.03532949462532997,-0.02207946963608265
1788862657386541800,2.835541748046875,-0.591087818145752,-0.3133414089679718,-0.2637014091014862
1788862657396547800,2.8455478515625,-0.7794311046600342,-0.18623405694961548,-0.5002372860908508
1788862657406553900,2.855553955078125,-0.9699856042861938,0.061461761593818665,-0.8204061985015869
1788862657416561000,2.865560791015625,-1.1323009729385376,0.5002627968788147,-1.0790082216262817
1788862657426567000,2.87556689453125,-1.386216640472412,0.6568068861961365,-1.1501824855804443
1788862657436572700,2.88557275390625,-1.6816974878311157,0.5309139490127563,-1.2667354345321655
1788862657446579700,2.895579833984375,-1.886693000793457,0.44543126225471497,-1.3838319778442383
1788862657456586000,2.9055859375,-1.9869637489318848,0.47896260023117065,-1.5124099254608154
1788862657466591700,2.915591796875,-2.160814046859741,0.2780798077583313,-1.6800463199615479
1788862657476598800,2.925598876953125,-2.390237808227539,-0.11148711293935776,-1.8912079334259033
1788862657486604800,2.935604736328125,-2.7431390285491943,-0.60117506980896,-2.0322470664978027
1788862657496610800,2.94561083984375,-3.014580249786377,-0.974396824836731,-2.1282219886779785
1788862657506616800,2.955616943359375,-3.036201000213623,-1.0945671796798706,-2.0433974266052246
1788862657516623600,2.96562353515625,-2.6803293228149414,-1.1951031684875488,-1.9838699102401733
1788862657526629600,2.975629638671875,-2.3219120502471924,-1.622633457183838,-1.8493685722351074
1788862657536636000,2.985635986328125,-1.9233804941177368,-1.9229758977890015,-1.6424670219421387
1788862657546642700,2.995642578125,-1.4845786094665527,-1.7248826026916504,-1.4231770038604736
1788862657556648700,3.005648681640625,-1.0675132274627686,-1.4413586854934692,-1.3344926834106445
1788862657566654700,3.01565478515625,-0.6713474988937378,-1.3556733131408691,-1.4113293886184692
1788862657576661800,3.025661865234375,-0.5308364629745483,-1.2368659973144531,-1.2684731483459473
1788862657586667800,3.035667724609375,-0.5792183876037598,-1.2067354917526245,-0.8161025643348694
1788862657596673800,3.045673828125,-0.8904412388801575,-0.8631818890571594,-0.5408605933189392
1788862657606680800,3.055680908203125,-1.0963389873504639,-0.5180029273033142,-0.500008225440979
1788862657616686800,3.065686767578125,-1.1304535865783691,-0.5256379246711731,-0.5912861824035645
1788862657626692900,3.07569287109375,-0.9471076726913452,-0.7476547956466675,-0.7374311685562134
1788862657636699600,3.08569970703125,-0.9402143955230713,-0.6963436603546143,-1.047311782836914
1788862657646706000,3.095705810546875,-0.9751268029212952,-0.6690808534622192,-1.4041357040405273
1788862657656712000,3.1057119140625,-0.9860183596611023,-0.8422971367835999,-1.6155043840408325
1788862657666718700,3.11571875,-0.853864848613739,-1.2757971286773682,-1.5361019372940063
1788862657676724700,3.125724853515625,-0.548643946647644,-1.5239862203598022,-1.324885368347168
1788862657686730800,3.135730712890625,-0.16569629311561584,-1.478445291519165,-0.9504398703575134
1788862657696737800,3.14573779296875,-0.06915163993835449,-1.3153616189956665,-0.6604072451591492
1788862657706743800,3.155743896484375,-0.12780936062335968,-1.0141615867614746,-0.696220338344574
1788862657716749600,3.16574951171875,-0.10816828161478043,-0.7897481918334961,-0.8301608562469482
1788862657726756900,3.1757568359375,-0.08043811470270157,-0.6210805773735046,-0.8703785538673401
1788862657736763000,3.185762939453125,-0.013013802468776703,-0.18701596558094025,-0.8432196378707886
1788862657746768600,3.1957685546875,-0.012868394143879414,0.16055558621883392,-0.7599987983703613
1788862657756774700,3.205774658203125,0.09943178296089172,0.4932941198348999,-0.6363114714622498
1788862657766781700,3.21578173828125,0.21355196833610535,0.9050678610801697,-0.5376818180084229
1788862657776787700,3.22578759765625,0.2577037215232849,1.3262087106704712,-0.4325130581855774
1788862657786793700,3.235793701171875,0.1583896428346634,1.097373366355896,-0.28071528673171997
1788862657796800800,3.24580078125,0.13083870708942413,0.8662130832672119,-0.06883632391691208
1788862657806806800,3.255806884765625,0.2634177803993225,0.7808593511581421,0.044138431549072266
1788862657816812800,3.265812744140625,0.3073436915874481,0.6538294553756714,0.10555306077003479
1788862657826819800,3.27581982421875,0.3416782319545746,0.5713500380516052,0.23490625619888306
1788862657836825900,3.285825927734375,0.3587624132633209,0.6527460813522339,0.3409477472305298
1788862657846831900,3.295831787109375,0.33220750093460083,0.7667136788368225,0.3922215700149536
1788862657856840000,3.30583984375,0.31105294823646545,0.7917338013648987,0.4909510910511017
1788862657866846000,3.315845947265625,0.34716862440109253,0.9467971920967102,0.6085621118545532
1788862657876851700,3.325851806640625,0.4203070104122162,1.117618441581726,0.6149859428405762
1788862657886858800,3.335858642578125,0.48049044609069824,1.0203675031661987,0.7687893509864807
1788862657896864800,3.34586474609375,0.5810905694961548,0.6931164264678955,1.0001823902130127
1788862657906870800,3.355870849609375,0.7467804551124573,0.5441000461578369,1.142297387123108
1788862657916877800,3.3658779296875,0.8660450577735901,0.5211494565010071,1.1027235984802246
1788862657926883600,3.375883544921875,0.867701530456543,0.29502710700035095,1.1106358766555786
1788862657936889900,3.385889892578125,0.8337332010269165,0.035891156643629074,1.3098664283752441
1788862657946897000,3.39589697265625,0.8952378630638123,-0.053703974932432175,1.538588523864746
1788862657956902700,3.405902587890625,1.0343166589736938,0.21907056868076324,1.5350815057754517
1788862657966908700,3.41590869140625,1.0942926406860352,0.25940707325935364,1.407235860824585
1788862657976915700,3.425915771484375,1.0467498302459717,0.14170973002910614,1.5004817247390747
1788862657986921700,3.435921630859375,1.0531702041625977,0.09812097251415253,1.7481207847595215
1788862657996927700,3.445927734375,1.2108075618743896,-0.05902017652988434,1.8497432470321655
1788862658006934800,3.455934814453125,1.3872206211090088,-0.3616138696670532,1.8292316198349
1788862658016940800,3.46594091796875,1.4857405424118042,-0.5246214270591736,1.851737380027771
1788862658026946800,3.47594677734375,1.523498296737671,-0.4713084101676941,1.894850254058838
1788862658036953600,3.48595361328125,1.5341554880142212,-0.4688308537006378,1.94031822681427
1788862658046959900,3.4959599609375,1.5163447856903076,-0.6437222361564636,1.941698431968689
1788862658056966000,3.5059658203125,1.4743483066558838,-0.5785930752754211,1.9322277307510376
1788862658066972700,3.51597265625,1.4598666429519653,-0.2768060266971588,1.8862224817276
1788862658076978700,3.525978759765625,1.4117376804351807,-0.22607627511024475,1.7956366539001465
1788862658086985000,3.53598486328125,1.267222285270691,-0.1879776269197464,1.7296775579452515
1788862658096991700,3.54599169921875,1.1374624967575073,-0.04655365273356438,1.7363642454147339
1788862658106997800,3.555997802734375,1.1302703619003296,0.0672868937253952,1.7912123203277588
1788862658117003800,3.566003662109375,1.314359188079834,0.6365764737129211,1.7732548713684082
1788862658127010800,3.5760107421875,1.5059096813201904,1.087877631187439,1.7486763000488281
1788862658137016800,3.586016845703125,1.4447768926620483,0.9349991083145142,1.751753807067871
1788862658147022800,3.59602294921875,1.3134819269180298,0.7541640996932983,1.6955640316009521
1788862658157030000,3.60602978515625,1.2921992540359497,0.8307201266288757,1.5816905498504639
1788862658167036000,3.616035888671875,1.3129091262817383,1.0459953546524048,1.5253947973251343
1788862658177041700,3.626041748046875,1.2711986303329468,1.3006598949432373,1.513187050819397
1788862658187047700,3.636047607421875,1.127489447593689,1.3277660608291626,1.5309200286865234
1788862658197055000,3.646054931640625,0.9847879409790039,1.2390660047531128,1.5205416679382324
1788862658207060700,3.656060791015625,0.9409472942352295,1.4982973337173462,1.4581725597381592
1788862658217066800,3.666066650390625,0.9035221338272095,1.6436539888381958,1.3573740720748901
1788862658227073800,3.67607373046875,0.8409786224365234,1.4150700569152832,1.17142915725708
1788862658237079800,3.686079833984375,0.7833738923072815,1.0461314916610718,0.9190995097160339
1788862658247085800,3.6960859375,0.7053187489509583,0.6809362173080444,0.7425782680511475
1788862658257092600,3.706092529296875,0.534902811050415,0.6384161710739136,0.5916649103164673
1788862658267098600,3.7160986328125,0.3075932264328003,0.6622661352157593,0.3545636832714081
1788862658277105000,3.72610498046875,0.0966128259897232,0.6379873752593994,-0.000859934720210731
1788862658287111700,3.736111572265625,-0.06994659453630447,0.5270342230796814,-0.34548601508140564
1788862658297117700,3.74611767578125,-0.2588006556034088,0.3644120395183563,-0.5565977096557617
1788862658307124000,3.7561240234375,-0.41138675808906555,0.18051651120185852,-0.6315944790840149
1788862658317130800,3.766130859375,-0.480991393327713,-0.035536423325538635,-0.6713322997093201
1788862658327136800,3.77613671875,-0.5814111828804016,-0.3223644495010376,-0.7059429883956909
1788862658337143800,3.786143798828125,-0.6880444288253784,-0.4604805111885071,-0.7780219912528992
1788862658347149800,3.79614990234375,-0.7305945754051208,-0.4191754162311554,-0.8926572203636169
1788862658357155800,3.80615576171875,-0.7841451168060303,-0.3288732171058655,-1.0301839113235474
1788862658367161900,3.816161865234375,-0.8225372433662415,-0.2637631893157959,-1.1368153095245361
1788862658377169000,3.8261689453125,-0.7833925485610962,-0.24213807284832,-1.1943657398223877
1788862658387175000,3.8361748046875,-0.6750956177711487,-0.10271678864955902,-1.218782901763916
1788862658397180700,3.8461806640625,-0.5493360757827759,0.13834641873836517,-1.2160112857818604
1788862658407187700,3.856187744140625,-0.49609896540641785,0.2754558026790619,-1.135264277458191
1788862658417194000,3.866194091796875,-0.5637962818145752,0.25017309188842773,-0.8993894457817078
1788862658427200800,3.87620068359375,-0.6678062677383423,0.21088720858097076,-0.6376941800117493
1788862658437206800,3.886206787109375,-0.6784123182296753,0.2844759225845337,-0.4897041916847229
1788862658447212800,3.896212890625,-0.6601241230964661,0.06314807385206223,-0.47891199588775635
1788862658457219800,3.9062197265625,-0.6521109342575073,-0.42023909091949463,-0.5566368699073792
1788862658467225900,3.916225830078125,-0.6565967798233032,-0.6798786520957947,-0.5820045471191406
1788862658477231600,3.926231689453125,-0.6913707256317139,-0.5330148935317993,-0.552524983882904
1788862658487239000,3.936239013671875,-0.7169653177261353,-0.3115216791629791,-0.4840526878833771
1788862658497245000,3.946244873046875,-0.7449391484260559,-0.19403232634067535,-0.39255180954933167
1788862658507250700,3.956250732421875,-0.8579075336456299,-0.27870380878448486,-0.36508530378341675
1788862658517257700,3.9662578125,-1.006833553314209,-0.3878784775733948,-0.4809218943119049
1788862658527264000,3.976263916015625,-1.078616738319397,-0.40748360753059387,-0.6439211964607239
1788862658537269800,3.986269775390625,-1.1196956634521484,-0.5447320342063904,-0.7083854079246521
1788862658547276800,3.99627685546875,-1.164534568786621,-0.6100947856903076,-0.6989303827285767
1788862658557282600,4.006282470703125,-1.2036681175231934,-0.5264323949813843,-0.7369211912155151
1788862658567288800,4.016288818359375,-1.1273975372314453,-0.4059983789920807,-0.833469808101654
1788862658577296000,4.0262958984375,-1.0043467283248901,-0.5646902918815613,-0.9391485452651978
1788862658587301600,4.036301513671875,-0.9490278363227844,-0.8708184957504272,-1.0913325548171997
1788862658597307600,4.0463076171875,-0.9451638460159302,-1.0051257610321045,-1.2308528423309326
1788862658607315000,4.05631494140625,-0.9798083901405334,-0.9666686058044434,-1.2894154787063599
1788862658617320700,4.06632080078125,-1.0812383890151978,-0.9532058238983154,-1.2806209325790405
1788862658627326700,4.07632666015625,-1.143761396408081,-0.6864585280418396,-1.2800809144973755
1788862658637333800,4.086333740234375,-1.121413230895996,-0.36820918321609497,-1.2963764667510986
1788862658647339800,4.09633984375,-1.0910619497299194,-0.5500884652137756,-1.2999656200408936
1788862658657345800,4.106345703125,-1.0508394241333008,-0.9110141396522522,-1.3219263553619385
1788862658667352600,4.1163525390625,-1.0067838430404663,-1.187187910079956,-1.3377904891967773
1788862658677358800,4.12635888671875,-0.9436160326004028,-1.2601395845413208,-1.296736478805542
1788862658687364900,4.13636474609375,-0.9040049910545349,-1.2169532775878906,-1.227770209312439
1788862658697371600,4.14637158203125,-0.904449999332428,-1.3248631954193115,-1.1690771579742432
1788862658707377700,4.156377685546875,-0.8979460000991821,-1.3142683506011963,-1.1566550731658936
1788862658717384000,4.166384033203125,-0.8827881217002869,-1.1294306516647339,-1.158125877380371
1788862658727390700,4.176390625,-0.8489009737968445,-0.9057605266571045,-1.1378095149993896
1788862658737396700,4.186396728515625,-0.8645808696746826,-0.9425150752067566,-1.1136338710784912
1788862658747402800,4.19640283203125,-0.8931275606155396,-1.1841580867767334,-1.1476596593856812
1788862658757409800,4.206409912109375,-0.8540621995925903,-1.103408932685852,-1.2469524145126343
1788862658767415800,4.216415771484375,-0.8000205159187317,-0.8535521626472473,-1.3312032222747803
1788862658777422600,4.226422607421875,-0.799467921257019,-0.7852290272712708,-1.4651169776916504
1788862658787428900,4.236428955078125,-0.7582203149795532,-0.6303385496139526,-1.664857029914856
1788862658797435000,4.246434814453125,-0.7993829250335693,-0.22263893485069275,-1.63071608543396
1788862658807441700,4.256441650390625,-0.8645648956298828,0.1514611542224884,-1.5185283422470093
1788862658817447700,4.26644775390625,-0.8302657604217529,0.07597146183252335,-1.3120601177215576
1788862658827454000,4.276453857421875,-0.6068374514579773,-0.33517640829086304,-0.9497295618057251
1788862658837460700,4.286460693359375,-0.5085703134536743,-0.3045780062675476,-0.4917258024215698
1788862658847466200,4.29646630859375,-0.6397014260292053,-0.2497890591621399,-0.2374357283115387
1788862658857472300,4.30647216796875,-0.7671688199043274,-0.2713196575641632,-0.22080615162849426
1788862658867479000,4.31647900390625,-0.7940853834152222,-0.1533951461315155,-0.2211182713508606
1788862658877485300,4.3264853515625,-0.7458102703094482,-0.15538133680820465,-0.14017148315906525
1788862658887491300,4.3364912109375,-0.6378209590911865,-0.2022729367017746,-0.059359729290008545
1788862658897498000,4.346498046875,-0.5770406723022461,-0.02046612650156021,0.016084693372249603
1788862658907504000,4.356504150390625,-0.49595409631729126,0.1761886179447174,0.07972013205289841
1788862658917510100,4.36651025390625,-0.3868688941001892,0.48752573132514954,0.1633007824420929
1788862658927517200,4.37651708984375,-0.2811027765274048,0.6187548637390137,0.20915748178958893
1788862658937523200,4.386523193359375,-0.12114986032247543,0.7873100638389587,0.2420637607574463
1788862658947529000,4.396529052734375,0.021497035399079323,0.8637832403182983,0.23955826461315155
1788862658957536300,4.406536376953125,0.13044163584709167,0.7826732397079468,0.26411208510398865
1788862658967542300,4.416542236328125,0.27321794629096985,0.857229471206665,0.33300966024398804
1788862658977549000,4.426549072265625,0.4565158784389496,0.9492475390434265,0.4220638871192932
1788862658987555300,4.436555419921875,0.5914731621742249,0.9767846465110779,0.4856833517551422
1788862658997561300,4.446561279296875,0.6787204742431641,0.9373027086257935,0.5680791735649109
1788862659007568100,4.456568115234375,0.8110473155975342,1.089611291885376,0.6830834746360779
1788862659017574100,4.46657421875,0.9649370312690735,1.29440438747406,0.7340633273124695
1788862659027580200,4.476580078125,1.0841656923294067,1.3744113445281982,0.7478992342948914
1788862659037587200,4.486587158203125,1.165068507194519,1.5377792119979858,0.8068235516548157
1788862659047593200,4.49659326171875,1.2651948928833008,1.5741806030273438,0.8934546113014221
1788862659057599000,4.506598876953125,1.3673595190048218,1.5930830240249634,0.9908061623573303
1788862659067606300,4.516606201171875,1.3975640535354614,1.3811705112457275,1.0369569063186646
1788862659077612300,4.5266123046875,1.4097272157669067,1.129501223564148,1.084382176399231
1788862659087618000,4.5366181640625,1.5346367359161377,1.0093170404434204,1.1658176183700562
1788862659097625300,4.546625244140625,1.693527340888977,0.7611449956893921,1.2337559461593628
1788862659107631000,4.556631103515625,1.7727839946746826,0.46342596411705017,1.2914302349090576
1788862659117638100,4.56663818359375,1.8018332719802856,0.4643807113170624,1.2774780988693237
1788862659127644200,4.57664404296875,1.7994763851165771,0.6971293091773987,1.3043718338012695
1788862659137650200,4.586650146484375,1.8095487356185913,0.5887945294380188,1.4723384380340576
1788862659147657200,4.5966572265625,1.8109774589538574,0.32711073756217957,1.6861263513565063
1788862659157663200,4.606663330078125,1.809199333190918,0.2460169643163681,1.8496735095977783
1788862659167669000,4.6166689453125,1.7762349843978882,0.19506056606769562,1.9207590818405151
1788862659177676300,4.62667626953125,1.7183964252471924,0.3007204234600067,1.9391913414001465
1788862659187682000,4.63668212890625,1.6739906072616577,0.5047763586044312,1.8806239366531372
1788862659197688000,4.64668798828125,1.5970814228057861,0.5223920941352844,1.8086392879486084
1788862659207695400,4.6566953125,1.4714055061340332,0.4974353313446045,1.8603296279907227
1788862659217701000,4.666701171875,1.40634286403656,0.508371889591217,1.9788330793380737
1788862659227708200,4.676708251953125,1.4247299432754517,0.5491917729377747,2.0708863735198975
1788862659237714200,4.686714111328125,1.409567952156067,0.42556488513946533,2.0794270038604736
1788862659247720200,4.69672021484375,1.346415638923645,0.24405448138713837,2.026050329208374
1788862659257727200,4.706727294921875,1.2325646877288818,0.3082217574119568,1.9608415365219116
1788862659267733000,4.71673291015625,1.1213934421539307,0.5376530885696411,1.8411974906921387
1788862659277739000,4.726739013671875,1.0559446811676025,0.7781404852867126,1.6674072742462158
1788862659287746300,4.736746337890625,1.0015735626220703,0.8376128673553467,1.4565448760986328
1788862659297752000,4.746751953125,0.9463502764701843,0.7690213322639465,1.1988770961761475
1788862659307758000,4.756758056640625,0.8446868062019348,0.6458804607391357,0.9958840012550354
1788862659317765000,4.76676513671875,0.6776197552680969,0.5015901327133179,0.8777877688407898
1788862659327771100,4.776771240234375,0.5510703325271606,0.3559698164463043,0.7903639078140259
1788862659337777200,4.786777099609375,0.5069316625595093,0.2641853094100952,0.6528902053833008
1788862659347784000,4.796783935546875,0.43835338950157166,0.0752372294664383,0.4715944230556488
1788862659357790200,4.806790283203125,0.3161846101284027,-0.1466083526611328,0.27326855063438416
1788862659367797200,4.81679736328125,0.20279093086719513,-0.3113440275192261,0.035472773015499115
1788862659377803000,4.826802978515625,0.1019764319062233,-0.30089059472084045,-0.18259884417057037
1788862659387809000,4.83680908203125,-0.08737964928150177,-0.34794411063194275,-0.3730585277080536
1788862659397816000,4.846816162109375,-0.33536040782928467,-0.41120752692222595,-0.5595415830612183
1788862659407822000,4.856822021484375,-0.5445035099983215,-0.3158833980560303,-0.7255625128746033
1788862659417828000,4.866828125,-0.6115869283676147,0.07434453815221786,-0.8752545714378357
1788862659427835100,4.876835205078125,-0.5401447415351868,0.5020484924316406,-0.9864934682846069
1788862659437841200,4.886841064453125,-0.5602982044219971,0.4860844314098358,-1.0163333415985107
1788862659447848200,4.89684814453125,-0.7212718725204468,0.3563370704650879,-0.9755326509475708
1788862659457854200,4.906854248046875,-0.8131546974182129,0.21453839540481567,-0.8268483877182007
1788862659467860200,4.916860107421875,-0.8009001612663269,-0.06519950926303864,-0.6969165205955505
1788862659477867000,4.926866943359375,-0.7904448509216309,-0.2733742892742157,-0.7138853669166565
1788862659487873000,4.936873046875,-0.8005273342132568,-0.255532443523407,-0.8789001703262329
1788862659497879300,4.94687939453125,-0.8019547462463379,0.01146730501204729,-1.0416197776794434
1788862659507886000,4.956885986328125,-0.8518909215927124,0.17691698670387268,-1.0719106197357178
1788862659517892000,4.96689208984375,-0.8704363703727722,0.20067664980888367,-1.0145213603973389
1788862659527899400,4.9768994140625,-0.7661853432655334,0.27864041924476624,-0.9134458899497986
1788862659537905200,4.9869052734375,-0.6857330799102783,0.037327930331230164,-0.7639469504356384
1788862659547911200,4.9969111328125,-0.7267857193946838,-0.36396703124046326,-0.6181846857070923
1788862659557918000,5.00691796875,-0.776467502117157,-0.48786553740501404,-0.5217486619949341
1788862659567924200,5.01692431640625,-0.7630981802940369,-0.24427790939807892,-0.5181944370269775
1788862659577930200,5.02693017578125,-0.8227572441101074,-0.00836632028222084,-0.5397095680236816
1788862659587937000,5.03693701171875,-0.9804893732070923,-0.048287902027368546,-0.6070172190666199
1788862659597943000,5.046943115234375,-1.1422535181045532,-0.18102411925792694,-0.7571824789047241
1788862659607949300,5.05694921875,-1.2233374118804932,-0.2013179361820221,-0.9153393507003784
1788862659617956000,5.0669560546875,-1.2816377878189087,-0.256954550743103,-0.9705248475074768
1788862659627962000,5.076962158203125,-1.309122920036316,-0.4385768175125122,-0.9783636331558228
1788862659637969200,5.08696923828125,-1.3138492107391357,-0.6216118931770325,-0.9920192360877991
1788862659647975200,5.09697509765625,-1.2459393739700317,-0.5419343709945679,-1.013319969177246
1788862659657981200,5.106981201171875,-1.1797322034835815,-0.3736468255519867,-1.0781546831130981
1788862659667988000,5.116988037109375,-1.1919214725494385,-0.3222305178642273,-1.2358204126358032
1788862659677994200,5.126994140625,-1.215258240699768,-0.3520331382751465,-1.381906509399414
1788862659688001300,5.137001220703125,-1.2210670709609985,-0.4873563349246979,-1.4260047674179077
1788862659698007000,5.147007080078125,-1.17067289352417,-0.6783183217048645,-1.4095450639724731
1788862659708013000,5.157012939453125,-1.1034280061721802,-0.8602920770645142,-1.3675220012664795
1788862659718020000,5.16702001953125,-1.0366690158843994,-0.8432419896125793,-1.2928909063339233
1788862659728026000,5.177026123046875,-0.9839951395988464,-0.7533525824546814,-1.2756166458129883
1788862659738032000,5.1870322265625,-0.9979349374771118,-0.8967952728271484,-1.3407231569290161
1788862659748039200,5.1970390625,-1.035523533821106,-1.0368378162384033,-1.4353916645050049
1788862659758045200,5.207045166015625,-1.0442837476730347,-1.0913029909133911,-1.4785441160202026
1788862659768051200,5.21705126953125,-1.0051952600479126,-1.0195022821426392,-1.4517258405685425
1788862659778058000,5.22705810546875,-0.9388905167579651,-1.06620454788208,-1.4152817726135254
1788862659788064300,5.237064208984375,-0.8484668731689453,-1.2493062019348145,-1.3752800226211548
1788862659798071000,5.247071044921875,-0.7462275624275208,-1.450858235359192,-1.3933781385421753
1788862659808077000,5.2570771484375,-0.669166624546051,-1.5402977466583252,-1.4402953386306763
1788862659818083000,5.2670830078125,-0.6422167420387268,-1.3954404592514038,-1.4028280973434448
1788862659828090000,5.277090087890625,-0.6228481531143188,-1.155591368675232,-1.3129708766937256
1788862659838096100,5.28709619140625,-0.596103847026825,-1.000309944152832,-1.2566149234771729
1788862659848103200,5.297103271484375,-0.563380777835846,-0.9183279871940613,-1.2346558570861816
1788862659858109000,5.30710888671875,-0.5696583986282349,-0.7969237565994263,-1.1794471740722656
1788862659868115000,5.317114990234375,-0.5971693992614746,-0.6129683256149292,-0.999950647354126
1788862659878121700,5.327121826171875,-0.47887471318244934,-0.5258983969688416,-0.7673152685165405
1788862659888128000,5.3371279296875,-0.35889744758605957,-0.6037599444389343,-0.6276689767837524
1788862659898134000,5.347134033203125,-0.26937368512153625,-0.5769760012626648,-0.5380160808563232
1788862659908140800,5.357140869140625,-0.15707163512706757,-0.4979330897331238,-0.3919118344783783
1788862659918146800,5.367146728515625,-0.1319042444229126,-0.22189217805862427,-0.21148428320884705
1788862659928154000,5.377154052734375,-0.07521965354681015,-0.06646477431058884,-0.12310542166233063
1788862659938159900,5.387159912109375,0.028750421479344368,0.1333703100681305,-0.05501051992177963
1788862659948166000,5.397165771484375,0.12468254566192627,0.42007556557655334,0.037215277552604675
1788862659958173000,5.4071728515625,0.18449288606643677,0.5264560580253601,0.15535762906074524
1788862659968179000,5.417178955078125,0.3207298219203949,0.8178080320358276,0.25126099586486816
1788862659978185000,5.42718505859375,0.3810916841030121,0.7614765763282776,0.34920114278793335
1788862659988191700,5.437191650390625,0.3900143504142761,0.5368344187736511,0.5020500421524048
1788862659998198000,5.447197998046875,0.3994952142238617,0.400259792804718,0.6447909474372864
1788862660008205000,5.457205078125,0.4308829605579376,0.3079056143760681,0.7264320254325867
1788862660018210800,5.4672109375,0.5350242853164673,0.4305279552936554,0.7440121173858643
1788862660028216800,5.477216796875,0.6848659515380859,0.7455282211303711,0.6801993250846863
1788862660038224000,5.487223876953125,0.7865734100341797,0.8904878497123718,0.6520944237709045
1788862660048230000,5.49722998046875,0.8326226472854614,1.000705361366272,0.6943795680999756
1788862660058237000,5.50723681640625,0.8820559978485107,1.1036964654922485,0.7751774787902832
1788862660068243000,5.517242919921875,0.9758967161178589,1.1486892700195312,0.8884555697441101
1788862660078249000,5.5272490234375,1.039106011390686,0.9451025724411011,0.99605792760849
1788862660088256000,5.537256103515625,1.0719926357269287,0.7420315146446228,1.1308871507644653
1788862660098261800,5.54726171875,1.1762665510177612,0.7594656348228455,1.2173213958740234
1788862660108269000,5.55726904296875,1.2960693836212158,0.8074249029159546,1.2483493089675903
1788862660118274800,5.56727490234375,1.3221561908721924,0.8650389313697815,1.3299640417099
1788862660128280800,5.57728076171875,1.290807843208313,0.9690279364585876,1.4107069969177246
1788862660138288000,5.5872880859375,1.2545469999313354,1.0298750400543213,1.491719126701355
1788862660148294000,5.5972939453125,1.2842888832092285,1.0355384349822998,1.528941035270691
1788862660158300000,5.6072998046875,1.3383723497390747,0.8743544220924377,1.5846750736236572
1788862660168307000,5.617306884765625,1.3658844232559204,0.7341448068618774,1.6702438592910767
1788862660178313000,5.62731298828125,1.4529650211334229,0.949950635433197,1.719172716140747
1788862660188320000,5.637320068359375,1.5315711498260498,1.038786768913269,1.8165563344955444
1788862660198325800,5.64732568359375,1.5874801874160767,1.027435302734375,1.9301925897598267
1788862660208332000,5.65733203125,1.6560899019241333,1.082299828529358,2.0106444358825684
1788862660218339000,5.667339111328125,1.7109555006027222,1.040284276008606,2.081411123275757
1788862660228344800,5.6773447265625,1.704986572265625,0.7277551293373108,2.1392557621002197
1788862660238352100,5.68735205078125,1.648722529411316,0.28205379843711853,2.1409575939178467
1788862660248358000,5.69735791015625,1.62538743019104,0.2768917977809906,2.061479330062866
1788862660258364000,5.707364013671875,1.6574574708938599,0.6178725361824036,1.912824273109436
1788862660268371000,5.717370849609375,1.6402390003204346,0.698842465877533,1.7768373489379883
1788862660278377000,5.727376953125,1.5690220594406128,0.646904706954956,1.6312106847763062
1788862660288384000,5.737384033203125,1.4423730373382568,0.5767807960510254,1.4500192403793335
1788862660298390000,5.74739013671875,1.2779934406280518,0.5103018879890442,1.286195158958435
1788862660308395800,5.757395751953125,1.164391040802002,0.42053869366645813,1.128828525543213
1788862660318403000,5.767403076171875,1.0297794342041016,0.4273103177547455,0.9620408415794373
1788862660328408800,5.777408935546875,0.8811675310134888,0.6452298760414124,0.800146758556366
1788862660338414800,5.787414794921875,0.7186571955680847,0.7454898953437805,0.691439688205719
1788862660348422100,5.797422119140625,0.5627837181091309,0.6715298891067505,0.5571314096450806
1788862660358428000,5.807427978515625,0.5070677399635315,0.570698618888855,0.36487117409706116
1788862660368435000,5.81743505859375,0.45471370220184326,0.4461711049079895,0.20907039940357208
1788862660378441000,5.82744091796875,0.29122093319892883,0.14036217331886292,0.10773951560258865
1788862660388447000,5.837447021484375,0.07865166664123535,-0.29921600222587585,-0.022855248302221298
1788862660398454000,5.8474541015625,-0.02292848564684391,-0.3060302436351776,-0.1960746943950653
1788862660408459800,5.857459716796875,-0.06887280941009521,-0.01666499674320221,-0.3536241054534912
1788862660418467000,5.867467041015625,-0.19724595546722412,-0.028896896168589592,-0.41203948855400085
1788862660428473000,5.87747314453125,-0.3283730745315552,-0.13623985648155212,-0.426335871219635
1788862660438478800,5.887478759765625,-0.427757203578949,-0.15460821986198425,-0.40797603130340576
1788862660448486000,5.89748583984375,-0.48071494698524475,-0.17800354957580566,-0.3971004784107208
1788862660458492200,5.9074921875,-0.5607780814170837,-0.3890513479709625,-0.4504646360874176
1788862660468499000,5.9174990234375,-0.7098253965377808,-0.5655866861343384,-0.5915019512176514
1788862660478505000,5.9275048828125,-0.8585368394851685,-0.4198436141014099,-0.7658593654632568
1788862660488510700,5.9375107421875,-0.9151833057403564,-0.1333569884300232,-0.858060896396637
1788862660498518000,5.94751806640625,-0.9225232601165771,-0.07491472363471985,-0.8523209691047668
1788862660508524000,5.95752392578125,-0.8507068753242493,-0.12138262391090393,-0.8544896245002747
1788862660518530800,5.96753076171875,-0.6830595135688782,-0.11470208317041397,-0.843407928943634
1788862660528537000,5.977537109375,-0.555663526058197,-0.20522825419902802,-0.7267409563064575
1788862660538543000,5.987543212890625,-0.579347550868988,-0.34838488698005676,-0.6281275749206543
1788862660548550000,5.9975498046875,-0.7135263681411743,-0.3782847225666046,-0.6790211200714111
1788862660558556000,6.007555908203125,-0.8228999972343445,-0.18492351472377777,-0.8153989315032959
1788862660568563000,6.01756298828125,-0.9328888058662415,-0.069590263068676,-0.8544464707374573
1788862660578569000,6.02756884765625,-1.0593678951263428,0.022356970235705376,-0.8300727009773254
1788862660588575000,6.037574951171875,-1.1401692628860474,0.03815457597374916,-0.8541692495346069
1788862660598582000,6.04758203125,-1.1886601448059082,-0.18098843097686768,-0.9301859736442566
1788862660608588000,6.057588134765625,-1.2744618654251099,-0.574348509311676,-1.041690707206726
1788862660618594800,6.0675947265625,-1.3588998317718506,-0.8180767297744751,-1.1751136779785156
1788862660628600800,6.077600830078125,-1.3651145696640015,-0.7687211632728577,-1.2272636890411377
1788862660638607000,6.087607177734375,-1.3480385541915894,-0.6582985520362854,-1.1809052228927612
1788862660648614000,6.09761376953125,-1.3657270669937134,-0.6894795894622803,-1.1535178422927856
1788862660658620000,6.107619873046875,-1.3459872007369995,-0.7138275504112244,-1.237922191619873
1788862660668627000,6.117626953125,-1.282976508140564,-0.7465519309043884,-1.3446131944656372
1788862660678633000,6.127633056640625,-1.2269465923309326,-0.8224858641624451,-1.3685678243637085
1788862660688639000,6.137638916015625,-1.230291485786438,-0.9984728693962097,-1.2974947690963745
1788862660698645800,6.147645751953125,-1.251366376876831,-1.1601542234420776,-1.2337538003921509
1788862660708652000,6.157652099609375,-1.1983596086502075,-1.1269246339797974,-1.2084077596664429
1788862660718658800,6.167658935546875,-1.1702619791030884,-1.0928676128387451,-1.1745645999908447
1788862660728664800,6.177664794921875,-1.193244218826294,-1.0819501876831055,-1.1031638383865356
1788862660738671000,6.187671142578125,-1.1884409189224243,-0.9574173092842102,-1.051418662071228
1788862660748678000,6.197677978515625,-1.1283358335494995,-0.8307296633720398,-1.0702069997787476
1788862660758684000,6.207683837890625,-1.0397238731384277,-0.9175492525100708,-1.113800048828125
1788862660768691000,6.21769091796875,-0.9689559936523438,-1.0970886945724487,-1.1344422101974487
1788862660778697000,6.227697021484375,-0.8330895304679871,-1.0619893074035645,-1.1513698101043701
1788862660788703000,6.237702880859375,-0.7189815640449524,-0.9062992930412292,-1.1462650299072266
1788862660798709800,6.247709716796875,-0.7080476880073547,-0.7857710123062134,-1.1234230995178223
1788862660808716000,6.257716064453125,-0.6881752014160156,-0.9027130603790283,-1.1483668088912964
1788862660818723000,6.26772314453125,-0.6028054356575012,-1.0632907152175903,-1.1949965953826904
1788862660828728800,6.277728759765625,-0.560460090637207,-1.0429061651229858,-1.1833302974700928
1788862660838734800,6.28773486328125,-0.6367495656013489,-1.124280571937561,-1.0054415464401245
1788862660848742400,6.297742431640625,-0.6932093501091003,-1.2508004903793335,-0.6672914624214172
1788862660858748400,6.30774853515625,-0.6593132019042969,-1.1856797933578491,-0.4609052836894989
1788862660868755500,6.31775537109375,-0.5750340223312378,-1.079519271850586,-0.4289276599884033
1788862660878761500,6.327761474609375,-0.5604342818260193,-1.0737950801849365,-0.480803906917572
1788862660888767500,6.337767578125,-0.5453706383705139,-0.9840492010116577,-0.4880514442920685
1788862660898774500,6.3477744140625,-0.4447748064994812,-0.8141773343086243,-0.3373516798019409
1788862660908780500,6.357780517578125,-0.41818979382514954,-0.628157377243042,-0.1801186352968216
1788862660918787600,6.36778759765625,-0.3930383622646332,-0.3302442133426666,-0.09323753416538239
1788862660928793300,6.37779345703125,-0.3431522846221924,-0.05294816941022873,-0.029998112469911575
1788862660938799600,6.387799560546875,-0.326960027217865,-0.046426620334386826,-0.023062707856297493
1788862660948806400,6.397806396484375,-0.3144703209400177,-0.19504326581954956,0.02376764640212059
1788862660958812400,6.4078125,-0.20944802463054657,0.0011648666113615036,0.019275160506367683
1788862660968819700,6.41781982421875,-0.12257198989391327,0.10850730538368225,-0.030542196705937386
1788862660978825500,6.427825439453125,-0.06615691632032394,0.15035408735275269,-0.011345865204930305
1788862660988831500,6.43783154296875,0.013246030546724796,0.2883564233779907,0.12045957148075104
1788862660998838500,6.447838623046875,0.1932261884212494,0.5666549205780029,0.23144175112247467
1788862661008844500,6.457844482421875,0.4545232951641083,0.8710070848464966,0.25959667563438416
1788862661018851600,6.4678515625,0.6646328568458557,0.9669655561447144,0.2613908648490906
1788862661028857300,6.477857421875,0.8055580258369446,1.089606761932373,0.27880340814590454
1788862661038864600,6.48786474609375,0.9259930849075317,1.1988738775253296,0.3246164321899414
1788862661048870700,6.49787060546875,0.9839269518852234,0.9647162556648254,0.3770058751106262
1788862661058876400,6.50787646484375,0.9078569412231445,0.5755946040153503,0.5115996599197388
1788862661068883500,6.517883544921875,0.8516389727592468,0.6170318126678467,0.6307097673416138
1788862661078889700,6.5278896484375,0.9042816758155823,0.8432284593582153,0.6907147765159607
1788862661088896500,6.537896484375,0.9529227018356323,0.9188161492347717,0.7440674901008606
1788862661098902500,6.547902587890625,0.9494427442550659,1.2052146196365356,0.8045854568481445
1788862661108908300,6.557908203125,0.9887222647666931,1.8454976081848145,0.8243075013160706
1788862661118915600,6.56791552734375,1.1302186250686646,2.136936902999878,0.8388797640800476
1788862661128921600,6.577921630859375,1.28567373752594,1.667460560798645,0.9623449444770813
1788862661138928400,6.587928466796875,1.319432258605957,1.1616690158843994,1.1650125980377197
1788862661148934700,6.5979345703125,1.2957426309585571,1.2570737600326538,1.4620863199234009
1788862661158940700,6.607940673828125,1.4216166734695435,1.5250144004821777,1.7189501523971558
1788862661168947500,6.617947509765625,1.5853041410446167,1.2471106052398682,1.8584898710250854
1788862661178953700,6.62795361328125,1.6642383337020874,0.8428638577461243,1.9220528602600098
1788862661188960500,6.63796044921875,1.6172280311584473,0.5592161417007446,1.9530550241470337
1788862661198966500,6.647966552734375,1.5030494928359985,0.24284140765666962,1.9731104373931885
1788862661208972500,6.65797265625,1.4298804998397827,0.021433653309941292,1.9699151515960693
1788862661218979600,6.6679794921875,1.435240626335144,0.1804259717464447,1.9202384948730469
1788862661228985600,6.677985595703125,1.55412757396698,0.6844443678855896,1.8319776058197021
1788862661238992400,6.687992431640625,1.6768792867660522,0.9971202611923218,1.811527967453003
1788862661248998700,6.69799853515625,1.8026835918426514,1.2273896932601929,1.845684289932251
1788862661259005400,6.70800537109375,1.8755857944488525,1.3692048788070679,1.8860669136047363
1788862661269011500,6.718011474609375,1.8768057823181152,1.3624287843704224,1.8851760625839233
1788862661279017500,6.728017578125,1.8161925077438354,1.1588915586471558,1.8103069067001343
1788862661289024500,6.7380244140625,1.68373703956604,0.9500774145126343,1.680684208869934
1788862661299030500,6.748030517578125,1.486280083656311,0.8469792008399963,1.5430881977081299
1788862661309037600,6.75803759765625,1.2354748249053955,0.6976150274276733,1.4014091491699219
1788862661319043600,6.768043701171875,0.9859338998794556,0.4016568958759308,1.2214300632476807
1788862661329049600,6.778049560546875,0.7668231129646301,0.1780480295419693,1.0276243686676025
1788862661339056400,6.788056396484375,0.6783409714698792,0.18082517385482788,0.8056997060775757
1788862661349062400,6.7980625,0.6339260935783386,0.03307246416807175,0.5971859097480774
1788862661359069700,6.808069580078125,0.3961670398712158,-0.3775411546230316,0.4654105603694916
1788862661369075500,6.818075439453125,0.12446363270282745,-0.6881440281867981,0.36507198214530945
1788862661379082500,6.82808251953125,-0.03425703942775726,-0.4879329204559326,0.19302058219909668
1788862661389088500,6.838088623046875,-0.11324932426214218,0.038661908358335495,-0.04354481399059296
1788862661399094500,6.848094482421875,-0.2110707014799118,0.1696966290473938,-0.2847209572792053
1788862661409101600,6.8581015625,-0.3556041717529297,-0.03316700831055641,-0.44300779700279236
1788862661419107300,6.868107421875,-0.462086945772171,-0.29293733835220337,-0.503065288066864
1788862661429114600,6.878114501953125,-0.575254499912262,-0.7359752058982849,-0.5436568856239319
1788862661439120600,6.88812060546875,-0.6975433826446533,-0.8810468912124634,-0.6545666456222534
1788862661449126400,6.89812646484375,-0.7867276072502136,-0.6256364583969116,-0.8156495094299316
1788862661459133700,6.9081337890625,-0.9012400507926941,-0.2788292467594147,-0.8896819353103638
1788862661469139500,6.918139404296875,-1.0558924674987793,0.03749357908964157,-0.8569229245185852
1788862661479146500,6.928146484375,-1.1645073890686035,0.19284509122371674,-0.858283281326294
1788862661489152500,6.938152587890625,-1.2089241743087769,0.2990356981754303,-0.9374334812164307
1788862661499159600,6.94815966796875,-1.2272539138793945,0.22487545013427734,-0.9651503562927246
1788862661509165600,6.95816552734375,-1.2978860139846802,-0.20154297351837158,-0.9569951891899109
1788862661519171600,6.968171630859375,-1.4763169288635254,-0.41497641801834106,-0.9968134760856628
1788862661529178600,6.9781787109375,-1.6319001913070679,-0.18920907378196716,-1.0824450254440308
1788862661539184600,6.9881845703125,-1.6746313571929932,0.35714080929756165,-1.1207278966903687
1788862661549191400,6.99819140625,-1.650055170059204,0.5064751505851746,-0.9691717028617859
1788862661559197400,7.008197509765625,-1.550397515296936,0.04282975569367409,-0.7718666195869446
1788862661569203700,7.01820361328125,-1.3383142948150635,-0.4504108428955078,-0.7041807770729065
1788862661579210500,7.02821044921875,-1.1234475374221802,-0.6782048344612122,-0.7431758642196655
1788862661589216500,7.038216552734375,-1.0712571144104004,-0.6155499815940857,-0.7844764590263367
1788862661599223600,7.0482236328125,-1.2149564027786255,-0.5260712504386902,-0.7224268913269043
1788862661609229600,7.0582294921875,-1.4309813976287842,-0.538641095161438,-0.6404659748077393
1788862661619236400,7.068236328125,-1.5105161666870117,-0.4848977029323578,-0.6705011129379272
1788862661629242400,7.078242431640625,-1.4116228818893433,-0.4619159698486328,-0.7614576816558838
1788862661639248600,7.08824853515625,-1.3148505687713623,-0.657433807849884,-0.8518189787864685
1788862661649255400,7.09825537109375,-1.2466400861740112,-1.014366626739502,-0.8732574582099915
1788862661659261400,7.108261474609375,-1.1811065673828125,-1.3178255558013916,-0.8384643197059631
1788862661669268700,7.118268798828125,-1.1546299457550049,-1.2927042245864868,-0.7664822340011597
1788862661679274500,7.1282744140625,-1.1833455562591553,-0.9361562728881836,-0.7215036153793335
1788862661689280500,7.138280517578125,-1.240086555480957,-0.625898003578186,-0.7606017589569092
1788862661699287300,7.148287353515625,-1.2540156841278076,-0.5156763792037964,-0.8301302194595337
1788862661709293600,7.15829345703125,-1.2520649433135986,-0.7462920546531677,-0.8535889387130737
1788862661719300600,7.168300537109375,-1.2240580320358276,-1.053425908088684,-0.8771342039108276
1788862661729306400,7.178306396484375,-1.1510530710220337,-1.265476107597351,-0.9268506169319153
1788862661739313700,7.188313720703125,-1.0385159254074097,-1.4296772480010986,-0.9170286059379578
1788862661749319700,7.198319580078125,-0.945100724697113,-1.446239948272705,-0.8927408456802368
1788862661759325400,7.208325439453125,-0.9216835498809814,-1.374951720237732,-0.9366167187690735
1788862661769332700,7.218332763671875,-0.9760024547576904,-1.4747276306152344,-1.014681100845337
1788862661779338500,7.22833837890625,-0.9597601294517517,-1.492485761642456,-1.076611042022705
1788862661789345500,7.238345458984375,-0.9154222011566162,-1.4888194799423218,-1.1473095417022705
1788862661799351600,7.2483515625,-0.8863370418548584,-1.4376957416534424,-1.2375164031982422
1788862661809358600,7.258358642578125,-0.8521623015403748,-1.366122841835022,-1.2810899019241333
1788862661819364600,7.268364501953125,-0.8498887419700623,-1.3114510774612427,-1.2990089654922485
1788862661829370600,7.27837060546875,-0.810451328754425,-1.123464584350586,-1.306148648262024
1788862661839377700,7.288377685546875,-0.7369387745857239,-0.885176956653595,-1.3045177459716797
1788862661849383400,7.298383544921875,-0.66424560546875,-0.7486345767974854,-1.267188549041748
1788862661859390500,7.308390380859375,-0.6196424961090088,-0.722072422504425,-1.2207738161087036
1788862661869396500,7.318396484375,-0.5599618554115295,-0.7670127749443054,-1.1715247631072998
1788862661879402500,7.328402587890625,-0.4935029149055481,-0.8167925477027893,-1.085478663444519
1788862661889409300,7.3384091796875,-0.47614815831184387,-0.7494305968284607,-0.9481028914451599
1788862661899415600,7.34841552734375,-0.40848308801651,-0.422561377286911,-0.7979421615600586
1788862661909422300,7.35842236328125,-0.28654149174690247,-0.0783776268362999,-0.6440282464027405
1788862661919428400,7.368428466796875,-0.15555603802204132,0.10833127051591873,-0.568596363067627
1788862661929435400,7.378435302734375,-0.0332769975066185,0.2578887939453125,-0.523701012134552
1788862661939441400,7.38844140625,0.15700159966945648,0.5460561513900757,-0.42094138264656067
1788862661949447400,7.398447509765625,0.29436370730400085,0.5293197631835938,-0.187111034989357
1788862661959454200,7.4084541015625,0.3956988751888275,0.5297186970710754,0.058995410799980164
1788862661969460500,7.41846044921875,0.4100799262523651,0.6184986233711243,0.2625972628593445
1788862661979467300,7.42846728515625,0.3786013722419739,0.6261877417564392,0.3479446470737457
1788862661989473300,7.438473388671875,0.4205762445926666,0.7271313667297363,0.4380508363246918
1788862661999480600,7.44848046875,0.604080855846405,0.9997594356536865,0.4995831847190857
1788862662009486300,7.458486328125,0.720203697681427,0.9778181910514832,0.5568571090698242
1788862662019492400,7.468492431640625,0.6992736458778381,0.6020757555961609,0.7448339462280273
1788862662029499400,7.47849951171875,0.7129870653152466,0.35741353034973145,1.008921504020691
1788862662039505400,7.48850537109375,0.8260422348976135,0.4116448163986206,1.1617579460144043
1788862662049512400,7.498512451171875,0.9822180271148682,0.5502282381057739,1.21197509765625
1788862662059518500,7.5085185546875,1.1200305223464966,0.6520089507102966,1.190330147743225
1788862662069525500,7.518525390625,1.1722241640090942,0.832062840461731,1.1245276927947998
1788862662079531500,7.528531494140625,1.1430692672729492,1.1414012908935547,1.0503402948379517
1788862662089537300,7.538537353515625,1.1377841234207153,1.3815866708755493,1.0776857137680054
1788862662099544600,7.548544677734375,1.1889173984527588,1.3442039489746094,1.2201043367385864
1788862662109550600,7.558550537109375,1.2589668035507202,1.2164357900619507,1.4748293161392212
1788862662119557400,7.568557373046875,1.394728660583496,1.2622510194778442,1.6935659646987915
1788862662129563400,7.5785634765625,1.5587377548217773,1.2974188327789307,1.7126240730285645
1788862662139569400,7.5885693359375,1.6732233762741089,1.1643060445785522,1.6116830110549927
1788862662149576400,7.598576416015625,1.6855915784835815,1.0160516500473022,1.5822601318359375
1788862662159582500,7.60858251953125,1.641107201576233,0.9806555509567261,1.6606236696243286
1788862662169589500,7.618589599609375,1.5726925134658813,1.0412623882293701,1.6977955102920532
1788862662179595500,7.628595458984375,1.514520287513733,1.0477054119110107,1.6927944421768188
1788862662189602300,7.638602294921875,1.4848283529281616,0.9379767775535583,1.786949634552002
1788862662199608300,7.6486083984375,1.5173698663711548,0.747246265411377,1.9564273357391357
1788862662209614600,7.658614501953125,1.5875353813171387,0.7419638633728027,2.0654752254486084
1788862662219621400,7.668621337890625,1.6620255708694458,0.9933135509490967,2.086897134780884
1788862662229627400,7.67862744140625,1.6890193223953247,0.97386234998703,2.122424602508545
1788862662239634400,7.688634521484375,1.6684741973876953,0.6569719910621643,2.1649458408355713
1788862662249640400,7.698640380859375,1.6828416585922241,0.5856184959411621,2.1200380325317383
1788862662259647500,7.7086474609375,1.6817026138305664,0.6070702075958252,2.012629985809326
1788862662269653200,7.7186533203125,1.5458261966705322,0.4398551285266876,1.88346266746521
1788862662279659500,7.728659423828125,1.3376400470733643,0.3519383370876312,1.6946293115615845
1788862662289666300,7.738666259765625,1.197655439376831,0.581375241279602,1.4367932081222534
1788862662299672300,7.74867236328125,1.173198938369751,0.9135928750038147,1.1896175146102905
1788862662309679600,7.7586796875,1.160892367362976,1.047145128250122,1.0122504234313965
1788862662319685400,7.768685302734375,1.0656788349151611,0.9394324421882629,0.8474876284599304
1788862662329692400,7.7786923828125,0.9556247591972351,0.9354979395866394,0.6799851655960083
1788862662339698400,7.788698486328125,0.8843492269515991,0.8360006213188171,0.5788835883140564
1788862662349704400,7.798704345703125,0.7837957143783569,0.5587431788444519,0.5360599756240845
1788862662359711500,7.80871142578125,0.6778727769851685,0.47021305561065674,0.45317521691322327
1788862662369717200,7.81871728515625,0.558729350566864,0.3790988624095917,0.30333298444747925
1788862662379724500,7.828724609375,0.41298383474349976,0.2610321342945099,0.13403689861297607
1788862662389730600,7.83873046875,0.3020288348197937,0.04505056515336037,-0.002180596347898245
1788862662399737300,7.8487373046875,0.19786088168621063,-0.2786327004432678,-0.10478659719228745
1788862662409743400,7.858743408203125,0.061881743371486664,-0.38618579506874084,-0.1496795117855072
1788862662419750400,7.86875048828125,-0.08895757049322128,-0.45821523666381836,-0.1389475017786026
1788862662429756400,7.87875634765625,-0.25286686420440674,-0.5385353565216064,-0.13746331632137299
1788862662439762400,7.888762451171875,-0.31906425952911377,-0.2751988172531128,-0.21471256017684937
1788862662449769500,7.89876953125,-0.32962557673454285,0.025838522240519524,-0.29154741764068604
1788862662459775500,7.908775390625,-0.354606568813324,0.12486416846513748,-0.3632791340351105
1788862662469782300,7.9187822265625,-0.3728652000427246,0.09665756672620773,-0.45201966166496277
1788862662479788300,7.928788330078125,-0.4012017548084259,0.03232651576399803,-0.5422505140304565
1788862662489795300,7.93879541015625,-0.49922019243240356,-0.06144791468977928,-0.6255602836608887
1788862662499801300,7.94880126953125,-0.6904132962226868,-0.28026920557022095,-0.6890577673912048
1788862662509807400,7.958807373046875,-0.925520658493042,-0.32712486386299133,-0.8069079518318176
1788862662519814400,7.968814453125,-1.0506553649902344,-0.021508753299713135,-0.9885446429252625
1788862662529820400,7.9788203125,-1.1152889728546143,0.30960631370544434,-1.0980883836746216
1788862662539827500,7.988827392578125,-1.146689534187317,0.4082452952861786,-1.1126266717910767
1788862662549833200,7.998833251953125,-1.1519607305526733,0.2924236059188843,-1.0922877788543701
1788862662559840500,8.008840576171876,-1.0939464569091797,0.004764928016811609,-1.0758073329925537
1788862662569846300,8.01884619140625,-0.9975612759590149,-0.2639964818954468,-1.044246792793274
1788862662579852300,8.028852294921874,-0.9448519945144653,-0.30787739157676697,-1.002042293548584
1788862662589859600,8.038859619140625,-0.9988369345664978,-0.3265000879764557,-0.9937393665313721
1788862662599865300,8.048865234375,-1.1875629425048828,-0.4851382076740265,-1.0157802104949951
1788862662609872400,8.058872314453126,-1.4014475345611572,-0.6511953473091125,-1.0486925840377808
1788862662619878400,8.06887841796875,-1.4760609865188599,-0.5910441279411316,-1.120439052581787
1788862662629885400,8.078885498046875,-1.4960410594940186,-0.3134506046772003,-1.189335823059082
1788862662639891500,8.088891357421875,-1.5344183444976807,-0.1700526922941208,-1.1740646362304688
1788862662649897200,8.098897216796875,-1.540434718132019,-0.3373583257198334,-1.1368528604507446
1788862662659904500,8.108904541015624,-1.4908732175827026,-0.604009211063385,-1.178523302078247
1788862662669910500,8.11891064453125,-1.4488022327423096,-0.8066203594207764,-1.2926608324050903
1788862662679917300,8.128917236328125,-1.4825351238250732,-0.8921642899513245,-1.3831675052642822
1788862662689923600,8.138923583984376,-1.5622550249099731,-0.627851665019989,-1.449055552482605
1788862662699930400,8.148930419921875,-1.5988413095474243,-0.04718988388776779,-1.4757193326950073
1788862662709936400,8.158936279296874,-1.6457104682922363,0.04386039823293686,-1.432567834854126
1788862662719942400,8.1689423828125,-1.698927879333496,-0.5719905495643616,-1.396235466003418
1788862662729949400,8.178949462890625,-1.6418832540512085,-1.1560707092285156,-1.3849399089813232
1788862662739955500,8.18895556640625,-1.4899890422821045,-1.208795189857483,-1.3507741689682007
1788862662749962200,8.198962158203125,-1.357073426246643,-0.7430728077888489,-1.2600916624069214
1788862662759968500,8.208968505859374,-1.2678042650222778,-0.6582852005958557,-1.102594256401062
1788862662769975300,8.218975341796876,-1.1738066673278809,-1.1207835674285889,-1.026239275932312
1788862662779981300,8.228981201171875,-1.052612066268921,-1.5405495166778564,-1.0306028127670288
1788862662789987300,8.2389873046875,-0.9939327239990234,-1.8277175426483154,-1.0224192142486572
1788862662799994400,8.248994384765625,-0.9867509603500366,-2.0220086574554443,-0.9906005859375
1788862662810000400,8.25900048828125,-0.9619225859642029,-2.0574753284454346,-1.005388855934143
1788862662820007400,8.26900732421875,-0.8423639535903931,-1.9618780612945557,-1.026472806930542
1788862662830013400,8.279013427734375,-0.7654604315757751,-1.8599498271942139,-1.0598722696304321
1788862662840020500,8.2890205078125,-0.7203317880630493,-1.7780314683914185,-1.0601977109909058
1788862662850026500,8.299026611328125,-0.661027193069458,-1.733752727508545,-1.0021171569824219
1788862662860033800,8.30903369140625,-0.5643385052680969,-1.584914207458496,-1.0127426385879517
1788862662870039800,8.319039794921874,-0.5193387866020203,-1.4412457942962646,-1.0880054235458374
1788862662880045600,8.329045654296875,-0.5112462043762207,-1.2551437616348267,-1.0728213787078857
1788862662890052600,8.339052490234375,-0.5002322196960449,-0.9401640295982361,-0.9360547661781311
1788862662900058600,8.34905859375,-0.4278107285499573,-0.5947906374931335,-0.7655727863311768
1788862662910065700,8.359065673828125,-0.3383500874042511,-0.4719262421131134,-0.6125872135162354
1788862662920071700,8.36907177734375,-0.2938894033432007,-0.47255608439445496,-0.4620632529258728
1788862662930078700,8.37907861328125,-0.25822168588638306,-0.3810506761074066,-0.3383527398109436
1788862662940084700,8.389084716796875,-0.1981961727142334,-0.07891292124986649,-0.28432172536849976
1788862662950090800,8.3990908203125,-0.10991451889276505,0.34534114599227905,-0.23396535217761993
1788862662960097500,8.40909765625,0.000016777914424892515,0.4678593575954437,-0.14657746255397797
1788862662970103800,8.419103759765624,0.1270921677350998,0.586525022983551,-0.027411118149757385
1788862662980110600,8.429110595703126,0.18029867112636566,0.4800853729248047,0.17754682898521423
1788862662990116600,8.43911669921875,0.13553199172019958,0.38576021790504456,0.33021146059036255
1788862663000123600,8.44912353515625,0.16873948276042938,0.5185153484344482,0.37044864892959595
1788862663010129700,8.459129638671875,0.2716512084007263,0.6410625576972961,0.3261996805667877
1788862663020135700,8.4691357421875,0.4035980701446533,0.7199357748031616,0.29493391513824463
1788862663030142500,8.479142578125,0.4565449059009552,0.6969423294067383,0.29971587657928467
1788862663040148700,8.489148681640625,0.410800039768219,0.5033116340637207,0.3627867102622986
1788862663050155500,8.499155517578124,0.49140143394470215,0.6834225058555603,0.4525168836116791
1788862663060161500,8.50916162109375,0.6783372163772583,0.903030514717102,0.49477165937423706
1788862663070168800,8.5191689453125,0.8273554444313049,0.8468064069747925,0.5066227316856384
1788862663080174600,8.529174560546876,0.916108250617981,0.8361673355102539,0.5912020206451416
1788862663090180600,8.5391806640625,0.9896492958068848,0.9728727340698242,0.7180356383323669
1788862663100187600,8.549187744140625,1.1063615083694458,1.0889530181884766,0.8402907252311707
1788862663110193700,8.559193603515626,1.2152485847473145,1.038488745689392,0.96990966796875
1788862663120200700,8.56920068359375,1.2411280870437622,0.7929189205169678,1.152524471282959
1788862663130206500,8.57920654296875,1.2623591423034668,0.7521616220474243,1.3684914112091064
1788862663140213800,8.5892138671875,1.3441786766052246,0.8953198790550232,1.511611819267273
1788862663150219800,8.5992197265625,1.4625351428985596,0.9409099817276001,1.493321180343628
1788862663160226600,8.6092265625,1.5325604677200317,0.9306277632713318,1.4273933172225952
1788862663170232800,8.61923291015625,1.5097590684890747,1.0657755136489868,1.4469283819198608
1788862663180238800,8.62923876953125,1.4900926351547241,1.207190990447998,1.5168672800064087
1788862663190245600,8.63924560546875,1.5177093744277954,1.1607102155685425,1.5724376440048218
1788862663200251600,8.649251708984375,1.5315543413162231,0.9593350887298584,1.700852870941162
1788862663210258700,8.6592587890625,1.5443847179412842,0.8269493579864502,1.8820338249206543
1788862663220264700,8.6692646484375,1.6148223876953125,0.7974473834037781,2.0008163452148438
1788862663230271500,8.679271484375,1.6995526552200317,0.8409911394119263,2.0235917568206787
1788862663240277800,8.68927783203125,1.7318280935287476,0.89914470911026,2.033489942550659
1788862663250284500,8.699284423828125,1.72314453125,0.7530655264854431,2.0859596729278564
1788862663260290600,8.70929052734375,1.690162181854248,0.42396271228790283,2.130533456802368
1788862663270296600,8.719296630859375,1.630491852760315,0.2517116069793701,2.1427154541015625
1788862663280303600,8.7293037109375,1.5613982677459717,0.3523780107498169,2.114668846130371
1788862663290309600,8.7393095703125,1.5534991025924683,0.5746843218803406,2.039393901824951
1788862663300316700,8.749316650390625,1.594252347946167,0.7683960199356079,1.9455398321151733
1788862663310322700,8.75932275390625,1.5983421802520752,0.8181238770484924,1.842090368270874
1788862663320329700,8.769329833984376,1.5637950897216797,0.8678408265113831,1.6795403957366943
1788862663330335700,8.779335693359375,1.4724912643432617,0.9290064573287964,1.5071861743927002
1788862663340341500,8.789341552734374,1.3155916929244995,0.7185602784156799,1.4089179039001465
1788862663350348800,8.799348876953125,1.1110506057739258,0.34082284569740295,1.342297077178955
1788862663360354600,8.8093544921875,0.9234923720359802,0.21156977117061615,1.219895839691162
1788862663370361600,8.819361572265626,0.7867012619972229,0.44526907801628113,1.0232501029968262
1788862663380368000,8.829367919921875,0.6384422779083252,0.6656813621520996,0.8421743512153625
1788862663390374700,8.839374755859374,0.4987184703350067,0.6247535943984985,0.6595345139503479
1788862663400380700,8.849380615234375,0.39174726605415344,0.5534381866455078,0.42021670937538147
1788862663410387700,8.8593876953125,0.29581379890441895,0.5195702314376831,0.19652797281742096
1788862663420393700,8.869393798828124,0.08979566395282745,0.23189660906791687,0.049909237772226334
1788862663430399700,8.879399658203125,-0.15108565986156464,-0.13728195428848267,-0.05396762862801552
1788862663440406500,8.889406494140625,-0.25396329164505005,-0.10205233097076416,-0.1885930895805359
1788862663450412800,8.899412841796876,-0.29955288767814636,0.15791453421115875,-0.34435978531837463
1788862663460419600,8.909419677734375,-0.36712315678596497,0.18335837125778198,-0.47756442427635193
1788862663470425600,8.919425537109374,-0.460781455039978,-0.007713313214480877,-0.5946082472801208
1788862663480432600,8.9294326171875,-0.5402171611785889,0.04518691822886467,-0.6738823056221008
1788862663490438700,8.939438720703125,-0.5752425193786621,0.009582852013409138,-0.6888462901115417
1788862663500445700,8.94944580078125,-0.65078204870224,-0.17402958869934082,-0.6871179342269897
1788862663510451500,8.959451416015625,-0.754342794418335,-0.34620240330696106,-0.7011091113090515
1788862663520457700,8.969457763671874,-0.8394813537597656,-0.4392293095588684,-0.7247787714004517
1788862663530464800,8.97946484375,-0.8935150504112244,-0.2225441187620163,-0.7621892690658569
1788862663540470500,8.989470458984375,-0.9222907423973083,0.10100118070840836,-0.7271974086761475
1788862663550477800,8.999477783203124,-0.9151684045791626,0.05578789860010147,-0.6800544261932373
1788862663560483600,9.009483642578125,-0.8605280518531799,-0.1647561937570572,-0.6978557705879211
1788862663570490600,9.01949072265625,-0.7125750780105591,-0.13659965991973877,-0.7422557473182678
1788862663580496600,9.02949658203125,-0.5607869029045105,-0.04001985490322113,-0.7254877090454102
1788862663590503700,9.039503662109375,-0.5372123122215271,-0.09436165541410446,-0.6872460246086121
1788862663600509700,9.049509765625,-0.6460908651351929,-0.12283351272344589,-0.6709469556808472
1788862663610515700,9.059515625,-0.7898669242858887,0.02106853388249874,-0.6615196466445923
1788862663620522800,9.069522705078125,-0.9523024559020996,0.241036057472229,-0.6344395279884338
1788862663630528800,9.07952880859375,-1.115625023841858,0.3952280282974243,-0.660575807094574
1788862663640535600,9.08953564453125,-1.226269006729126,0.4184265434741974,-0.774814248085022
1788862663650541600,9.09954150390625,-1.263993263244629,0.30661797523498535,-0.9446634650230408
1788862663660548600,9.109548583984376,-1.229160189628601,0.015134744346141815,-1.0829627513885498
1788862663670554600,9.1195546875,-1.2033629417419434,-0.41209354996681213,-1.1128908395767212
1788862663680560600,9.129560546875,-1.2131963968276978,-0.6454682350158691,-1.0568592548370361
1788862663690567700,9.139567626953125,-1.2096389532089233,-0.4318150579929352,-1.0026206970214844
1788862663700573700,9.14957373046875,-1.2482233047485352,-0.09091658890247345,-0.9932634830474854
1788862663710580500,9.15958056640625,-1.3153307437896729,-0.04344654455780983,-1.062332272529602
1788862663720586500,9.16958642578125,-1.319943904876709,-0.37117302417755127,-1.1602095365524292
1788862663730593800,9.17959375,-1.2328017950057983,-0.6738148927688599,-1.2510462999343872
1788862663740599600,9.189599609375,-1.1556297540664673,-0.9296831488609314,-1.311589002609253
1788862663750606800,9.19960693359375,-1.131137490272522,-1.0628836154937744,-1.2800110578536987
1788862663760612600,9.209612548828124,-1.1106915473937988,-0.9429941773414612,-1.2522891759872437
1788862663770618600,9.21961865234375,-1.0999630689620972,-0.858048141002655,-1.3108408451080322
1788862663780625700,9.229625732421875,-1.1248023509979248,-0.9646917581558228,-1.3614976406097412
1788862663790631700,9.239631591796876,-1.1449581384658813,-1.0624902248382568,-1.3723859786987305
1788862663800638700,9.249638671875,-1.1442116498947144,-0.9993533492088318,-1.3018490076065063
1788862663810644700,9.259644775390624,-1.1433539390563965,-0.9159497618675232,-1.2246836423873901
1788862663820651800,9.26965185546875,-1.1045079231262207,-1.028940200805664,-1.190787434577942
1788862663830657800,9.27965771484375,-1.021978735923767,-1.2218724489212036,-1.2167171239852905
1788862663840664600,9.28966455078125,-0.9087581634521484,-1.3487504720687866,-1.2498183250427246
1788862663850669800,9.299669921875,-0.8293272852897644,-1.5113636255264282,-1.2443031072616577
1788862663860675800,9.30967578125,-0.7801682353019714,-1.74068284034729,-1.181645154953003
1788862663870683000,9.319682861328126,-0.729464054107666,-2.013871431350708,-1.0946619510650635
1788862663880689000,9.32968896484375,-0.6950008869171143,-2.1516060829162598,-1.017648458480835
1788862663890696000,9.339696044921874,-0.6806536316871643,-1.9923957586288452,-0.9770562648773193
1788862663900702000,9.349701904296875,-0.7122581601142883,-1.8610001802444458,-0.9510049819946289
1788862663910709000,9.359708984375,-0.724463701248169,-1.7500630617141724,-0.9340025186538696
1788862663920714800,9.36971484375,-0.6868979334831238,-1.4511756896972656,-0.9819501042366028
1788862663930722000,9.37972216796875,-0.6924072504043579,-1.2534401416778564,-1.052536964416504
1788862663940728000,9.38972802734375,-0.7032606601715088,-1.0272289514541626,-1.064639925956726
1788862663950733800,9.39973388671875,-0.6465180516242981,-0.6041918992996216,-1.0566527843475342
1788862663960740900,9.409740966796875,-0.49040886759757996,-0.16702334582805634,-1.016754150390625
1788862663970747000,9.419746826171876,-0.36931920051574707,0.0006005428149364889,-0.9222689270973206
1788862663980754000,9.42975390625,-0.2260294109582901,-0.008705341257154942,-0.8266172409057617
1788862663990760000,9.439760009765624,-0.021461615338921547,0.03154567629098892,-0.6484575867652893
1788862664000767000,9.44976708984375,0.10669608414173126,0.17477446794509888,-0.3665897250175476
1788862664010773000,9.45977294921875,0.125917449593544,0.22381098568439484,-0.1690548062324524
1788862664020779800,9.46977978515625,0.19371141493320465,0.5215198993682861,-0.1281081736087799
1788862664030785800,9.479785888671875,0.23899127542972565,0.5214107036590576,-0.07931612432003021
1788862664040792000,9.4897919921875,0.28402426838874817,0.5042439699172974,-0.008027832955121994
1788862664050798800,9.499798828125,0.2929474413394928,0.42429667711257935,0.1567360907793045
1788862664060804900,9.509804931640625,0.319195032119751,0.33341577649116516,0.355358362197876
1788862664070812000,9.51981201171875,0.33774393796920776,0.4431382715702057,0.4953586161136627
1788862664080818000,9.52981787109375,0.3310202658176422,0.49073803424835205,0.561735212802887
1788862664090825000,9.539824951171875,0.3246811330318451,0.32233065366744995,0.6117051839828491
1788862664100830700,9.549830810546876,0.38442304730415344,0.5102539658546448,0.627545952796936
1788862664110838000,9.559838134765625,0.49287813901901245,0.762183666229248,0.6283486485481262
1788862664120843800,9.56984375,0.5941815972328186,0.8441101908683777,0.6717680096626282
1788862664130849800,9.579849853515626,0.668718695640564,0.9252841472625732,0.7643170952796936
1788862664140857000,9.589857177734375,0.7768043875694275,0.8900928497314453,0.8921229839324951
1788862664150862800,9.59986279296875,0.9175793528556824,0.9248306155204773,1.0278382301330566
1788862664160870000,9.609869873046875,1.054484486579895,1.0616848468780518,1.1556146144866943
1788862664170876000,9.6198759765625,1.1650861501693726,1.014509916305542,1.274385690689087
1788862664180883000,9.629883056640624,1.2543725967407227,0.97527676820755,1.3696744441986084
1788862664190889000,9.639888916015625,1.3342753648757935,1.0139000415802002,1.3999534845352173
1788862664200896000,9.64989599609375,1.4070388078689575,1.099826693534851,1.386742353439331
1788862664210902000,9.659902099609376,1.4665639400482178,1.0499707460403442,1.4531493186950684
1788862664220908000,9.669907958984375,1.4901357889175415,0.7212066650390625,1.6099599599838257
1788862664230914800,9.679914794921874,1.5216554403305054,0.6387882232666016,1.7582333087921143
1788862664240921000,9.689921142578125,1.5829964876174927,0.7728333473205566,1.8981618881225586
1788862664250927900,9.699927978515625,1.5986207723617554,0.6922863125801086,2.078294515609741
1788862664260934000,9.709933837890626,1.627505898475647,0.7411220669746399,2.19551682472229
1788862664270941000,9.71994091796875,1.6816613674163818,0.9095470309257507,2.2402477264404297
1788862664280947000,9.729947021484374,1.7218668460845947,0.9737408757209778,2.2291781902313232
1788862664290954000,9.7399541015625,1.7032052278518677,0.8209260702133179,2.170602321624756
1788862664300959700,9.749959716796875,1.6122920513153076,0.5145448446273804,2.1104226112365723
1788862664310967000,9.759967041015624,1.5568645000457764,0.5044621229171753,2.0230062007904053
1788862664320972800,9.769972900390625,1.5538280010223389,0.6985447406768799,1.9440745115280151
1788862664330978800,9.779978759765624,1.575115442276001,0.8777896165847778,1.89095139503479
1788862664340986000,9.789986083984376,1.6125158071517944,0.9454067349433899,1.8254791498184204
1788862664350992000,9.799991943359375,1.601501703262329,0.9121856689453125,1.7149412631988525
1788862664360999000,9.8099990234375,1.5171130895614624,0.8912148475646973,1.6029534339904785
1788862664371005000,9.8200048828125,1.3910654783248901,0.7357288599014282,1.4900964498519897
1788862664381012000,9.830011962890625,1.2195698022842407,0.27087196707725525,1.353785753250122
1788862664391018000,9.84001806640625,1.0350178480148315,0.1107368990778923,1.1742905378341675
1788862664401024800,9.850024658203125,0.9341362118721008,0.30286478996276855,1.0029480457305908
1788862664411031000,9.860031005859375,0.8819353580474854,0.526981770992279,0.8516021966934204
1788862664421037000,9.870037109375,0.7469967007637024,0.6730772256851196,0.7174718379974365
1788862664431043800,9.8800439453125,0.6278660297393799,0.537676215171814,0.5771072506904602
1788862664441049900,9.8900498046875,0.5425831079483032,0.34533289074897766,0.4618840217590332
1788862664451057000,9.900056884765625,0.4584943354129791,0.26592835783958435,0.385576456785202
1788862664461063000,9.91006298828125,0.24781060218811035,-0.05230874568223953,0.3396656811237335
1788862664471069700,9.920069580078126,0.033609092235565186,-0.21702899038791656,0.25270867347717285
1788862664481076000,9.930075927734375,-0.0647134855389595,0.04265531897544861,0.13473331928253174
1788862664491083000,9.9400830078125,-0.16651387512683868,0.23704449832439423,0.038168955594301224
1788862664501088800,9.9500888671875,-0.2519361078739166,0.3086784780025482,-0.04527054354548454
1788862664511094800,9.9600947265625,-0.31160131096839905,0.2191145122051239,-0.1288599818944931
1788862664521101800,9.970101806640624,-0.37569504976272583,0.23681440949440002,-0.20007450878620148
1788862664531107800,9.98010791015625,-0.453201562166214,0.1887856274843216,-0.24900369346141815
1788862664541115000,9.990114990234375,-0.5833523869514465,-0.018228804692626,-0.32734349370002747
1788862664551121000,10.000120849609376,-0.722527027130127,-0.037097301334142685,-0.4558221101760864
1788862664561128000,10.0101279296875,-0.7912904024124146,0.025474466383457184,-0.6088534593582153
1788862664571134000,10.020134033203124,-0.842663049697876,0.1750437170267105,-0.7030654549598694
1788862664581141000,10.03014111328125,-0.8501483798027039,0.2125580757856369,-0.725807249546051
1788862664591147000,10.04014697265625,-0.881598711013794,-0.10753311961889267,-0.7126153111457825
1788862664601153000,10.050153076171876,-0.9575917720794678,-0.4182734191417694,-0.6915366649627686
1788862664611159800,10.060159912109375,-0.9962203502655029,-0.4177575707435608,-0.6610852479934692
1788862664621166000,10.070166015625,-0.9313758611679077,-0.06101302057504654,-0.7025373578071594
1788862664631172900,10.0801728515625,-0.8620580434799194,0.311610609292984,-0.7887982130050659
1788862664641179000,10.090178955078125,-0.9114823341369629,0.2780531942844391,-0.8137397766113281
1788862664651186000,10.10018603515625,-1.030368447303772,0.12218556553125381,-0.8084944486618042
1788862664661192000,10.11019189453125,-1.1393266916275024,0.01739070750772953,-0.8147717714309692
1788862664671198700,10.12019873046875,-1.1889700889587402,-0.0986352264881134,-0.8084155917167664
1788862664681204700,10.130204833984376,-1.2005985975265503,-0.12469638884067535,-0.8260496854782104
1788862664691212000,10.1402119140625,-1.1958242654800415,-0.027716049924492836,-0.8459989428520203
1788862664701217800,10.1502177734375,-1.203925609588623,0.07604949176311493,-0.8086078763008118
1788862664711223800,10.160223876953125,-1.2029362916946411,-0.009059274569153786,-0.7563065886497498
1788862664721231000,10.170231201171875,-1.177566409111023,-0.3277038335800171,-0.7651421427726746
1788862664731236900,10.18023681640625,-1.1047335863113403,-0.5542687773704529,-0.8005052208900452
1788862664741244000,10.190243896484375,-1.021476149559021,-0.5115021467208862,-0.8172748684883118
1788862664751249700,10.200249755859375,-0.9892191886901855,-0.3327537178993225,-0.8317294120788574
1788862664761257000,10.210257080078126,-0.9392191171646118,-0.16946013271808624,-0.8083732724189758
1788862664771263000,10.220262939453125,-0.9117377400398254,-0.37639254331588745,-0.7854908108711243
1788862664781269800,10.230269775390624,-0.9943329691886902,-0.8622159957885742,-0.8216376304626465
1788862664791276000,10.240276123046876,-1.116058349609375,-1.0683974027633667,-0.8664565086364746
1788862664801282800,10.25028271484375,-1.147815465927124,-0.7917662858963013,-0.8829553127288818
1788862664811288800,10.260288818359374,-1.162964940071106,-0.4992119371891022,-0.9195274710655212
1788862664821295000,10.270295166015625,-1.1749203205108643,-0.763236403465271,-1.0119048357009888
1788862664831302000,10.280302001953125,-1.1524128913879395,-1.2277215719223022,-1.0914946794509888
1788862664841308000,10.290307861328126,-1.148124098777771,-1.367761492729187,-1.0851936340332031
1788862664851315000,10.30031494140625,-1.1613224744796753,-1.1462855339050293,-1.0973166227340698
1788862664861321000,10.310321044921874,-1.2024840116500854,-0.9533112645149231,-1.1315393447875977
1788862664871328000,10.320327880859375,-1.2026835680007935,-0.7433202266693115,-1.1769648790359497
1788862664881334000,10.330333984375,-1.0984636545181274,-0.3695293068885803,-1.2423111200332642
1788862664891341000,10.340341064453124,-1.0122199058532715,-0.4381563067436218,-1.2199496030807495
1788862664901346800,10.350346923828125,-0.9359604716300964,-0.8753437399864197,-1.1160898208618164
1788862664911352800,10.360352783203124,-0.8196133971214294,-1.2474610805511475,-1.0534682273864746
1788862664921360100,10.370360107421876,-0.7505419254302979,-1.6767946481704712,-1.0108331441879272
1788862664931366000,10.380365966796875,-0.7983397841453552,-2.131329298019409,-0.9538577198982239
1788862664941373000,10.390373046875,-0.918953537940979,-2.5417640209198,-0.8948631286621094
1788862664951379000,10.40037890625,-0.9843075275421143,-2.3309876918792725,-0.8997103571891785
1788862664961386000,10.410385986328125,-0.9465809464454651,-1.7674145698547363,-0.9932658672332764
1788862664971392000,10.42039208984375,-0.8711178302764893,-1.501600742340088,-1.1251983642578125
1788862664981399000,10.43039892578125,-0.7994913458824158,-1.283582091331482,-1.2652353048324585
1788862664991405000,10.440405029296874,-0.7442014813423157,-0.8870592713356018,-1.3343989849090576
1788862665001411800,10.450411865234376,-0.6789705157279968,-0.5105628371238708,-1.302036166191101
1788862665011417900,10.46041796875,-0.5219422578811646,-0.23907676339149475,-1.1815752983093262
1788862665021424000,10.470424072265626,-0.34557363390922546,-0.08242057263851166,-0.997620165348053
1788862665031431000,10.480430908203125,-0.1738564819097519,0.10956484079360962,-0.8680930137634277
1788862665041437000,10.49043701171875,-0.12867408990859985,0.10678157210350037,-0.7593292593955994
1788862665051444000,10.50044384765625,-0.14243650436401367,0.2893684208393097,-0.6438250541687012
1788862665061450000,10.510449951171875,-0.0621616430580616,0.7124078273773193,-0.5597977638244629
1788862665071457000,10.52045703125,0.051903944462537766,0.8316391706466675,-0.4770456552505493
1788862665081462800,10.530462890625,0.13805827498435974,0.7773535251617432,-0.33558493852615356
1788862665091470000,10.540469970703125,0.22075074911117554,0.5980753898620605,-0.0993039533495903
1788862665101475800,10.550475830078126,0.2833329141139984,0.607530415058136,0.12088274210691452
1788862665111481900,10.56048193359375,0.3901168704032898,0.7981509566307068,0.22316783666610718
1788862665121489200,10.5704892578125,0.4566362500190735,0.7245731353759766,0.2609546184539795
1788862665131495000,10.580494873046876,0.512565016746521,0.5653004050254822,0.30002427101135254
1788862665141502000,10.590501953125,0.5787032842636108,0.45713773369789124,0.3593645691871643
1788862665151508000,10.600508056640624,0.6716127395629883,0.44710078835487366,0.42404982447624207
1788862665161515000,10.610514892578125,0.7735247015953064,0.648020327091217,0.5201707482337952
1788862665171521000,10.62052099609375,0.8516088724136353,0.5305573344230652,0.6677037477493286
1788862665181527800,10.63052783203125,0.932470977306366,0.29561647772789,0.753372073173523
1788862665191534000,10.6405341796875,1.042917251586914,0.38223230838775635,0.7939413189888
1788862665201540900,10.650540771484375,1.149446725845337,0.40772515535354614,0.8349257707595825
1788862665211547000,10.660546875,1.258034110069275,0.3984195590019226,0.8512282967567444
1788862665221553000,10.670552978515625,1.3426296710968018,0.5127871632575989,0.8668559789657593
1788862665231560000,10.680559814453124,1.4165571928024292,0.6724020838737488,0.8810916543006897
1788862665241566000,10.69056591796875,1.474463939666748,0.8501672744750977,0.9230119585990906
1788862665251572700,10.70057275390625,1.4984456300735474,0.8848573565483093,1.0332412719726562
1788862665261579000,10.7105791015625,1.4978920221328735,0.8430476188659668,1.1554800271987915
1788862665271586000,10.7205859375,1.5428392887115479,0.9546188712120056,1.2522807121276855
1788862665281591800,10.730591796875,1.6470260620117188,1.0026137828826904,1.309647798538208
1788862665291599000,10.74059912109375,1.6907216310501099,0.833394467830658,1.3546000719070435
1788862665301604900,10.75060498046875,1.7002664804458618,0.7806670665740967,1.3677740097045898
1788862665311611000,10.76061083984375,1.6974080801010132,0.83250892162323,1.3945670127868652
1788862665321618000,10.770617919921875,1.6685359477996826,0.7414035201072693,1.4470967054367065
1788862665331624000,10.7806240234375,1.6504319906234741,0.6147058010101318,1.4975218772888184
1788862665341631000,10.790630859375,1.676577091217041,0.6620884537696838,1.5601454973220825
1788862665351637000,10.800636962890625,1.73433256149292,0.7640353441238403,1.7068324089050293
1788862665361644000,10.81064404296875,1.7899121046066284,0.7592885494232178,1.8778969049453735
1788862665371650000,10.820650146484375,1.8348790407180786,0.6489276885986328,2.02620792388916
1788862665381656800,10.83065673828125,1.8589428663253784,0.6221069693565369,2.1242167949676514
1788862665391662800,10.840662841796876,1.8904294967651367,0.79985111951828,2.104410171508789
1788862665401670000,10.850669921875,1.8527179956436157,0.6854904890060425,2.0102477073669434
1788862665411676000,10.860676025390624,1.750477910041809,0.3920769691467285,1.8510215282440186
1788862665421682000,10.870681884765625,1.6342307329177856,0.4159298241138458,1.6578505039215088
1788862665431689000,10.88068896484375,1.5770323276519775,0.6781510710716248,1.483723759651184
1788862665441695000,10.890695068359374,1.5347003936767578,0.7889284491539001,1.392820954322815
1788862665451701800,10.90070166015625,1.502554178237915,0.8542187809944153,1.3294295072555542
1788862665461707800,10.910707763671875,1.4576162099838257,0.821670413017273,1.2802561521530151
1788862665471715000,10.920715087890626,1.3131905794143677,0.6727059483528137,1.2483769655227661
1788862665481720800,10.930720947265625,1.0748041868209839,0.46715760231018066,1.2102046012878418
1788862665491728000,10.940727783203124,0.7915894985198975,0.20418483018875122,1.1010749340057373
1788862665501734100,10.950734130859376,0.557686984539032,0.16893762350082397,0.8715828657150269
1788862665511741000,10.960740966796875,0.4564250707626343,0.30232763290405273,0.6172890663146973
1788862665521747000,10.970746826171874,0.4052564203739166,0.017414143308997154,0.45300501585006714
1788862665531753000,10.9807529296875,0.35063230991363525,-0.08756979554891586,0.3042925298213959
1788862665541760000,10.990760009765625,0.3409791588783264,-0.12579813599586487,0.11835753917694092
1788862665551766000,11.00076611328125,0.239674910902977,-0.24528245627880096,-0.0616615004837513
1788862665561773000,11.01077294921875,0.020595822483301163,-0.3944125473499298,-0.1498723179101944
1788862665571779000,11.020779052734374,-0.23720934987068176,-0.5393795967102051,-0.19262084364891052
1788862665581785900,11.030785888671875,-0.4873366355895996,-0.46947240829467773,-0.3071671426296234
1788862665591791900,11.0407919921875,-0.6844283938407898,-0.25242504477500916,-0.4633820354938507
1788862665601799000,11.050798828125,-0.831758975982666,-0.006420348770916462,-0.6614887118339539
1788862665611805000,11.060804931640625,-0.9755654335021973,0.0974128395318985,-0.8290793299674988
1788862665621812000,11.07081201171875,-1.0861481428146362,0.24979545176029205,-0.9570130705833435
1788862665631818000,11.08081787109375,-1.1478991508483887,0.3309595584869385,-1.028096079826355
1788862665641824000,11.090823974609375,-1.1414425373077393,0.22673407196998596,-0.9825407862663269
1788862665651830800,11.100830810546874,-1.1058722734451294,-0.012436696328222752,-0.8653585314750671
1788862665661836800,11.1108369140625,-1.1148284673690796,-0.13556422293186188,-0.7637535929679871
1788862665671844000,11.120843994140625,-1.160578966140747,-0.23904800415039062,-0.7543419599533081
1788862665681849900,11.130849853515626,-1.2063512802124023,-0.20712202787399292,-0.7840524911880493
1788862665691857000,11.14085693359375,-1.2486470937728882,0.0068059745244681835,-0.7596158385276794
1788862665701863200,11.15086328125,-1.263317346572876,0.17079465091228485,-0.7292779088020325
1788862665711870000,11.160869873046876,-1.263018012046814,0.1406785547733307,-0.7271231412887573
1788862665721876000,11.1708759765625,-1.310014247894287,0.041781533509492874,-0.754940390586853
1788862665731883000,11.180883056640624,-1.4202595949172974,0.07980721443891525,-0.8528198003768921
1788862665741889000,11.190888916015625,-1.5737463235855103,0.2611573040485382,-0.9963545799255371
1788862665751895000,11.20089501953125,-1.6773967742919922,0.5797160863876343,-1.1023331880569458
1788862665761901800,11.21090185546875,-1.6687769889831543,0.7542426586151123,-0.9758277535438538
1788862665771908000,11.220908203125,-1.5573630332946777,0.3483497202396393,-0.6816142201423645
1788862665781915000,11.230914794921874,-1.4435592889785767,-0.14190228283405304,-0.5998373627662659
1788862665791921000,11.2409208984375,-1.4975191354751587,-0.5133722424507141,-0.7649996876716614
1788862665801928000,11.250927978515625,-1.730068564414978,-0.7015386819839478,-0.8324820399284363
1788862665811934000,11.260933837890626,-1.7398487329483032,-0.38340410590171814,-0.6462908387184143
1788862665821941000,11.27094091796875,-1.531643033027649,-0.04421380162239075,-0.4425736963748932
1788862665831946800,11.28094677734375,-1.2457393407821655,-0.3622993528842926,-0.3524091839790344
1788862665841954000,11.2909541015625,-0.9443678259849548,-1.231917381286621,-0.4309293031692505
1788862665851960300,11.300960205078125,-0.764886736869812,-1.6099869012832642,-0.4868394136428833
1788862665861966300,11.31096630859375,-0.7129979729652405,-1.3201936483383179,-0.41940444707870483
1788862665871973400,11.320973388671876,-0.7295937538146973,-1.0223063230514526,-0.315007746219635
1788862665881979100,11.330979248046875,-0.7779935002326965,-0.9180275797843933,-0.34503355622291565
1788862665891986400,11.340986328125,-0.826668918132782,-0.9218611717224121,-0.4719443619251251
1788862665901992400,11.350992431640625,-0.8447389602661133,-1.0195062160491943,-0.5401617884635925
1788862665911999200,11.360999267578125,-0.8562454581260681,-1.2598600387573242,-0.5433562397956848
1788862665922005500,11.371005615234376,-0.8719695210456848,-1.4778871536254883,-0.5386840105056763
1788862665932012300,11.38101220703125,-0.9023801684379578,-1.7330869436264038,-0.529230535030365
1788862665942018300,11.391018310546874,-0.938751757144928,-2.013857841491699,-0.5562357902526855
1788862665952025300,11.401025390625,-0.9661862850189209,-2.1532375812530518,-0.6668148040771484
1788862665962031400,11.41103125,-0.955040693283081,-2.068356513977051,-0.8239932060241699
1788862665972037400,11.421037353515626,-0.8998600244522095,-1.708348035812378,-0.966616690158844
1788862665982044200,11.431044189453125,-0.8169465065002441,-1.2303117513656616,-1.1330515146255493
1788862665992050400,11.441050537109374,-0.6975852251052856,-1.029015064239502,-1.2609550952911377
1788862666002057200,11.45105712890625,-0.585701584815979,-0.952423095703125,-1.3427274227142334
1788862666012063200,11.461063232421875,-0.5802985429763794,-0.8218240737915039,-1.4007230997085571
1788862666022070500,11.471070556640624,-0.6115986704826355,-0.3629646301269531,-1.4325306415557861
1788862666032076300,11.481076171875,-0.6738447546958923,0.026671292260289192,-1.3876582384109497
1788862666042083300,11.491083251953125,-0.7317929863929749,0.10440230369567871,-1.2979315519332886
1788862666052089000,11.501089111328126,-0.7551518678665161,0.060744307935237885,-1.2213780879974365
1788862666062096400,11.511096435546875,-0.814795970916748,-0.1288948655128479,-1.2070852518081665
1788862666072102400,11.521102294921874,-0.8124473690986633,0.040338899940252304,-1.2235651016235352
1788862666082108200,11.531108154296875,-0.7850663065910339,0.13448670506477356,-1.190390944480896
1788862666092115500,11.541115478515625,-0.7138986587524414,-0.10828599333763123,-1.0884767770767212
1788862666102121500,11.55112158203125,-0.48974332213401794,-0.08445150405168533,-0.974236249923706
1788862666112128300,11.561128173828125,-0.2899567186832428,-0.3189590871334076,-0.7166425585746765
1788862666122134300,11.57113427734375,-0.21727639436721802,-0.5690589547157288,-0.3871740698814392
1788862666132141300,11.581141357421876,-0.23638111352920532,-0.49297666549682617,-0.12256480008363724
1788862666142147300,11.591147216796875,-0.17129825055599213,-0.4122650623321533,0.0172042865306139
1788862666152154000,11.601154052734374,-0.09760298579931259,-0.19016169011592865,0.035721246153116226
1788862666162160400,11.611160400390625,-0.04993347078561783,0.14825338125228882,-0.007207312621176243
1788862666172167400,11.62116748046875,0.11011345684528351,0.38410478830337524,-0.02863643877208233
1788862666182173200,11.631173095703126,0.3207431435585022,0.49121418595314026,0.08495696634054184
1788862666192179500,11.641179443359375,0.4006968140602112,0.3736891746520996,0.2966580390930176
1788862666202186200,11.651186279296875,0.4348659813404083,0.22208073735237122,0.5707718729972839
1788862666212192300,11.661192138671876,0.5425783395767212,0.11431591957807541,0.8002955913543701
1788862666222199600,11.671199462890625,0.7198241949081421,0.030355243012309074,0.7867419719696045
1788862666232205300,11.681205322265624,0.9146347045898438,0.30611786246299744,0.6400628089904785
1788862666242212400,11.69121240234375,1.005627155303955,0.7227265238761902,0.49245551228523254
1788862666252218400,11.70121826171875,1.0215568542480469,0.9857916831970215,0.4284597337245941
1788862666262225400,11.711225341796874,1.0354143381118774,1.0753458738327026,0.5123562216758728
1788862666272231400,11.7212314453125,1.0499602556228638,0.9347745776176453,0.7272786498069763
1788862666282238200,11.73123828125,1.10295832157135,0.8937438130378723,0.9422375559806824
1788862666292244500,11.741244384765626,1.1973087787628174,0.964069128036499,1.0593160390853882
1788862666302250500,11.75125048828125,1.3791429996490479,1.1019742488861084,0.9868268966674805
1788862666312257300,11.76125732421875,1.5222972631454468,1.0461751222610474,0.8570464849472046
1788862666322263300,11.77126318359375,1.5369770526885986,0.8632961511611938,0.8191670179367065
1788862666332270300,11.781270263671875,1.462678074836731,0.843866765499115,0.8776617646217346
1788862666342276400,11.7912763671875,1.4053282737731934,1.083551287651062,0.9658747315406799
1788862666352283100,11.801283203125,1.444812536239624,1.2726988792419434,1.04416024684906
1788862666362289400,11.811289306640624,1.533949375152588,1.1209063529968262,1.1170344352722168
1788862666372296400,11.82129638671875,1.6220754384994507,0.8983044624328613,1.2238566875457764
1788862666382302200,11.83130224609375,1.725443720817566,1.042763590812683,1.2968326807022095
1788862666392309500,11.8413095703125,1.823711633682251,1.2467052936553955,1.3274714946746826
1788862666402315300,11.851315185546875,1.8768163919448853,1.055604100227356,1.4057732820510864
1788862666412322300,11.861322265625,1.8507782220840454,0.6249661445617676,1.5494798421859741
1788862666422328300,11.871328369140626,1.7883456945419312,0.7270605564117432,1.555710792541504
1788862666432334300,11.881334228515625,1.6754063367843628,1.028789758682251,1.4836905002593994
1788862666442341400,11.89134130859375,1.543817162513733,0.6666054725646973,1.6269913911819458
1788862666452347400,11.901347412109375,1.438320279121399,0.15309473872184753,1.9146631956100464
1788862666462354400,11.9113544921875,1.3794386386871338,0.535198450088501,1.984635591506958
1788862666472360400,11.9213603515625,1.5233302116394043,1.1579346656799316,1.8556102514266968
1788862666482367200,11.9313671875,1.7214486598968506,1.266093373298645,1.7814342975616455
1788862666492373200,11.941373291015625,1.741716980934143,1.0333243608474731,1.712073564529419
1788862666502380300,11.95138037109375,1.4874297380447388,0.7596704363822937,1.6020386219024658
1788862666512386300,11.96138623046875,1.228656530380249,0.6887027621269226,1.3610864877700806
1788862666522393300,11.971393310546874,0.9913630485534668,0.5778431296348572,1.0977851152420044
1788862666532399400,11.9813994140625,0.7545297145843506,0.6442508697509766,0.8158101439476013
1788862666542405400,11.9914052734375,0.5031190514564514,0.9509373307228088,0.5555577874183655
1788862666552412200,12.001412109375,0.2652156949043274,1.37526273727417,0.32070237398147583
1788862666562418200,12.011418212890625,0.0992693305015564,1.6032378673553467,0.10707718133926392
1788862666572425500,12.021425537109375,0.0386858768761158,1.357096552848816,-0.05920686572790146
1788862666582431200,12.03143115234375,0.08611410856246948,0.8154098391532898,-0.16465818881988525
1788862666592438300,12.041438232421875,0.11192120611667633,0.24290426075458527,-0.20367349684238434
1788862666602444300,12.0514443359375,-0.004402738064527512,-0.1680593192577362,-0.22928644716739655
1788862666612451300,12.061451416015625,-0.2108089029788971,-0.3979974389076233,-0.32259562611579895
1788862666622457300,12.071457275390625,-0.4113236367702484,-0.2031531184911728,-0.48641037940979004
1788862666632464400,12.08146435546875,-0.5688642263412476,0.15347237884998322,-0.6557978391647339
1788862666642470400,12.091470458984375,-0.639208972454071,0.11966194957494736,-0.720646858215332
1788862666652477200,12.101477294921875,-0.6268758773803711,-0.14473827183246613,-0.6797316670417786
1788862666662483200,12.111483154296875,-0.6734745502471924,-0.3067641854286194,-0.6121528744697571
1788862666672489500,12.121489501953125,-0.7867497205734253,-0.07606014609336853,-0.5811262726783752
1788862666682496300,12.131496337890624,-0.8190993666648865,0.5288047194480896,-0.5839428305625916
1788862666692502300,12.141502197265625,-0.709743320941925,0.8015976548194885,-0.6404849290847778
1788862666702509300,12.15150927734375,-0.6541469097137451,0.4405084252357483,-0.5983251929283142
1788862666712515300,12.161515380859376,-0.5173938870429993,-0.21034657955169678,-0.4413022994995117
1788862666722522400,12.1715224609375,-0.4704149067401886,-0.6726556420326233,-0.461715430021286
1788862666732528000,12.181528076171874,-0.7070474028587341,-0.6692749857902527,-0.5975561141967773
1788862666742535400,12.191535400390626,-0.9503167867660522,0.2132158726453781,-0.6323979496955872
1788862666752541200,12.201541259765625,-1.0631533861160278,0.45532092452049255,-0.539384126663208
1788862666762548200,12.21154833984375,-1.0254456996917725,0.029457224532961845,-0.4352017939090729
1788862666772554500,12.221554443359375,-0.8865900039672852,-0.4172166585922241,-0.41030895709991455
1788862666782560300,12.231560302734374,-0.6915497183799744,-0.403359979391098,-0.3930836319923401
1788862666792567300,12.2415673828125,-0.4761678874492645,-0.36116886138916016,-0.26301032304763794
1788862666802573300,12.2515732421875,-0.30360063910484314,-0.5055758357048035,-0.08270073682069778
1788862666812580400,12.261580322265624,-0.21829505264759064,-0.6593342423439026,0.07728546857833862
1788862666822586400,12.27158642578125,-0.20979610085487366,-0.7214109301567078,0.17605678737163544
1788862666832593400,12.281593505859375,-0.2574312686920166,-0.7212998867034912,0.21367233991622925
1788862666842599400,12.291599365234376,-0.3290061056613922,-0.7338318824768066,0.2132161408662796
1788862666852606200,12.301606201171875,-0.3911113142967224,-0.815088152885437,0.21099185943603516
1788862666862612200,12.3116123046875,-0.45208677649497986,-0.894521951675415,0.2163030058145523
1788862666872619300,12.321619384765626,-0.5385318994522095,-0.8243045210838318,0.20008781552314758
1788862666882625300,12.331625244140625,-0.641297459602356,-0.6197215914726257,0.14099706709384918
1788862666892632300,12.34163232421875,-0.7314121723175049,-0.40251389145851135,0.014228736981749535
1788862666902638000,12.35163818359375,-0.783042311668396,-0.3361223638057709,-0.14255261421203613
1788862666912644400,12.361644287109375,-0.7940033674240112,-0.5380293726921082,-0.30001601576805115
1788862666922651400,12.3716513671875,-0.81053626537323,-0.8121301531791687,-0.4734991192817688
1788862666932657200,12.3816572265625,-0.8670440316200256,-0.9436242580413818,-0.6167678833007812
1788862666942664400,12.39166455078125,-0.9085938334465027,-0.978053629398346,-0.6604077816009521
1788862666952670200,12.401670166015625,-0.9541727900505066,-0.9418191909790039,-0.6784474849700928
1788862666962677200,12.41167724609375,-1.030436396598816,-0.6695522665977478,-0.8111479878425598
1788862666972683300,12.421683349609374,-1.1350477933883667,-0.2864544093608856,-1.063452124595642
1788862666982690300,12.431690185546875,-1.209743618965149,-0.05338918790221214,-1.3515204191207886
1788862666992696300,12.4416962890625,-1.2085342407226562,-0.030547788366675377,-1.5974422693252563
1788862667002703000,12.451703125,-1.1927698850631714,-0.25103142857551575,-1.7330325841903687
1788862667012709400,12.46170947265625,-1.171919822692871,-0.4890091121196747,-1.727325439453125
1788862667022715400,12.47171533203125,-1.0909583568572998,-0.49498364329338074,-1.5472979545593262
1788862667032722200,12.48172216796875,-0.9600762128829956,-0.20707808434963226,-1.3114625215530396
1788862667042728200,12.491728271484375,-0.9141603708267212,0.18715471029281616,-1.1708753108978271
1788862667052735200,12.5017353515625,-0.9070148468017578,0.553361177444458,-1.1147962808609009
1788862667062741200,12.5117412109375,-0.8688549399375916,0.6590743064880371,-1.0970399379730225
1788862667072748300,12.521748291015625,-0.7705219984054565,0.2425370067358017,-1.0675837993621826
1788862667082754300,12.53175439453125,-0.6628525257110596,-0.484172523021698,-0.9012067914009094
1788862667092761300,12.54176123046875,-0.5840871334075928,-1.041642427444458,-0.622100293636322
