time,seconds_elapsed,z,y,x
1788861514674451000,0.038450927734375,-0.5768097078740596,-0.05874532669633627,-1.766801144338399
1788861514684456700,0.048456787109375,-0.6029430970400571,0.0357081499800086,-1.7553993142277002
1788861514694463700,0.058463623046875,-0.13437339913249016,0.10054799415916203,-1.2693684861704706
1788861514704470800,0.068470703125,0.09010463381707667,0.2219312710762024,-1.0461799085095524
1788861514714476800,0.078476806640625,-0.05483867464661598,0.30530542759448287,-1.0910456168048084
1788861514724483800,0.08848388671875,-0.09612579380273818,0.36841128758788105,-1.1816720825389027
1788861514734491000,0.098490966796875,-0.10364917504489421,0.40662922843173144,-1.1666053001798689
1788861514744497000,0.108496826171875,-0.3734808459371328,0.20644246391281484,-1.3468546075634658
1788861514754504200,0.118504150390625,-0.42616906455159187,0.303189312223345,-1.7296080164976417
1788861514764510500,0.128510498046875,-0.42199090208411216,0.1891017452724278,-1.5744684543207288
1788861514774517200,0.138517333984375,-0.4223205724298954,0.2008849759161472,-1.557421457929909
1788861514784524300,0.148524169921875,0.2019096427887678,0.007377835291624069,-1.6416734201960264
1788861514794530300,0.1585302734375,1.5420891565024852,0.19966580938473344,-1.5213406752452254
1788861514804537300,0.168537353515625,0.8535416596740484,0.7413106803752482,-0.020213497597724197
1788861514814544100,0.178544189453125,0.8043500510036945,0.7091426872201263,0.1420170457534492
1788861514824550400,0.18855029296875,0.8276490935266018,0.7137805761538446,0.2775833079323172
1788861514834557200,0.19855712890625,1.0541039795070886,0.9529895836368203,0.19110577857121824
1788861514844563200,0.208563232421875,1.0075824668288231,1.19239615951851,-0.21004092679619787
1788861514854570500,0.218570556640625,1.4497919810771942,1.5304149391911923,-1.87778124679327
1788861514864577300,0.228577392578125,2.3321201747745275,1.7318207241110504,-2.6195757651627063
1788861514874583300,0.238583251953125,2.606273215997219,1.423672182045132,-2.3075877910643814
1788861514884590300,0.24859033203125,2.5854531308084723,1.4646006970219314,-2.357955896168202
1788861514894597400,0.258597412109375,2.155042190903425,0.6666697192803025,-1.3649763935789465
1788861514904603100,0.26860302734375,1.6632377478808165,0.10627835450470446,0.029720307742059228
1788861514914610400,0.2786103515625,1.154008122804761,-0.08204173887073993,0.15373641738072036
1788861514924617200,0.2886171875,1.1495458826988936,-0.14867460394650697,0.0635508272819221
1788861514934623200,0.298623291015625,0.5656751503974199,-0.37432299584969875,0.01995440827012062
1788861514944630300,0.30863037109375,0.36415596823096275,-0.4198923223696649,-0.11009835118427871
1788861514954636300,0.31863623046875,0.20028291836977005,0.6503567362524568,-1.5570802432768045
1788861514964643300,0.328643310546875,-0.6749427498459816,1.004379433003813,-1.6307690182134509
1788861514974650400,0.338650390625,-1.140167813500762,1.0422636118486523,-1.602022670070082
1788861514984656400,0.348656494140625,-1.1349702448576688,0.9807704477488994,-1.6861533440440892
1788861514994663200,0.3586630859375,-0.8257400450348854,0.0032563714474439617,-0.11454298256821929
1788861515004670500,0.36867041015625,-0.560854013851285,-0.6256818753316998,0.6669371380448341
1788861515014676200,0.37867626953125,0.013150573474168776,-1.001532665270567,0.9771415897272526
1788861515024683300,0.388683349609375,0.45789808176755903,-0.8328992691397666,0.951351972497627
1788861515034690300,0.398690185546875,0.4880740243226289,-0.924442411327362,0.9710800246659665
1788861515044696300,0.4086962890625,0.6821212631732225,-0.5846709427684545,0.24366905563175678
1788861515054703400,0.418703369140625,0.561433859565854,-0.7229778819575905,-0.6417773431513458
1788861515064710400,0.42871044921875,0.1316530342578888,-0.6885667860507965,-0.5220809964079409
1788861515074716400,0.43871630859375,-0.3257277456372976,-0.2546270874977112,-0.5744795113608241
1788861515084723200,0.44872314453125,-0.30315467930138107,-0.34039427663236854,-0.6530982169803231
1788861515094729500,0.4587294921875,-0.8522878602206706,0.13880728992670774,-0.8455676851201802
1788861515104736300,0.468736328125,-1.539666897791624,0.30389497627466916,-0.24662929367683825
1788861515114743300,0.478743408203125,-1.1001946995526553,0.07719722144901751,-0.034263650260120626
1788861515124749300,0.488749267578125,-0.4611076914638281,-0.0844198661789298,0.032375936817377805
1788861515134756400,0.49875634765625,-0.468793569791317,-0.07909282593727111,-0.04825093028675764
1788861515144763100,0.50876318359375,-0.3482183943867683,-0.252557295486331,0.3159139153704047
1788861515154769400,0.518769287109375,-0.5578361273348331,-0.7997802588701247,0.9791101133212446
1788861515164776400,0.5287763671875,-1.0846125150173902,-0.23547902717441319,0.5344142256172374
1788861515174783200,0.538783203125,-1.093410153979063,-0.21078210055232047,0.5444104997789487
1788861515184789500,0.54878955078125,-1.2881196561306714,0.5425254532173276,-0.324731135815382
1788861515194796300,0.55879638671875,-1.4822101496011018,0.5811261097684502,-0.7474476487603038
1788861515204803300,0.56880322265625,-1.2733189773619173,-0.48332887562215326,-0.3537891071911901
1788861515214809300,0.578809326171875,-0.8090700652629137,-0.5955684766188264,-0.5083998231884092
1788861515224816400,0.58881640625,-0.8136030325174332,-0.5832102225661278,-0.5091956497412174
1788861515234823200,0.5988232421875,-0.27310674704015253,-0.8006921130180359,-0.06420910852756351
1788861515244829400,0.608829345703125,0.2751514046102762,-1.0930094642236827,0.28575265892781315
1788861515254836200,0.618836181640625,0.18281155908703803,-0.273199101498723,-0.03329085970520973
1788861515264842200,0.62884228515625,0.18959201300740242,-0.29670857190191746,-0.07462631151508539
1788861515274849500,0.638849609375,-0.7282815413236617,0.44924774232208725,0.060894723282568154
1788861515284856300,0.648856201171875,-0.6085246965646743,0.27285189549624916,-0.22225630177948622
1788861515294862300,0.6588623046875,-0.14479834703505037,0.24458763178139922,-0.24641492027379572
1788861515304869400,0.668869384765625,0.5544090754956007,0.11908785945624112,0.0535514478476718
1788861515314876400,0.67887646484375,0.5536614719986915,0.11967559621632098,0.03732484619533643
1788861515324882200,0.688882080078125,2.5519927597552536,-0.33288521617650985,1.4420673781745135
1788861515334889500,0.698889404296875,2.563280461966991,-0.36522009033113717,1.4100183352239428
1788861515344896300,0.708896240234375,1.91252639696002,-0.1600917777568102,1.9431582665890454
1788861515354902300,0.71890234375,0.9016367052793502,-0.09328852455019951,1.3671288954377174
1788861515364909300,0.728909423828125,0.9305740459501742,-0.16781389644145964,1.291422350937873
1788861515374916400,0.738916259765625,-0.08876432512402534,-1.6885563135325907,0.376800711074844
1788861515384922400,0.74892236328125,-0.05557751031517982,-1.7631217251732945,0.23047095322143285
1788861515394929400,0.758929443359375,-2.859106405815482,-1.9920821642339228,0.3527424842150882
1788861515404936200,0.768936279296875,-3.056403586372733,-0.9045794807329773,-0.02608666394744068
1788861515414942200,0.778942138671875,-3.051283759140968,-0.8909583671376109,-0.19348712074980137
1788861515424949500,0.788949462890625,-1.481825534197688,0.2787701796293259,-0.014477438163757324
1788861515434955300,0.798955322265625,-1.5016203679919242,0.3786962424978614,-0.21956761068478226
1788861515444962300,0.80896240234375,-2.3167022408902644,-0.6853562995716929,0.4297137514211237
1788861515454969300,0.81896923828125,-1.5690513977080582,-1.0487427447348832,0.3550603692360222
1788861515464975400,0.828975341796875,-1.5937077000588178,-0.911846256865561,0.1943864076770842
1788861515474982100,0.838982177734375,0.9943348627209663,-1.6143965600833297,0.5807680901110172
1788861515484989400,0.848989501953125,1.006097781229019,-1.5134811939164996,0.3550663605853915
1788861515494995500,0.858995361328125,1.8284587052196264,-1.441273159056902,1.5307605377584694
1788861515505002200,0.869002197265625,1.3561211792111396,-1.5290025881752372,2.014692639970779
1788861515515009300,0.87900927734375,0.813112618651986,-1.7711518868938088,2.0962343203648923
1788861515525015300,0.889015380859375,0.3933551747083664,-1.9810238868638872,2.064668677017093
1788861515535022300,0.899022216796875,0.488965420204401,-2.0385908174306153,1.8519722672760486
1788861515545029400,0.909029296875,-0.8160498411476612,-1.588170231936872,1.315403968897462
1788861515555035400,0.919035400390625,-0.9287649507015943,-0.9531108719289302,1.219454700705409
1788861515565042200,0.929042236328125,-1.2656395287752151,-0.5754802128359675,1.1563730983704328
1788861515575049500,0.939049560546875,-1.9588813208997249,-0.48823389105945825,0.7730109098881482
1788861515585055200,0.94905517578125,-1.8614362611919641,-0.500075135500729,0.5865291378557682
1788861515595062300,0.959062255859375,-2.1151713682860134,-0.6100485451310873,-0.4057391477242112
1788861515605069300,0.9690693359375,-1.705422692659497,-0.8623688169911503,-0.272074481382966
1788861515615075300,0.979075439453125,-1.6178876170694827,-0.8352703821852803,-0.44224312425702805
1788861515625082400,0.989082275390625,-1.4781822092592716,-1.6856956634044646,-0.10091858103722333
1788861515635089400,0.99908935546875,-1.3770342033803462,-1.6478075390368698,-0.28378187031149865
1788861515645095400,1.009095458984375,-0.6661492025375366,-1.8107964995399117,-0.47747430437505245
1788861515655102200,1.019102294921875,0.26242577854990956,-2.0185680200994014,-0.9472101234525442
1788861515665109500,1.029109619140625,1.1478829179227352,-2.0200944990143177,-1.798152998805046
1788861515675115300,1.039115234375,0.9794558580189943,-1.7995570203840732,-1.656513408061862
1788861515685122300,1.049122314453125,1.3185785072803498,-1.7538769269660115,-2.0426000530719755
1788861515695129300,1.05912939453125,0.5797960302084684,-1.2754936910524963,-1.0312556033611298
1788861515705135400,1.06913525390625,-1.1479448772430418,-1.1410305678099393,0.5600292534649371
1788861515715142100,1.07914208984375,-1.1016881529808045,-1.604177656146884,-0.22306115188896655
1788861515725149400,1.0891494140625,-1.0774854396164417,-2.104147869968414,-2.5512369729518887
1788861515735155500,1.099155517578125,-0.622542700523138,-1.9668591679111123,-2.86403392534554
1788861515745162200,1.109162353515625,-0.32560791864991184,-2.2665211827911436,-5.322124997088313
1788861515755168500,1.11916845703125,0.963156172864139,-2.8628409161686896,-3.745378368702531
1788861515765174300,1.12917431640625,0.1383472711995244,-3.2285370995789764,-0.9396101698428392
1788861515775181600,1.139181640625,0.7520503933154046,-2.971530423468351,-1.1662550254374742
1788861515785188400,1.149188232421875,1.354483787267655,-2.690183671349287,-1.3427607623785733
1788861515795194400,1.1591943359375,0.8261470184005797,-1.8499296555325389,-0.7910171066999435
1788861515805201400,1.169201416015625,-0.701374172110483,-0.4609026704110205,0.021354922717809675
1788861515815208400,1.17920849609375,0.06265961406324058,-0.669368676040694,0.6194383047670126
1788861515825214500,1.18921435546875,-0.26848434793651105,0.04671981172934174,4.919617963153123
1788861515835221500,1.199221435546875,-0.04679331535696983,0.44793198354840275,4.935189041772484
1788861515845228500,1.209228515625,0.1216483210613951,0.7921270407032222,4.965077399557829
1788861515855234300,1.219234375,0.23216274223327635,1.0986011467508972,5.002830499368906
1788861515865241600,1.22924169921875,-0.6853238586068153,1.308425800447911,6.201025554424524
1788861515875248400,1.239248291015625,-0.4940706709215417,0.44805093375295396,7.085552719470858
1788861515885254400,1.24925439453125,-0.2289232853880152,-0.11238105529397725,8.135331236994267
1788861515895261400,1.259261474609375,2.1953718632042407,-0.06656155340522528,9.808151052212715
1788861515905268500,1.2692685546875,1.8325334073126316,0.7969625711008906,8.841780301216245
1788861515915274500,1.2792744140625,1.5909949339687823,1.0370593212038277,8.921969105696677
1788861515925281500,1.289281494140625,0.8432810354877263,2.34929225884974,5.906565053710341
1788861515935288300,1.299288330078125,0.6644914984583854,2.500985626095533,5.973161970689892
1788861515945294300,1.30929443359375,-2.383824643048644,2.629031868033111,7.057101701012253
1788861515955301600,1.319301513671875,-2.7249463571727275,2.070458950856328,6.593792700111866
1788861515965308400,1.329308349609375,-2.7510248012810945,3.3848145797446367,5.72389085726738
1788861515975314400,1.339314453125,-0.07671206828057765,2.7190026463374495,4.6650826455920935
1788861515985321500,1.349321533203125,-0.842345215942338,2.6571704595416783,2.592632228657603
1788861515995328500,1.35932861328125,-0.9117300831399857,2.748991249626875,2.6418933954328296
1788861516005334300,1.369334228515625,-3.7806986884087324,0.6195806358471513,3.2604438114494085
1788861516015341600,1.379341552734375,-3.8583419000595804,0.6762205146968364,3.297817556554079
1788861516025348400,1.389348388671875,2.5850164929568766,0.3085790424376726,1.0408686503589153
1788861516035354400,1.399354248046875,4.650473690003157,-2.286016010725498,4.662410211512446
1788861516045361400,1.409361328125,-2.098793649458885,-0.12245353649705648,1.7272364650607108
1788861516055368400,1.419368408203125,-11.613098533463477,6.736046038839221,-0.9082014706224203
1788861516065374500,1.42937451171875,-8.444484864449501,4.614722869925201,-0.5037807120203972
1788861516075381500,1.439381591796875,-8.441552318128943,4.624723747196794,-0.4998690915346145
1788861516085388500,1.449388427734375,-2.1256592984221876,2.6817446365669366,-0.46445817093551156
1788861516095394300,1.459394287109375,4.126946659505367,4.171639203190804,-0.22723405365943908
1788861516105401600,1.469401611328125,-3.819693897235393,5.941715277546644,-3.433500284719467
1788861516115408400,1.479408447265625,-3.7664603196978566,5.978632511055469,-3.425303534260392
1788861516125414400,1.489414306640625,-1.471951352045685,4.536022842697799,-1.1413076311856507
1788861516135421400,1.49942138671875,-1.4215870463341473,4.548350117090344,-1.1429974839687347
1788861516145428500,1.509428466796875,-0.6957680957317351,2.406437164612114,0.7965501909077167
1788861516155434500,1.5194345703125,-1.1835368534974753,2.6242376194939014,0.44969665513336654
1788861516165441500,1.529441650390625,-1.5336849007725715,1.92785665256083,0.07155015547275542
1788861516175448300,1.5394482421875,-1.543950858721137,-0.001074058972299099,1.1714911725252866
1788861516185454300,1.549454345703125,-1.5226520501047371,0.04641659099906683,1.1914140166133642
1788861516195461600,1.559461669921875,-0.5999651041425764,-0.31816783177703617,0.8467951080232858
1788861516205468400,1.569468505859375,-0.4444231717098504,-0.42785950185656546,-1.6630442711353302
1788861516215474400,1.579474365234375,0.2486730744641274,-0.020891689120233058,-3.097877752533555
1788861516225481500,1.5894814453125,0.24657003777027128,-0.022642916701734066,-3.0984955921709534
1788861516235488500,1.599488525390625,0.5173012878507376,0.543671700643003,-3.2966713091284037
1788861516245494300,1.609494384765625,1.0172416179906576,0.6774494719699025,-1.6684803247094153
1788861516255501600,1.61950146484375,0.8453589377403259,1.2294757439821957,-0.6582716010302305
1788861516265508400,1.62950830078125,0.26189028343372045,1.6231941990450023,-0.2432493689149618
1788861516275514400,1.639514404296875,0.29098193788342175,1.608586412499845,-0.2530693366616964
1788861516285521400,1.649521484375,-0.0911748203318566,2.362425296667218,-0.24416999089121816
1788861516295528400,1.659528564453125,0.4437982447445392,2.512791799223423,-0.15018822337985038
1788861516305534500,1.669534423828125,0.7879378453850746,1.6124223374009132,0.6656891838103532
1788861516315541500,1.67954150390625,0.4697240555744618,1.9502415028482674,1.3807494245111942
1788861516325548300,1.68954833984375,0.5126823228131979,1.968864370253682,1.3860510380506514
1788861516335554300,1.69955419921875,1.0688169799923897,2.480569737793505,2.2176573447704313
1788861516345561600,1.7095615234375,2.0381915889799593,1.4661533332914114,2.9662738181144
1788861516355568400,1.719568359375,1.9978309370189904,-1.8241086933165787,2.9492320824205875
1788861516365574400,1.729574462890625,0.7778402297407389,-1.9932132140904664,1.699991899782419
1788861516375581400,1.73958154296875,0.8165361633598804,-1.9922078364402054,1.6987264098912476
1788861516385588500,1.74958837890625,-0.6431470971345901,-1.7549974554285406,0.3357265770822763
1788861516395594200,1.75959423828125,-0.9275713570028543,-1.2613748570680618,-0.21829846753180027
1788861516405601500,1.7696015625,1.3275444885462522,-4.207846827125549,0.2489350133359432
1788861516415608300,1.7796083984375,0.8450830434083938,-5.492051940160989,-1.419308580008149
1788861516425615600,1.78961572265625,0.7951228615183383,-5.491434100523591,-1.4160083694189787
1788861516435621400,1.799621337890625,0.5788338341128081,-6.736479754081368,-1.3473907602667807
1788861516445628400,1.80962841796875,0.6952771704096347,-6.274643163821101,0.3975806834489107
1788861516455635500,1.819635498046875,0.5876110513409599,-3.036414106789231,3.052091568392515
1788861516465641500,1.829641357421875,0.5000555540174245,-2.550432963092625,3.0677807204335927
1788861516475648500,1.8396484375,0.5067583395916968,-2.529775959511101,3.077709409251809
1788861516485655600,1.849655517578125,0.8219779890876263,-2.442422962489724,2.5527128907233476
1788861516495661600,1.85966162109375,1.5974433794558047,-2.546671564732492,2.3856606263041495
1788861516505668400,1.86966845703125,-0.8995512042421847,-0.5753495721936226,-2.129189956766367
1788861516515675600,1.879675537109375,-2.6831781765013933,-0.13996581231206653,-4.118638849887252
1788861516525681400,1.889681396484375,-2.733512525466084,-0.11596651256531476,-4.101711680483818
1788861516535688400,1.8996884765625,-2.0167472344130277,-0.383424732324481,-3.3213989231497045
1788861516545695500,1.909695556640625,-0.3989981490314007,0.25312545076310633,-3.0090386086076495
1788861516555701500,1.919701416015625,0.6175169082503765,1.0400111567467452,-2.8622739299356934
1788861516565708300,1.929708251953125,2.1155518920361995,3.3046380502238866,-2.4048463882893323
1788861516575715600,1.939715576171875,2.1020247403346,3.326256592313945,-2.3921546644985674
1788861516585721600,1.9497216796875,-0.9606915363162756,5.5460319521516555,-3.297422419756651
1788861516595728400,1.959728271484375,-2.040796218520403,5.909377188521623,-3.3214538682073353
1788861516605735400,1.9697353515625,-0.8906405333600937,3.598821487562358,-2.4430542461305853
1788861516615741400,1.979741455078125,0.2512655021101236,1.8930369758531451,-2.2253426385760307
1788861516625748500,1.98974853515625,0.20266484507024288,1.8802552356913684,-2.2257044576257465
1788861516635755500,1.999755615234375,0.0537627159781754,1.2438295557662844,-2.022379102820158
1788861516645762600,2.009762451171875,-0.883484231864661,1.9581787255883216,-2.9688924761801956
1788861516655768300,2.019768310546875,0.2894828584320843,2.0586165373712775,-4.043193440541625
1788861516665775600,2.029775634765625,1.3676913516260683,2.671875276720524,-4.984711489832401
1788861516675782400,2.039782470703125,1.435935305160284,2.7699472361549735,-4.941232413589954
1788861516685788400,2.049788330078125,2.0760091323293746,2.697897022205591,-3.537185115599632
1788861516695795500,2.05979541015625,1.849044981652498,3.4318636234283444,-2.4666817899554965
1788861516705802500,2.069802490234375,1.7439064448326824,1.9106249472528696,-0.21274200244843958
1788861516715808500,2.07980859375,0.628100334650278,-0.9973533337593078,3.0256916372448206
1788861516725815600,2.089815673828125,0.7986912945896386,-0.9286597367614507,3.0615976478844877
1788861516735822300,2.099822265625,-1.178536414861679,-1.9500030179172754,3.8444945764929055
1788861516745828400,2.109828369140625,-5.227738155907392,0.03290858238935471,0.92416651699543
1788861516755835600,2.119835693359375,-4.868847560858726,-0.1620996104478836,-0.15564356617629527
1788861516765842400,2.129842529296875,-2.8788264208078385,-0.4229594548553228,-1.35509475877285
1788861516775848400,2.139848388671875,-2.810184846258163,-0.3673492113143205,-1.3174375205516815
1788861516785855500,2.14985546875,-1.1693804639816283,-0.34128888738453383,-2.0411814184457064
1788861516795862500,2.159862548828125,-1.4960580576896667,-2.4431097757101057,-1.4986521658360956
1788861516805869300,2.169869384765625,-0.016723134731315075,-2.853808299407363,-2.070112329375744
1788861516815875600,2.17987548828125,2.461295420742035,-3.1581659247577187,-3.561849601256847
1788861516825882400,2.18988232421875,2.5937726308643816,-3.0249253290474414,-3.450626776087284
1788861516835889400,2.199889404296875,4.256345777356624,-5.60887506955564,-2.153464566323161
1788861516845895400,2.2098955078125,6.626129620093107,-7.288508656442165,0.21952713254392145
1788861516855902500,2.21990234375,5.135021293765306,-4.859543141418695,0.7503975115418434
1788861516865909200,2.2299091796875,3.85519074255228,-2.5962831523805856,0.8316647589087486
1788861516875915500,2.23991552734375,4.09963662777543,-2.615001296854019,0.867147575700283
1788861516885922300,2.24992236328125,0.11199088693261146,-0.6544897444039582,2.7536732699632642
1788861516895929300,2.259929443359375,-2.2204535513602197,2.370084871509671,1.5280267288804052
1788861516905935600,2.269935546875,-2.6102655005037785,3.2287866904258724,2.351265604749322
1788861516915942400,2.2799423828125,-2.8907915838897225,4.162035508543252,2.855131656965613
1788861516925949400,2.289949462890625,-2.82706934556365,4.27433268494606,2.9773130985230205
1788861516935955500,2.29995556640625,-1.7988623161181807,4.108754584732652,1.9650854362368582
1788861516945962500,2.30996240234375,0.39109570534378285,2.4170430220395325,-0.5068687411636114
1788861516955969300,2.31996923828125,1.267974401463568,2.2836977969110013,-0.8427806116849184
1788861516965975600,2.3299755859375,0.7275979429736733,2.920079053172469,1.2198732183784247
1788861516975982300,2.339982421875,0.7889584206044673,3.0498177782416342,1.3930927732557057
1788861516985989400,2.3499892578125,0.01161065055578947,4.825824996212124,2.099094093710184
1788861516995996400,2.359996337890625,0.25230273620337246,1.3438883051037787,4.054174268761277
1788861517006002400,2.37000244140625,0.4780187865152955,-0.26350714404582976,5.1583986622214315
1788861517016009200,2.38000927734375,-0.5163128613352775,-0.7831815907686949,4.945522219738364
1788861517026016500,2.3900166015625,-0.47959085813760755,-0.6929846024930477,5.094035203382372
1788861517036022500,2.4000224609375,-1.6159227467373012,0.5544225194990634,4.608904831296205
1788861517046029300,2.410029296875,-1.992178902606666,1.9639836124747991,1.9983628519386052
1788861517056036400,2.420036376953125,-2.920524751113355,-0.8404588907390832,4.349482910737395
1788861517066042400,2.43004248046875,-4.013975237102806,-0.31626550528705116,5.706368060058355
1788861517076049400,2.44004931640625,-4.005062447328865,-0.2632873638153076,5.801676107737421
1788861517086056400,2.450056396484375,-3.2036823520466684,2.2920020993977785,5.8574809970676895
1788861517096062500,2.4600625,2.6358754503175614,2.2278175042569637,3.1927909556761382
1788861517106069200,2.4700693359375,4.492355842667818,0.9018781128197908,-0.6688035164386034
1788861517116076500,2.48007666015625,7.18978524736166,-2.572128954333067,-4.307544926457107
1788861517126082300,2.490082275390625,7.210404257020354,-2.4014538232415914,-3.909877441507578
1788861517136089300,2.50008935546875,5.478724256554246,-2.6921967647373677,-5.017847451236844
1788861517146096400,2.510096435546875,3.1173306410223245,-1.2026502808988093,-3.1168080784529444
1788861517156103400,2.520103515625,0.6760396051719785,-3.379038042169809,-4.221902532745897
1788861517166109400,2.530109375,-1.5161252786844968,-5.175858915588259,-4.3753307609602805
1788861517176116500,2.540116455078125,-1.6395222335115074,-5.084059752812982,-4.0722459320247175
1788861517186123300,2.550123291015625,-1.304679745787382,-5.287546435660124,-3.5595547683179376
1788861517196129300,2.56012939453125,1.0816071957215667,-3.4732302375614643,-3.895390650993585
1788861517206136600,2.570136474609375,3.304814575834572,-1.58629946962893,-5.001425308746099
1788861517216143400,2.580143310546875,3.8779803742483256,-0.26872283286750315,-4.892090197019279
1788861517226149400,2.5901494140625,3.891327347077429,-0.2936690580755472,-5.0190427985012525
1788861517236156400,2.600156494140625,2.657450737787783,0.3156891667038202,-4.437999398580193
1788861517246163500,2.61016357421875,2.3053446883127093,1.230803193193674,-3.3964977110147476
1788861517256169200,2.620169189453125,2.2336899034216997,3.884989083966613,-0.32166444172114134
1788861517266176500,2.630176513671875,1.1169836295291782,4.2642467597395175,0.5470777096942067
1788861517276183300,2.640183349609375,1.2474734652265906,4.196719283911586,0.4443206611834466
1788861517286190600,2.650190673828125,-1.0214344665706157,3.798649940162897,1.4037632203519343
1788861517296196400,2.6601962890625,-1.6689549564838408,3.441445106244087,0.7239651394292712
1788861517306203400,2.670203369140625,-2.30595902081877,2.8989795665204525,-0.7045189729422331
1788861517316210400,2.68021044921875,-2.1854466815173623,2.0403174950927494,-1.3008429441034792
1788861517326216400,2.690216552734375,-2.2894842713579533,2.0230548101246355,-1.4612623463794587
1788861517336223500,2.700223388671875,-1.210778642296791,1.4984025749891996,-1.1615206903919577
1788861517346230500,2.71023046875,0.015279402196407317,0.4309650666564703,0.060677171541750424
1788861517356236500,2.720236572265625,1.579175024576485,1.63952661742568,1.1149927479729056
1788861517366243300,2.730243408203125,1.6217507222384213,1.6202286272376776,1.1022510475605725
1788861517376250600,2.740250732421875,3.28447087598592,1.503487915429473,2.969922988271713
1788861517386256400,2.75025634765625,-0.4159808480143547,-0.8283288924843072,3.3417169040352106
1788861517396263400,2.760263427734375,-2.2706863396465775,-0.9282160846471786,2.5756989217743276
1788861517406270500,2.7702705078125,-1.8388611490294335,-1.5638053137481212,0.856095728071034
1788861517416276500,2.7802763671875,0.5700701704859733,-3.086610508587956,-0.7631818820521235
1788861517426283300,2.790283203125,0.4809320436134934,-3.078212682598829,-0.8052569367155432
1788861517436290600,2.80029052734375,1.2595315672889351,-3.7676749561846252,1.1487076783090828
1788861517446297300,2.81029736328125,-0.9635150693044066,-3.2053216436862946,3.6004122638851404
1788861517456303400,2.820303466796875,-0.5781634605705738,-4.4765725826025005,3.842290928968787
1788861517466310400,2.830310302734375,-0.3563840190552175,-4.665484212130308,1.7951114391520617
1788861517476317400,2.8403173828125,-0.3641347793124616,-4.65876747109592,1.8075474346160887
1788861517486323500,2.850323486328125,-0.036773294993489976,-0.5275894576311111,-0.5613645937219262
1788861517496330500,2.86033056640625,0.008334113103151321,1.7853063767135142,-0.5870975853934883
1788861517506337300,2.870337158203125,0.8965548719704151,4.663433124819398,-0.7749713963061571
1788861517516343300,2.88034326171875,0.5946282731592655,4.440566034197807,0.4250900371432304
1788861517526350600,2.8903505859375,0.6023357787966728,4.446702929517627,0.44716275274157524
1788861517536357400,2.900357421875,-0.1876119451060891,-0.1389414377003908,1.3317124218806624
1788861517546363400,2.91036328125,1.1387795740127562,-1.0851806702941655,0.7899749041706323
1788861517556370400,2.920370361328125,0.31142274143099785,-1.0628367365390061,0.8597861070215701
1788861517566377500,2.93037744140625,0.9111316788554191,-0.24659224960207937,0.443893814073503
1788861517576384500,2.940384521484375,0.9094238520242274,-0.24624913525283335,0.44356005207449195
1788861517586390500,2.950390625,0.4418330821514129,1.6786498365461826,-1.1951616787090897
1788861517596397300,2.960397216796875,-0.45629503048509357,2.311001398900151,-0.6179574185594916
1788861517606404600,2.970404541015625,-0.355335825176537,0.7067156062036752,-0.8663242766186594
1788861517616410400,2.980410400390625,-0.6932502676919102,-1.6994658300817012,-0.26216975796222686
1788861517626417400,2.99041748046875,-0.6782745246171951,-1.6992308522820472,-0.24975129815489053
1788861517636424400,3.000424560546875,0.7690402526915073,-3.1243466572642324,0.5908695051476359
1788861517646430500,3.010430419921875,-0.17182839277982712,-1.4041595261931419,1.083823994988203
1788861517656437500,3.0204375,-0.6723033412531018,-1.9835931528300046,0.2620382405370474
1788861517666444500,3.030444580078125,-0.2372822772040963,-3.016201339843869,-1.4235519166663289
1788861517676450600,3.040450439453125,-0.2236895129203796,-3.0109967569380998,-1.3978025583818554
1788861517686457300,3.050457275390625,1.4344891980051993,-2.74659412535727,-1.48709967520833
1788861517696464600,3.060464599609375,1.4742673739030956,-1.5197645119696854,-1.7753221583157777
1788861517706471400,3.070471435546875,0.7656152466788888,1.0323246938973665,-2.4151953483462334
1788861517716477400,3.0804775390625,-0.018019348554313183,3.810296538814902,-4.413194919930398
1788861517726484500,3.090484375,0.04250321694761514,3.8148072942376134,-4.34310431561619
1788861517736491500,3.100491455078125,-1.9945128985121845,0.29147476290166374,-8.236850414273142
1788861517746497300,3.110497314453125,-1.034548799687624,0.9552730183988809,-7.310515321066975
1788861517756504800,3.1205048828125,-0.062218848025798794,0.1857183864444494,-5.31349453138709
1788861517766511600,3.13051171875,0.09574790040105581,-1.6016601203680036,-3.003238105635345
1788861517776517600,3.140517578125,0.03981295495033264,-1.5559142682373523,-2.897383237239718
1788861517786524700,3.150524658203125,-0.21677228087782857,-3.048710109260678,-0.9476201655581593
1788861517796531700,3.16053173828125,0.4870788758054375,-5.633875070777535,1.0091226820081471
1788861517806538500,3.17053857421875,0.559139903409779,-6.278143280896544,1.7373139146998524
1788861517816544800,3.180544677734375,0.27621494218856096,-6.334432738873362,2.0597234756998715
1788861517826551600,3.190551513671875,0.2599628955677152,-6.34773411899507,1.9905605076245962
1788861517836558600,3.20055859375,2.816129433876276,-2.033317260941863,-1.1560822987303137
1788861517846564900,3.21056494140625,0.9734133629843592,2.3637200126528737,-3.198412594950199
1788861517856571600,3.220571533203125,-1.737538371105492,5.384034048512578,-1.8302414969831704
1788861517866578700,3.23057861328125,-2.300762621219456,8.46358236362934,0.08412292905896901
1788861517876584700,3.240584716796875,-2.3020517842471597,8.469655546063183,0.10340426037311554
1788861517886591700,3.250591796875,0.3517746255636215,8.676572787880897,6.652941054651141
1788861517896598500,3.2605986328125,1.7887059560239313,7.39219348732233,7.422392226231098
1788861517906605800,3.270605712890625,0.5003936999306082,7.996693750676513,8.842368914759158
1788861517916611600,3.280611572265625,-1.1877294828817249,7.9761834620893,9.305077027156948
1788861517926618600,3.29061865234375,-1.2087640876039862,7.980705323427915,9.30024478469491
1788861517936625700,3.300625732421875,-0.018213994343578815,4.482023833745718,5.528392835086584
1788861517946631700,3.310631591796875,-0.034431261911988253,2.6151871748149396,2.046618348802626
1788861517956638500,3.320638427734375,0.6857204567089676,0.3078530662506819,-0.6561860269278288
1788861517966645800,3.330645751953125,0.1792731558278203,-3.167867819082737,-2.8069030481085178
1788861517976651800,3.34065185546875,0.19336627084910868,-3.1594442741304634,-2.7607079909056425
1788861517986658600,3.350658447265625,0.6169359665572642,-0.3127612965583801,-1.0919706226952373
1788861517996665600,3.36066552734375,1.2024117959678173,-3.292867825192213,-1.7503822167180478
1788861518006672600,3.370672607421875,0.7708826656877994,-2.9632097543686626,-1.25410457380414
1788861518016678700,3.3806787109375,0.21743688226640223,-1.3758049538463353,-1.4221908574461937
1788861518026685700,3.390685791015625,0.1941556676611304,-1.3776841917216778,-1.4540347332134842
1788861518036692700,3.400692626953125,-0.3417778399452567,-3.353364671730995,1.9374226455464958
1788861518046698500,3.410698486328125,-1.5355916111767292,-5.841164068517089,1.9458213483184574
1788861518056705800,3.420705810546875,0.0995081297174096,-6.554802167460322,1.4992740971267222
1788861518066712600,3.430712646484375,-0.5756237129598856,-9.556519639399648,-0.7968652482062578
1788861518076718600,3.440718505859375,-0.6184703365176916,-9.554893499502539,-0.8329331714093685
1788861518086725600,3.4507255859375,-1.137851353251934,-5.236966002979874,-0.272171512016654
1788861518096732700,3.460732666015625,-0.46386955739259716,-1.6263146691530943,0.6652411477819085
1788861518106739700,3.47073974609375,0.16360270848721264,-1.7777771502524613,1.7345424041599034
1788861518116745700,3.480745849609375,0.48504006345421075,-2.9425124187767504,3.759584004187584
1788861518126752500,3.49075244140625,0.45956543045789,-2.9361925681054593,3.7574841092988844
1788861518136759800,3.500759765625,-0.4738002920374274,-4.764855855986475,4.207084902842342
1788861518146765800,3.510765869140625,1.002517000132799,-4.468042654666304,5.117643457984924
1788861518156772600,3.520772705078125,1.897248163807392,-5.969665945267677,8.868281354650854
1788861518166779600,3.530779541015625,2.2841581078991293,-5.7819835652738805,7.420250538027286
1788861518176785700,3.54078564453125,2.2696704406023023,-5.778160207593441,7.420559165585041
1788861518186792700,3.550792724609375,1.0556785353474318,-0.058497197154164314,-1.5587097441747784
1788861518196799700,3.5607998046875,3.1396041398897765,4.969392340147495,-12.069936292523145
1788861518206806800,3.570806884765625,4.4258571253657335,11.949759761047362,-16.074647734457255
1788861518216812500,3.5808125,2.562677235376835,16.051472610574958,-18.624522771406173
1788861518226819800,3.59081982421875,2.6357553310692308,16.07127504315376,-18.48649961759448
1788861518236826600,3.60082666015625,-1.6197227235421536,12.750103499019145,-13.69278065521717
1788861518246832600,3.61083251953125,-3.3985900071188806,8.615654501059652,-9.79215561070144
1788861518256839700,3.620839599609375,-0.5633934692010283,4.024460098499059,-8.716690278735756
1788861518266846700,3.6308466796875,2.085522372214496,1.4065239172369242,-8.123371919131278
1788861518276852500,3.6408525390625,2.282547750093043,1.344150755432248,-8.12480516680479
1788861518286859800,3.65085986328125,4.129368041433394,-3.2076246599316596,-0.16763634791746734
1788861518296866600,3.660866455078125,-0.347392757217586,-6.462064847052097,3.41411695433557
1788861518306873900,3.670873779296875,-0.046106502136588096,-6.633041006916761,3.258561066442728
1788861518316880000,3.6808798828125,-11.078485460805892,-3.241538619971275,13.49684190353155
1788861518326886700,3.69088671875,-11.277196015292406,-3.213118581172824,13.300283558642864
1788861518336893700,3.700893798828125,0.7443956407785415,0.22655016304850578,6.261950270986556
1788861518346899700,3.710899658203125,4.445054285527766,2.325954637882113,2.793110961860418
1788861518356906800,3.72090673828125,4.450909733557701,2.3051263693869113,2.740993528871238
1788861518366913800,3.730913818359375,1.2442252770856022,-1.4743763872355222,0.8087614377051592
1788861518376920600,3.740920654296875,1.2676494072929023,-1.498146554401517,0.7694508793190121
1788861518386926600,3.750926513671875,1.6926877142488956,5.853350765395164,0.6623676381722092
1788861518396934000,3.760933837890625,0.7541326064169407,4.171044159907102,2.7784146202489732
1788861518406940700,3.770940673828125,-0.11038228269219398,-0.4452203865021467,4.525086438141763
1788861518416946700,3.78094677734375,-1.1893117836371063,-3.058147799691558,3.2371883158072827
1788861518426953700,3.79095361328125,-1.2375196419671177,-3.0411136627823114,3.2343338031589983
1788861518436960800,3.800960693359375,-3.253195155495405,-2.184412662294507,7.635658544814587
1788861518446966500,3.810966552734375,-1.8925532839894295,-2.6349861002624033,8.439682432603835
1788861518456973800,3.820973876953125,-1.0300891899302602,-1.7573890267401933,8.885182220569252
1788861518466980600,3.830980712890625,0.622331980381906,-6.043041562601924,7.74923114798069
1788861518476987600,3.840987548828125,0.7157470539212226,-6.1181117088943715,7.655230675768852
1788861518486993700,3.85099365234375,3.7285938226401805,-3.776926768654585,3.2109777697518465
1788861518497000700,3.861000732421875,3.4656986730128523,-2.7434774546414613,3.3424496022239327
1788861518507007500,3.871007568359375,3.946005862726271,-2.669446003746986,2.5643182805821296
1788861518517013800,3.881013671875,4.622546403157711,-3.0643723732948303,-1.5932587872475386
1788861518527020800,3.891020751953125,4.820836394144594,-3.198555802813172,-1.655142119708657
1788861518537027600,3.901027587890625,4.395178201724589,2.1300556336849925,-3.8117353394463658
1788861518547033900,3.911033935546875,5.604732562923431,4.019053271019459,-3.675389763458073
1788861518557040600,3.92104052734375,5.7203077380836005,3.956175082302093,-3.6607936673507093
1788861518567047700,3.931047607421875,5.6919613490432495,7.651182277160882,-9.554055879634618
1788861518577054700,3.9410546875,5.698040376695991,7.685590742719173,-9.480295062375069
1788861518587060700,3.951060791015625,-0.7568821973860264,7.268183661293983,-16.799985623544455
1788861518597067500,3.961067626953125,-2.6619801979109643,4.680671844390035,-14.392931496077775
1788861518607074800,3.97107470703125,-2.633476280221343,4.7591900853097435,-14.176838429635762
1788861518617080600,3.98108056640625,-0.9873536255314945,-4.250353843465447,-2.7853955651775
1788861518627087600,3.991087646484375,-0.9743149879992008,-4.190572451719642,-2.609178874310851
1788861518637094700,4.0010947265625,-2.84866684486568,-5.092904153525829,5.838994323262572
1788861518647101700,4.011101806640625,-1.974858642232418,-4.391816324076056,4.331518799501657
1788861518657107700,4.021107666015625,-0.8300181607455015,-4.39626745826602,0.9785171158641576
1788861518667114800,4.03111474609375,-0.4572328958570957,-5.1370636132478715,-1.8811478006169198
1788861518677121500,4.04112158203125,-0.4390361449092626,-5.134775210049748,-1.8421347638726233
1788861518687127600,4.05112744140625,-2.272899339520931,-4.363220344188809,-0.385541578347981
1788861518697134800,4.061134765625,-2.805692211014032,-4.032568586152792,-0.3399678679138422
1788861518707141600,4.0711416015625,-2.789650007751584,-4.032264050248265,-0.30879765362441536
1788861518717148700,4.081148681640625,-1.4672241773933172,-3.5940818918198345,-2.790503409710526
1788861518727154700,4.09115478515625,-1.6803075406253336,-3.4262013598829504,-3.5286522650539873
1788861518737161700,4.10116162109375,-1.1054641643881797,-2.8937071790754794,-3.618190497159958
1788861518747168800,4.111168701171875,-0.7577402755200863,-2.20760707539916,-2.79459009450227
1788861518757175000,4.121175048828125,-0.7502373525440692,-2.1974363945186135,-2.746851022727787
1788861518767181800,4.131181884765625,-0.6329565425097942,-4.2194004867970945,1.2962091468229888
1788861518777189000,4.141189208984375,-0.6011117899596691,-4.227349399974942,1.3372526664815843
1788861518787196000,4.15119580078125,-0.25492753174901006,-4.204873364272713,1.4203433298833668
1788861518797202000,4.161201904296875,1.0067372481763361,-3.012510668632388,2.5413293269217014
1788861518807209000,4.171208984375,1.043437624064088,-3.0277485697746274,2.5717478460609913
1788861518817216000,4.181216064453125,2.2894430625647306,1.9249375502437351,3.663457625862956
1788861518827221800,4.1912216796875,2.3182424560695885,1.9019822065919636,3.650445584076643
1788861518837229000,4.20122900390625,3.2921728286653753,9.136434863197803,2.207347839941084
1788861518847235800,4.21123583984375,1.4235978016346693,10.334169315004349,2.344644433043897
1788861518857241900,4.221241943359375,1.404856860807538,10.329715258204937,2.2893331724494694
1788861518867249000,4.231248779296875,0.6766267574101686,3.914412746849656,3.924655616183579
1788861518877256000,4.241255859375,0.6767518450945615,3.916855463826656,3.9327202646955843
1788861518887262700,4.2512626953125,-0.5504132838577032,-2.1025971333950757,4.156672520205379
1788861518897269000,4.26126904296875,-0.9603215339601039,-5.108933497306705,2.93305777721107
1788861518907276000,4.271276123046875,-0.5608031604468822,-6.047022156670689,1.1075167130038142
1788861518917282800,4.28128271484375,0.3099298725247383,-6.166378603935241,-0.312182473757118
1788861518927289000,4.2912890625,0.34364626416563987,-6.188772222051024,-0.3110302349820733
1788861518937296000,4.3012958984375,-0.6377385160893202,-4.758727143973112,-1.0435564281381666
1788861518947303000,4.311302978515625,-0.37595980327129364,-3.389849359041452,-1.3611302395448088
1788861518957310000,4.32131005859375,0.1259182899981737,-1.145238540893793,-1.417438109961152
1788861518967316000,4.33131591796875,0.7534346872806549,1.6651806986421345,-0.9339958370923995
1788861518977322800,4.34132275390625,0.6723901427537202,1.6727882510364054,-1.0652364911571144
1788861518987330000,4.351330078125,0.18736907626092433,5.570215960815548,-0.8886296319290995
1788861518997335800,4.361335693359375,-0.16224866352975367,4.929895611539483,-1.2405407433539628
1788861519007343000,4.371343017578125,-0.1463578514367342,4.905701081481576,-1.2749953861415386
1788861519017350000,4.381349853515625,-2.6669027490049597,4.659100648573041,0.10020195720046758
1788861519027357000,4.39135693359375,-2.6563264099329706,4.636643902093172,0.062145198267698286
1788861519037363000,4.401363037109375,2.205397582656145,-0.7937479929685592,1.9993565391510724
1788861519047370000,4.411369873046875,-0.4003390422463417,1.3523486749351024,1.4049088832557202
1788861519057376800,4.421376708984375,-0.34422143370509145,1.2969430140554905,1.3652262766867875
1788861519067383000,4.431383056640625,-1.7859850066274403,1.2180062554627655,0.7044628588408232
1788861519077390000,4.44139013671875,-1.7289812629014252,1.1348515869140625,0.611742489567399
1788861519087396900,4.45139697265625,0.06193418586552143,-1.7911790681391953,0.8627204069077968
1788861519097404000,4.46140380859375,-2.034631850671768,-3.5315222675323485,1.2370572851523756
1788861519107410000,4.471409912109375,-1.933690181019902,-3.6092204242408275,1.236734336808324
1788861519117417000,4.4814169921875,-1.9110574934512377,-5.274587000843883,1.9403557763889432
1788861519127424000,4.491424072265625,-1.8123761699467897,-5.384296498841047,1.8830512961506842
1788861519137430000,4.501429931640625,-1.5449012913137674,-3.7071944762587545,0.5419263182803988
1788861519147436800,4.511436767578125,-1.4098457551360128,-2.03668001537323,-0.1399149589076638
1788861519157444000,4.521444091796875,-0.6758131029397249,-0.7223352001398802,-0.6883394070357084
1788861519167451000,4.531450927734375,-0.030784429842233656,-0.21728432205319403,-0.7110296700105071
1788861519177457000,4.541456787109375,0.10671966853141784,-0.34773324121832844,-0.7015817504465579
1788861519187464000,4.5514638671875,0.3888467573732137,-0.8368640811175108,-0.06228285317271948
1788861519197471000,4.561470947265625,0.4001069870561361,-1.6471821006149052,0.24210458279401062
1788861519207478000,4.57147802734375,0.5420744945794344,-1.8092220898300408,0.23969869069606065
1788861519217484000,4.581484130859375,-0.27890812679529187,-2.948475711095333,0.6777423174366355
1788861519227490800,4.59149072265625,-0.14388123219013213,-3.122171066790819,0.6697200467616319
1788861519237498000,4.601498046875,0.64281158156991,-1.974299254783988,-0.08056991275250912
1788861519247504000,4.61150390625,1.363041333863139,-0.7704875288903713,0.36479338935166594
1788861519257511000,4.621510986328125,1.4850994413018226,-0.9167068486392498,0.4061085655584931
1788861519267518000,4.63151806640625,3.580522737544775,2.008366944080591,-0.06546586712300777
1788861519277525000,4.64152490234375,3.6849849825382233,1.8890505365654826,-0.00537877042889595
1788861519287531000,4.651531005859375,1.5353233156293629,1.9035382038623094,-0.23208237047344446
1788861519297538000,4.6615380859375,0.8472551267504692,0.5293132126837968,-0.3353644657716155
1788861519307544800,4.671544921875,0.9287380626946687,0.4287231329485774,-0.2818681456446647
1788861519317550800,4.68155078125,0.9904664968550204,-1.3991969353497027,0.028164602732658386
1788861519327558100,4.69155810546875,1.0701274780690668,-1.5362208489909768,0.04217179303616285
1788861519337565000,4.70156494140625,-0.7496651056140661,-1.5034437840268016,0.29874563068747517
1788861519347572000,4.711572021484375,0.1549491541713476,-0.963139513990283,0.42423575840145344
1788861519357578000,4.721577880859375,1.5201456202417611,-0.21548574819862842,0.5395122428759932
1788861519367585000,4.7315849609375,2.7720079680770633,0.4436652660146355,0.5709905002012848
1788861519377591800,4.741591796875,2.8388731806039806,0.3302294409707188,0.6155322372391819
1788861519387598000,4.75159814453125,2.1936153749257326,0.575050296986103,0.45437107668519017
1788861519397604900,4.76160498046875,1.89756906632483,-0.08475771983116864,-0.9801984930798411
1788861519407612000,4.77161181640625,2.5204899525105953,-0.33256665174663064,-1.754750494930148
1788861519417619000,4.781618896484375,1.4325474162876606,-0.06583207008689641,-2.252157288004458
1788861519427625000,4.791625,1.4534037418335675,-0.1406190155237913,-2.271784071755409
1788861519437631700,4.8016318359375,1.2892670726001263,1.2559253594905138,-2.0525015616223214
1788861519447639000,4.81163916015625,1.3519792571008205,1.6249793288961052,-0.7925073452576994
1788861519457645800,4.821645751953125,1.3475707930088043,1.5936071622937917,-0.8347679856210947
1788861519467651800,4.83165185546875,1.8507973782777785,1.2971978655993939,-0.15476386073231696
1788861519477659000,4.841658935546875,1.8371102137088775,1.291443832117319,-0.19639584780335426
1788861519487666000,4.851666015625,2.4372563735067843,1.40942256128788,-1.6090362020939588
1788861519497672000,4.861671875,2.628748667177558,1.6272420131310819,-1.7575030085086822
1788861519507679000,4.871678955078125,2.602319509935379,1.6661723400279878,-1.7892992457419632
1788861519517686000,4.88168603515625,1.949731215238571,1.8611799483433364,-2.172270681340992
1788861519527693000,4.891693115234375,1.9166168811440467,1.9099290739431976,-2.2095517797261475
1788861519537699000,4.901698974609375,1.2665057902157306,2.362509175558388,-3.4650746958956122
1788861519547705900,4.911705810546875,1.2260428469240665,2.568557233326137,-3.4063486584216354
1788861519557713200,4.921713134765625,1.1669395005702972,2.659343711927533,-3.4595255373358724
1788861519567719000,4.931718994140625,1.9773919601023195,2.7173253607749936,-2.1161001735687255
1788861519577726000,4.941725830078125,1.8976187506854534,2.842991137316823,-2.172664941355586
1788861519587733000,4.95173291015625,0.2782750895887613,3.5396018213525413,-0.7472691503882408
1788861519597740000,4.961739990234375,-0.2785597517490387,3.631260114352405,-0.4436304869621992
1788861519607745800,4.971745849609375,0.4952244805991649,3.264875656417012,-0.12112404145896434
1788861519617753000,4.981753173828125,0.8533733173698186,2.731908889661729,0.013382336403429507
1788861519627759900,4.991759765625,0.7694570167988538,2.8755665422290564,0.002147241161763668
1788861519637767000,5.001766845703125,0.5146054728955031,1.383254393069446,0.49956221754252905
1788861519647773000,5.01177294921875,1.0784814649164676,0.7981874367207288,0.3863350668132305
1788861519657780000,5.021780029296875,-0.09012275399565696,0.48133273336887356,0.5538391666531562
1788861519667786800,5.031786865234375,-0.8996493308544158,0.22562895655035972,1.4161971699893474
1788861519677793000,5.04179296875,-0.9759574945092201,0.36945875081419943,1.4548416656821965
1788861519687799800,5.0517998046875,0.930576384037733,0.21488252160847185,1.9785551586627959
1788861519697806800,5.061806884765625,0.5216115522652864,0.41031975351274014,1.3636492366284132
1788861519707814000,5.07181396484375,0.4527735783606767,0.5594862326294183,1.4490031687870621
1788861519717820000,5.08181982421875,0.7473036371797322,1.3568541696608065,-0.1702127742767334
1788861519727827000,5.091826904296875,0.6736199768096208,1.5091267980992793,-0.06936959656327962
1788861519737834000,5.101833984375,0.21459493683874606,2.2035727053165433,-1.3487956586286425
1788861519747840800,5.1118408203125,0.33426176522672174,1.9141449380725621,-1.4321645544499157
1788861519757846300,5.12184619140625,0.253467396068573,2.0621645852416752,-1.3177215981900692
1788861519767853300,5.131853271484375,-0.3804880943506956,0.6850467952311039,-1.2969395069241523
1788861519777860400,5.1418603515625,-0.47966626146137714,0.8338140458971262,-1.194577449080348
1788861519787867400,5.151867431640625,-1.2352204251140355,0.4547533540010452,-1.0184408377125858
1788861519797873200,5.161873046875,-1.4031325212329626,-0.14958791939914226,-0.6236848562955856
1788861519807880400,5.17188037109375,-1.525004166188836,-0.0001432078629732132,-0.5253039770424366
1788861519817887200,5.18188720703125,-1.3221125266253948,-0.18226620016396045,0.012167115394771099
1788861519827893200,5.191893310546875,-1.4575509246408938,-0.037270284730195995,0.1020031614035368
1788861519837900300,5.201900390625,-1.6555647290349005,0.06073065529465675,0.9134235891848802
1788861519847907300,5.2119072265625,-1.3979191704988478,0.30139643745720385,1.014869116705656
1788861519857914000,5.2219140625,-1.5489742398411035,0.4316904583215713,1.0761752338007091
1788861519867920400,5.23192041015625,-1.5170862326711416,0.8700771994113922,1.3435888837657868
1788861519877927400,5.241927490234375,-1.6764356676280499,0.9915314957380295,1.3917458886913954
1788861519887934200,5.251934326171875,-2.0071283421963453,0.6237357096999884,2.1145050133317707
1788861519897941200,5.261941162109375,-2.576885793471336,0.09171791423261165,2.510602180224657
1788861519907947300,5.271947265625,-2.6982266925513745,0.17453297556340694,2.5504396850943563
1788861519917954300,5.281954345703125,-3.4112180180236695,-0.9857084886729717,2.6343384500086304
1788861519927961300,5.29196142578125,-3.509385546787083,-0.9263993906140326,2.6502906369000674
1788861519937967400,5.30196728515625,-3.4313711637362836,-1.6452116773247718,3.146447429913282
1788861519947974100,5.31197412109375,-3.070989161086082,-1.851035278686881,3.135011551402509
1788861519957981400,5.3219814453125,-3.1206483872681856,-1.8273188875347375,3.123429834680259
1788861519967988200,5.33198828125,-2.245750635832548,-2.048425398224592,3.2675401994511484
1788861519977994200,5.341994140625,-2.237238828074932,-2.0514292562156915,3.27393369988054
1788861519988001300,5.352001220703125,-2.7006372608244416,-1.8645038320690392,4.617387412959337
1788861519998008300,5.36200830078125,-3.2289766600400207,-2.1680460493832827,4.794769055952131
1788861520008015400,5.372015380859375,-3.1298432088539,-2.2265204501837492,4.777170563158393
1788861520018021400,5.382021484375,-3.693728260964155,-2.981758387494087,2.5275480543285607
1788861520028028200,5.392028076171875,-4.005532695189118,-3.051250441393256,1.1460896047651767
1788861520038035500,5.402035400390625,-4.139401651930808,-3.1448563613295555,0.2555434716902673
1788861520048042200,5.412042236328125,-4.1199230444788935,-3.4049119036167856,-0.170081987503916
1788861520058048300,5.42204833984375,-3.945596989664435,-3.5423926211148498,-0.23316870440542697
1788861520068055300,5.43205517578125,-2.3435697895497083,-2.8297932175695895,0.6354751012019813
1788861520078062300,5.442062255859375,-1.5139888511776922,-1.9900673172801733,1.4110107072621583
1788861520088069000,5.452069091796875,-0.9967378322094679,-1.3827636869430542,1.7046347571521996
1788861520098075400,5.462075439453125,0.4865630352377891,-1.1939753915339708,1.1073135916471482
1788861520108082200,5.472082275390625,0.567469048076868,-1.2905828313738108,1.0216323272302745
1788861520118089200,5.482089111328125,5.16813562785983,-0.35204759728610513,-0.39360096616297957
1788861520128095500,5.492095458984375,6.510631601822376,0.5856219598829746,-0.15529665243476629
1788861520138102300,5.502102294921875,6.568986175635457,1.6192203269779681,0.9060483842417597
1788861520148109300,5.512109375,4.777005727985501,2.431215924298763,2.117462109571695
1788861520158116400,5.522116455078125,4.846737435859441,2.3598007933825254,2.103400266471505
1788861520168122400,5.532122314453125,-0.9126496822029352,2.655346751245856,2.9850156357243653
1788861520178129200,5.542129150390625,-0.8842103541821241,2.601856568598747,2.924534571276605
1788861520188136400,5.552136474609375,-2.6693834599047896,0.03559095334112644,3.32453166821748
1788861520198143200,5.562143310546875,-2.027277980777621,-1.5058254184663296,2.8235157447353005
1788861520208149200,5.572149169921875,-1.9760013825267553,-1.5922908189982174,2.7515044014915824
1788861520218156300,5.58215625,-1.0611357778400181,-2.526163321971893,0.9884452201604843
1788861520228163300,5.592163330078125,-0.5216454545348882,-2.0023224032193423,0.7738029370486735
1788861520238170400,5.60217041015625,0.27611002050936223,-0.8991559943795203,0.6940759048610925
1788861520248176400,5.61217626953125,1.0472019450336694,0.294641117978096,0.3430065049573779
1788861520258183200,5.62218310546875,1.0906295833498239,0.2138654535204172,0.28526597138941284
1788861520268190500,5.6321904296875,2.4342899249166248,1.9553572384268045,-0.8788236927077173
1788861520278197200,5.642197265625,1.4905957006305455,2.403252397096157,-0.800467948873341
1788861520288203300,5.652203369140625,-0.22895020992755888,2.6647441096663473,-0.1290419749766588
1788861520298210300,5.662210205078125,-0.7819646161943674,2.702417714500427,0.6478963374882936
1788861520308217300,5.67221728515625,-0.7108160272598266,2.610687525308132,0.6472168307915329
1788861520318224100,5.68222412109375,0.17407880205512047,2.1488100185155865,2.082289966164529
1788861520328230400,5.69223046875,0.3650070321023464,1.851135816451907,2.455589902576804
1788861520338237200,5.7022373046875,0.4774889174222946,1.523705943071842,2.5200489307448266
1788861520348244500,5.712244384765625,0.7157365325272083,1.28439216004014,2.258262911403179
1788861520358250500,5.72225048828125,0.8103782252520322,1.1677969941824673,2.295807044638693
1788861520368257300,5.73225732421875,1.0582020624756812,0.9130857355326414,1.482185599681735
1788861520378264300,5.742264404296875,0.8108791605114937,0.7767828296422958,1.0464058262199163
1788861520388271400,5.752271240234375,0.6621113253235816,0.7097402147218584,0.7272592125385999
1788861520398277400,5.76227734375,0.635474662810564,0.5710618118718266,0.47332069182693953
1788861520408284400,5.772284423828125,0.7294307113587856,0.45221682126075025,0.5470224723756313
1788861520418291500,5.78229150390625,0.6612018092632294,-0.07498889774978161,-0.8991025106266141
1788861520428298200,5.79229833984375,1.2427449753999709,-0.37608956713080405,-1.6470587664961813
1788861520438304500,5.802304443359375,-0.8876338988900184,-0.48819765070229765,-0.6000093816757202
1788861520448311300,5.812311279296875,-3.137189772224426,-0.7715946133494377,1.4812018493413925
1788861520458318300,5.822318359375,-3.0685785928130147,-0.9373357951700687,1.4640262581348418
1788861520468325400,5.832325439453125,2.538172324195504,-0.18020166884958744,0.4437453455135226
1788861520478331400,5.842331298828125,2.534233231180906,-0.056445233060419556,-0.271876912984252
1788861520488338200,5.852338134765625,1.4700737216055393,-0.12170213360786437,1.3488789529979228
1788861520498345500,5.862345458984375,3.6472435731649395,0.22351737122386692,1.2736913178056477
1788861520508352300,5.872352294921875,3.682157650157809,0.14684066651761532,1.2937708137601613
1788861520518358300,5.882358154296875,1.0346049137890339,1.0812705111131071,-1.7545906281933188
1788861520528365300,5.892365234375,1.7740724505156278,1.4687880657091736,-3.325002208338678
1788861520538372400,5.902372314453125,0.7637702033340931,1.2019006315752863,-2.878183154468238
1788861520548379400,5.91237939453125,0.8095856135696172,0.34935207459181544,-1.7425319416090845
1788861520558385400,5.922385498046875,0.804826436343789,0.32042379401028154,-1.7899664774790405
1788861520568392200,5.93239208984375,2.9633307503998276,-0.4669710305392742,-1.250432022771239
1788861520578399500,5.9423994140625,3.4757343293368814,0.21281565220654008,-2.050971575576067
1788861520588406300,5.95240625,2.6260078440368173,1.4942249970436094,-3.051174161286652
1788861520598412300,5.962412353515625,2.9362849225640297,2.5781799249351023,-3.3929432334035634
1788861520608419300,5.97241943359375,2.8829508072614667,2.6264985501632094,-3.4965216812998055
1788861520618426400,5.98242626953125,3.195458421319723,3.6869609587863086,-1.7872329608619213
1788861520628433200,5.99243310546875,3.1166403206706046,3.78818115311861,-1.8954472518652676
1788861520638439400,6.002439453125,2.9062346522152422,3.440389459711313,-1.7124661814302204
1788861520648446200,6.0124462890625,2.842185081630945,3.0724545574635265,-1.5295362566605208
1788861520658453200,6.022453369140625,2.747509486636519,3.2197099422618747,-1.604060167247057
1788861520668460300,6.032460205078125,2.358219661670923,2.2748054654031993,-0.9918842546984553
1788861520678466300,6.04246630859375,2.8156851972401142,1.9430688347399234,-0.6851698370888829
1788861520688473300,6.052473388671875,2.595553084540367,1.6777902971073984,-0.29796704753041264
1788861520698480400,6.06248046875,1.6859850017398594,1.401566879351437,-0.07022036817371845
1788861520708487200,6.072487060546875,1.597685371518135,1.5672516548097133,-0.06301350553482771
1788861520718493200,6.0824931640625,1.0809002164959907,0.8287722523376345,-0.05133943435400724
1788861520728500500,6.09250048828125,0.9923743763029574,0.6687120387628674,0.10341039785295725
1788861520738507300,6.10250732421875,1.1831611520528793,0.6529086126923561,0.19021335977613923
1788861520748514300,6.112514404296875,0.9471206916034222,0.7019160969674587,0.2178147756680846
1788861520758520300,6.122520263671875,0.8404542145639657,0.8830553389281034,0.2612611186847091
1788861520768527600,6.132527587890625,0.20529986974894998,0.6366536434620619,0.3040209407418966
1788861520778534400,6.142534423828125,0.2252589541941881,0.5181541052877903,0.3577665594547987
1788861520788541400,6.15254150390625,0.09363046985566616,0.707092622822523,0.40432051309794187
1788861520798547500,6.16254736328125,0.4348766871422529,0.16691665534079073,-0.36689971398115157
1788861520808554500,6.172554443359375,0.285679812887311,0.3624234453499317,-0.3097662063956261
1788861520818561500,6.1825615234375,0.22984862007200715,-0.4614057976275682,-0.7037292838692665
1788861520828568600,6.192568603515625,-0.16481354558169842,-0.7737859859138727,-0.4196080986008048
1788861520838574300,6.20257421875,-0.5033721312195062,-1.1250690285682678,-0.027853344826400277
1788861520848581600,6.21258154296875,-0.5884077912092208,-1.4082780674278734,0.35864363455027337
1788861520858588400,6.22258837890625,-0.7615624641567468,-1.2366764691412448,0.41841655072867867
1788861520868595500,6.232595458984375,-1.4194605556994675,-2.1325924586862324,1.2836667683750391
1788861520878601500,6.2426015625,-2.2729764964103696,-2.6011983969509602,1.4095795054152607
1788861520888608500,6.2526083984375,-2.9936165830701587,-3.1699826192796228,1.37905051163882
1788861520898615300,6.262615234375,-3.8391011930167673,-3.6438790651679036,1.4101856546148657
1788861520908622600,6.27262255859375,-3.972801807454228,-3.537513616901636,1.4586819744974373
1788861520918628400,6.28262841796875,-4.05674324246645,-3.863800165465474,2.7281127122491595
1788861520928635400,6.292635498046875,-4.111667841830849,-3.4711072540581225,3.490116198171675
1788861520938642400,6.302642333984375,-4.1234605709552765,-3.2029338717669247,3.7223806472137566
1788861520948649500,6.3126494140625,-4.161268323563039,-2.9225439819812773,3.4155241907849905
1788861520958655200,6.3226552734375,-4.215339813229441,-2.891531588602066,3.4140982496351002
1788861520968662500,6.33266259765625,-3.4026126867637037,-1.6463374664843082,2.191851580123603
1788861520978669300,6.34266943359375,-2.801039416772127,-1.0840203943431377,1.6300760675132273
1788861520988676600,6.352676513671875,-2.0228017121464013,-0.7937672821909189,0.9864110839843749
1788861520998682600,6.3626826171875,-1.7452900081455707,-0.673811699989438,0.4692854449614882
1788861521008689400,6.372689453125,-1.6844716745674608,-0.7204542086988687,0.437198408088088
1788861521018696400,6.382696533203125,-2.7074238522246477,-0.9163514593303203,0.5019394680678844
1788861521028703500,6.392703369140625,-3.532709431490302,-1.1834937450081109,1.2237979906067251
1788861521038709500,6.40270947265625,-3.823502641868591,-1.3979945738226174,2.170936510127783
1788861521048716500,6.412716552734375,-3.5125142002016303,-1.5384586910456417,2.757591612450778
1788861521058723300,6.422723388671875,-3.4263808081030844,-1.620612073597312,2.692307823896408
1788861521068730400,6.43273046875,-1.7972066578656434,-1.8433260194838046,2.1387921901091933
1788861521078736600,6.442736572265625,-0.9417027582079172,-2.0375445232480764,1.5575699264898895
1788861521088743400,6.452743408203125,-0.4262397917002439,-2.0902181288152932,0.5399202391549944
1788861521098750500,6.46275048828125,0.543688359516859,-1.988169374704361,-0.34633623390197754
1788861521108757500,6.472757568359375,0.6299614523470402,-2.10436063593626,-0.45130467485189435
1788861521118763500,6.482763427734375,2.1978192563563583,-1.2536164980262516,-0.1020160208851099
1788861521128770300,6.492770263671875,2.4721821409374476,-0.8800731082469224,0.6178454826176166
1788861521138777600,6.502777587890625,2.2820313250035045,-0.36763328895270825,1.1704694282621144
1788861521148784400,6.512784423828125,1.299114512875676,0.22355039671063423,1.4662556246221066
1788861521158790400,6.522790283203125,1.3847382018864154,0.11387947715818882,1.4091156872957944
1788861521168797400,6.53279736328125,-0.25322014330923553,0.7639122421532869,0.8503706284224987
1788861521178804500,6.542804443359375,-1.0767717383891344,0.7107634202897548,0.5227934555262327
1788861521188811500,6.5528115234375,-1.3991279617667198,0.134388596701622,0.31501199809461833
1788861521198817500,6.562817626953125,-1.009018637111783,-0.560298133534193,0.00651771133095026
1788861521208824300,6.57282421875,-0.9222907862514257,-0.6878063230723143,-0.04601005602478981
1788861521218831600,6.58283154296875,0.10561667572557926,-1.044567504876852,-0.27511925590634345
1788861521228838400,6.59283837890625,0.5547410839289426,-0.7007429615348577,-0.09444324754327535
1788861521238844400,6.602844482421875,0.6766980690807104,-0.42845103800892825,0.3117629331707954
1788861521248851500,6.6128515625,0.6270265679389238,-0.350792628788948,0.5153615519598126
1788861521258858500,6.6228583984375,0.7213812604159117,-0.4899006552278995,0.4911304892838001
1788861521268865300,6.632865234375,1.0941308694690466,-0.07428980956971645,-0.257976982447505
1788861521278871600,6.64287158203125,1.3831968176633118,0.2681815655976534,-0.3899915434941649
1788861521288878300,6.65287841796875,1.2199608966618776,0.5206009139180183,-0.20615970144867896
1788861521298885400,6.662885498046875,0.7054319961339235,0.6299512232139707,-0.058845279939472674
1788861521308892400,6.672892333984375,0.8017255477190017,0.48648850869685406,-0.04981266317814588
1788861521318898400,6.6828984375,-0.12166413968503474,0.4351870682656765,-0.009811784440279006
1788861521328905500,6.692905517578125,-0.24969898344576358,0.12060557054281235,-0.32322190029621123
1788861521338912500,6.70291259765625,0.8379629822701216,-0.3222211988210678,-0.8397191782876848
1788861521348919300,6.712919189453125,2.3017186067700384,-0.4176712853193283,-1.1189891241326928
1788861521358925300,6.72292529296875,2.435684594145417,-0.5620321177199482,-0.9974655619621277
1788861521368932600,6.7329326171875,-0.08508651339411735,-0.8598524502560496,0.9041174161791801
1788861521378939400,6.742939453125,-1.0987602828353642,-1.4033642841622234,1.121719133618474
1788861521388946400,6.752946533203125,-1.0058744938671589,-1.5693506729155777,1.1701479412227869
1788861521398952400,6.762952392578125,1.5851742649912832,-1.6756375029876827,-1.139686459724605
1788861521408959500,6.77295947265625,1.6584376541227102,-1.821249212232232,-1.0990358849063515
1788861521418966500,6.782966552734375,2.035051537388563,-0.2894876807376742,-3.024165158329904
1788861521428973300,6.792973388671875,0.4163602027207613,-0.60351592849195,-2.1500249472633004
1788861521438980400,6.80298046875,0.800570532464981,-1.1488961866185068,-1.5597744507968425
1788861521448986600,6.812986572265625,2.1329110231161117,-1.491748962318897,-1.6685466679438947
1788861521458993400,6.822993408203125,2.1504326512813567,-1.562074836693704,-1.6787191023901105
1788861521469000400,6.83300048828125,3.080255586603284,-1.416414319871366,-0.8935232491895556
1788861521479007500,6.843007568359375,3.8202024312794207,-0.23394553399682044,-1.6410045810237526
1788861521489013500,6.853013427734375,3.6348102080494162,0.7760238279685377,-2.631554956769943
1788861521499020300,6.863020263671875,2.589463535493612,1.7370418197602033,-3.8001822642967102
1788861521509027600,6.873027587890625,2.5747569647490978,1.7439809713736176,-3.830781692960858
1788861521519034400,6.883034423828125,2.4490368276715277,3.0223250834211703,-3.8436817988052963
1788861521529040400,6.893040283203125,2.9993057346224785,3.1608786908477544,-2.9500550892412662
1788861521539047400,6.90304736328125,3.084938775983453,3.02236366186589,-2.5175962768957016
1788861521549054500,6.913054443359375,3.4118601153194903,2.738761239774525,-2.3439874304398893
1788861521559061500,6.9230615234375,3.352867243602872,2.849464132723212,-2.393079085867107
1788861521569067500,6.933067626953125,2.0193506949096918,1.9441686126753688,-2.237697677758336
1788861521579074300,6.94307421875,2.2842823188006878,1.608560401275754,-1.9435346986860036
1788861521589081600,6.95308154296875,2.562626381972432,1.2377516971573232,-1.6560715095132588
1788861521599088400,6.96308837890625,2.86479847997725,1.1069289762437342,-1.948168495966494
1788861521609094400,6.973094482421875,2.7847312560498714,1.2827215964794159,-1.9557821858406066
1788861521619101400,6.983101318359375,2.0154133554607627,1.1853601234018802,-2.5802663758203384
1788861521629108500,6.9931083984375,1.7976678456366062,1.2383172220855951,-2.4664389211103317
1788861521639115300,7.003115234375,2.1614251699388025,1.2114490889042615,-2.290306109134853
1788861521649121500,7.01312158203125,2.13080615979135,1.1966688684016464,-2.2493790554627773
1788861521659128300,7.02312841796875,2.0118729063749314,1.4047528159111737,-2.243365786522627
1788861521669135400,7.03313525390625,1.3857096772670745,0.9004480800166725,-1.7658561185732482
1788861521679142400,7.043142333984375,0.5236392587006091,0.5256283866912126,-1.327143798790872
1788861521689148400,7.0531484375,0.09888532164394855,-0.055882046219706535,-0.8181751627385616
1788861521699155500,7.063155517578125,0.06237608441412448,-0.9543781153857708,-0.07473141585737467
1788861521709162500,7.07316259765625,-0.05940437512695789,-0.7393243288636208,0.01315437286645174
1788861521719169300,7.083169189453125,0.02578150698840618,-2.675955239510536,0.790518217267096
1788861521729176600,7.093176513671875,0.49650516805946826,-3.0515865414798258,0.8548384214863181
1788861521739182600,7.1031826171875,0.18895663771331309,-3.0220372063905,0.7245815177619457
1788861521749189400,7.113189453125,-0.495539537897706,-2.6134528983682395,0.6559136397272348
1788861521759196400,7.123196533203125,-0.6519272004395723,-2.4210195244550703,0.7380161688745022
1788861521769203500,7.133203369140625,-0.8673521583616733,-1.319969084855914,1.503314020167291
1788861521779209500,7.14320947265625,-1.2787258048415184,-0.8445072893470525,1.7649845964357256
1788861521789216500,7.153216552734375,-1.4387965398102998,-0.6757552352726459,1.8495351032570004
1788861521799223300,7.163223388671875,-1.9243454295694826,-0.44086569842398166,1.6989295312479138
1788861521809230600,7.173230712890625,-2.1795704829603433,-0.4328074796527624,1.7318942277386784
1788861521819236600,7.183236572265625,-2.681699336120486,-0.5679150382786989,2.019558492441475
1788861521829243400,7.193243408203125,-2.7645161510169505,-1.1955208674103022,2.571006087782979
1788861521839250700,7.203250732421875,-2.9504601629108187,-2.1633692897439003,3.0458965131446716
1788861521849257500,7.213257568359375,-3.3506577508598565,-2.7781641526192424,2.831186717754602
1788861521859263500,7.223263427734375,-3.759443718934059,-3.1614673043906687,2.3409701284453273
1788861521869270500,7.2332705078125,-4.051440459883213,-3.3886347225546833,2.083633781988919
1788861521879277600,7.243277587890625,-4.109119910913706,-3.2999294341415166,1.9840946726113557
1788861521889284400,7.253284423828125,-3.8405128133803603,-3.1272108145236968,1.767889670227468
1788861521899291400,7.26329150390625,-3.8364226214572783,-3.131561410948634,1.7616086902618406
1788861521909297400,7.27329736328125,-2.8634754146799444,-2.8151287324011323,1.4685361367747187
1788861521919304400,7.283304443359375,-2.9403485187411307,-2.420235680601001,1.2228849674150346
1788861521929311500,7.2933115234375,-2.6574685657054182,-1.919635936704278,1.0049126630976795
1788861521939318500,7.303318603515625,-2.4167542682260272,-1.4908002832919358,1.0731889114663005
1788861521949324300,7.31332421875,-1.979353031042218,-1.1658324161112308,1.0659542840376495
1788861521959331600,7.32333154296875,-1.2468430583685637,-0.8244114267796278,0.8175684290170669
1788861521969338400,7.33333837890625,-0.8749158716142177,-0.5174556016296148,0.6166784846648573
1788861521979345700,7.343345703125,-0.9622288288861512,-0.3878378725916147,0.5248571100577711
1788861521989351400,7.353351318359375,-1.0208780017316341,-0.4424877466678619,0.8295198558345437
1788861521999358500,7.3633583984375,-1.1743027228146792,-0.6455880605459213,1.4492013217076658
1788861522009365500,7.373365478515625,-1.2087708096057175,-1.058344101294875,2.1236671016916633
1788861522019372500,7.38337255859375,-0.9195201524943113,-1.3689210395514964,2.627858440339565
1788861522029378300,7.39337841796875,0.19912673407196999,-1.6116811636447905,2.6012474967896937
1788861522039385600,7.403385498046875,1.4078361688792704,-1.7892501459032295,2.4151634919032454
1788861522049392400,7.413392333984375,2.347608251285553,-1.6300427497655152,1.9492995458230375
1788861522059399400,7.4233994140625,2.438994741606712,-1.7555512899190187,1.8607295742273329
1788861522069406500,7.433406494140625,2.2507868764340877,-0.03150865246355533,0.9779425308465957
1788861522079412500,7.44341259765625,1.1195867977648972,0.7005880632340907,0.9326362391769886
1788861522089419300,7.453419189453125,-0.13473872531354428,0.9491729479581117,0.9856772167518735
1788861522099426600,7.463426513671875,-1.3043144196063279,0.7005377943515777,0.9136392777621746
1788861522109433300,7.473433349609375,-1.2107049925386906,0.5822738184988498,0.8798319929674268
1788861522119439400,7.483439453125,-0.5469406393110752,-0.6784335145711898,-0.016756489011645316
1788861522129446400,7.4934462890625,0.2839274162620306,-1.1926263150125742,-0.03667407240271568
1788861522139453400,7.503453369140625,0.6518962207794189,-1.44478262848258,0.3064733023300767
1788861522149460500,7.51346044921875,0.8115905236512422,-1.4742472078979014,0.7791139029383659
1788861522159466500,7.523466552734375,1.0998942553013562,-1.2944120342731475,1.2693763772159814
1788861522169473500,7.5334736328125,1.4392302550524472,-0.9463345096617937,1.3646212965309619
1788861522179480600,7.54348046875,1.759706071510911,-0.5893956332027912,0.9734814597845077
1788861522189487400,7.5534873046875,1.604611955910921,-0.2073521261036396,0.6132876731827854
1788861522199493400,7.563493408203125,1.0167039309173822,0.08725508960485458,0.29412820001989604
1788861522209500700,7.573500732421875,0.920783304297924,0.13605185373872516,-0.09042290598601102
1788861522219507500,7.583507568359375,1.5622189213395117,0.10880348906815052,-0.3941919177934527
1788861522229514200,7.59351416015625,1.9196026189565658,0.06607581571489572,-0.3686766605257988
1788861522239521500,7.603521484375,1.6454525003433227,-0.08870558067411184,-0.15117723441720007
1788861522249527600,7.613527587890625,1.6331915691852568,-0.34342882202267644,-0.1732446893185377
1788861522259534300,7.623534423828125,1.8028636607140303,-0.5930331129223108,-0.49549452971220015
1788861522269541400,7.633541259765625,2.204168333122134,-0.4156199057474732,-0.9211521376103162
1788861522279548400,7.64354833984375,1.5776146433919667,0.04878361239135265,-0.48504327832460403
1788861522289554700,7.6535546875,-0.26651801629960536,0.1714800177335739,0.255604700358212
1788861522299561500,7.6635615234375,-0.09159633367955684,-0.013713468053936957,0.27575141633003947
1788861522309568500,7.673568603515625,1.6144599807083606,-0.1714233191102743,-0.5216957234174013
1788861522319575600,7.683575439453125,1.868928078252077,-0.05060352129489183,-1.299813893316686
1788861522329581600,7.69358154296875,1.186904430234432,0.23443185620903967,-1.1476216366380452
1788861522339588400,7.70358837890625,2.218781964886188,0.3267944980859756,-0.46126551237404345
1788861522349595600,7.713595703125,3.143551123949885,0.13894289900511503,-0.36080753458589315
1788861522359602400,7.7236025390625,2.837266914451122,-0.18753595726042985,-1.0695163604333997
1788861522369608400,7.7336083984375,2.435103579387069,-0.3144751147389412,-1.391864985026419
1788861522379615500,7.743615478515625,2.6492215463638304,-0.10961305188536644,-1.9007815986305474
1788861522389622500,7.75362255859375,2.1710183431923387,0.13348346455544233,-3.027617052349448
1788861522399629600,7.763629638671875,1.4780828405380249,0.022092004820704458,-3.414292895424366
1788861522409636600,7.77363671875,1.7702596142292022,-0.13854483959823846,-3.2129622215673326
1788861522419642400,7.783642333984375,2.5470026963829993,-0.30665479637682436,-2.457094754181802
1788861522429649700,7.793649658203125,3.202996415609121,-0.4702063591986894,-1.495486687542498
1788861522439656400,7.803656494140625,2.8011797020256517,-0.18946517175734043,-1.4104337841570376
1788861522449663500,7.81366357421875,2.921928480431437,0.41698447209894657,-2.453480947598815
1788861522459669500,7.82366943359375,2.757055313616991,1.4562228909075259,-3.0410072797983885
1788861522469676500,7.833676513671875,2.7678502638757227,2.497835929892957,-2.6181951244592665
1788861522479683300,7.843683349609375,2.876746691924333,3.2565976574152704,-1.9894331110298633
1788861522489690600,7.853690673828125,3.5576398746073243,3.555572420683503,-1.6140025923296808
1788861522499696400,7.8636962890625,4.283889617842435,3.440316394475102,-1.843632601214945
1788861522509703400,7.873703369140625,3.7038147706925866,3.0869436860650774,-2.62280437182039
1788861522519710500,7.88371044921875,2.7884792104065417,2.555498722049594,-3.3889050639286635
1788861522529717500,7.893717529296875,2.1364269222825762,1.9963474204629659,-3.6059693134903905
1788861522539723500,7.9037236328125,1.665713198083639,1.3937278562888502,-2.8950854816913605
1788861522549730600,7.91373046875,1.185431435072422,0.7631845124006271,-1.4560247379869222
1788861522559737300,7.9237373046875,1.3002917399615048,-0.1697010253623128,-0.056444064016640184
1788861522569744600,7.93374462890625,2.0351497370660305,-1.345148534297943,0.5033841139182448
1788861522579751400,7.94375146484375,1.8176959036648273,-2.3481124014154076,0.16266221276670692
1788861522589757400,7.95375732421875,0.8054793472945689,-3.055558952242136,-0.42239714479744433
1788861522599764500,7.963764404296875,0.3202688957095146,-3.274823634457588,-0.4899672907233238
1788861522609771500,7.973771484375,0.1608013873308897,-2.8730647885411975,-0.27057459821403024
1788861522619778300,7.9837783203125,0.16218787325322628,-1.9659376691520214,-0.11549071174710988
1788861522629784600,7.99378466796875,0.422602896502614,-1.0775193418860436,-0.11335574554502964
1788861522639791600,8.00379150390625,0.9024602966219186,-0.5344651886194944,0.010780921733379363
1788861522649798400,8.01379833984375,0.9986813674926758,-0.18828736014962194,0.313541048759222
1788861522659805400,8.023805419921874,0.7119295414596796,0.03897767316997051,0.7744222379907966
1788861522669811500,8.0338115234375,0.11957272036373615,-0.023913959550857542,1.2633280369624496
1788861522679818500,8.043818603515625,-0.33424773670136926,-0.3698749303996563,1.4757467988058923
1788861522689825500,8.053825439453124,-0.38252807574570175,-1.0562772318929434,1.7320359742969273
1788861522699832300,8.063832275390626,-0.9964613533556461,-1.6626462117284535,1.881960870565474
1788861522709838300,8.07383837890625,-1.8484002540081739,-2.2334616476237774,1.8328879198387265
1788861522719845600,8.083845703125,-2.6907401361882686,-2.9222862078279257,1.9493240957424043
1788861522729852400,8.093852294921875,-3.4678286707788706,-3.375935399979353,2.0484227678760885
1788861522739859500,8.103859375,-3.772891814050078,-3.673649934053421,2.3618530497372148
1788861522749866500,8.113866455078124,-4.106938475221395,-3.717898825624585,2.6299150806084275
1788861522759872800,8.123872802734375,-4.154809648942948,-3.3558366148024796,2.5698200928688046
1788861522769879600,8.133879638671875,-3.871556770941615,-2.8030484185069797,2.5044927574336526
1788861522779886800,8.143886962890624,-3.7857425277948376,-2.3531775758504865,2.5980805571913717
1788861522789893600,8.1538935546875,-3.8167265718623993,-2.055943518769741,2.557756437848508
1788861522799899600,8.163899658203125,-3.45585590891242,-1.9711884292870758,2.130126360833645
1788861522809906700,8.17390673828125,-3.054783291694522,-1.8407243125528097,1.5360454924240707
1788861522819913700,8.183913818359375,-2.7957340038403866,-1.6143559358119963,0.8504270347848534
1788861522829920800,8.193920654296875,-2.51285317402184,-1.643062974858284,0.5486971275895833
1788861522839926800,8.2039267578125,-2.442501288422942,-1.7185568995207547,0.6148381174951791
1788861522849933600,8.21393359375,-2.3914064764797685,-1.6500830827534199,0.35920915947854515
1788861522859940900,8.22394091796875,-2.325852346551418,-1.7074720264047383,0.318031930437684
1788861522869947600,8.23394775390625,-2.217574342662096,-1.3896452631503342,0.7415069335997104
1788861522879954700,8.24395458984375,-1.9261597855150698,-1.3966665400892495,1.0098793455943464
1788861522889960700,8.253960693359375,-1.4645365457445383,-1.1224433562397955,0.5906444642201065
1788861522899967700,8.2639677734375,-1.0703367369055747,-0.8363099543660879,0.22328473151177167
1788861522909974500,8.273974609375,-0.605931172940135,-0.8018757698446511,0.2119602044209838
1788861522919981800,8.28398193359375,0.3451858948230743,-0.8064385477155447,0.06568506283164025
1788861522929987600,8.293987548828126,1.209478665614128,-0.6967056688427925,0.08810060051828622
1788861522939994600,8.30399462890625,2.11946701965332,-0.45468028876483435,-0.03247545166909695
1788861522950001700,8.314001708984375,2.0862521477937697,-0.1204722995519638,0.04387304399609566
1788861522960008700,8.3240087890625,1.4358470423549412,0.07824877632856368,0.3412900564283132
1788861522970014500,8.334014404296875,0.4496832111299038,0.01530804376900196,1.3118477377206086
1788861522980021800,8.344021728515624,-0.8344698794573545,-0.18757365892231465,2.4023817517414687
1788861522990028500,8.354028564453126,-1.9682371782660484,-0.6388397553294897,3.096784404338896
1788861523000035800,8.364035888671875,-2.184288743653893,-1.2170891406178475,3.271291368678212
1788861523010042600,8.374042724609374,-1.3686948295801877,-1.584742303314805,2.642641291190684
1788861523020048600,8.384048583984375,-0.46432840707600115,-1.5312410147517919,1.4283879585206507
1788861523030055700,8.3940556640625,0.04652560433149337,-1.227104923197627,0.24991554880589245
1788861523040062700,8.404062744140624,0.006984452059864998,-1.0338339294165373,-0.18097206870019436
1788861523050069500,8.414069580078126,-0.28595862982869147,-1.150412144139409,-0.06774404118806124
1788861523060075800,8.42407568359375,-0.790760501590371,-1.4017606483578682,0.04856529346555471
1788861523070082600,8.43408251953125,-0.3536842585772276,-1.289101652905345,-0.19780951399356125
1788861523080089600,8.444089599609375,0.9948206004112958,-0.759493841189146,-0.5887269401609897
1788861523090096600,8.4540966796875,2.3857488891094922,-0.06524959402382373,-0.6009715047061442
1788861523100102700,8.4641025390625,2.519098205891251,0.22146657617390156,-0.16155337474197148
1788861523110109400,8.474109375,2.0207570545762774,0.028589550146460533,0.3435670614495873
1788861523120116700,8.48411669921875,0.6653232731074095,-0.23418343440592287,0.44320816989690065
1788861523130123500,8.49412353515625,0.3445195398688316,-0.5996858488097787,-0.11086685133874416
1788861523140130800,8.504130859375,1.2217816823482512,-0.7107347787171602,-0.5711985899940133
1788861523150136800,8.51413671875,1.268062372007966,-0.4640235789105296,-0.7395157597824931
1788861523160143600,8.5241435546875,1.3675479976326226,-0.24518705897927282,-0.9153712161213159
1788861523170150700,8.534150634765625,1.666685257986188,0.13350976804047823,-0.8362640693977474
1788861523180157700,8.54415771484375,1.9863386521458624,0.5225520479857921,-0.26360709728896614
1788861523190163700,8.554163818359376,1.446837807446718,0.5391004472047091,0.4973810741111636
1788861523200170800,8.564170654296875,0.7959697606712579,0.3881862476378679,0.689738752439618
1788861523210177500,8.574177490234375,0.8963836070567369,0.23143881187289952,0.7633528547048568
1788861523220184800,8.584184814453126,0.9052817837834358,-0.7743342674463987,0.15315584101378918
1788861523230190800,8.59419091796875,1.9397545956254005,-0.938545463220775,-0.5483107586205005
1788861523240197600,8.60419775390625,2.1289947264552116,-0.5615630389034748,-1.5386623969241975
1788861523250205000,8.614204833984376,1.5321645593374966,-0.09756430217325687,-1.8311442910417914
1788861523260211700,8.624211669921875,1.5883534795492886,-0.22279870156049728,-1.7940616378381846
1788861523270218500,8.634218505859375,2.4857050548553463,-0.06591302636861801,-0.9048129972279071
1788861523280224800,8.644224853515626,2.919105239704251,-0.0013619360029697416,-1.4116010743707417
1788861523290231800,8.654231689453125,2.3292934269160033,0.30612814215421674,-2.006623899805546
1788861523300238600,8.664238525390624,1.6735095510482787,0.47118689466863867,-2.1356156058996913
1788861523310245600,8.67424560546875,1.6857026776671409,0.4294719054892659,-2.1346312710374593
1788861523320251600,8.684251708984375,2.3747575394958256,0.8806088225588202,-2.2426646525159475
1788861523330258700,8.6942587890625,2.4442121839940545,0.933968949085474,-2.4750875069901346
1788861523340265700,8.704265625,2.3505986652731896,1.1529574447080493,-2.597386729708314
1788861523350272800,8.714272705078125,2.381322304838896,1.463701556225121,-2.4920892029345034
1788861523360278500,8.724278564453124,2.3476854081749914,1.5121864779308438,-2.5438728739246725
1788861523370285800,8.734285888671875,2.7137019095808266,1.5715046360790728,-1.5787874865636229
1788861523380292600,8.744292724609375,3.2344659051060676,1.7463079530164598,-1.5497259349912405
1788861523390300000,8.7542998046875,2.9268296964764593,1.7129431512922046,-1.2065592710360884
1788861523400305700,8.7643056640625,3.4537294182777405,1.30787240434885,-1.2622659606888889
1788861523410312700,8.774312744140625,3.397139516049623,1.4435083707630634,-1.284131171016395
1788861523420319700,8.78431982421875,3.3854373878180977,0.7658204138621687,-1.7960075112089513
1788861523430326800,8.794326904296875,3.1282109314769504,0.8639180922597646,-2.1368577149152754
1788861523440333600,8.80433349609375,2.8334564162522553,1.2003691842243074,-1.8689944214865564
1788861523450339800,8.81433984375,2.8080191926568743,1.517665201602876,-1.3412223007649182
1788861523460346600,8.8243466796875,2.718104528453946,1.6984148597240447,-1.354915310552716
1788861523470353700,8.834353759765625,2.628130827540159,2.0117735376536845,-0.31158056234121323
1788861523480360700,8.844360595703124,2.9174259083151814,1.871432754549384,-0.2086436272189021
1788861523490366700,8.85436669921875,2.7979461269319055,1.5047320702716707,-0.36695728938728567
1788861523500373500,8.86437353515625,1.9358301156580446,0.6924889279305935,-0.47977439801096916
1788861523510380800,8.874380859375,1.8212860371112822,0.8952958118200302,-0.4557815280050039
1788861523520387600,8.8843876953125,0.18425591267645358,-1.4500912562847137,-1.0522411082446574
1788861523530393600,8.8943935546875,0.21344342871606348,-2.271392442089319,-0.7750278026685118
1788861523540400600,8.904400634765626,0.2046592337578535,-3.1284885793745514,-0.13130641277730465
1788861523550407700,8.91440771484375,0.5844786350667476,-3.728560504892468,0.19589695837050675
1788861523560414700,8.924414794921875,0.4395218825995922,-3.5246389377593994,0.2407239420905709
1788861523570421800,8.934421875,-0.033628128835558886,-3.7518542867183684,0.7993760619834065
1788861523580427500,8.944427490234375,-0.4881026658952236,-3.0788854672938584,0.9888798121854663
1788861523590434800,8.954434814453125,-0.8895283343344926,-2.225261974555254,1.0773442775800823
1788861523600441600,8.964441650390626,-0.4379021724432707,-1.2338707640707491,0.7637365933254361
1788861523610448600,8.97444873046875,-0.595649432900548,-1.0607289506047963,0.8167275942787527
1788861523620455000,8.984454833984374,-0.8065490223526954,-0.0316758257240057,1.012599710468948
1788861523630461700,8.994461669921876,-0.7714701101869345,-0.20965572687089443,0.8938023583918809
1788861523640468500,9.004468505859375,-1.418471544662118,-0.7411445300281048,0.8773188411027193
1788861523650475800,9.014475830078124,-2.125407515618205,-1.4010294114738702,0.7077098779380321
1788861523660481800,9.024481689453125,-2.2771382922649384,-1.2750398098051547,0.7424635036721825
1788861523670488600,9.034488525390625,-2.1064847884833813,-2.763560457727313,1.762284982088208
1788861523680495600,9.04449560546875,-1.970320998802781,-3.1502193496674296,2.3350629502281546
1788861523690502700,9.054502685546876,-2.386213584011793,-3.103298608538508,2.872124292820692
1788861523700509700,9.064509765625,-2.572350488129258,-2.747870136642456,3.0942621923848983
1788861523710515700,9.074515625,-2.6419085930019617,-2.6989877400517464,3.108760088814795
1788861523720522800,9.084522705078125,-2.7187036633908748,-1.3128005084007979,2.3997972882062197
1788861523730529800,9.09452978515625,-2.015510386094451,-0.8120435281157493,1.5691516432121395
1788861523740536600,9.10453662109375,-1.5457453409224748,-0.900482859069109,1.0442197143524885
1788861523750542600,9.11454248046875,-1.4587696527808904,-1.4362901099473238,0.9083440939635038
1788861523760550000,9.1245498046875,-1.415746503612399,-1.4681746099859476,0.893489054659009
1788861523770557000,9.134556884765624,-2.7459108192682264,-2.17411163303256,1.2733315445825457
1788861523780563700,9.144563720703125,-3.026684155413508,-2.1692782215267417,1.2154697227224707
1788861523790570000,9.154570068359375,-3.089354838860035,-2.046922592446208,1.159851003614068
1788861523800577000,9.164576904296876,-2.645561270290613,-1.7013760476171969,0.9135416626065969
1788861523810583800,9.174583740234375,-2.592522338542342,-1.7654571823835372,0.8416150750368833
1788861523820590800,9.1845908203125,-2.12187349627316,-1.2805419143527745,0.8985930997997522
1788861523830598000,9.194597900390624,-2.1416133850097654,-1.1201420935600996,0.7083563591480254
1788861523840604000,9.20460400390625,-1.8777508516550063,-1.167628067356348,0.4866162267297506
1788861523850611000,9.21461083984375,-1.061003675892949,-1.27926356498003,0.20656798998862505
1788861523860618000,9.224617919921876,-0.9910802448391913,-1.3692793514698742,0.12717647336572407
1788861523870625000,9.234625,1.6851795305758714,-0.9430202705472707,-0.5314382420137524
1788861523880631000,9.244631103515625,2.3715625428467986,-0.6979401790738106,-0.4426034820020199
1788861523890637800,9.254637939453126,2.6940304099053143,-0.4552507821291685,-0.21107582280188797
1788861523900645000,9.26464501953125,2.3262334548234938,-0.13015490465462207,-0.04155833731293678
1788861523910652000,9.27465185546875,2.4230448928028343,-0.23290391598939894,-0.07677461212277412
1788861523920658000,9.284657958984376,-0.4721680146604776,0.09401800786852836,1.0367089003309606
1788861523930665000,9.2946650390625,-1.848081105056405,0.03208206843733787,1.7700427566081285
1788861523940672000,9.304672119140625,-2.666725638872385,-0.039893618971109386,2.406533026202023
1788861523950678800,9.3146787109375,-2.772700626516342,-0.18604338061511516,2.6770491722270844
1788861523960686000,9.32468603515625,-2.7012556849837304,-0.31182898414433,2.592524092108011
1788861523970691800,9.33469189453125,-1.3431219969063997,-0.6597194617509842,2.408129647743702
1788861523980699000,9.344698974609376,-0.6491086358875036,-0.7065677221655845,2.0952412176743147
1788861523990706000,9.354705810546875,0.33707097742855546,-0.6456944435298443,1.2006298809871077
1788861524000713000,9.364712890625,1.2047013682097196,-0.5787199254095554,0.016528525474667547
1788861524010718700,9.37471875,1.3068278637319803,-0.7165455108225345,-0.003907528832554817
1788861524020726000,9.38472607421875,1.7339906154960394,-0.21219488995969293,-1.528331264784932
1788861524030732800,9.39473291015625,0.683688950881362,0.15234101749956608,-1.2437117746055126
1788861524040740000,9.404739990234376,-0.38448154790103434,0.22729659750163553,-0.6680217184111475
1788861524050745900,9.414745849609375,-0.36322833199203014,-0.2408960837870836,0.023090075947344302
1788861524060753000,9.4247529296875,-0.2479109309852123,-0.36884617187380786,0.07202011107206344
1788861524070760000,9.434760009765625,0.4613935226678848,-1.4063836319833993,0.9309443405672907
1788861524080767000,9.44476708984375,0.6781178727507591,-1.2797794055476783,0.6634042877435684
1788861524090773000,9.45477294921875,1.5545044014394283,-0.9247887405470013,0.016383564046025274
1788861524100780000,9.464780029296875,2.0849849043369293,-0.5468740038156509,-0.625651772454381
1788861524110786800,9.474786865234375,2.2104601267427206,-0.693815792620182,-0.533719923210144
1788861524120793900,9.4847939453125,0.7560176895111799,-0.18048107031285762,-0.47181876283138985
1788861524130801000,9.49480078125,-0.38099253674149514,-0.4270888097450137,0.17363310411423444
1788861524140807000,9.504806884765625,-0.3713613695651293,-0.7815487288698554,0.33999884757399557
1788861524150813700,9.514813720703126,0.7547329103976488,-0.9654717563301324,-0.20651625980138777
1788861524160821000,9.524821044921875,0.8433815001875161,-1.1227817944139242,-0.15177432352751494
1788861524170827800,9.534827880859375,3.0094997963786123,-0.1004451183065772,-1.6854948801353573
1788861524180833800,9.544833740234376,1.6304244425594805,0.5721995837301016,-1.850608285446465
1788861524190840800,9.5548408203125,1.3322785313308239,0.9014309535741806,-1.376293906407058
1788861524200848000,9.564847900390625,2.312174534332752,0.7587985524013638,-1.3292574299439788
1788861524210855000,9.57485498046875,2.355644258224964,0.6621452275931835,-1.298086923393607
1788861524220861000,9.58486083984375,3.498599656617641,-0.26565233938097954,-1.4108201531261204
1788861524230868000,9.594867919921874,3.3996032758146524,-0.13859014004468917,-1.611520127864182
1788861524240875000,9.604875,2.339187628942728,0.5751467430979013,-2.1629604166820644
1788861524250881800,9.6148818359375,1.654150186061859,1.2967474914833903,-2.4610443685904144
1788861524260889000,9.62488916015625,1.664497392553091,1.258854983201623,-2.4625427904546258
1788861524270895000,9.63489501953125,2.8717689035117626,1.8611615359038114,-2.1765207400009037
1788861524280902000,9.64490185546875,2.778879022890329,1.9531687884718179,-2.074133255454898
1788861524290909000,9.654908935546874,2.4533581980019807,1.836999154549837,-2.106834040312469
1788861524300916000,9.664916015625,2.68517899492979,1.8184259715050457,-2.1919573785856366
1788861524310922000,9.674921875,2.6504712541639806,1.8770435801684855,-2.2379677268713714
1788861524320929000,9.684928955078124,3.1002772148907183,2.463156538438797,-1.9531474534228443
1788861524330936000,9.69493603515625,3.394596845829487,2.4040873866155743,-1.053090710811317
1788861524340942800,9.70494287109375,3.861827404087782,2.400503390648961,-0.7068620289370418
1788861524350949000,9.71494921875,3.985101901578903,2.218991808244586,-0.7215610008969903
1788861524360956000,9.724955810546875,3.902174612045288,2.391689385074377,-0.7648284802153706
1788861524370963000,9.734962890625,3.5250504411697388,1.5130916100770233,-0.878693928848207
1788861524380970000,9.744969970703124,3.3226901320040225,1.2531091330260038,-0.9263432765126228
1788861524390976000,9.75497607421875,2.813261184963584,1.0662804472520946,-1.078499292834103
1788861524400982800,9.764982666015625,2.216570718577504,0.8471884912550449,-0.931607772912085
1788861524410990000,9.774989990234374,2.1095745711922644,1.0504805283129215,-0.9359823347344994
1788861524420996900,9.784996826171875,2.0610884804427623,0.393809055955708,-1.2691603963777423
1788861524431004200,9.795004150390625,0.7878934217214584,0.19881401486098765,-1.2959642321512101
1788861524441010000,9.805010009765626,-0.02065115836262703,0.05779986253976822,-0.6986436511680484
1788861524451017000,9.815016845703125,-0.3200549606978893,-0.06456628793478011,-0.08998977526575326
1788861524461024000,9.82502392578125,-0.44582302857041356,0.13744798427224159,-0.06124357325285673
1788861524471031000,9.835031005859374,0.11919044304788112,-0.5101286197423934,0.27094460057020187
1788861524481036800,9.845036865234375,0.3680839553296566,-1.0924801796525716,0.5176061160162091
1788861524491044000,9.855044189453125,0.4109042754024267,-1.8143980311632155,0.8155185107499361
1788861524501051000,9.86505078125,0.019044307687878608,-2.4062001409858462,0.5627715379104018
1788861524511058000,9.875057861328125,-0.13837445146739483,-2.212337611052394,0.6012874387875199
1788861524521064000,9.88506396484375,-0.2896954782694578,-2.635699216967821,0.5320706946983933
1788861524531071000,9.895071044921876,-0.14432956047952175,-2.464007017788291,1.0255164751872419
1788861524541077800,9.905077880859375,-0.2966495351910591,-2.328606613695621,1.4348545241862534
1788861524551085000,9.9150849609375,-0.4853045596092939,-2.276599363082647,1.813033464811742
1788861524561091800,9.925091796875,-0.6585217763990163,-2.111352686780691,1.8571970161870122
1788861524571097900,9.935097900390625,-1.4833148959726095,-1.7131822207450866,1.3088216678977012
1788861524581105000,9.94510498046875,-2.0562258428424594,-1.378974231532216,1.0028376103892922
1788861524591112000,9.95511181640625,-2.335246197840571,-1.0855798987448215,0.8449965341687202
1788861524601119000,9.965118896484375,-2.4806921951293943,-1.0033867687046527,0.7619953026160597
1788861524611125000,9.975125,-2.610935947111249,-0.9029062868237495,0.7987906633108853
1788861524621131800,9.9851318359375,-2.3513930305212734,-1.5486159279227256,1.3738707709133624
1788861524631139000,9.99513916015625,-2.4513737461864946,-1.924924690762162,1.601775271180272
1788861524641145900,10.005145751953124,-2.956819176548719,-2.346658987736702,1.6666691836342216
1788861524651152000,10.01515185546875,-3.3629297879338265,-2.6965309945493936,1.6401169845342636
1788861524661159000,10.025158935546875,-3.390112393891811,-2.6792402525305747,1.6440949482545255
1788861524671166000,10.035166015625,-3.468379290398955,-2.606069802379608,1.2669777916416525
1788861524681172700,10.0451728515625,-3.2299820376902817,-2.2406898453116417,1.1293737400248647
1788861524691179000,10.055178955078125,-3.0289570687815544,-1.8371172279715537,1.1140879080876707
1788861524701186000,10.06518603515625,-2.9566636937260626,-1.4022802883177994,1.0328002024546266
1788861524711192800,10.07519287109375,-2.887823966255784,-1.4539713125884532,1.0076879730299115
1788861524721199900,10.085199951171875,-3.053260612171888,-1.056091353932023,1.2224223183393477
1788861524731207000,10.09520703125,-2.6011878755569455,-1.1066314546018838,1.2763275115281343
1788861524741213000,10.105212890625,-1.8368337348550556,-1.1564724670916795,1.2684379273220896
1788861524751220000,10.115219970703125,-1.1185860962897538,-1.0852660104900598,1.178355505336821
1788861524761227000,10.12522705078125,-1.0440729993581772,-1.1688695918500422,1.103063532987237
1788861524771233000,10.13523291015625,-1.0669301433324814,-0.6046732818335294,1.0759490238294005
1788861524781239300,10.1452392578125,-1.3322212481856346,-0.6988748295754194,1.198305821953714
1788861524791246000,10.15524609375,-0.7882529026836156,-0.896765884372592,0.8731319108068942
1788861524801253000,10.165253173828125,-0.13176467793881894,-1.1177817941695452,0.46818391346037386
1788861524811260200,10.17526025390625,-0.06937573404312133,-1.2059236034810543,0.38881460866928097
1788861524821266200,10.18526611328125,0.7487415610283613,-1.422788823339343,-0.000005845218896865844
1788861524831273000,10.19527294921875,0.27771804022789,-1.283237729308009,0.3164677498608827
1788861524841280300,10.2052802734375,-0.5661918677479029,-1.1130845762640238,1.236519232752919
1788861524851287000,10.215287109375,-0.6661527096688747,-0.8210346438229084,2.056221458928287
1788861524861293000,10.22529296875,-0.5970961245775223,-0.9353431600481271,1.9664108396217226
1788861524871300000,10.235300048828124,-0.6386287429273129,-0.06582359451949596,2.6393705989569423
1788861524881307100,10.24530712890625,-0.7591045496106147,-0.22069383823573588,2.342356029845774
1788861524891314200,10.255314208984375,-0.8090911080509424,-0.6550643294215202,1.706976351842284
1788861524901321200,10.2653212890625,-0.6809411134779453,-1.0718278522461653,0.6470291992649435
1788861524911327200,10.2753271484375,-0.5779045173734426,-1.2083809335052966,0.6061667352616786
1788861524921334300,10.285334228515625,0.35942309449017046,-0.7083452532321214,-1.6139549537956714
1788861524931341000,10.295341064453124,0.6771358759760856,0.17782032667100428,-1.658620609474182
1788861524941348000,10.30534814453125,0.4750234040915966,1.0586153194516896,-0.5516580232217908
1788861524951354400,10.315354248046875,0.24707214207351205,1.3174813596934078,0.3742760879680514
1788861524961361200,10.325361083984374,0.3615110066801309,1.183342353838682,0.38996407096534963
1788861524971368200,10.3353681640625,0.25512919180095195,0.056199441605806345,-0.0079646952688694
1788861524981375200,10.345375244140625,1.2212164496809244,-0.301791574254632,-0.579677372264862
1788861524991381200,10.35538134765625,1.4200216967135666,-0.4048571041926741,-0.9318000806137919
1788861525001388000,10.365387939453125,1.0117033461511133,-0.33783056362420316,-0.8031444746062159
1788861525011395300,10.375395263671875,1.1269757389724253,-0.49271191325634717,-0.7689157495290041
1788861525021402000,10.385402099609376,0.5060813901782035,-0.5515229986652732,0.4916843237742781
1788861525031408000,10.395408203125,0.46605800734758374,-0.974946856161952,0.9955413159012794
1788861525041415200,10.405415283203125,0.3806944305777549,-1.1685974969103932,1.1238839104369283
1788861525051422200,10.415422119140626,1.1058183846533298,-0.8394263328209519,0.8836369382083415
1788861525061429200,10.42542919921875,1.2140695005357265,-0.9867188347592949,0.9583449731901288
1788861525071435300,10.435435302734374,2.2976398130238054,-0.10002338576316833,0.18573270723074672
1788861525081442000,10.445442138671876,1.0273492435723544,-0.25992753199338914,0.18209727333784104
1788861525091449300,10.455449462890625,0.5316588990271092,-0.48526685794740915,-0.26983459350168704
1788861525101456100,10.4654560546875,0.9447983861356973,-0.48629590873420236,-1.2515619035840033
1788861525111463200,10.475463134765626,1.0190537089139222,-0.6229463128879666,-1.1926765838950872
1788861525121469200,10.48546923828125,1.423051858189702,0.4812365795180201,-2.381487724533677
1788861525131476200,10.495476318359374,2.505684013044834,0.34874446408748627,-2.2122075549319384
1788861525141483000,10.50548291015625,3.538199845600128,0.10084317771345376,-2.0349720424115656
1788861525151490300,10.515490234375,3.5165777963787317,0.1918839233368635,-2.0005089240565894
1788861525161496000,10.52549609375,3.5348405983000992,0.14387451018840075,-1.9912606187179684
1788861525171503000,10.535503173828126,2.433308512663841,0.6503197652429342,-2.507655313117802
1788861525181510100,10.54551025390625,2.5015730705946684,0.8786161874368786,-2.1211209243401883
1788861525191517200,10.55551708984375,2.8149001843422647,0.8818816189736127,-2.319066339673102
1788861525201523200,10.565523193359375,3.102656803503632,0.9945067121565342,-2.971592382788658
1788861525211530200,10.5755302734375,3.080724957680702,1.012168625575304,-3.013198943157494
1788861525221537000,10.585537109375,1.9396236627221106,1.5533105154797433,-2.6814874469354746
1788861525231544300,10.59554443359375,2.093529445320368,2.063821704798937,-2.4934277580618858
1788861525241550000,10.605550048828125,3.0670588358998296,2.6789351321041583,-2.054104028382897
1788861525251557000,10.61555712890625,3.4776427933067082,3.232274824802577,-1.3712854305952786
1788861525261564200,10.625564208984375,3.4184377401441335,3.361089713025093,-1.4061498232275247
1788861525271571200,10.6355712890625,3.2935201516211032,3.552095976744592,-1.2893205563530326
1788861525281577200,10.6455771484375,3.0841970177054403,2.9933488720446824,-1.4619742940410971
1788861525291584300,10.655584228515625,2.9935820962786672,2.0440008597806094,-1.6140300648584962
1788861525301591000,10.665591064453125,2.6597031928896904,1.027086793243885,-1.7821987660869956
1788861525311598300,10.675598388671874,2.5737200229167936,1.2103119015678763,-1.7868784483358262
1788861525321604400,10.685604248046875,1.5530021801829337,-0.12992343398630618,-2.2201915394231677
1788861525331611100,10.695611083984375,1.7447697836637497,-0.3071788202509284,-1.860964552026987
1788861525341618200,10.7056181640625,2.4526743073910473,-0.24774931068271397,-1.3685197652742265
1788861525351625200,10.715625244140625,2.356013676059246,-0.05472206252962351,-0.9355120868742466
1788861525361632000,10.725632080078125,2.242443995502591,0.15734277130961416,-0.9021604368925094
1788861525371638300,10.73563818359375,1.4272639229267834,-0.30357027436494827,-0.47565790260285135
1788861525381645300,10.745645263671875,1.0749778407096862,-0.5865162783741951,-0.5508659960612654
1788861525391652000,10.755652099609375,0.31088848842382427,-0.9664169282257556,-0.4065092553138733
1788861525401659100,10.7656591796875,-0.2627203775823116,-1.365287066963315,-0.0000672200173139572
1788861525411665200,10.7756650390625,-0.40159167265594004,-1.162204873263836,0.05346767855435609
1788861525421672200,10.785672119140624,0.2761275561660528,-1.2174772631525992,0.9935451736479997
1788861525431679200,10.79567919921875,0.3226742032855749,-1.0414555103361607,1.3044158341541885
1788861525441686300,10.805686279296875,0.18144377786517144,-1.1301496928334236,1.6541045933544636
1788861525451692000,10.815692138671874,0.05048690917789936,-1.389796654319763,2.016690243528783
1788861525461699300,10.82569921875,-0.1217225918740034,-1.193855564546585,2.096533303311467
1788861525471706000,10.8357060546875,-1.1488538087815046,-1.9911609577357767,1.9653516859576106
1788861525481713400,10.84571337890625,-1.9101462238252163,-2.18241125934422,1.3280810796409845
1788861525491719200,10.85571923828125,-2.2371838830173014,-2.3913626373380423,0.8218842463895678
1788861525501726200,10.865726318359375,-2.7187475025326013,-2.6677783627957106,0.7818085488498211
1788861525511733200,10.875733154296874,-2.8757839843720197,-2.5361270821034907,0.8349597088009119
1788861525521740300,10.885740234375,-3.6338515921503305,-3.6077749016076326,2.079820653441548
1788861525531746000,10.89574609375,-3.5016935309797526,-3.8367642745018005,2.820600734071433
1788861525541753300,10.90575341796875,-3.450518639537692,-3.6014170570135113,3.4463919149965045
1788861525551760100,10.915760009765625,-3.518152498349547,-2.9434014765709637,3.7723777270480987
1788861525561767200,10.92576708984375,-3.4073610503345724,-2.1341683297008274,3.5932968789219855
1788861525571773200,10.935773193359376,-3.1274025377035137,-1.4553016844093798,3.013361147981882
1788861525581780200,10.9457802734375,-2.650911691407859,-0.9611790275722741,2.062415345132351
1788861525591787000,10.955787109375,-2.002893481105566,-0.9086883773565292,1.2261305252075194
1788861525601794300,10.965794189453124,-1.8996815284341573,-1.1524755064100027,0.8133417512327432
1788861525611800300,10.97580029296875,-1.8994728541195391,-1.3405045078843831,0.6723977415382861
1788861525621807000,10.98580712890625,-1.8633464787274598,-1.50239310593009,0.7272898999378085
1788861525631814100,10.995814208984376,-1.9218150343090294,-1.4124667512893676,0.7537669879749417
1788861525641821200,11.0058212890625,-1.9444658420562744,-1.1740770973652601,0.8700845059350133
1788861525651827200,11.0158271484375,-1.8723270730406045,-1.2399386858075856,0.8220438208654522
1788861525661834200,11.025834228515626,-2.510710316774249,-0.9186696731448173,1.7616908155873416
1788861525671841000,11.035841064453125,-2.233551079472899,-0.9134954853773116,1.8736022075429557
1788861525681848300,11.045848388671875,-1.5204448954492806,-0.9476771564424037,1.4756810400933027
1788861525691854300,11.055854248046876,-0.9618214171290397,-1.1568763717174528,0.7928376001253724
1788861525701861000,11.065861083984375,0.0022147534400224684,-1.4053981280773877,0.03410217608809471
1788861525711868200,11.0758681640625,0.9462234505027532,-1.4869015222877262,-0.45496495092511174
1788861525721875200,11.085875244140626,1.2340952204763889,-1.2837608763992785,-0.40135961746573445
1788861525731881200,11.095881103515625,0.7555886504441499,-0.937288448897004,0.49928310834020373
1788861525741888300,11.10588818359375,0.5399503420323133,-0.7602934671342373,1.811625936101377
1788861525751895300,11.115895263671876,0.6478887387037277,-0.5935141744375229,2.9094796254858375
1788861525761903000,11.125903076171875,-0.05683657046556472,-0.4100204783052206,3.2668612772762775
1788861525771909000,11.1359091796875,-1.5562702420681713,-0.4225456133574247,2.931848693682253
1788861525781916200,11.145916259765626,-2.454190557172894,-0.7409627437204123,2.434127427831292
1788861525791923000,11.1559228515625,-2.196066859731078,-1.1645306858628988,1.948619746865332
1788861525801930200,11.16593017578125,-1.34968617772758,-1.4185411027669905,1.3111606322392821
1788861525811937000,11.17593701171875,-0.16992518950700758,-1.6675258004635571,0.4957730543926358
1788861525821943000,11.185943115234375,0.9761158999413251,-1.6878911276221273,-0.27442133677005764
1788861525831950000,11.1959501953125,1.4726000252127647,-1.205905483302474,-0.4932616560935974
1788861525841957000,11.20595703125,1.6284908441483974,-0.5752566332131623,-0.16490005482137202
1788861525851964000,11.2159638671875,1.6637275772243738,-0.1400000068426132,0.28736937340945
1788861525861970200,11.22597021484375,1.7884440902173517,-0.2880214075773954,0.3061056380614638
1788861525871977200,11.235977294921875,1.3333423611700534,-0.30975334691405293,-0.036814357656240464
1788861525881984000,11.24598388671875,0.9776537770330905,-0.3587812894552946,-0.4928571669459343
1788861525891991000,11.255990966796874,0.5668617298334837,-0.16248539489507674,-0.6078568803057074
1788861525901997000,11.2659970703125,0.6733610336124897,-0.3163391550451517,-0.5927873214676976
1788861525912004000,11.276004150390625,0.07786825257837772,0.11341185964643954,-0.3584983808606863
1788861525922011100,11.28601123046875,0.9237368934065103,0.1622232368275523,-0.3359539560973644
1788861525932018000,11.296017822265625,1.8044798637390136,0.24708470929414034,-0.2371034135058522
1788861525942024000,11.30602392578125,2.5357810451447964,0.22102993832230566,0.04768675706535577
1788861525952031200,11.31603125,2.31450911476016,0.17784253850281237,0.6848530262246727
1788861525962038000,11.3260380859375,0.7676134347587823,0.07258709730505943,1.4668284560739993
1788861525972045000,11.336045166015625,-0.2661228795021772,-0.3059218059271574,1.6146297843173145
1788861525982051000,11.346051025390626,0.03299216901957989,-0.8441752809137105,0.8081286927595734
1788861525992058000,11.35605810546875,1.3169295710295439,-1.1434475658237933,-0.2734159591197967
1788861526002065200,11.366065185546875,2.6918442980378865,-0.9633119479477404,-1.3556722663998604
1788861526012072200,11.376072265625,2.9404385351121425,-0.4254834203749895,-1.9961013367474079
1788861526022078000,11.386077880859375,2.3504490276694296,-0.013172493045032024,-2.0087389922633765
1788861526032085200,11.396085205078125,2.6146704574644564,0.057715691387653346,-2.025495481275022
1788861526042092000,11.406092041015626,3.409578141862154,0.0839621855393052,-2.3403075728833675
1788861526052099000,11.41609912109375,3.612394962623715,0.1931625649705529,-2.617113758963346
1788861526062105000,11.42610498046875,3.1332185305058955,0.40007410769984125,-2.507476449419558
1788861526072112000,11.436112060546876,2.9256325956463813,0.8068009512871503,-2.520157944077253
1788861526082119000,11.446118896484375,2.8868752872288224,1.1685549729429185,-2.829667837624252
1788861526092126200,11.456126220703124,3.104681002807617,1.42644062384516,-2.745490255768597
1788861526102132000,11.466132080078125,3.7024183478981256,1.6988262170039117,-2.5740613837003705
1788861526112139000,11.476138916015625,3.7203462187767027,1.8268289120607077,-2.8974609786510466
1788861526122146000,11.48614599609375,3.4652632042050358,1.7586814046382904,-2.9387001670122146
1788861526132153000,11.496153076171876,3.2263673543244598,1.512316826312244,-2.5497066946446894
1788861526142159000,11.5061591796875,3.137842098653316,1.499742591421306,-2.3411051530018447
1788861526152166100,11.516166259765624,3.0780513545572754,1.6136559708490967,-2.4055861007407304
1788861526162173000,11.5261728515625,3.1953824334740637,2.3405378745079037,-2.2237825496524573
1788861526172180200,11.53618017578125,3.1026731701165438,2.68794875190407,-1.6937448220863938
1788861526182186200,11.546186279296874,3.5425709002912043,2.5049887242570517,-1.119359711010754
1788861526192193000,11.556193115234375,3.605651333582401,2.0373612756356594,-0.9911676308616996
1788861526202200000,11.566199951171875,3.5149306136935947,1.605833606660366,-1.0625938676938413
1788861526212207000,11.57620703125,3.288988353410363,1.247076867124438,-1.2114210318535565
1788861526222213000,11.586213134765625,2.4633961924135686,0.960963046734035,-1.3968179312586784
1788861526232220200,11.59622021484375,1.490238557755947,0.6673422117143869,-1.56416187210083
1788861526242227200,11.606227294921876,0.8999690643280744,0.1770651243895292,-1.6106009671926498
1788861526252233000,11.61623291015625,0.937510567215085,-0.44609424672722814,-1.407588916119933
1788861526262240300,11.626240234375,1.0645698439419269,-1.0786699732258915,-1.0315300363883375
1788861526272247000,11.6362470703125,1.241163259166479,-1.636016563478112,-0.6184411104232073
1788861526282254300,11.64625439453125,1.3153618833214045,-2.0635200915038583,-0.35639819371104237
1788861526292260000,11.656260009765624,0.8236825279831885,-2.330910214462876,-0.29749416932165623
1788861526302267100,11.66626708984375,0.5148690922677517,-2.361407059535384,-0.16467179902344942
1788861526312274200,11.676274169921875,0.6837041484504938,-2.246252740135789,0.25623890660852194
1788861526322281200,11.68628125,0.828224847587943,-2.1835516615509984,0.766263773715496
1788861526332287000,11.696286865234375,0.6995072822600603,-2.1573931379437443,1.08613256419152
1788861526342294300,11.706294189453125,0.3267465672910213,-2.096287804117799,1.1760416754364966
1788861526352301000,11.716301025390624,-0.3973509663462639,-1.9133558335214853,1.1956360182225703
1788861526362308000,11.72630810546875,-0.5842337203949689,-1.7229302922993897,1.2471969863727688
1788861526372314000,11.736314208984375,-2.4474989505797624,-1.2362217111110687,1.4130337375223636
1788861526382321200,11.746321044921874,-3.3839573783934114,-1.307192020869255,1.744714838606119
1788861526392328000,11.756327880859375,-3.9175153890401124,-1.9443337401092051,2.355170503233373
1788861526402335200,11.766335205078125,-4.074752361887693,-1.7978426176816225,2.440553953747451
1788861526412341000,11.776341064453124,-4.1918040393412115,-3.6913100939065218,3.5300951573386787
1788861526422348000,11.78634814453125,-4.58280475987792,-4.085429238724708,3.22762553769201
1788861526432355000,11.79635498046875,-4.533739992457628,-3.9260657752424475,2.5149580373466014
1788861526442362000,11.806362060546874,-4.0878199332535265,-3.449486958402395,1.9084426347777246
1788861526452368100,11.8163681640625,-3.734164900770783,-3.0303304029613733,1.6645742571815847
1788861526462375200,11.826375244140625,-3.125407564494014,-2.678507262080908,1.6546745021969078
1788861526472382000,11.8363818359375,-2.2138860095381734,-2.2233044107466933,1.7649387114673851
1788861526482389200,11.84638916015625,-1.5586410628527403,-1.5843232011198995,1.900189477956295
1788861526492395300,11.856395263671875,-1.3896855951607225,-0.8745984762281179,1.920087187603116
1788861526502402000,11.866402099609376,-1.508767317137122,-0.3603501462072134,1.883790424080193
1788861526512409000,11.8764091796875,-1.65153737321496,-0.20347499240934847,1.8232661050125956
1788861526522416000,11.886416015625,-1.753493188345432,-0.20244331127405166,1.7285121840849518
1788861526532422100,11.896422119140626,-1.8413263700991869,-0.2536971131712198,1.5807409587189554
1788861526542429200,11.90642919921875,-1.5747095696002245,-0.4271259268850088,1.5149685098648071
1788861526552436200,11.916436279296875,-1.5279893194794654,-0.6415630428135395,1.2905620808467269
1788861526562443000,11.926443115234376,-1.635483479514718,-0.8242325630813837,0.9902569457575678
1788861526572449300,11.93644921875,-1.5492442889541387,-1.1468266868680714,0.7930848528847098
1788861526582456000,11.9464560546875,-1.3926070355653761,-1.4278870232611893,0.5859963461533189
1788861526592463000,11.956463134765626,-1.1945423777669668,-1.5451543892920017,0.4463140269577503
1788861526602470100,11.96647021484375,-0.8912357227742671,-1.6213035629928112,0.5493810182005167
1788861526612476200,11.97647607421875,-0.36306232777535913,-1.5252321297258138,0.7778674100086093
1788861526622483000,11.98648291015625,0.5319178422242403,-1.27644733851552,1.1634984202057121
1788861526632490200,11.996490234375,1.3702508268505333,-0.9706500357508658,1.4978542934566734
1788861526642497000,12.0064970703125,1.8116098617494105,-0.5029220493644475,1.68937815130949
1788861526652503000,12.0165029296875,1.8868056802481412,-0.6258265444993972,1.5877239494740962
1788861526662510000,12.026510009765625,0.552784104642272,0.565523759227991,1.8365826827034353
1788861526672517000,12.03651708984375,-1.1107429815739394,0.6670259853720665,1.731503182594478
1788861526682524200,12.046524169921875,-1.8218699744790792,0.24726912595033645,1.660741254889965
1788861526692530200,12.0565302734375,-1.874101681497693,-0.34453532195985315,1.4359659925594925
1788861526702537000,12.066536865234376,-2.221169736805558,-0.726753601104021,1.058465389586985
1788861526712544300,12.076544189453125,-2.0881980211645366,-0.9951046780496835,0.5052423090055584
1788861526722550300,12.08655029296875,-0.7019166814893484,-1.2895149098813532,0.03888970262557268
1788861526732557000,12.09655712890625,0.9827736042648553,-1.574367039772868,-0.16370938373208044
1788861526742564000,12.106564208984375,1.8753478821665048,-1.6707891861736774,-0.045778877617418764
1788861526752571100,12.116571044921875,1.429019826683402,-1.5037345836669205,0.2766296604692936
1788861526762577200,12.1265771484375,0.59555240226686,-1.2682324678778647,0.2792173388749361
1788861526772584000,12.136583984375,0.4298544750660658,-1.0792875206023453,-0.046935938698053355
1788861526782591000,12.146591064453125,0.5102104528069495,-0.9136381087183951,-0.19946546450704336
1788861526792598000,12.156597900390626,0.8246224391818046,-0.9135966076642275,-0.12513590744882822
1788861526802604000,12.16660400390625,1.1710790845930577,-0.8268240408793092,0.10487813231796025
1788861526812610800,12.17661083984375,1.2134890702992678,-0.5812494438871741,0.3833268249079585
1788861526822618000,12.1866181640625,1.2344003409028053,-0.20022738879024982,0.49207390761375425
1788861526832625000,12.196625,1.2493535798847675,0.30078210495114327,0.5338327359348535
1788861526842631000,12.206630859375,0.9136796097725629,0.5794564229905605,0.7111857373550534
1788861526852638000,12.216637939453125,0.7869073332935571,0.356999374474585,0.8046408506438135
1788861526862645000,12.22664501953125,0.8999071050077676,0.1847851972475648,0.8896180584445595
1788861526872652000,12.236652099609374,2.031804518291354,-0.4777130815669894,-0.2898547604843974
1788861526882658000,12.246657958984375,2.60619605910778,-0.5992436580002307,-1.131997074265778
1788861526892664800,12.256664794921875,2.699175956100225,-0.6537170064657927,-1.7028075417250395
1788861526902672100,12.266672119140624,2.778237802377343,-0.8033882202342152,-1.6298022190079091
1788861526912678000,12.276677978515625,2.545889766705036,-0.39821079804599285,-3.119426151996851
1788861526922685000,12.286684814453125,1.8227946881085633,-0.4200780542001128,-3.5685406233280896
1788861526932692000,12.29669189453125,1.8242624225735664,-0.3660015960976481,-3.1369501182496546
1788861526942699000,12.306698974609375,3.577171089029312,-0.029624738413095472,-2.503554307539761
1788861526952705000,12.316705078125,4.4526995395839215,0.5473790307283402,-2.3629329539284107
1788861526962712000,12.326712158203126,3.585291267120838,1.0888481067605316,-2.348568328489363
1788861526972718800,12.33671875,3.2084359763145445,1.55573189740777,-2.0248302953645587
1788861526982726000,12.346725830078125,3.200549606978893,1.4655309636093676,-1.8825939077720044
1788861526992732200,12.356732177734376,3.028821751964092,1.1787500576123595,-2.142028103290498
1788861527002739000,12.366739013671875,2.942860793823004,1.5869877441540359,-2.3269848577126857
1788861527012746000,12.37674609375,2.91718625434041,2.191431162754446,-2.5417396612882612
1788861527022753000,12.3867529296875,3.264771026998758,2.670876621071994,-2.4796122909381983
1788861527032759000,12.396759033203125,3.4468729765117168,2.7446085044980046,-2.0939792349144817
1788861527042766000,12.40676611328125,3.65091670871973,2.581985454697907,-1.7527853323370217
1788861527052773000,12.416773193359376,3.6263738036155697,2.454131228201091,-1.7136968922689555
1788861527062780000,12.42677978515625,3.559596853893995,2.2075880784377455,-1.6048080630049109
1788861527072786200,12.4367861328125,3.705037590485811,1.8033502751871942,-1.379962658047676
1788861527082793000,12.44679296875,3.4085458762049674,1.5202341753080486,-1.4096192529037594
1788861527092800000,12.456800048828125,3.2574691795527935,1.2708406045496463,-1.4049141439527273
1788861527102806000,12.466805908203124,3.14755217628479,1.057473163679242,-1.0645327268019318
1788861527112813000,12.47681298828125,2.781037662228942,0.8894260430037975,-0.6494947125956416
1788861527122819800,12.48681982421875,2.1045365770250557,0.7028542546004056,-0.5298752304807305
1788861527132827100,12.4968271484375,1.5548621288359163,0.4263903060868382,-0.6396911114618182
1788861527142833000,12.5068330078125,1.2702128280401228,0.0628635756701231,-0.6219318751484155
1788861527152840000,12.51683984375,1.1289099219053984,0.29983108783662316,-0.6123007079720497
1788861527162847000,12.526846923828124,1.159227903279662,-0.8817851728618145,-0.2744093540713191
1788861527172854000,12.53685400390625,1.0020780241936444,-0.639202743422985,-0.24635434919297694
1788861527182859800,12.54685986328125,0.5341255814015865,-1.8323101199507712,-0.2296159803599119
1788861527192867000,12.5568671875,0.12241700387895106,-2.1875053676128386,-0.07415799988359212
1788861527202873900,12.566873779296875,-0.14749357746839523,-2.514039168936014,0.29404198304116724
1788861527212880000,12.5768798828125,-0.32040976548492905,-2.8634020571827885,0.7751327243477105
1788861527222887000,12.586886962890626,-0.512367338579893,-2.6502602417618033,0.8056503199473023
1788861527232894000,12.59689404296875,-1.136340948688984,-3.2766724771946665,1.2542442745357751
1788861527242901000,12.60690087890625,-1.612866574037075,-3.136039433145523,1.3671660125777125
1788861527252907000,12.616906982421876,-2.189541257354617,-2.7423627713978287,1.3299477502956987
