time,seconds_elapsed,z,y,x
1788861514674451000,0.038450927734375,8.22961929397583,2.876633294677734,-2.971204260253906
1788861514684456700,0.048456787109375,9.082703273010253,2.6108769104003904,-3.0283658248901366
1788861514694463700,0.058463623046875,9.176675688171386,2.6159645889282226,-2.7539304595947263
1788861514704470800,0.068470703125,9.353397698211669,2.7494413314819335,-2.4405893173217774
1788861514714476800,0.078476806640625,9.447669388580321,2.753032633972168,-2.417096213531494
1788861514724483800,0.08848388671875,9.291447730255127,2.8131869506835936,-2.5086744270324703
1788861514734491000,0.098490966796875,9.24984847640991,2.684049698638916,-2.666691736602783
1788861514744497000,0.108496826171875,8.783876978302002,2.5170541328430174,-2.851793452453613
1788861514754504200,0.118504150390625,8.796596174621582,2.615665313720703,-3.0729578308105467
1788861514764510500,0.128510498046875,9.03377177658081,2.5947160491943357,-3.087472678375244
1788861514774517200,0.138517333984375,9.153781134796143,2.3789386245727537,-2.985868745422363
1788861514784524300,0.148524169921875,10.3552214553833,2.3075614875793455,-3.149871559143066
1788861514794530300,0.1585302734375,11.12690257797241,2.6485855865478514,-2.623296831512451
1788861514804537300,0.168537353515625,10.490044936370849,2.9504046333312988,-1.804779138946533
1788861514814544100,0.178544189453125,10.209624066925048,2.924666965484619,-1.4493898300170898
1788861514824550400,0.18855029296875,10.308534523010254,3.003974895477295,-1.5798738204956053
1788861514834557200,0.19855712890625,10.440065976715088,3.2984616996765133,-1.9533692794799804
1788861514844563200,0.208563232421875,10.210072979736328,3.3873464363098145,-2.7061960639953613
1788861514854570500,0.218570556640625,10.381258398437499,3.5309985359191893,-3.5826235092163086
1788861514864577300,0.228577392578125,11.237784042358397,3.778199857330322,-4.597914650726318
1788861514874583300,0.238583251953125,11.894543485260009,3.693804248809814,-4.888211602020263
1788861514884590300,0.24859033203125,11.777077966308592,3.039439007568359,-4.067598983001709
1788861514894597400,0.258597412109375,11.280430759429931,2.268356435394287,-3.0265701736450192
1788861514904603100,0.26860302734375,11.097124694824219,2.0834043571472165,-2.2800281684875485
1788861514914610400,0.2786103515625,10.841543667602538,2.0169652610778805,-1.9378069686889647
1788861514924617200,0.2886171875,10.229974781036375,1.8531120849609375,-1.8504186080932616
1788861514934623200,0.298623291015625,9.787646024322509,1.7770961822509765,-1.7781436454772948
1788861514944630300,0.30863037109375,9.832537305450439,1.9904794052124022,-2.046294231414795
1788861514954636300,0.31863623046875,9.860818812561035,2.6261399459838866,-2.8568811309814452
1788861514964643300,0.328643310546875,9.152434396362304,3.27511823348999,-3.1592987281799316
1788861514974650400,0.338650390625,8.403947102355957,3.5166333259582516,-2.9768904891967773
1788861514984656400,0.348656494140625,8.253262035369872,3.469048567962646,-2.7308862686157225
1788861514994663200,0.3586630859375,8.489390174102782,2.965667668914795,-1.8174983352661132
1788861515004670500,0.36867041015625,8.635885388183594,2.2985832313537595,-0.8173205917358398
1788861515014676200,0.37867626953125,9.07866305770874,1.8281226051330566,-0.23523031311035156
1788861515024683300,0.388683349609375,9.62065045852661,1.7509096015930175,-0.10175357055664062
1788861515034690300,0.398690185546875,9.897928938293456,2.198924587249756,-0.4400841926574707
1788861515044696300,0.4086962890625,10.026318002319336,2.5088240646362303,-1.4068927505493163
1788861515054703400,0.418703369140625,10.01719010848999,2.435501638793945,-1.8273744171142576
1788861515064710400,0.42871044921875,9.554211362457275,2.3701100059509277,-1.6980875274658203
1788861515074716400,0.43871630859375,9.117119921875,2.724451851654053,-1.57044665145874
1788861515084723200,0.44872314453125,8.57962164916992,3.3221044410705565,-1.6717513092041014
1788861515094729500,0.4587294921875,8.014889332580566,3.7409400939941406,-1.6683096443176268
1788861515104736300,0.468736328125,7.620743884277343,3.8434418525695797,-1.2835913650512694
1788861515114743300,0.478743408203125,7.725490206909179,3.7071219955444334,-0.8756792572021483
1788861515124749300,0.488749267578125,8.367884439849853,3.5098996337890624,-0.7148188331604004
1788861515134756400,0.49875634765625,8.795099798583983,3.3955765045166015,-0.49200844116210934
1788861515144763100,0.50876318359375,8.741679174041748,3.034052053833008,0.14155717315673827
1788861515154769400,0.518769287109375,8.742876274871826,2.653373989868164,0.5358522590637207
1788861515164776400,0.5287763671875,8.306981935119628,2.896984008789062,0.37394437179565426
1788861515174783200,0.538783203125,7.953089002227783,3.6394857986450195,-0.3746925598144531
1788861515184789500,0.54878955078125,7.823502837371826,4.061014928436279,-1.111508120727539
1788861515194796300,0.55879638671875,7.619247508239746,3.754557115936279,-1.1586439659118652
1788861515204803300,0.56880322265625,7.726537670135498,3.0955531089782715,-0.754622435760498
1788861515214809300,0.578809326171875,8.164227661132813,2.7952304382324216,-1.029207438659668
1788861515224816400,0.58881640625,8.628852420806885,2.6822540473937986,-0.8167220413208007
1788861515234823200,0.5988232421875,9.256432530975342,2.3630770385742186,-0.3389291725158691
1788861515244829400,0.608829345703125,9.5507696975708,2.2200234893798827,-0.16864157943725586
1788861515254836200,0.618836181640625,9.50004254989624,2.6656442733764645,-0.49096097793579097
1788861515264842200,0.62884228515625,9.19268691177368,3.484161965942383,-0.33099837951660155
1788861515274849500,0.638849609375,8.652195886993407,3.882796542358398,-0.22086510314941404
1788861515284856300,0.648856201171875,8.42699129333496,3.7695208763122556,-0.4354454269409179
1788861515294862300,0.6588623046875,8.809165733337402,3.669862232208252,-0.6177040283203125
1788861515304869400,0.668869384765625,9.313145182800293,3.6487633300781246,-0.4578910675048828
1788861515314876400,0.67887646484375,10.292224024200438,3.3994670822143553,0.05805939025878906
1788861515324882200,0.688882080078125,11.358691226196289,3.1802479927062985,0.7923311119079589
1788861515334889500,0.698889404296875,11.9518546875,3.0793922477722164,1.5285481224060058
1788861515344896300,0.708896240234375,11.575665751647948,3.2231939849853513,1.8599954147338866
1788861515354902300,0.71890234375,10.516680429840088,3.478625374603271,1.5200187789916992
1788861515364909300,0.728909423828125,9.537302313232422,3.423109823608398,0.9615712417602539
1788861515374916400,0.738916259765625,9.165752143096924,2.7397148872375485,0.6229413444519043
1788861515384922400,0.74892236328125,8.387935878753662,1.432031867980957,0.49814358291625976
1788861515394929400,0.758929443359375,6.623858168029785,1.4472949035644531,0.9304466201782225
1788861515404936200,0.768936279296875,5.912331362152099,2.43250888671875,0.44636897201538084
1788861515414942200,0.778942138671875,6.354510481262206,3.5507506996154783,0.5837362922668456
1788861515424949500,0.788949462890625,7.500435250854491,4.1660605262756345,0.608426496887207
1788861515434955300,0.798955322265625,7.193079612731933,3.8596027137756344,1.2150573425292968
1788861515444962300,0.80896240234375,6.705111386871337,3.205985660552978,1.62147307434082
1788861515454969300,0.81896923828125,6.950367419433594,2.6868928131103513,1.7470190238952636
1788861515464975400,0.828975341796875,8.237101174163818,2.1315876655578614,1.8251298530578612
1788861515474982100,0.838982177734375,9.641599723052979,1.6831237670898436,2.10046304397583
1788861515484989400,0.848989501953125,10.423605840301514,1.5682020874023437,2.619555891418457
1788861515494995500,0.858995361328125,10.875810678863525,1.5893009895324706,3.305793942260742
1788861515505002200,0.869002197265625,10.657339777374267,1.5795745452880858,4.258686203002929
1788861515515009300,0.87900927734375,10.00417163696289,1.3365630767822265,4.716876545715332
1788861515525015300,0.889015380859375,9.496750522613524,1.1412860038757324,5.020491243743896
1788861515535022300,0.899022216796875,8.828768259429932,1.0512041664123535,5.035155728912353
1788861515545029400,0.909029296875,8.022520850372313,1.3187562019348145,4.812195699310302
1788861515555035400,0.919035400390625,7.69960290145874,1.910273649597168,4.7746366607666015
1788861515565042200,0.929042236328125,7.429806301879882,2.5378537597656248,4.91604419631958
1788861515575049500,0.939049560546875,6.763769327545166,2.786102544403076,4.950311207580566
1788861515585055200,0.94905517578125,6.026953766632079,2.776525737762451,4.512471578979492
1788861515595062300,0.959062255859375,5.896320138549805,2.7174188842773437,4.02869320602417
1788861515605069300,0.9690693359375,6.189759479522705,2.61117618560791,4.078073615264892
1788861515615075300,0.979075439453125,6.391171694183349,2.1805191619873048,4.46937594909668
1788861515625082400,0.989082275390625,6.372616631317138,1.7287632362365721,4.6651019348144525
1788861515635089400,0.99908935546875,6.419902114105224,1.4323311431884764,4.9357963600158685
1788861515645095400,1.009095458984375,6.709600514984131,1.3893851509094237,4.849006549835205
1788861515655102200,1.019102294921875,7.323264328002929,1.2116156776428222,4.757129061126709
1788861515665109500,1.029109619140625,8.173205917358398,1.0380360572814942,4.257189826965332
1788861515675115300,1.039115234375,8.349179739379883,1.087266828918457,4.0912417243957515
1788861515685122300,1.049122314453125,7.460482010650634,1.4145242683410644,5.16474189376831
1788861515695129300,1.05912939453125,6.253804373931884,1.8427870903015136,6.603208178710937
1788861515705135400,1.06913525390625,5.151274509429931,1.866130556488037,7.577648254394531
1788861515715142100,1.07914208984375,4.486135360717773,1.4839561164855957,7.89098939666748
1788861515725149400,1.0891494140625,4.2497079467773435,0.8521861534118652,6.5391632843017575
1788861515735155500,1.099155517578125,3.553294538879394,0.4082113830566406,4.270507573699951
1788861515745162200,1.109162353515625,3.4196681587219238,0.2603694305419922,3.0165444541931152
1788861515755168500,1.11916845703125,4.2043677528381345,-0.23343466186523437,4.032284508514404
1788861515765174300,1.12917431640625,4.54569112701416,-1.1378443389892579,6.2666732078552245
1788861515775181600,1.139181640625,3.6924575103759762,-1.4137760803222656,7.762001782226562
1788861515785188400,1.149188232421875,2.5863363433837887,-1.09819037399292,8.58665461654663
1788861515795194400,1.1591943359375,1.4299369415283203,-0.4337994132995605,9.059958357238768
1788861515805201400,1.169201416015625,0.2829647087097168,0.21577742462158203,9.515604860687255
1788861515815208400,1.17920849609375,0.17866729888916014,-0.0522235237121582,10.03664299697876
1788861515825214500,1.18921435546875,0.7528267845153808,-0.7336731712341308,10.907084938049316
1788861515835221500,1.199221435546875,1.0773907470703123,-1.0016741195678711,12.11720423965454
1788861515845228500,1.209228515625,0.4993406837463379,-0.4870704002380371,13.904475778961181
1788861515855234300,1.219234375,-0.7914332862854003,-0.01945288848876953,15.35446415939331
1788861515865241600,1.22924169921875,-1.086518640899658,-0.7740753242492675,16.316933226776122
1788861515875248400,1.239248291015625,-0.8186673301696776,-1.9586065956115721,17.13425381851196
1788861515885254400,1.24925439453125,0.03067570877075195,-2.596511700439453,18.326117332458495
1788861515895261400,1.259261474609375,1.7465701110839842,-2.794332612609863,19.230377371978758
1788861515905268500,1.2692685546875,1.9207482818603514,-2.3343466186523436,18.94232498474121
1788861515915274500,1.2792744140625,1.975366007232666,-1.6632219657897949,17.310975828552245
1788861515925281500,1.289281494140625,1.7745523429870604,-1.0718541557312011,15.698630648040771
1788861515935288300,1.299288330078125,0.8065466842651366,-0.7478887435913085,14.808735818481445
1788861515945294300,1.30929443359375,-0.7704840217590332,-0.47644613037109373,15.310769979095458
1788861515955301600,1.319301513671875,-1.867477294921875,-1.5248071823120117,16.358382843017576
1788861515965308400,1.329308349609375,-1.7823334983825683,-0.8662520881652832,15.113697254943848
1788861515975314400,1.339314453125,-0.6060322952270507,-0.44891281127929683,14.170830713653563
1788861515985321500,1.349321533203125,1.1379939765930176,-1.2811971633911132,12.861501680755614
1788861515995328500,1.35932861328125,-0.6189011291503906,-1.09819037399292,10.83421142501831
1788861516005334300,1.369334228515625,-3.19236863861084,-2.551021868896484,12.466308769226073
1788861516015341600,1.379341552734375,0.3321954803466797,-3.3816602073669433,10.065074141693115
1788861516025348400,1.389348388671875,6.5963248489379875,-4.982932205200195,11.754033775329589
1788861516035354400,1.399354248046875,3.327491394805908,-6.3886278549194335,13.094637067413329
1788861516045361400,1.409361328125,-3.9264907226562498,-0.6694786392211913,8.337208731079102
1788861516055368400,1.419368408203125,-9.443479535675047,2.9966426528930663,7.595455129241943
1788861516065374500,1.42937451171875,-9.07776523208618,1.9889830291748045,8.140884194946288
1788861516075381500,1.439381591796875,-4.386476716613769,-0.47554830474853516,8.538620945739746
1788861516085388500,1.449388427734375,3.606715163421631,-1.1442787559509278,8.571990131378174
1788861516095394300,1.459394287109375,3.900004866790771,2.0816087059020996,7.970147689056396
1788861516105401600,1.469401611328125,-1.6247651016235352,3.05185892868042,5.482422526550293
1788861516115408400,1.479408447265625,-1.9538181922912596,1.2113164024353027,6.027552317047118
1788861516125414400,1.489414306640625,-0.5078700271606446,1.059134959411621,6.93959351196289
1788861516135421400,1.49942138671875,0.13003507766723632,-0.4773439559936523,8.823979856109618
1788861516145428500,1.509428466796875,0.4918588035583496,-1.5695488258361816,9.690082306671142
1788861516155434500,1.5194345703125,0.28476035995483395,-1.5506944877624511,9.581744681549072
1788861516165441500,1.529441650390625,-0.33907881011962887,-1.5556325286865234,8.968380143737793
1788861516175448300,1.5394482421875,-0.598849690246582,-3.1124621582031247,9.38497123260498
1788861516185454300,1.549454345703125,-0.22700024490356444,-4.6255976074218745,10.179097995758056
1788861516195461600,1.559461669921875,0.5511152946472168,-4.229057957458496,8.84253491897583
1788861516205468400,1.569468505859375,0.20470424194335937,-4.480898044586182,7.701697827911376
1788861516215474400,1.579474365234375,0.943614729309082,-4.562749813842773,6.381744525146484
1788861516225481500,1.5894814453125,1.2862848419189452,-3.9175124664306638,5.330091445922851
1788861516235488500,1.599488525390625,1.7420809829711914,-3.5896564765930172,6.262184079742431
1788861516245494300,1.609494384765625,2.0757728393554684,-3.403357659912109,7.6470801025390625
1788861516255501600,1.61950146484375,1.9829975250244138,-3.0787936973571775,7.915230688476562
1788861516265508400,1.62950830078125,1.5210662422180175,-2.794931163024902,8.4145713722229
1788861516275514400,1.639514404296875,0.8674491889953613,-2.129043826293945,8.65069951095581
1788861516285521400,1.649521484375,0.9392752388000488,-1.6186299598693847,8.571391580963134
1788861516295528400,1.659528564453125,1.5186720405578613,-1.8113631935119627,8.962544277191162
1788861516305534500,1.669534423828125,1.6659154426574707,-2.414103461456299,9.401281731414795
1788861516315541500,1.67954150390625,1.3626000198364256,-2.4787469062805174,9.763704007720946
1788861516325548300,1.68954833984375,1.3944728294372557,-2.0005051246643064,10.677241578674316
1788861516335554300,1.69955419921875,2.1547814941406247,-1.8459294799804686,11.352406446838378
1788861516345561600,1.7095615234375,2.958634701538086,-4.329015876770019,12.261005976867676
1788861516355568400,1.719568359375,2.830694550323486,-6.079326927947998,12.303203781127928
1788861516365574400,1.729574462890625,1.960551884460449,-6.041618251800537,11.174337698364257
1788861516375581400,1.73958154296875,0.38666356811523434,-6.2310594581604,9.851990193939208
1788861516385588500,1.74958837890625,-0.5987000526428222,-5.665279678344726,8.634837924957274
1788861516395594200,1.75959423828125,0.07062894897460938,-5.789628527069091,9.080907621765137
1788861516405601500,1.7696015625,1.5304934112548827,-7.46272657470703,9.658808047485351
1788861516415608300,1.7796083984375,1.6493056686401366,-9.121908325195312,8.211513143920898
1788861516425615600,1.78961572265625,1.1541548377990722,-10.384400788116455,7.191583236694336
1788861516435621400,1.799621337890625,1.2594997108459471,-11.092485929107665,8.129811012268066
1788861516445628400,1.80962841796875,1.3168109130859373,-9.60748234939575,10.346392836761474
1788861516455635500,1.819635498046875,1.3000515014648437,-7.845798840332031,11.607837836456298
1788861516465641500,1.829641357421875,1.0435726486206054,-7.121103925323486,11.973103227233887
1788861516475648500,1.8396484375,1.2132616912841796,-6.813598649597168,11.501146224975585
1788861516485655600,1.849655517578125,1.7380407676696776,-6.9436337272644035,11.291952854919433
1788861516495661600,1.85966162109375,2.6514287010192867,-6.4828995452880855,10.082581741333007
1788861516505668400,1.86966845703125,1.246181964111328,-5.2371664939880365,7.668777555084228
1788861516515675600,1.879675537109375,-1.298555125427246,-4.715080894470215,5.40715481185913
1788861516525681400,1.889681396484375,-1.7911621170043943,-4.647145422363281,4.7758337615966795
1788861516535688400,1.8996884765625,-0.23597850112915036,-4.68605119934082,5.703287629699707
1788861516545695500,1.909695556640625,0.972943699645996,-3.4683003799438477,5.398475830841064
1788861516555701500,1.919701416015625,2.578704825592041,-4.237886576080322,6.991817035675048
1788861516565708300,1.929708251953125,3.7865795631408687,-3.328538858032226,7.332841134643554
1788861516575715600,1.939715576171875,1.6261118400573729,0.4601356315612793,5.443067836761474
1788861516585721600,1.9497216796875,-0.8737339683532714,1.1575965026855468,5.4996308509826655
1788861516595728400,1.959728271484375,-0.8264484855651855,1.3133692481994628,5.115361484527588
1788861516605735400,1.9697353515625,-0.35030163040161133,0.03007715835571289,5.7782560691833496
1788861516615741400,1.979741455078125,0.8467991996765136,-1.9309236389160156,6.347627151489258
1788861516625748500,1.98974853515625,1.5013140785217285,-3.107823392486572,6.476614765930176
1788861516635755500,1.999755615234375,0.7745242370605468,-3.21122297668457,6.561010374450683
1788861516645762600,2.009762451171875,0.16415245132446288,-2.7527333587646483,6.078578739929199
1788861516655768300,2.019768310546875,0.8632593360900879,-2.4862287864685055,5.128828868865966
1788861516665775600,2.029775634765625,2.1842601020812986,-2.250998473358154,3.886836757659912
1788861516675782400,2.039782470703125,2.953846298217773,-1.904437783050537,4.104709108734131
1788861516685788400,2.049788330078125,3.1495722839355467,-2.1314380279541014,5.529708009338378
1788861516695795500,2.05979541015625,2.9478607940673824,-1.5191209533691405,5.884498767852783
1788861516705802500,2.069802490234375,2.614917125701904,-1.9611504348754882,6.582558189392089
1788861516715808500,2.07980859375,1.7989432723999021,-4.739022911071777,10.077494062805176
1788861516725815600,2.089815673828125,0.11956044540405272,-7.031022087860107,11.974449965667723
1788861516735822300,2.099822265625,-2.31130242767334,-6.860285581970214,11.777676516723632
1788861516745828400,2.109828369140625,-4.610184934234619,-5.659743087005615,10.024821626281737
1788861516755835600,2.119835693359375,-5.239411058044433,-5.219658894348144,8.546402101135254
1788861516765842400,2.129842529296875,-4.055179061889648,-5.758952818298339,7.498639599609374
1788861516775848400,2.139848388671875,-2.0322282966613767,-5.820304235839844,6.412120958709717
1788861516785855500,2.14985546875,-1.135150862121582,-6.318447818756103,6.08411533126831
1788861516795862500,2.159862548828125,-1.5650596977233886,-7.702745291137695,6.479158605194091
1788861516805869300,2.169869384765625,-1.5885528015136718,-8.467243808746337,6.646752721405029
1788861516815875600,2.17987548828125,0.7462427299499511,-8.29336491317749,4.674080191040039
1788861516825882400,2.18988232421875,2.6870424507141113,-10.333673640441894,4.921281512451172
1788861516835889400,2.199889404296875,3.9483378128051756,-12.37203707885742,5.625924988555908
1788861516845895400,2.2098955078125,5.493346071624756,-13.483994112396239,6.679373719024658
1788861516855902500,2.21990234375,4.828356560516357,-12.386103013610839,8.352920679473877
1788861516865909200,2.2299091796875,3.239504483795166,-9.786000010681152,8.079981690216064
1788861516875915500,2.23991552734375,0.6947673942565917,-7.75721337890625,9.195081113433837
1788861516885922300,2.24992236328125,-3.885490019226074,-5.744886883544922,10.43767177505493
1788861516895929300,2.259929443359375,-4.686350474548339,-4.113088814544677,9.0657942237854
1788861516905935600,2.269935546875,-4.368969116973877,-3.5140894866943357,9.293841931915283
1788861516915942400,2.2799423828125,-5.307945080566406,-2.3235727111816407,9.726144969177245
1788861516925949400,2.289949462890625,-4.806509470367431,-2.286911498260498,9.801263046264648
1788861516935955500,2.29995556640625,-3.6406828994750975,-2.5080758766174314,7.373243287658691
1788861516945962500,2.30996240234375,-2.5495254928588866,-3.5983354576110838,6.272209799194336
1788861516955969300,2.31996923828125,-1.6505027694702148,-4.606892906951904,5.755211878204346
1788861516965975600,2.3299755859375,-1.2056301734924315,-4.492719415283203,6.440103190612793
1788861516975982300,2.339982421875,-2.2450129692077634,-3.4234090988159176,8.154201941680908
1788861516985989400,2.3499892578125,-2.9884125846862792,-2.2082021186828613,7.689577182006835
1788861516995996400,2.359996337890625,-3.3343747245788573,-4.757129061126709,8.72072990951538
1788861517006002400,2.37000244140625,-2.075473564147949,-6.949020680999755,10.59868183670044
1788861517016009200,2.38000927734375,-3.0262708984374997,-8.346336624908448,10.583568438720702
1788861517026016500,2.3900166015625,-3.9172131912231443,-7.934234664154053,10.246434917449951
1788861517036022500,2.4000224609375,-5.226691861724853,-6.3621419990539545,8.769960681152343
1788861517046029300,2.410029296875,-5.029918412780761,-5.125387203979492,6.743268975830078
1788861517056036400,2.420036376953125,-5.464466014099121,-7.467814253234863,8.118438554382324
1788861517066042400,2.43004248046875,-6.376956121826171,-9.323470177459717,10.087519782257079
1788861517076049400,2.44004931640625,-6.455964776611328,-5.846790091705322,10.528352162933349
1788861517086056400,2.450056396484375,-7.093720243835449,-6.941239525604248,10.754454582214354
1788861517096062500,2.4600625,-3.1673791587829587,-5.775412954711913,9.9208234916687
1788861517106069200,2.4700693359375,0.6985083343505859,-6.5491890037536615,5.5270145324707025
1788861517116076500,2.48007666015625,2.953247747802734,-8.843283106994628,1.6156372077941894
1788861517126082300,2.490082275390625,3.693355335998535,-12.029965516662598,-1.4101847778320311
1788861517136089300,2.50008935546875,1.042525185394287,-10.74532668838501,-2.162413011932373
1788861517146096400,2.510096435546875,0.41689036407470703,-10.223390726470946,-1.0099041877746582
1788861517156103400,2.520103515625,-1.0085574493408203,-10.924442900085449,-1.0012252067565917
1788861517166109400,2.530109375,-3.7020343170166012,-13.685406327056883,-2.609979084777832
1788861517176116500,2.540116455078125,-4.358344847106934,-14.504073657226561,-2.3546973327636715
1788861517186123300,2.550123291015625,-3.847332430267334,-14.883554620361327,-2.1217115837097165
1788861517196129300,2.56012939453125,-2.8125884002685546,-13.959991329956054,-2.149095265197754
1788861517206136600,2.570136474609375,-0.24869769744873046,-11.7978775932312,-3.212120802307129
1788861517216143400,2.580143310546875,1.2782044113159179,-10.185083499908446,-3.642927463531494
1788861517226149400,2.5901494140625,0.7688380081176758,-9.247753549957276,-3.05814370803833
1788861517236156400,2.600156494140625,-0.3956418243408203,-8.584410052490234,-2.2610241928100585
1788861517246163500,2.61016357421875,-0.3468599655151367,-7.241562196350097,-0.6341641647338867
1788861517256169200,2.620169189453125,-0.3381809844970703,-5.706579656982422,1.0895113929748534
1788861517266176500,2.630176513671875,-1.1565490394592284,-5.006275671386718,1.9871873779296874
1788861517276183300,2.640183349609375,-3.234865718078613,-5.015553202819824,3.2013468948364254
1788861517286190600,2.650190673828125,-4.188655804443359,-5.06942274017334,3.6550481094360348
1788861517296196400,2.6601962890625,-4.247014469909668,-5.19077883682251,3.5417724433898923
1788861517306203400,2.670203369140625,-5.289689292907714,-5.778704981994629,2.450465399169922
1788861517316210400,2.68021044921875,-5.417779081726074,-6.415712261199951,1.5596727439880371
1788861517326216400,2.690216552734375,-4.654627302551269,-7.1866451957702635,1.6084546028137205
1788861517336223500,2.700223388671875,-3.528753971862793,-7.5731591262817375,2.32387198638916
1788861517346230500,2.71023046875,-2.946514055633545,-8.349628652191162,2.9707553474426267
1788861517356236500,2.720236572265625,-2.410811434173584,-7.873182521820068,3.699191202545166
1788861517366243300,2.730243408203125,-0.314089330291748,-6.761524763488769,5.366603021240234
1788861517376250600,2.740250732421875,0.1833060646057129,-8.352022853851318,6.596474486541748
1788861517386256400,2.75025634765625,-2.1621137367248533,-9.63456675567627,6.6994251579284665
1788861517396263400,2.760263427734375,-4.345625650787353,-9.644293199920654,6.202329038238525
1788861517406270500,2.7702705078125,-5.199757093048095,-9.923816243743897,5.16474189376831
1788861517416276500,2.7802763671875,-3.284096489715576,-11.12750112838745,3.2008979820251464
1788861517426283300,2.790283203125,-0.9080009796142577,-12.477531589508056,2.869600327301025
1788861517436290600,2.80029052734375,-0.30466216125488277,-12.849231397247314,3.8830958175659176
1788861517446297300,2.81029736328125,-2.5192986968994138,-12.215665782928466,5.792022728729248
1788861517456303400,2.820303466796875,-3.395277229309082,-12.511349687957763,7.6093714263916015
1788861517466310400,2.830310302734375,-2.8254572341918944,-13.856142832946777,6.185419989013671
1788861517476317400,2.8403173828125,-2.790591672515869,-12.73640464401245,4.18835652923584
1788861517486323500,2.850323486328125,-2.5803508392333985,-10.615590885925293,3.008164748382568
1788861517496330500,2.86033056640625,-2.473958502960205,-8.282291730499267,2.7066449768066403
1788861517506337300,2.870337158203125,-2.058564514923096,-5.606023187255859,2.6408044311523438
1788861517516343300,2.88034326171875,-1.434575707244873,-3.815908533477783,2.915688709259033
1788861517526350600,2.8903505859375,-2.542342887878418,-5.708973858642578,4.654776940155029
1788861517536357400,2.900357421875,-3.121290776824951,-8.239196100616455,4.902427174377441
1788861517546363400,2.91036328125,-1.852064621734619,-9.577554828643798,4.357596659088134
1788861517556370400,2.920370361328125,-1.5644611473083496,-10.175506693267822,3.9829040992736813
1788861517566377500,2.93037744140625,-2.1619640991210938,-9.550470422363281,4.184465951538086
1788861517576384500,2.940384521484375,-1.0142436782836914,-8.826673332977295,2.6862942626953124
1788861517586390500,2.950390625,-1.5058032066345215,-7.813477117919922,1.627308940887451
1788861517596397300,2.960397216796875,-2.5489269424438477,-6.736086370849609,2.5197476097106932
1788861517606404600,2.970404541015625,-2.953247747802734,-7.149983982849121,2.5330653564453125
1788861517616410400,2.980410400390625,-2.925265515899658,-9.420734619903564,2.481590020751953
1788861517626417400,2.99041748046875,-3.2941222091674804,-11.6699374420166,3.4114380905151367
1788861517636424400,3.000424560546875,-2.118120281219482,-12.574945669555664,3.5838206100463865
1788861517646430500,3.010430419921875,-2.1068974609374997,-11.074828691864013,4.105606934356689
1788861517656437500,3.0204375,-3.1266777305603024,-10.295964964294432,4.086902233886718
1788861517666444500,3.030444580078125,-2.985419832611084,-11.598261029815673,2.5383026725769042
1788861517676450600,3.040450439453125,-2.5273791275024413,-11.936591651916503,1.2835913650512694
1788861517686457300,3.050457275390625,-1.5976806953430174,-11.889156531524657,1.4624083015441893
1788861517696464600,3.060464599609375,-0.9290998817443847,-11.192593486022949,1.543062969970703
1788861517706471400,3.070471435546875,-1.5310919616699217,-9.402329194641112,0.9587281272888183
1788861517716477400,3.0804775390625,-2.187252854156494,-6.312312677001953,-0.03277063522338867
1788861517726484500,3.090484375,-3.4440590881347655,-4.9726072105407715,-3.3271921195983887
1788861517736491500,3.100491455078125,-4.5684360427856445,-7.7121724601745605,-5.4056584358215325
1788861517746497300,3.110497314453125,-4.547786053466797,-8.520514795684814,-5.0954596832275385
1788861517756504800,3.1205048828125,-3.2441432495117186,-8.077737126159667,-3.8003462226867675
1788861517766511600,3.13051171875,-2.8315923759460446,-9.760711255645752,-1.552041226196289
1788861517776517600,3.140517578125,-2.7193641731262206,-11.385925270080566,0.3947439987182617
1788861517786524700,3.150524658203125,-3.26224939956665,-12.995876248931884,2.1320365783691404
1788861517796531700,3.16053173828125,-2.835482953643799,-14.28769768218994,2.9604303527832028
1788861517806538500,3.17053857421875,-1.8365023109436034,-15.150508105468749,3.6540006462097168
1788861517816544800,3.180544677734375,-2.427870121002197,-15.624859309387206,4.276642715454101
1788861517826551600,3.190551513671875,-1.7106570861816406,-14.925752424621582,4.395754248046875
1788861517836558600,3.20055859375,-0.09127893829345703,-12.699743431091308,2.8770822074890137
1788861517846564900,3.21056494140625,-0.3446154014587402,-9.037063803863525,-0.03980360260009765
1788861517856571600,3.220571533203125,-3.4093431640625,-4.845115972137451,-0.24226328048706053
1788861517866578700,3.23057861328125,-5.0954596832275385,-2.2972364929199216,1.8580501258850097
1788861517876584700,3.240584716796875,-4.684105910491943,0.8735843307495117,3.961505921936035
1788861517886591700,3.250591796875,-3.1741128509521483,0.6714239280700683,7.908197721099853
1788861517896598500,3.2605986328125,-1.5150807380676268,-1.2782044113159179,9.784204359436034
1788861517906605800,3.270605712890625,-1.2542623947143554,-1.4938321983337401,10.546159037780761
1788861517916611600,3.280611572265625,-3.169174810028076,-0.8848071510314941,11.863718138885497
1788861517926618600,3.29061865234375,-3.2673370780944824,-1.731456713104248,11.56189909210205
1788861517936625700,3.300625732421875,-2.3349451690673826,-3.5308488983154294,9.674968908691406
1788861517946631700,3.310631591796875,-2.673874341583252,-5.62457825012207,6.356605407714843
1788861517956638500,3.320638427734375,-2.360832474517822,-7.396586753845215,3.13460852355957
1788861517966645800,3.330645751953125,-2.061557266998291,-10.587758291625976,0.7751227874755859
1788861517976651800,3.34065185546875,-2.701108385467529,-12.821099527740477,-1.1284171699523926
1788861517986658600,3.350658447265625,-2.2713491874694824,-9.956437241363524,0.3290530906677246
1788861517996665600,3.36066552734375,-1.7105074485778808,-10.683975270843506,1.2470797897338866
1788861518006672600,3.370672607421875,-1.684769780731201,-12.843395530700683,0.6616974838256836
1788861518016678700,3.3806787109375,-2.2572832527160642,-10.963498314666747,1.4969745880126952
1788861518026685700,3.390685791015625,-2.9198785621643064,-10.579528223419189,0.7647977928161621
1788861518036692700,3.400692626953125,-3.0431799476623533,-11.680561711883545,2.983923456573486
1788861518046698500,3.410698486328125,-3.8142625198364257,-13.762768968200684,4.85184966430664
1788861518056705800,3.420705810546875,-3.239504483795166,-14.954931757354736,4.408174169158936
1788861518066712600,3.430712646484375,-2.7205612739562985,-17.42350330657959,3.265541426849365
1788861518076718600,3.440718505859375,-3.5420717185974118,-18.37430064086914,0.7827543052673339
1788861518086725600,3.4507255859375,-3.9586628074645995,-16.224756462860107,1.3507786491394043
1788861518096732700,3.460732666015625,-3.2618004867553707,-12.081740127563476,3.201197257232666
1788861518106739700,3.47073974609375,-2.7151743202209473,-10.435576848602294,3.6935049736022947
1788861518116745700,3.480745849609375,-2.0069395416259765,-11.430966188812254,5.599588770294189
1788861518126752500,3.49075244140625,-2.359635373687744,-12.708422412109375,6.994211237335205
1788861518136759800,3.500759765625,-3.1604958290100096,-13.893252958679199,7.217320904541015
1788861518146765800,3.510765869140625,-2.267458609771728,-13.475464768981933,6.669796912384033
1788861518156772600,3.520772705078125,-0.729034405517578,-14.28829623260498,10.24613564224243
1788861518166779600,3.530779541015625,-0.10145429534912109,-15.491232929229735,11.182418128967285
1788861518176785700,3.54078564453125,-0.6667851623535156,-13.658471558380127,9.104550363159179
1788861518186792700,3.550792724609375,-2.0841525451660154,-10.879401981353759,7.223306408691406
1788861518196799700,3.5607998046875,-0.2079962692260742,-7.1118263938903805,-5.105485402679443
1788861518206806800,3.570806884765625,1.664419066619873,-0.5158008201599121,-11.749095734405516
1788861518216812500,3.5808125,1.4194623092651366,5.358672228240967,-14.758307946014403
1788861518226819800,3.59081982421875,-1.096095447540283,7.507617855834961,-16.390405290222166
1788861518236826600,3.60082666015625,-2.8993782104492185,5.562628282165527,-13.8925047706604
1788861518246832600,3.61083251953125,-5.645677152252197,1.6002245346069335,-9.05891089401245
1788861518256839700,3.620839599609375,-5.00552748336792,-2.9851205574035644,-6.874950067138672
1788861518266846700,3.6308466796875,-1.6506524070739745,-6.732046155548096,-6.553977407073974
1788861518276852500,3.6408525390625,-0.046537294769287106,-8.528146313476562,-4.52010309677124
1788861518286859800,3.65085986328125,1.4188637588500976,-10.590002855682373,0.12449848632812499
1788861518296866600,3.660866455078125,-1.139639990234375,-13.951761261749267,3.6743513603210447
1788861518306873900,3.670873779296875,-8.05020380706787,-15.723171215057372,8.306383384704588
1788861518316880000,3.6808798828125,-17.336863134002684,-13.270760527038574,15.216797563934325
1788861518326886700,3.69088671875,-10.275015699768066,-11.237784042358397,14.78554198989868
1788861518336893700,3.700893798828125,-4.904073188018798,-10.094103836822509,10.970680919647217
1788861518346899700,3.710899658203125,-0.30406361083984373,-6.8219783554077145,7.417087105560302
1788861518356906800,3.72090673828125,0.5831377418518066,-7.36157155456543,4.799626140594482
1788861518366913800,3.730913818359375,-2.0623054550170896,-10.235511372375488,3.995324020385742
1788861518376920600,3.740920654296875,-1.8046295013427733,-8.594435771942138,3.848529531097412
1788861518386926600,3.750926513671875,-1.4745289474487304,-3.86244582824707,3.398569256591797
1788861518396934000,3.760933837890625,-2.1178210060119627,-3.044676323699951,4.782417816162109
1788861518406940700,3.770940673828125,-3.340809141540527,-6.4834980957031245,7.447762814331054
1788861518416946700,3.78094677734375,-3.5673604736328124,-11.113285556030272,6.912658743286133
1788861518426953700,3.79095361328125,-5.531952573394775,-11.205312682342528,7.628674677276611
1788861518436960800,3.800960693359375,-6.381594887542724,-10.599729299926757,10.339060594177246
1788861518446966500,3.810966552734375,-6.002413199615479,-11.116727220916747,11.397746640777587
1788861518456973800,3.820973876953125,-4.5027451347351075,-11.01302836151123,11.99031155166626
1788861518466980600,3.830980712890625,-3.6544495590209958,-11.582997994232176,12.061239775848389
1788861518476987600,3.840987548828125,-2.2384289146423337,-16.314090112304687,9.413103102111815
1788861518486993700,3.85099365234375,-0.6302735870361328,-13.685705602264404,6.889315277099609
1788861518497000700,3.861000732421875,0.19482816009521484,-11.401487580871581,6.87614716796875
1788861518507007500,3.871007568359375,-0.2985270195007324,-10.797101299285888,7.22674807357788
1788861518517013800,3.881013671875,0.4767454055786133,-11.039663854980468,4.39276149597168
1788861518527020800,3.891020751953125,0.46686932373046874,-10.462212342071533,1.0149918663024902
1788861518537027600,3.901027587890625,-0.1657984649658203,-7.158513326263427,-0.03621230010986328
1788861518547033900,3.911033935546875,0.48288054733276364,-4.572476258087158,0.5987000526428222
1788861518557040600,3.92104052734375,1.2883797683715819,-2.669834126281738,-0.9012672874450683
1788861518567047700,3.931047607421875,1.0443208366394043,-0.6937199310302734,-4.1654619758605955
1788861518577054700,3.9410546875,0.6012438919067382,0.6254851837158203,-7.538592839813232
1788861518587060700,3.951060791015625,-2.8616695343017575,0.385616104888916,-12.151770526123046
1788861518597067500,3.961067626953125,-7.272986093139648,-1.6989853530883787,-12.572252192687987
1788861518607074800,3.97107470703125,-6.535571981811523,-4.652532376098632,-8.24248812789917
1788861518617080600,3.98108056640625,-5.223250196838379,-10.081833553314208,-2.8579285942077637
1788861518627087600,3.991087646484375,-7.141305001831054,-13.01054073410034,3.791667241668701
1788861518637094700,4.0010947265625,-8.371326104736328,-13.083414247131348,8.255356961822509
1788861518647101700,4.011101806640625,-7.147440143585205,-12.896816155242918,8.26687905731201
1788861518657107700,4.021107666015625,-6.434865874481201,-12.099397364807128,5.571456900787354
1788861518667114800,4.03111474609375,-5.303904865264892,-12.898162893676757,2.1532851181030273
1788861518677121500,4.04112158203125,-6.0060045021057125,-13.066056285095215,0.6380547424316406
1788861518687127600,4.05112744140625,-6.905775413513183,-12.678195616149901,1.8200421745300293
1788861518697134800,4.061134765625,-7.688828993988037,-12.179004570007324,2.4965537811279295
1788861518707141600,4.0711416015625,-7.400477331542969,-11.68265663833618,1.7666215499877929
1788861518717148700,4.081148681640625,-6.5409589355468745,-11.398494828796386,0.30196868438720703
1788861518727154700,4.09115478515625,-6.63298606185913,-11.583147631835937,-0.5834370170593262
1788861518737161700,4.10116162109375,-6.488885049438476,-11.19827971496582,-1.0817302375793456
1788861518747168800,4.111168701171875,-5.9676972755432125,-10.524611222839354,-0.7897872726440429
1788861518757175000,4.121175048828125,-5.7317187744140625,-10.39322940673828,0.6114192489624023
1788861518767181800,4.131181884765625,-5.685031842041015,-11.893047109222412,2.9798832412719727
1788861518777189000,4.141189208984375,-5.680542713928222,-12.231377731323242,3.871274446868896
1788861518787196000,4.15119580078125,-4.970961196899414,-12.326098334503174,3.950732014465332
1788861518797202000,4.161201904296875,-4.38557889099121,-11.826308737945556,4.527734614562988
1788861518807209000,4.171208984375,-4.061763116455078,-10.152911415100098,5.418676907348632
1788861518817216000,4.181216064453125,-3.6100071907043456,-7.780856120300292,5.944653084564209
1788861518827221800,4.1912216796875,-2.25997672958374,-4.005499377441406,5.810577791595459
1788861518837229000,4.20122900390625,-1.504157192993164,-0.19767127456665037,4.7554830474853516
1788861518847235800,4.21123583984375,-2.9607296279907227,2.248454634094238,4.637867890930176
1788861518857241900,4.221241943359375,-4.477905292510986,1.4483423667907713,4.868309800720215
1788861518867249000,4.231248779296875,-4.7004164093017575,-2.365471240234375,5.705981106567383
1788861518877256000,4.241255859375,-4.687846850585937,-5.254823731231689,6.977002912902831
1788861518887262700,4.2512626953125,-5.42645806274414,-8.113201238250731,6.99076957244873
1788861518897269000,4.26126904296875,-6.108356623077392,-11.77303775100708,6.083367143249512
1788861518907276000,4.271276123046875,-6.134393566131592,-13.686902703094482,4.456656752777099
1788861518917282800,4.28128271484375,-5.373187075805664,-14.041843099212645,2.7160721458435058
1788861518927289000,4.2912890625,-4.932504332733154,-13.954005825805663,1.721131718444824
1788861518937296000,4.3012958984375,-5.680991626739502,-13.181576515197753,1.4823101028442383
1788861518947303000,4.311302978515625,-6.034435646820068,-11.916390575408935,1.2542623947143554
1788861518957310000,4.32131005859375,-5.470002605438232,-10.218153410339355,1.098788924407959
1788861518967316000,4.33131591796875,-4.962431853485107,-7.451503754425048,1.4450503395080565
1788861518977322800,4.34132275390625,-4.324975661468506,-5.046228911590576,2.140865196990967
1788861518987330000,4.351330078125,-4.7089457527160645,-3.034052053833008,2.231844860076904
1788861518997335800,4.361335693359375,-5.142146615600586,-2.128594913482666,1.9598036964416503
1788861519007343000,4.371343017578125,-5.08857635345459,-3.50496159286499,1.8209400001525877
1788861519017350000,4.381349853515625,-5.061641584777831,-2.3521534934997557,2.49625450592041
1788861519027357000,4.39135693359375,-9.851391643524169,-5.728576384735107,3.9508816520690915
1788861519037363000,4.401363037109375,-4.8603790077209466,-9.122207600402831,5.090671279907227
1788861519047370000,4.411369873046875,-3.553294538879394,-7.268796240234375,5.047874925231933
1788861519057376800,4.421376708984375,-6.7645175155639645,-5.7423430442810055,4.295048140716553
1788861519067383000,4.431383056640625,-7.1498343452453605,-5.783792660522461,4.037821099853516
1788861519077390000,4.44139013671875,-6.000318273162842,-7.178415127563476,4.089446073150635
1788861519087396900,4.45139697265625,-4.493317965698242,-8.81709652633667,4.135684092712402
1788861519097404000,4.46140380859375,-6.46733723449707,-9.824007962036132,4.624550144195556
1788861519107410000,4.471409912109375,-8.482357206726073,-11.629984201812743,4.949712657165527
1788861519117417000,4.4814169921875,-8.479963005065917,-12.089670920562744,5.494842447662354
1788861519127424000,4.491424072265625,-6.982539504241943,-12.712312989807128,5.193023400878906
1788861519137430000,4.501429931640625,-7.179013677978515,-11.569680247497558,4.507832813262939
1788861519147436800,4.511436767578125,-7.542184142303467,-9.68454571533203,3.9272389106750487
1788861519157444000,4.521444091796875,-7.1881415718078605,-7.980173408508301,3.2811037376403807
1788861519167451000,4.531450927734375,-6.518962207794189,-6.954856547546386,3.0104093124389646
1788861519177457000,4.541456787109375,-6.271760886383056,-6.6066498435974115,3.219004132080078
1788861519187464000,4.5514638671875,-6.251859085083008,-6.802675104522705,3.580678220367431
1788861519197471000,4.561470947265625,-6.153846454620361,-7.39913059310913,3.8147114326477047
1788861519207478000,4.57147802734375,-6.616376287841796,-8.10841283493042,4.237288025665283
1788861519217484000,4.581484130859375,-7.143399928283691,-8.674192614746094,4.563498001861572
1788861519227490800,4.59149072265625,-7.281365798950195,-8.54236188583374,4.154239155578613
1788861519237498000,4.601498046875,-6.885574337005615,-7.868693393707275,3.659537237548828
1788861519247504000,4.61150390625,-6.364685838317871,-6.751648681640624,3.8607998146057128
1788861519257511000,4.621510986328125,-5.563376470184326,-5.219359619140625,4.200327537536621
1788861519267518000,4.63151806640625,-4.363881438446045,-3.628711891174316,3.852869021606445
1788861519277525000,4.64152490234375,-4.2149920227050774,-2.482637483978271,3.3735797767639157
1788861519287531000,4.651531005859375,-5.709871684265137,-2.43250888671875,3.312677272033691
1788861519297538000,4.6615380859375,-6.651840399932861,-3.4530373443603515,3.1712697364807125
1788861519307544800,4.671544921875,-7.421576233673095,-4.7946880996704095,3.125630267333984
1788861519317550800,4.68155078125,-7.287800215911865,-5.664681127929687,3.3117794464111325
1788861519327558100,4.69155810546875,-7.24021545791626,-5.926098021697998,3.4585739356994627
1788861519337565000,4.70156494140625,-8.660425955200195,-5.86669189300537,3.5887586509704588
1788861519347572000,4.711572021484375,-8.703222309875487,-5.370792874145508,3.660285425567627
1788861519357578000,4.721577880859375,-7.547271820831298,-4.574720822143554,3.8103719421386715
1788861519367585000,4.7315849609375,-6.119729080963134,-3.6917093223571773,3.817105634307861
1788861519377591800,4.741591796875,-5.7986067832946775,-3.0973487602233885,3.7934628929138183
1788861519387598000,4.75159814453125,-7.01620796508789,-2.999186492156982,3.2775124351501463
1788861519397604900,4.76160498046875,-7.286303839874267,-3.318513138580322,2.4812907455444333
1788861519407612000,4.77161181640625,-6.162375798034668,-3.6851252677917476,1.759588582611084
1788861519417619000,4.781618896484375,-6.698676969909668,-3.5700539505004882,1.0236708473205567
1788861519427625000,4.791625,-7.493851196289062,-3.0780455093383785,0.7119757186889648
1788861519437631700,4.8016318359375,-7.330446932983398,-2.3325509674072262,0.7347206344604492
1788861519447639000,4.81163916015625,-7.570016736602783,-1.5566799919128418,1.6686089195251463
1788861519457645800,4.821645751953125,-6.968623207092285,-1.63449154586792,3.0720600051879883
1788861519467651800,4.83165185546875,-6.640019029235839,-1.8459294799804686,3.4576761100769042
1788861519477659000,4.841658935546875,-7.1793129531860345,-1.6629226905822754,2.6659435485839844
1788861519487666000,4.851666015625,-6.842029794311523,-1.682225941467285,1.9699790534973143
1788861519497672000,4.861671875,-6.0145338455200195,-1.5596727439880371,1.6335937202453612
1788861519507679000,4.871678955078125,-6.20562106552124,-1.3588590797424316,1.624914739227295
1788861519517686000,4.88168603515625,-6.5300353904724115,-1.294814185333252,1.471536195373535
1788861519527693000,4.891693115234375,-6.8782420944213865,-1.294065997314453,0.984465795135498
1788861519537699000,4.901698974609375,-7.179761865997314,-1.0609306106567382,0.2929904281616211
1788861519547705900,4.911705810546875,-7.350348734283447,-0.8224082702636718,0.03666121292114258
1788861519557713200,4.921713134765625,-7.042544183349609,-0.7790133651733397,0.42108021697998044
1788861519567719000,4.931718994140625,-6.419902114105224,-0.8485948509216308,1.115997248840332
1788861519577726000,4.941725830078125,-6.72246934890747,-0.752078596496582,2.052429373168945
1788861519587733000,4.95173291015625,-7.5619363059997555,-0.4165910888671875,2.846107223510742
1788861519597740000,4.961739990234375,-8.27346311187744,-0.22834698333740233,3.23681100692749
1788861519607745800,4.971745849609375,-8.072350172424317,-0.5165490081787109,3.6330513816833494
1788861519617753000,4.981753173828125,-7.1018006744384765,-1.1540052001953125,3.8863878448486324
1788861519627759900,4.991759765625,-7.30381143951416,-1.837998686981201,4.057423625946044
1788861519637767000,5.001766845703125,-7.586925785827637,-2.648884861755371,4.3740567955017085
1788861519647773000,5.01177294921875,-6.76765990524292,-3.5384804161071775,4.40473250427246
1788861519657780000,5.021780029296875,-6.9804445777893065,-4.1009681686401365,4.310909726715088
1788861519667786800,5.031786865234375,-8.305485559082031,-4.516661431884765,4.835688803100585
1788861519677793000,5.04179296875,-7.972990803527831,-4.881926822662353,5.6958057495117185
1788861519687799800,5.0517998046875,-6.6246063560485835,-5.016600666046142,5.923105269622803
1788861519697806800,5.061806884765625,-6.609343320465087,-5.009268423461914,5.486911654663086
1788861519707814000,5.07181396484375,-6.729801591491698,-4.900631523132324,4.631583111572265
1788861519717820000,5.08181982421875,-6.451924561309814,-4.581454514312744,3.806182089233398
1788861519727827000,5.091826904296875,-6.489483599853515,-4.083759844207764,2.9308021072387693
1788861519737834000,5.101833984375,-6.797437788391113,-3.775057467651367,2.189198143005371
1788861519747840800,5.1118408203125,-6.687304512023926,-3.9413048454284665,1.871816785430908
1788861519757846300,5.12184619140625,-6.6319385986328125,-4.584447266387939,1.7325041763305664
1788861519767853300,5.131853271484375,-6.930764893341064,-5.381117868804932,1.690605647277832
1788861519777860400,5.1418603515625,-7.436839269256591,-6.035782385253906,1.7299603370666503
1788861519787867400,5.151867431640625,-8.090306684875488,-6.501604245758056,1.8546084609985352
1788861519797873200,5.161873046875,-8.072350172424317,-6.872705503082275,2.0254946044921875
1788861519807880400,5.17188037109375,-7.710825721740722,-7.137414424133301,2.1142297035217283
1788861519817887200,5.18188720703125,-7.602787371826172,-7.285256376647949,2.314295179748535
1788861519827893200,5.191893310546875,-7.522282341003417,-7.422773334503173,2.743306189727783
1788861519837900300,5.201900390625,-7.659350386047363,-7.448211727142334,3.1381998260498043
1788861519847907300,5.2119072265625,-7.392396900939941,-7.349151633453369,3.2836475769042965
1788861519857914000,5.2219140625,-6.976703637695312,-7.227496261596679,3.303998291015625
1788861519867920400,5.23192041015625,-6.919990985870361,-7.03566085357666,3.413084104156494
1788861519877927400,5.241927490234375,-7.004536231994629,-7.022941657257079,3.6017771224975585
1788861519887934200,5.251934326171875,-7.046285123443603,-7.247098787689208,3.937713542938232
1788861519897941200,5.261941162109375,-7.359626265716552,-7.763049245452881,4.38602780380249
1788861519907947300,5.271947265625,-7.830685442352294,-8.418162674713134,4.557063584899902
1788861519917954300,5.281954345703125,-8.112752325439452,-9.055169953918456,4.544194750976562
1788861519927961300,5.29196142578125,-8.238148637390136,-9.542838904571532,4.66076244430542
1788861519937967400,5.30196728515625,-8.14612151107788,-9.91513726272583,4.937592011260986
1788861519947974100,5.31197412109375,-7.866448829650879,-10.228927317810058,5.112069457244873
1788861519957981400,5.3219814453125,-7.29722738494873,-10.414328308868408,5.015104290008544
1788861519967988200,5.33198828125,-6.828113497161865,-10.551994904327392,5.036652104949951
1788861519977994200,5.341994140625,-6.656030252838135,-10.511293476104736,5.524769968414306
1788861519988001300,5.352001220703125,-6.941389163208007,-10.349086313629149,6.23749387512207
1788861519998008300,5.36200830078125,-7.513154447174072,-10.459369227600098,6.738779847717285
1788861520008015400,5.372015380859375,-8.022071937561035,-10.837952365112304,6.439654277801513
1788861520018021400,5.382021484375,-8.309825049591064,-11.231948175811766,5.258714308929443
1788861520028028200,5.392028076171875,-8.735992945098877,-11.294795969390869,3.8090252037048336
1788861520038035500,5.402035400390625,-9.150189832305907,-11.205462319946289,2.714575769805908
1788861520048042200,5.412042236328125,-9.382277755737304,-11.328464430236815,2.124105785369873
1788861520058048300,5.42204833984375,-9.36641616973877,-11.223119557189941,2.013523596191406
1788861520068055300,5.43205517578125,-8.556128545379638,-10.831817223358154,2.51555775680542
1788861520078062300,5.442062255859375,-7.546373995208739,-10.046369441223144,3.395875779724121
1788861520088069000,5.452069091796875,-7.104494151306152,-9.13597425994873,4.097825778961181
1788861520098075400,5.462075439453125,-6.338349620056152,-8.667458922576904,4.027346467590331
1788861520108082200,5.472082275390625,-4.295945966339111,-8.436867375183105,3.234865718078613
1788861520118089200,5.482089111328125,-1.9252374099731444,-7.932588650512695,2.4984990699768064
1788861520128095500,5.492095458984375,-0.19168577041625975,-7.0382046928405755,2.346167989349365
1788861520138102300,5.502102294921875,0.47719431838989257,-5.899462528228759,3.0793922477722164
1788861520148109300,5.512109375,-0.4568436042785644,-4.851400751495361,4.3239281982421875
1788861520158116400,5.522116455078125,-3.1202433135986327,-4.1475054634094235,5.361216067504882
1788861520168122400,5.532122314453125,-6.18018267288208,-3.9496845512390135,5.760000281524658
1788861520178129200,5.542129150390625,-8.411877895355223,-4.451569074249267,5.925798746490478
1788861520188136400,5.552136474609375,-9.319130686950682,-5.7894788894653315,6.235548586273193
1788861520198143200,5.562143310546875,-8.972270721435546,-7.3946414649963375,6.200383749389648
1788861520208149200,5.572149169921875,-8.353668867492676,-8.57393542022705,5.418078356933593
1788861520218156300,5.58215625,-7.924358582305908,-8.98304462890625,4.456956027984619
1788861520228163300,5.592163330078125,-7.600991720581054,-8.686013985443115,4.048445369720459
1788861520238170400,5.60217041015625,-6.9430351768493646,-7.752873888397216,3.985597576141357
1788861520248176400,5.61217626953125,-6.2027779510498045,-6.474968752288818,3.853317934417724
1788861520258183200,5.62218310546875,-5.440673635101318,-5.285948352813721,3.3922844772338867
1788861520268190500,5.6321904296875,-4.685602286529541,-4.356399558258056,2.7570728492736816
1788861520278197200,5.642197265625,-4.828206922912598,-3.72208575592041,2.4984990699768064
1788861520288203300,5.652203369140625,-6.507290474700928,-3.2704794677734372,2.9535470230102536
1788861520298210300,5.662210205078125,-7.861061875915527,-3.0096611244201656,3.7138556877136226
1788861520308217300,5.67221728515625,-7.859715137481689,-3.0214824951171875,4.508730638885498
1788861520318224100,5.68222412109375,-7.369053434753417,-3.2522236801147457,5.254823731231689
1788861520328230400,5.69223046875,-7.078157933044433,-3.4448072761535644,5.766883611297607
1788861520338237200,5.7022373046875,-7.056909393310547,-3.657442311096191,5.971288578033447
1788861520348244500,5.712244384765625,-6.963834803771972,-3.8352117843627926,5.846640454101562
1788861520358250500,5.72225048828125,-6.788459532165527,-3.916315365600586,5.484667090606689
1788861520368257300,5.73225732421875,-6.668150898742676,-3.9854479385375976,5.055207167816162
1788861520378264300,5.742264404296875,-6.904279037475585,-4.051587759399414,4.5410523612976075
1788861520388271400,5.752271240234375,-7.228543724822997,-4.01597400970459,4.085555495452881
1788861520398277400,5.76227734375,-7.395688928222656,-3.9921816307067868,3.7487212493896482
1788861520408284400,5.772284423828125,-7.586476873016357,-4.071639198303222,3.379266005706787
1788861520418291500,5.78229150390625,-7.801805384826659,-4.284723146057129,2.6503812377929687
1788861520428298200,5.79229833984375,-7.2337810409545895,-4.554669383239746,1.473481484222412
1788861520438304500,5.802304443359375,-7.867346655273437,-4.5887867568969725,1.4302362167358398
1788861520448311300,5.812311279296875,-10.89750813140869,-4.623053768157959,3.131466133880615
1788861520458318300,5.822318359375,-11.45969660873413,-4.723610237884521,4.827159459686279
1788861520468325400,5.832325439453125,-7.997681008148193,-4.182819937896729,4.169352553558349
1788861520478331400,5.842331298828125,-5.525667794036865,-3.5992332832336422,2.447622284698486
1788861520488338200,5.852338134765625,-7.126640516662597,-3.6119524795532225,3.170970461273193
1788861520498345500,5.862345458984375,-6.442048479461669,-3.3809120193481443,4.427627057647705
1788861520508352300,5.872352294921875,-4.8798318962097165,-2.8579285942077637,3.0659248634338376
1788861520518358300,5.882358154296875,-7.469310629272461,-2.377142973327637,1.6162357582092284
1788861520528365300,5.892365234375,-7.392097625732421,-1.8332102836608886,0.019303250885009764
1788861520538372400,5.902372314453125,-7.491456994628906,-1.6831237670898436,-0.7160159339904785
1788861520548379400,5.91237939453125,-8.508693424987792,-2.231844860076904,0.4709095390319824
1788861520558385400,5.922385498046875,-7.303212889099121,-3.1082723052978514,1.2737152832031249
1788861520568392200,5.93239208984375,-6.414814435577393,-3.4940380477905273,1.599326708984375
1788861520578399500,5.9423994140625,-5.456385583496093,-3.2421979606628417,1.3061866432189941
1788861520588406300,5.95240625,-5.805490113067626,-2.156726782989502,0.3000233955383301
1788861520598412300,5.962412353515625,-6.228365981292725,-0.9207201759338378,-0.31259295425415035
1788861520608419300,5.97241943359375,-5.54781415939331,-0.039354689788818356,-0.09262567672729492
1788861520618426400,5.98242626953125,-5.56113190612793,0.46896425018310545,1.0268132369995118
1788861520628433200,5.99243310546875,-5.170727397918701,0.5141548065185546,1.7085621597290037
1788861520638439400,6.002439453125,-5.2828059631347655,0.2588730545043945,1.7311574378967285
1788861520648446200,6.0124462890625,-5.716156463623046,-0.1640028137207031,1.8668787445068358
1788861520658453200,6.022453369140625,-5.559635530090332,-0.6962637702941894,2.2020669769287107
1788861520668460300,6.032460205078125,-5.888987895965576,-1.253963119506836,2.555062084197998
1788861520678466300,6.04246630859375,-5.638793822479248,-1.7884686401367187,2.8776807579040526
1788861520688473300,6.052473388671875,-5.238363594818115,-2.249651734924316,3.2550667945861815
1788861520698480400,6.06248046875,-5.877765075683594,-2.6690859382629393,3.6379894226074216
1788861520708487200,6.072487060546875,-6.54410132522583,-3.1414918533325196,3.719541916656494
1788861520718493200,6.0824931640625,-6.668749449157715,-3.6016274848937986,3.6719571586608883
1788861520728500500,6.09250048828125,-6.752696144866943,-3.981856636047363,3.771316527557373
1788861520738507300,6.10250732421875,-6.551732843017578,-4.237587300872803,3.8500259071350094
1788861520748514300,6.112514404296875,-6.423194141387939,-4.404882141876221,3.866336405944824
1788861520758520300,6.122520263671875,-6.741323686981201,-4.538807797241211,3.8531682968139647
1788861520768527600,6.132527587890625,-7.017255428314209,-4.746504791259765,3.838952724456787
1788861520778534400,6.142534423828125,-7.062894897460937,-5.031714064025879,3.8717233596801757
1788861520788541400,6.15254150390625,-6.752995420074463,-5.376628740692138,3.799149121856689
1788861520798547500,6.16254736328125,-6.496366929626465,-5.737105728149413,3.348440659332275
1788861520808554500,6.172554443359375,-6.442497392272949,-6.161328334808349,2.7766753753662106
1788861520818561500,6.1825615234375,-6.342240197753906,-6.704213561248779,2.5602994003295896
1788861520828568600,6.192568603515625,-6.443993768310547,-7.18245534286499,2.672976515960693
1788861520838574300,6.20257421875,-6.7182794960021965,-7.715763762664794,2.971802810668945
1788861520848581600,6.21258154296875,-6.736684921264648,-8.227524367523193,3.2977135116577148
1788861520858588400,6.22258837890625,-6.602459990692139,-8.680477394104003,3.667617668151855
1788861520868595500,6.232595458984375,-6.8031240173339835,-9.222764070129394,4.125359098052979
1788861520878601500,6.2426015625,-7.538892115020752,-9.794230078887939,4.329614427185058
1788861520888608500,6.2526083984375,-8.117989641571045,-10.469694222259522,4.2892122741699215
1788861520898615300,6.262615234375,-8.806472256469727,-11.148450392913817,4.191648556518555
1788861520908622600,6.27262255859375,-9.26930136489868,-11.630732389831543,4.326472037506103
1788861520918628400,6.28262841796875,-9.145251791381835,-11.869554005432128,4.9669209815979
1788861520928635400,6.292635498046875,-9.081057259368896,-11.697620398712157,5.852476320648193
1788861520938642400,6.302642333984375,-9.007435558319091,-11.380239041137695,6.309619200134277
1788861520948649500,6.3126494140625,-8.982446078491211,-11.23015252456665,6.239439163970947
1788861520958655200,6.3226552734375,-8.787019367980957,-10.855908877563476,5.713313349151611
1788861520968662500,6.33266259765625,-8.330475038909912,-10.212317543792723,5.076754982757568
1788861520978669300,6.34266943359375,-7.841010437011718,-9.525032029724121,4.5596074241638185
1788861520988676600,6.352676513671875,-7.090428216552734,-9.094823918914795,3.958812445068359
1788861520998682600,6.3626826171875,-6.533177780151367,-8.878896856689453,3.4056022239685055
1788861521008689400,6.372689453125,-6.622361791992187,-8.782230964660645,3.0358477050781247
1788861521018696400,6.382696533203125,-7.211784313201904,-8.865130197143554,3.057245882415771
1788861521028703500,6.392703369140625,-8.060229526519775,-9.055020316314696,3.6070144386291503
1788861521038709500,6.40270947265625,-8.826972608184814,-9.228151023864745,4.503044409942627
1788861521048716500,6.412716552734375,-8.839392529296875,-9.332448433685302,5.391143588256836
1788861521058723300,6.422723388671875,-8.48445213317871,-9.361328491210937,5.6666264167785645
1788861521068730400,6.43273046875,-7.702894928741455,-9.425373385620116,5.35627802658081
1788861521078736600,6.442736572265625,-6.660669018554687,-9.561393967437743,4.959289463806152
1788861521088743400,6.452743408203125,-6.184671800994873,-9.569923310852051,4.253149611663818
1788861521098750500,6.46275048828125,-5.561281543731689,-9.441384609222412,3.312976547241211
1788861521108757500,6.472757568359375,-4.551227718353271,-9.11053586730957,2.8477532371520993
1788861521118763500,6.482763427734375,-3.7720647155761715,-8.602665840148925,3.08358210067749
1788861521128770300,6.492770263671875,-3.469946393585205,-8.10197841796875,3.8238393264770507
1788861521138777600,6.502777587890625,-3.437325395965576,-7.572859851074218,4.567538217163086
1788861521148784400,6.512784423828125,-4.133289891052246,-6.877793181610107,5.047426012420654
1788861521158790400,6.522790283203125,-5.369895048522949,-6.278344940948486,5.1979614418029785
1788861521168797400,6.53279736328125,-6.157587394714355,-5.932981351470947,4.90287608718872
1788861521178804500,6.542804443359375,-6.900238822174072,-5.6769514114379875,4.53297193069458
1788861521188811500,6.5528115234375,-7.715464487457275,-5.88015927734375,4.3637318008422845
1788861521198817500,6.562817626953125,-7.670573206329346,-6.462548831176758,4.172494943237305
1788861521208824300,6.57282421875,-7.245452774047851,-6.944681190490722,3.9079356597900388
1788861521218831600,6.58283154296875,-6.7462617279052735,-7.078756483459472,3.817255271911621
1788861521228838400,6.59283837890625,-6.343138023376464,-6.74177259979248,3.9356186164855953
1788861521238844400,6.602844482421875,-6.109104811096191,-6.260388428497314,4.274398151397705
1788861521248851500,6.6128515625,-6.227617793273925,-5.9665001747131345,4.69248561630249
1788861521258858500,6.6228583984375,-6.324882235717773,-5.7912745407104484,4.604947618103027
1788861521268865300,6.632865234375,-6.214748959350586,-5.521328303527832,4.184166676330566
1788861521278871600,6.64287158203125,-5.858611462402344,-5.0757075195312495,3.8908769729614257
1788861521288878300,6.65287841796875,-5.916221939849853,-4.613177686309815,3.9600095458984375
1788861521298885400,6.662885498046875,-6.35840105895996,-4.288763361358642,4.150947128295898
1788861521308892400,6.672892333984375,-7.000944929504394,-4.103960920715331,4.243123892211914
1788861521318898400,6.6828984375,-7.445817525482178,-4.064755868530273,4.279036917114258
1788861521328905500,6.692905517578125,-7.94845023651123,-4.140472496032714,4.102314907073974
1788861521338912500,6.70291259765625,-7.607725412750244,-4.4211926406860345,3.6234745750427244
1788861521348919300,6.712919189453125,-6.1936500572204585,-4.595071536254882,3.067121964263916
1788861521358925300,6.72292529296875,-5.540033003997802,-4.418648801422119,3.1112650573730467
1788861521368932600,6.7329326171875,-7.114819145965575,-4.489876300811767,4.180575373840332
1788861521378939400,6.742939453125,-9.056815967559814,-4.862025021362304,4.990264447784424
1788861521388946400,6.752946533203125,-9.341875602722167,-5.223998384857177,4.533869756317139
1788861521398952400,6.762952392578125,-8.00591107635498,-5.250484240722656,3.3029508277893065
1788861521408959500,6.77295947265625,-5.961262858581542,-4.556764309692382,1.7631798851013183
1788861521418966500,6.782966552734375,-5.793668742370605,-3.5501521492004393,0.6132149002075195
1788861521428973300,6.792973388671875,-7.541286316680908,-3.359962754821777,0.8786720092773437
1788861521438980400,6.80298046875,-8.352920679473877,-3.746327047729492,1.8013374740600585
1788861521448986600,6.812986572265625,-7.198167291259765,-4.126855474090576,1.941398271179199
1788861521458993400,6.822993408203125,-6.302436595153808,-4.317344143676758,2.0132243209838867
1788861521469000400,6.83300048828125,-5.972336041259766,-4.3537060813903805,2.6062381446838376
1788861521479007500,6.843007568359375,-5.312284571075439,-3.4461540145874023,2.4148516494750973
1788861521489013500,6.853013427734375,-4.825812721252441,-2.246210070037842,1.4538789581298828
1788861521499020300,6.863020263671875,-5.644928964233398,-1.2870330299377442,0.3941454483032226
1788861521509027600,6.873027587890625,-6.631040773010254,-0.36855741806030273,-0.6169558403015136
1788861521519034400,6.883034423828125,-6.806266407012939,0.2680009483337402,-0.5542576843261718
1788861521529040400,6.893040283203125,-5.779153894805908,0.5425859512329101,0.32396541213989255
1788861521539047400,6.90304736328125,-5.725284357452392,0.4508581001281738,1.1246762298583983
1788861521549054500,6.913054443359375,-5.227739324951171,0.1693897674560547,1.3593079925537108
1788861521559061500,6.9230615234375,-5.4996308509826655,-0.3277063522338867,1.6587328376770019
1788861521569067500,6.933067626953125,-6.351667366790771,-0.870142665863037,1.7087117973327637
1788861521579074300,6.94307421875,-6.302436595153808,-1.287182667541504,1.8083704414367674
1788861521589081600,6.95308154296875,-5.932083525848388,-1.8341081092834473,2.2439655059814454
1788861521599088400,6.96308837890625,-5.548412709808349,-2.248454634094238,2.2700024490356445
1788861521609094400,6.973094482421875,-5.3567269393920895,-2.473210314941406,1.8423381774902343
1788861521619101400,6.983101318359375,-5.793668742370605,-2.601599378967285,1.5038579177856444
1788861521629108500,6.9931083984375,-6.236895324707031,-2.7052982383728024,1.4624083015441893
1788861521639115300,7.003115234375,-5.970989302825927,-2.886808651733398,1.6463129165649413
1788861521649121500,7.01312158203125,-5.614552530670165,-3.132064684295654,1.7464204734802244
1788861521659128300,7.02312841796875,-5.739051016998291,-3.3496377601623535,1.8116624687194822
1788861521669135400,7.03313525390625,-5.952583877563476,-3.7102643852233883,2.0479402450561524
1788861521679142400,7.043142333984375,-6.489782875061035,-4.209605068969727,2.4046762924194334
1788861521689148400,7.0531484375,-7.161057165527343,-4.885817400360107,2.823212670135498
1788861521699155500,7.063155517578125,-7.147739418792725,-5.837662197875976,3.3871967987060545
1788861521709162500,7.07316259765625,-7.208342648315429,-7.028328610992431,4.016273284912109
1788861521719169300,7.083169189453125,-7.2170216293334954,-8.142829483795165,4.367921653747558
1788861521729176600,7.093176513671875,-6.546345889282226,-8.935759146118164,4.4288241584777825
1788861521739182600,7.1031826171875,-6.274304725646973,-9.30850641708374,4.295197778320312
1788861521749189400,7.113189453125,-6.751947956848144,-9.292345555877684,4.067150070190429
1788861521759196400,7.123196533203125,-7.073219892120361,-8.96329246520996,4.083759844207764
1788861521769203500,7.133203369140625,-7.022492744445801,-8.47218184967041,4.497208543395995
1788861521779209500,7.14320947265625,-7.135319497680664,-8.051400907897948,4.835988078308105
1788861521789216500,7.153216552734375,-7.453598680877685,-7.864653178405761,4.84556488494873
1788861521799223300,7.163223388671875,-7.6288243148803705,-7.836371671295166,4.697573294830322
1788861521809230600,7.173230712890625,-7.61640439376831,-7.913135762023925,4.62185666732788
1788861521819236600,7.183236572265625,-7.892934685516357,-8.106317908477783,4.685452648925781
1788861521829243400,7.193243408203125,-8.076540025329589,-8.57423469543457,5.049221663665771
1788861521839250700,7.203250732421875,-7.959673056793212,-9.57590881500244,5.5832782714843745
1788861521849257500,7.213257568359375,-8.192808443450927,-10.510994200897215,5.6760535858154295
1788861521859263500,7.223263427734375,-8.457517364501953,-11.047295372772217,5.1888335479736325
1788861521869270500,7.2332705078125,-8.7853733543396,-11.438896981811522,4.7667058677673335
1788861521879277600,7.243277587890625,-8.88084214553833,-11.541997290802001,4.624250868988037
1788861521889284400,7.253284423828125,-8.751704893493653,-11.405527796173095,4.493168328094482
1788861521899291400,7.26329150390625,-8.239196100616455,-11.244667372131348,4.252999974060058
1788861521909297400,7.27329736328125,-7.672967407989502,-11.113734468841551,4.124610910034179
1788861521919304400,7.283304443359375,-7.687182980346679,-10.79530564804077,3.97736750793457
1788861521929311500,7.2933115234375,-7.707832969665527,-10.279055915069579,3.705326344299316
1788861521939318500,7.303318603515625,-7.445667887878417,-9.72330185470581,3.6701615074157714
1788861521949324300,7.31332421875,-7.299172673797607,-9.307907866668701,3.7850831871032713
1788861521959331600,7.32333154296875,-6.743717888641357,-8.89356134185791,3.67105933303833
1788861521969338400,7.33333837890625,-6.204423964691162,-8.470236560821533,3.4849101539611813
1788861521979345700,7.343345703125,-6.23120909576416,-8.13310303955078,3.4015620086669918
1788861521989351400,7.353351318359375,-6.438906089782715,-8.023269038391113,3.5281554214477535
1788861521999358500,7.3633583984375,-6.60769730682373,-8.040926275634765,4.128202212524414
1788861522009365500,7.373365478515625,-6.8569935546875,-8.261043190765381,4.829404023742676
1788861522019372500,7.38337255859375,-6.856245366668701,-8.572289406585693,5.570409437561035
1788861522029378300,7.39337841796875,-6.259490602874756,-8.71504368057251,5.843049151611328
1788861522039385600,7.403385498046875,-5.065382524871826,-8.831611373901367,5.799354971313476
1788861522049392400,7.413392333984375,-4.063109854888916,-8.762778076171875,5.569960524749756
1788861522059399400,7.4233994140625,-3.5303999855041504,-8.21031604309082,5.106233590698242
1788861522069406500,7.433406494140625,-3.6138977684020994,-7.218966918182373,4.643105207061767
1788861522079412500,7.44341259765625,-4.529979178619384,-6.246322493743896,4.534767581939697
1788861522089419300,7.453419189453125,-5.89916325302124,-5.588964500427246,4.658817155456543
1788861522099426600,7.463426513671875,-7.144896304321288,-5.489754769134521,4.694580542755126
1788861522109433300,7.473433349609375,-8.353818505096434,-5.824643726348876,4.604349067687988
1788861522119439400,7.483439453125,-7.954286103057861,-6.44219811706543,4.061014928436279
1788861522129446400,7.4934462890625,-6.725312463378906,-6.975805812072753,3.7229835815429686
1788861522139453400,7.503453369140625,-6.372018080902099,-7.215076340484619,3.949385276031494
1788861522149460500,7.51346044921875,-6.264279006195068,-7.211036125183105,4.371961869049072
1788861522159466500,7.523466552734375,-6.134543203735351,-7.001543479919433,4.872499653625488
1788861522169473500,7.5334736328125,-5.91801759109497,-6.5966241241455075,5.219808531951904
1788861522179480600,7.54348046875,-5.688922419738769,-6.072742873382568,5.041290870666503
1788861522189487400,7.5534873046875,-5.638494547271728,-5.548263072204589,4.610484209442139
1788861522199493400,7.563493408203125,-6.192153681182861,-5.04383470993042,4.296993429565429
1788861522209500700,7.573500732421875,-6.7757403358459465,-4.719270747375488,3.9176621040344237
1788861522219507500,7.583507568359375,-6.526743363189697,-4.58429762878418,3.5372833152770995
1788861522229514200,7.59351416015625,-6.014683483123779,-4.4464813957214355,3.3209073402404785
1788861522239521500,7.603521484375,-6.110601187133788,-4.377199185180664,3.427748589324951
1788861522249527600,7.613527587890625,-6.513126341247558,-4.447828134155273,3.490895658111572
1788861522259534300,7.623534423828125,-6.476315490722656,-4.578162487030029,3.2531215057373046
1788861522269541400,7.633541259765625,-6.280888780212402,-4.512920491790771,2.699761647033691
1788861522279548400,7.64354833984375,-6.2307601829528805,-3.975422219085693,2.5459341903686523
1788861522289554700,7.6535546875,-7.930344086456298,-3.455281908416748,3.209277687835693
1788861522299561500,7.6635615234375,-9.09766703338623,-3.3672949974060056,3.6004303840637206
1788861522309568500,7.673568603515625,-7.922114018249511,-3.4220623603820797,3.1625907554626465
1788861522319575600,7.683575439453125,-6.641365767669678,-3.3075895935058592,2.1939865463256836
1788861522329581600,7.69358154296875,-7.394491827392578,-2.9523499221801757,1.8013374740600585
1788861522339588400,7.70358837890625,-7.296628834533691,-2.6146178504943847,2.3186346702575684
1788861522349595600,7.713595703125,-6.017376959991455,-2.555810272216797,2.8164789779663084
1788861522359602400,7.7236025390625,-5.771073464202881,-2.798971378326416,2.418143676757812
1788861522369608400,7.7336083984375,-6.3612441734313965,-2.9798832412719727,1.809268267059326
1788861522379615500,7.743615478515625,-6.400748500823974,-2.8775311203002927,1.5973814201354979
1788861522389622500,7.75362255859375,-6.351068816375732,-2.54099614944458,0.6274304725646972
1788861522399629600,7.763629638671875,-7.234229953765869,-2.46423205871582,-0.15741875915527342
1788861522409636600,7.77363671875,-7.365013219451904,-2.607435245513916,-0.1740285331726074
1788861522419642400,7.783642333984375,-6.769455556488037,-2.77083950881958,0.35523967132568357
1788861522429649700,7.793649658203125,-5.893776299285888,-3.0060698219299313,1.3953706550598144
1788861522439656400,7.803656494140625,-5.7706245513916015,-2.987365121459961,2.105550722503662
1788861522449663500,7.81366357421875,-6.004508126068115,-2.5905261962890624,1.5987281585693358
1788861522459669500,7.82366943359375,-5.809380690765381,-1.8121113815307617,0.6124667121887206
1788861522469676500,7.833676513671875,-6.021267537689209,-0.7787140899658203,0.6983586967468262
1788861522479683300,7.843683349609375,-5.774066216278076,0.009576806640625,1.3441945945739746
1788861522489690600,7.853690673828125,-5.504718529510498,0.45489831542968745,1.9604022468566893
1788861522499696400,7.8636962890625,-4.3914147575378415,0.3434183006286621,2.0898387741088866
1788861522509703400,7.873703369140625,-4.300584732055664,-0.0570119270324707,1.5958850440979002
1788861522519710500,7.88371044921875,-5.073911868286133,-0.7155670211791991,0.7647977928161621
1788861522529717500,7.893717529296875,-5.804891562652587,-1.4386159225463866,0.2742857276916504
1788861522539723500,7.9037236328125,-6.19290186920166,-2.224213342285156,0.5204395858764648
1788861522549730600,7.91373046875,-6.600365064239502,-2.992303162384033,1.6955436882019042
1788861522559737300,7.9237373046875,-6.753893245697021,-3.95177947769165,3.254168968963623
1788861522569744600,7.93374462890625,-6.108955173492431,-5.240159246063232,4.294150315093994
1788861522579751400,7.94375146484375,-5.5261167068481445,-6.584952391052246,4.342183985900879
1788861522589757400,7.95375732421875,-6.267421395874023,-7.659051110839843,3.7077205459594724
1788861522599764500,7.963764404296875,-6.940940250396728,-8.361450022888183,3.280205912017822
1788861522609771500,7.973771484375,-7.128735443115234,-8.469338735198974,3.3735797767639157
1788861522619778300,7.9837783203125,-7.063194172668457,-7.980921596527099,3.5187282524108885
1788861522629784600,7.99378466796875,-6.849212399291992,-7.20804337310791,3.5595793182373043
1788861522639791600,8.00379150390625,-6.242282278442382,-6.695684217834472,3.509301083374023
1788861522649798400,8.01379833984375,-5.784690486145019,-6.479308242797851,3.7096658348083493
1788861522659805400,8.023805419921874,-5.722291605377197,-6.383689813995361,4.010587055969238
1788861522669811500,8.0338115234375,-6.028450142669677,-6.490531063079834,4.482544058227539
1788861522679818500,8.043818603515625,-6.444143405914306,-6.873004778289794,4.74994645614624
1788861522689825500,8.053825439453124,-6.503998447418213,-7.599495344543457,4.903923550415039
1788861522699832300,8.063832275390626,-6.546944439697265,-8.462605043029784,5.0960582336425775
1788861522709838300,8.07383837890625,-7.212682138824462,-9.180117353057861,5.033060802459716
1788861522719845600,8.083845703125,-7.8733321594238275,-9.993397729492187,5.006425308990479
1788861522729852400,8.093852294921875,-8.601468739318847,-10.73096147842407,5.063736511230468
1788861522739859500,8.103859375,-8.91914937210083,-11.219827529907226,5.181800580596923
1788861522749866500,8.113866455078124,-9.113678256988525,-11.53616142425537,5.519682289886474
1788861522759872800,8.123872802734375,-9.208698135375975,-11.467627401733397,5.558288791656494
1788861522769879600,8.133879638671875,-9.002347879791259,-11.021258429718017,5.440823272705078
1788861522779886800,8.143886962890624,-8.623465467071533,-10.563666637420654,5.466560940551758
1788861522789893600,8.1538935546875,-8.635286837768554,-10.223390726470946,5.534795687866211
1788861522799899600,8.163899658203125,-8.482357206726073,-10.037241547393798,5.281908137512207
1788861522809906700,8.17390673828125,-7.974786454772949,-9.986963312530516,4.743811314392089
1788861522819913700,8.183913818359375,-7.755866640472411,-9.768791686248779,4.085256220245361
1788861522829920800,8.193920654296875,-7.489960618591308,-9.598953005981445,3.5152865875244137
1788861522839926800,8.2039267578125,-7.333290047454834,-9.69083049468994,3.5079543449401855
1788861522849933600,8.21393359375,-7.417685655975341,-9.634716393280028,3.4700960311889646
1788861522859940900,8.22394091796875,-7.349151633453369,-9.437643669128418,3.2056863853454587
1788861522869947600,8.23394775390625,-7.4314523155212395,-9.200916979980468,3.502567391204834
1788861522879954700,8.24395458984375,-7.235127779388427,-9.182062641906738,4.033780884552002
1788861522889960700,8.253960693359375,-6.955904010772705,-8.96344210281372,3.9852983009338376
1788861522899967700,8.2639677734375,-6.559065085601806,-8.547449564361571,3.5404257049560544
1788861522909974500,8.273974609375,-6.292560513305664,-8.310124324798583,3.456479009246826
1788861522919981800,8.28398193359375,-5.636100345611572,-8.224381977844239,3.4671032791137693
1788861522929987600,8.293987548828126,-4.783465279388428,-8.091204510498047,3.4714427696228025
1788861522939994600,8.30399462890625,-3.939808469390869,-7.813926030731201,3.4995746391296385
1788861522950001700,8.314001708984375,-3.475183709716797,-7.43130267791748,3.5326445495605467
1788861522960008700,8.3240087890625,-3.9969700340270995,-7.025335858917236,3.7419875572204586
1788861522970014500,8.334014404296875,-4.883273561096191,-6.880636296081542,4.428075970458984
1788861522980021800,8.344021728515624,-6.112696113586425,-6.914903307342529,5.613804342651367
1788861522990028500,8.354028564453126,-7.521534152984619,-7.137115148925781,6.5677440666198725
1788861523000035800,8.364035888671875,-8.325387360382079,-7.580641006469726,7.0838441619873045
1788861523010042600,8.374042724609374,-8.084321180725096,-7.977928844451903,6.935104383850097
1788861523020048600,8.384048583984375,-7.152078909301758,-7.998728471374511,6.038625499725342
1788861523030055700,8.3940556640625,-6.508188300323486,-7.645434088897705,4.814739538574218
1788861523040062700,8.404062744140624,-6.411971321105956,-7.227496261596679,4.027795380401611
1788861523050069500,8.414069580078126,-6.641515405273437,-7.039701068878173,3.955670055389404
1788861523060075800,8.42407568359375,-7.2894462295532225,-7.154473110961914,4.161721035766601
1788861523070082600,8.43408251953125,-7.4821794631958,-7.13801297454834,4.122515983581542
1788861523080089600,8.444089599609375,-6.7091516021728514,-6.6623150321960445,3.7538089279174804
1788861523090096600,8.4540966796875,-5.165938994598388,-5.850082118988037,3.5034652168273923
1788861523100102700,8.4641025390625,-4.57127915725708,-5.150675959014892,3.7467759605407713
1788861523110109400,8.474109375,-4.834192427062988,-5.027524211120605,4.209904344177246
1788861523120116700,8.48411669921875,-6.033687458801269,-5.128379956054687,4.580556688690185
1788861523130123500,8.49412353515625,-7.175272737884521,-5.306747979736328,4.252850336456299
1788861523140130800,8.504130859375,-6.791751559448242,-5.456984133911132,3.641131812286377
1788861523150136800,8.51413671875,-6.345083312225341,-5.1900306488037105,3.362805869293213
1788861523160143600,8.5241435546875,-6.503549534606933,-4.800823241424561,3.1331121475219725
1788861523170150700,8.534150634765625,-6.437409713745117,-4.3640310760498044,2.972401361083984
1788861523180157700,8.54415771484375,-6.115688865661621,-3.7743092796325683,3.2179566688537595
1788861523190163700,8.554163818359376,-6.337601432037353,-3.431339891815185,3.866486043548584
1788861523200170800,8.564170654296875,-7.1869444709777826,-3.339612040710449,4.320486533355712
1788861523210177500,8.574177490234375,-7.791779665374755,-3.519177165222168,4.171297842407227
1788861523220184800,8.584184814453126,-7.9767317436218255,-3.9927801811218258,3.8610990898132322
1788861523230190800,8.59419091796875,-7.074566630554199,-4.310610451507568,3.2954689476013184
1788861523240197600,8.60419775390625,-6.440252828216552,-4.006846115875244,2.340481760406494
1788861523250205000,8.614204833984376,-6.856395004272461,-3.3827076705932617,1.5120879859924317
1788861523260211700,8.624211669921875,-7.316979548645019,-2.9040169761657713,1.702726293182373
1788861523270218500,8.634218505859375,-6.771400845336913,-2.798372827911377,2.293345915222168
1788861523280224800,8.644224853515626,-6.019621524047851,-2.814084776306152,2.170194167327881
1788861523290231800,8.654231689453125,-6.151152977752685,-2.493112116241455,1.488295606994629
1788861523300238600,8.664238525390624,-6.988674645996094,-2.1752818458557126,1.094299796295166
1788861523310245600,8.67424560546875,-7.184699906921386,-1.9789573097229003,1.140837091064453
1788861523320251600,8.684251708984375,-6.767510267639159,-1.6953940505981444,1.1285668075561524
1788861523330258700,8.6942587890625,-6.4469865203857415,-1.5773299812316894,0.860565859222412
1788861523340265700,8.704265625,-6.50534518585205,-1.4645032279968262,0.7179612228393554
1788861523350272800,8.714272705078125,-6.5491890037536615,-1.1797428680419921,0.7333738960266113
1788861523360278500,8.724278564453124,-6.432471672821045,-1.018283893585205,1.0818798751831054
1788861523370285800,8.734285888671875,-6.414515160369873,-1.059134959411621,1.735197653198242
1788861523380292600,8.744292724609375,-5.653757582855224,-1.0287585258483887,1.868075845336914
1788861523390300000,8.7542998046875,-5.709123496246337,-0.9834183319091796,2.149693815612793
1788861523400305700,8.7643056640625,-5.449651891326904,-1.37906015625,2.335992632293701
1788861523410312700,8.774312744140625,-5.137657487487792,-1.8694225837707519,2.2833201957702633
1788861523420319700,8.78431982421875,-5.086331789398193,-2.328361114501953,2.037914525604248
1788861523430326800,8.794326904296875,-5.232976641082764,-2.5397990486145017,1.5972317825317381
1788861523440333600,8.80433349609375,-5.440823272705078,-2.454056701660156,1.5640122344970702
1788861523450339800,8.81433984375,-5.533598587036132,-2.2858640350341797,2.0605098037719727
1788861523460346600,8.8243466796875,-5.588814862823486,-2.1423615730285643,2.6535236274719236
1788861523470353700,8.834353759765625,-5.673809021759033,-2.033425397491455,3.1956606658935547
1788861523480360700,8.844360595703124,-5.266495464324951,-2.2272060943603513,3.474585159301758
1788861523490366700,8.85436669921875,-5.007921685028076,-2.667290287017822,3.400963458251953
1788861523500373500,8.86437353515625,-5.416731618499756,-3.4338837310791015,3.2028432708740233
1788861523510380800,8.874380859375,-6.3989528495788575,-4.674828379058837,3.0883705039978024
1788861523520387600,8.8843876953125,-7.32251613998413,-5.994183131408691,2.724302214050293
1788861523530393600,8.8943935546875,-7.295880646514892,-7.070676052856445,2.5767595367431637
1788861523540400600,8.904400634765626,-7.186794833374023,-8.097938202667235,3.1274259185791013
1788861523550407700,8.91440771484375,-6.824222919464111,-9.104849638366698,3.597587269592285
1788861523560414700,8.924414794921875,-6.574028845977783,-9.617059156036376,3.84314257736206
1788861523570421800,8.934421875,-6.911611280059814,-9.858723886108399,4.135534455108642
1788861523580427500,8.944427490234375,-6.940192062377929,-9.674519995880127,4.270357936096191
1788861523590434800,8.954434814453125,-7.488464242553711,-9.07267755355835,4.4376527770996095
1788861523600441600,8.964441650390626,-7.121702475738525,-8.314613452911377,4.233247810363769
1788861523610448600,8.97444873046875,-6.7930982978820795,-7.497741773986816,3.9564182434082027
1788861523620455000,8.984454833984374,-6.966977193450927,-7.030124262237549,4.158429008483886
1788861523630461700,8.994461669921876,-6.762721864318848,-7.159860064697265,4.1006688934326165
1788861523640468500,9.004468505859375,-6.853402252197265,-7.66758045425415,3.944447235107422
1788861523650475800,9.014475830078124,-7.5546040634155265,-8.454225337219238,3.833116857910156
1788861523660481800,9.024481689453125,-7.778611556243896,-9.255385067749023,3.7138556877136226
1788861523670488600,9.034488525390625,-7.595754404449463,-10.059836825561522,4.329165514373779
1788861523680495600,9.04449560546875,-7.268646602630615,-10.74427922515869,4.994603938293457
1788861523690502700,9.054502685546876,-7.318176649475097,-10.998962426757812,5.495740273284912
1788861523700509700,9.064509765625,-7.593659477996826,-10.846631346130371,5.88584550628662
1788861523710515700,9.074515625,-7.68029965057373,-10.443058728790282,5.906495495605468
1788861523720522800,9.084522705078125,-7.786093436431885,-9.709385557556152,5.54811343460083
1788861523730529800,9.09452978515625,-7.299322311401367,-9.018209465789795,4.816535189819335
1788861523740536600,9.10453662109375,-6.594529197692871,-8.7846251663208,4.0824131057739255
1788861523750542600,9.11454248046875,-6.350769541168212,-9.156624249267578,3.7747581924438474
1788861523760550000,9.1245498046875,-6.560711099243163,-9.667935941314697,3.8992566787719722
1788861523770557000,9.134556884765624,-7.390900524902343,-10.010905329132079,4.1469069129943845
1788861523780563700,9.144563720703125,-7.976282830810546,-10.094103836822509,4.141669596862792
1788861523790570000,9.154570068359375,-8.17829359588623,-9.988908601379395,4.159177196502685
1788861523800577000,9.164576904296876,-8.066663943481444,-9.679607674407958,4.02210915145874
1788861523810583800,9.174583740234375,-7.611017440032959,-9.284414762878418,3.9414544830322265
1788861523820590800,9.1845908203125,-7.379228791809082,-9.042600395202637,4.050241020965576
1788861523830598000,9.194597900390624,-7.466467514801025,-8.77774183654785,4.050091383361816
1788861523840604000,9.20460400390625,-7.40601392288208,-8.623914379882812,3.903446531677246
1788861523850611000,9.21461083984375,-7.013364850616455,-8.665214358520508,3.7556045791625974
1788861523860618000,9.224617919921876,-5.832873794555664,-8.635586112976073,3.489100006866455
1788861523870625000,9.234625,-4.459499867248535,-8.346186987304687,3.145083155822754
1788861523880631000,9.244631103515625,-3.557334754180908,-7.962216896057129,3.0588918960571285
1788861523890637800,9.254637939453126,-3.173813575744629,-7.652616693878174,3.309534882354736
1788861523900645000,9.26464501953125,-3.2173581184387205,-7.268347327423095,3.5238159309387207
1788861523910652000,9.27465185546875,-4.1283518501281735,-6.844423995971679,3.8187516479492185
1788861523920658000,9.284657958984376,-5.699397052001952,-6.648997285461426,4.431667272949219
1788861523930665000,9.2946650390625,-7.356184600830078,-6.598719050598144,5.182848043823242
1788861523940672000,9.304672119140625,-8.512434365081786,-6.539911472320556,5.981164659881592
1788861523950678800,9.3146787109375,-9.106046739196778,-6.550685379791259,6.547243714904785
1788861523960686000,9.32468603515625,-8.82383021850586,-6.583904927825928,6.692242552947998
1788861523970691800,9.33469189453125,-8.136694342041014,-6.768557730865478,6.631340048217773
1788861523980699000,9.344698974609376,-7.498639599609374,-6.743717888641357,6.46748687210083
1788861523990706000,9.354705810546875,-6.771101570129394,-6.607098756408691,5.93717120437622
1788861524000713000,9.364712890625,-5.868337906646728,-6.3973068359375,4.844966334533691
1788861524010718700,9.37471875,-5.2180128807067865,-6.181978324127197,3.744980309295654
1788861524020726000,9.38472607421875,-4.9640778671264645,-5.8831520294189446,2.9171850852966306
1788861524030732800,9.39473291015625,-5.703137992095947,-5.389347937011719,2.8233623077392576
1788861524040740000,9.404739990234376,-7.037755780029296,-4.995801039123535,3.308188143920898
1788861524050745900,9.414745849609375,-7.739406504058837,-5.059397020721435,3.902698343658447
1788861524060753000,9.4247529296875,-7.337629537963867,-5.619640209197998,4.587440018463134
1788861524070760000,9.434760009765625,-6.99061993484497,-6.128408061981201,4.995801039123535
1788861524080767000,9.44476708984375,-7.08010322189331,-6.131400814056396,4.974552499389648
1788861524090773000,9.45477294921875,-6.561160012054443,-5.679046337890624,4.413561122894287
1788861524100780000,9.464780029296875,-5.88659369430542,-5.1894320983886715,3.689015845489502
1788861524110786800,9.474786865234375,-5.749974562072754,-4.633378762817382,3.0755016700744626
1788861524120793900,9.4847939453125,-6.534674156188965,-4.294449590301514,3.0653263130187987
1788861524130801000,9.49480078125,-8.072200534820556,-4.267664459228516,3.59444487991333
1788861524140807000,9.504806884765625,-8.766818291473388,-4.464886820983886,4.010138143157959
1788861524150813700,9.514813720703126,-8.278401152801512,-4.5887867568969725,3.7075709083557125
1788861524160821000,9.524821044921875,-6.809259159088135,-4.466083921813965,2.985419832611084
1788861524170827800,9.534827880859375,-5.429151539611816,-3.8673838691711424,2.1627122871398923
1788861524180833800,9.544833740234376,-6.233902572631836,-2.9679122329711913,1.5165771141052244
1788861524190840800,9.5548408203125,-7.458835997009277,-2.314145542144775,1.7287632362365721
1788861524200848000,9.564847900390625,-6.925976490020751,-2.108094561767578,2.038662713623047
1788861524210855000,9.57485498046875,-6.162076522827148,-2.3316531417846678,1.903839232635498
1788861524220861000,9.58486083984375,-5.674108296966552,-2.8541876541137694,1.8599954147338866
1788861524230868000,9.594867919921874,-5.238363594818115,-3.0131027893066404,1.7709610404968261
1788861524240875000,9.604875,-5.941959607696533,-2.4848820480346676,1.3453916954040526
1788861524250881800,9.6148818359375,-7.06753366317749,-1.6347908210754394,0.8307879760742187
1788861524260889000,9.62488916015625,-6.994959425354003,-1.0301052642822266,0.7736264114379883
1788861524270895000,9.63489501953125,-6.222679752349853,-0.7351695472717285,0.955136824798584
1788861524280902000,9.64490185546875,-6.025457390594482,-0.5955576629638671,1.1251251426696776
1788861524290909000,9.654908935546874,-6.289867036437988,-0.6003460662841796,1.177947216796875
1788861524300916000,9.664916015625,-6.368576416015625,-0.7905354606628417,1.172859538269043
1788861524310922000,9.674921875,-6.010493630218505,-0.6027402679443359,1.0404302589416503
1788861524320929000,9.684928955078124,-5.843498064422607,-0.2680009483337402,1.106420442199707
1788861524330936000,9.69493603515625,-5.537189889526367,-0.33473931961059566,1.9654899253845213
1788861524340942800,9.70494287109375,-5.053860429382324,-0.4991910461425781,2.683451148223877
1788861524350949000,9.71494921875,-4.648492160797119,-0.6845920372009276,2.8483517875671387
1788861524360956000,9.724955810546875,-4.642656294250488,-1.1665747589111328,2.793584424591064
1788861524370963000,9.734962890625,-4.84571452255249,-1.7052701324462889,2.7555764732360837
1788861524380970000,9.744969970703124,-4.914398182678222,-2.185307565307617,2.7575217620849606
1788861524390976000,9.75497607421875,-5.169530297088623,-2.6173113273620605,2.6663924613952634
1788861524400982800,9.764982666015625,-5.708076033020019,-2.9920038871765136,2.625092482757568
1788861524410990000,9.774989990234374,-5.819705685424804,-3.4880525436401366,2.8700492401123046
1788861524420996900,9.784996826171875,-5.519532652282715,-3.8946179130554195,2.638110954284668
1788861524431004200,9.795004150390625,-6.407931105804443,-4.288912998962402,2.309806051635742
1788861524441010000,9.805010009765626,-7.463624400329589,-4.658517880249023,2.6408044311523438
1788861524451017000,9.815016845703125,-7.781005757904052,-4.9917608238220215,3.2906805442810056
1788861524461024000,9.82502392578125,-7.931241912078857,-5.276371546173095,3.744381758880615
1788861524471031000,9.835031005859374,-7.528118207550048,-5.667075329589843,3.8379052612304685
1788861524481036800,9.845036865234375,-6.932111631774902,-6.379051048278808,3.9064392837524413
1788861524491044000,9.855044189453125,-6.695384942626953,-7.245752049255371,4.197634060668945
1788861524501051000,9.86505078125,-6.663961045837402,-8.153304116058349,4.172943856048584
1788861524511058000,9.875057861328125,-7.10554161453247,-8.768613942718506,3.754108203125
1788861524521064000,9.88506396484375,-7.0735191673278806,-9.06534531097412,3.7024832298278807
1788861524531071000,9.895071044921876,-6.648099459838867,-9.131335494232177,4.0909424491882325
1788861524541077800,9.905077880859375,-6.505045910644531,-9.133729695892333,4.518157807922363
1788861524551085000,9.9150849609375,-6.523750611114502,-9.240570944976806,4.884769937133789
1788861524561091800,9.925091796875,-6.568791529846191,-9.28920316619873,5.055207167816162
1788861524571097900,9.935097900390625,-6.916399683380127,-9.151386933135985,4.703708436584472
1788861524581105000,9.94510498046875,-7.422922972106933,-8.959102612304687,4.2396822273254395
1788861524591112000,9.95511181640625,-7.663839514160156,-8.776245460510253,4.005349739837646
1788861524601119000,9.965118896484375,-7.713519198608398,-8.67673645401001,3.8233904136657713
1788861524611125000,9.975125,-7.6485764785766595,-8.865279834747314,3.8521208335876462
1788861524621131800,9.9851318359375,-7.448511002349853,-9.25044702682495,4.162169948577881
1788861524631139000,9.99513916015625,-7.270591891479492,-9.676914197540283,4.4577042160034175
1788861524641145900,10.005145751953124,-7.499836700439452,-10.148123011779784,4.578910675048828
1788861524651152000,10.01515185546875,-7.953537915039062,-10.603320602416991,4.587440018463134
1788861524661159000,10.025158935546875,-8.196699021148682,-10.897807406616211,4.515613968658447
1788861524671166000,10.035166015625,-8.260594277954102,-10.842740768432616,4.307019149017334
1788861524681172700,10.0451728515625,-8.084171543121338,-10.512939489746094,4.083460569000244
1788861524691179000,10.055178955078125,-7.892186497497558,-10.105326657104492,4.036025448608398
1788861524701186000,10.06518603515625,-7.822006461334228,-9.618405894470214,4.001309524536133
1788861524711192800,10.07519287109375,-7.895777799987792,-9.199570241546631,3.951330564880371
1788861524721199900,10.085199951171875,-8.074295461273193,-8.9769094871521,4.109946424865722
1788861524731207000,10.09520703125,-7.942614369964599,-8.916156620025633,4.292504301452636
1788861524741213000,10.105212890625,-7.351845110321045,-8.91840118408203,4.351012604522705
1788861524751220000,10.115219970703125,-6.669347999572754,-8.832808474731445,4.387374542236328
1788861524761227000,10.12522705078125,-6.126313135528564,-8.585307878112792,4.335300656127929
1788861524771233000,10.13523291015625,-6.163123986053466,-8.201637062072754,4.31584776763916
1788861524781239300,10.1452392578125,-6.719925509643554,-8.068010681915283,4.540902723693847
1788861524791246000,10.15524609375,-6.595576660919189,-8.166621862792969,4.5319244674682615
1788861524801253000,10.165253173828125,-5.992088204956055,-8.290521798706054,4.164564150238037
1788861524811260200,10.17526025390625,-5.456984133911132,-8.430432958221434,3.8997055915832517
1788861524821266200,10.18526611328125,-5.0574517318725585,-8.495824591064453,3.736151690673828
1788861524831273000,10.19527294921875,-5.098602072906494,-8.404246377563476,3.8078281028747556
1788861524841280300,10.2052802734375,-5.985504150390625,-8.112752325439452,4.555716846466064
1788861524851287000,10.215287109375,-6.585251666259765,-7.822904286956787,5.5641246582031245
1788861524861293000,10.22529296875,-6.55008682937622,-7.294683545684814,6.346280413055419
1788861524871300000,10.235300048828124,-6.601711802673339,-6.725312463378906,6.73563745803833
1788861524881307100,10.24530712890625,-6.769455556488037,-6.581061813354491,6.681767920684814
1788861524891314200,10.255314208984375,-6.967875019073486,-6.762272951507568,6.3156047042846675
1788861524901321200,10.2653212890625,-6.99735362701416,-7.108235091400146,5.5261167068481445
1788861524911327200,10.2753271484375,-6.8858736122131345,-7.2343795913696285,4.371064043426514
1788861524921334300,10.285334228515625,-6.438606814575195,-6.911312004852294,3.200449069213867
1788861524931341000,10.295341064453124,-5.946897648620605,-6.111499012756347,2.5863363433837887
1788861524941348000,10.30534814453125,-6.102520756530762,-5.006275671386718,3.2255881866455076
1788861524951354400,10.315354248046875,-6.429478920745849,-4.23309817276001,4.391863670349121
1788861524961361200,10.325361083984374,-6.906972514343261,-4.305672410583496,4.894945294189453
1788861524971368200,10.3353681640625,-7.211036125183105,-4.8971898582458495,4.624999057006836
1788861524981375200,10.345375244140625,-6.354809756469726,-5.266345826721191,4.037072911834716
1788861524991381200,10.35538134765625,-5.83526799621582,-5.344157380676269,3.5447651954650876
1788861525001388000,10.365387939453125,-6.142922909545898,-5.173570512390136,3.3631051445007323
1788861525011395300,10.375395263671875,-6.74177259979248,-4.946869542694092,3.7503672630310056
1788861525021402000,10.385402099609376,-7.126490879058838,-4.892551092529296,4.412364022064208
1788861525031408000,10.395408203125,-7.203105332183838,-5.086780702209472,4.965274967956542
1788861525041415200,10.405415283203125,-7.472602656555176,-5.329792170715332,5.242254172515869
1788861525051422200,10.415422119140626,-7.351396197509765,-5.102043737792968,5.103240838623047
1788861525061429200,10.42542919921875,-6.271162335968017,-4.450970523834228,4.659266068267822
1788861525071435300,10.435435302734374,-5.58597174835205,-3.8908769729614257,4.149151477050781
1788861525081442000,10.445442138671876,-6.615927375030517,-3.731363287353515,4.0063972030639645
1788861525091449300,10.455449462890625,-7.780257569885253,-3.81785382232666,3.7439328460693355
1788861525101456100,10.4654560546875,-7.851335431671142,-3.796754920196533,2.9337948593139647
1788861525111463200,10.475463134765626,-7.269843703460693,-3.412934466552734,1.7821838607788085
1788861525121469200,10.48546923828125,-7.1878422966003415,-2.689586289978027,1.115249060821533
1788861525131476200,10.495476318359374,-6.935254021453857,-2.403030278778076,1.209071838378906
1788861525141483000,10.50548291015625,-5.5440732192993165,-2.608482708740234,1.3189058395385742
1788861525151490300,10.515490234375,-5.134066184997558,-2.6247932075500486,1.4959271247863768
1788861525161496000,10.52549609375,-5.588814862823486,-2.3599346488952637,1.2732663703918456
1788861525171503000,10.535503173828126,-6.283881532287597,-2.09402862701416,0.8502408645629882
1788861525181510100,10.54551025390625,-6.372167718505859,-1.832911008453369,1.144727668762207
1788861525191517200,10.55551708984375,-6.181529411315918,-1.688660358428955,1.3389572784423827
1788861525201523200,10.565523193359375,-5.7700260009765625,-1.681627391052246,0.8351274665832519
1788861525211530200,10.5755302734375,-5.838560023498535,-1.472882933807373,0.3794809631347656
1788861525221537000,10.585537109375,-6.523750611114502,-1.2418424736022948,0.6929717430114746
1788861525231544300,10.59554443359375,-6.847865660858154,-0.8773252708435058,1.0549451065063475
1788861525241550000,10.605550048828125,-6.091746849060058,-0.3477577911376953,1.3260884445190428
1788861525251557000,10.61555712890625,-5.303306314849853,0.15682020874023436,2.018611274719238
1788861525261564200,10.625564208984375,-4.980986916351318,0.524779076385498,2.5252842010498044
1788861525271571200,10.6355712890625,-5.021538706970214,0.5844844802856445,2.559251937103271
1788861525281577200,10.6455771484375,-5.284003063964843,0.10429740982055663,2.433257074737549
1788861525291584300,10.655584228515625,-5.314978047943115,-0.8319850769042968,2.2744915771484373
1788861525301591000,10.665591064453125,-5.423166035461425,-2.051681185150146,2.147748526763916
1788861525311598300,10.675598388671874,-5.83541763381958,-3.13475816116333,1.8990508293151855
1788861525321604400,10.685604248046875,-6.347327876281738,-3.8968624771118163,1.6189292350769042
1788861525331611100,10.695611083984375,-6.490979975891113,-4.36058941116333,1.7618331466674804
1788861525341618200,10.7056181640625,-5.7966614944458,-4.614674062347412,2.236483625793457
1788861525351625200,10.715625244140625,-5.291335306549072,-4.653430201721191,2.6892870147705077
1788861525361632000,10.725632080078125,-5.625326438140869,-4.7746366607666015,3.077895871734619
1788861525371638300,10.73563818359375,-5.971587853240966,-5.122693727111816,3.289633081054687
1788861525381645300,10.745645263671875,-6.200683024597168,-5.595847830200195,3.2089784126281735
1788861525391652000,10.755652099609375,-6.5777697860717765,-6.121973645019531,3.153313224029541
1788861525401659100,10.7656591796875,-7.292289344024658,-6.770503019714355,3.4015620086669918
1788861525411665200,10.7756650390625,-7.283311087799071,-7.210736849975586,3.836408885192871
1788861525421672200,10.785672119140624,-6.783521491241455,-7.304409989929199,4.323030372619629
1788861525431679200,10.79567919921875,-6.425438705444336,-7.310994044494628,4.611531672668456
1788861525441686300,10.805686279296875,-6.34568186264038,-7.465270413970947,4.873846392059326
1788861525451692000,10.815692138671874,-6.316951442718506,-7.870339407348633,5.166986457824707
1788861525461699300,10.82569921875,-6.3162032546997064,-8.373121755981446,5.382165332031249
1788861525471706000,10.8357060546875,-6.741024411773681,-8.901791410064696,5.313930584716797
1788861525481713400,10.84571337890625,-7.4968439483642575,-9.257779269409179,4.780322889709472
1788861525491719200,10.85571923828125,-7.827543052673339,-9.632022916412353,4.089595710754394
1788861525501726200,10.865726318359375,-7.977779206848144,-10.013299530792235,3.7529111022949215
1788861525511733200,10.875733154296874,-8.482656481933594,-10.506953985595702,3.9463925239562987
1788861525521740300,10.885740234375,-8.84253491897583,-11.136180109405517,4.583250165557861
1788861525531746000,10.89574609375,-8.690652751159668,-11.629236013793944,5.336226587677001
1788861525541753300,10.90575341796875,-8.442703241729737,-11.730989584350585,5.979817921447753
1788861525551760100,10.915760009765625,-8.379256897735596,-11.336544860839844,6.476914041137695
1788861525561767200,10.92576708984375,-8.320000406646727,-10.593145245361328,6.523152060699463
1788861525571773200,10.935773193359376,-8.04406866531372,-9.882067352294921,6.14202508392334
1788861525581780200,10.9457802734375,-7.704840217590331,-9.280374547576903,5.363909544372558
1788861525591787000,10.955787109375,-7.069179676818847,-8.968380143737793,4.376899909973145
1788861525601794300,10.965794189453124,-6.707655226135254,-9.09796630859375,3.7755063804626463
1788861525611800300,10.97580029296875,-6.8116533607482905,-9.275286869049072,3.5140894866943357
1788861525621807000,10.98580712890625,-6.8119526359558105,-9.427468312072753,3.5160347755432126
1788861525631814100,10.995814208984376,-6.925677214813232,-9.420884257507323,3.596390168762207
1788861525641821200,11.0058212890625,-7.022492744445801,-9.160365189361572,3.668365856170654
1788861525651827200,11.0158271484375,-7.212831776428223,-8.848520423126221,3.97108272857666
1788861525661834200,11.025834228515626,-7.5990464317321775,-8.654889363861084,4.504690423583984
1788861525671841000,11.035841064453125,-7.799860095977783,-8.578574185943603,4.950161569976807
1788861525681848300,11.045848388671875,-7.233930678558349,-8.487744160461425,4.84556488494873
1788861525691854300,11.055854248046876,-6.723516812133789,-8.519616970062255,4.384232152557373
1788861525701861000,11.065861083984375,-6.07812982711792,-8.672396963500976,3.7249288703918455
1788861525711868200,11.0758681640625,-5.1128176452636716,-8.738387146759033,3.1721675621032714
1788861525721875200,11.085875244140626,-4.527285701751708,-8.569595929718018,2.9876643966674803
1788861525731881200,11.095881103515625,-4.758924712371826,-8.141632382965087,3.5296517974853514
1788861525741888300,11.10588818359375,-5.3405660781860345,-7.772775689697265,4.783614916992187
1788861525751895300,11.115895263671876,-5.331737459564208,-7.538742477416991,6.111947925567627
1788861525761903000,11.125903076171875,-5.63729744644165,-7.237073068237304,6.935702934265136
1788861525771909000,11.1359091796875,-6.912359468078613,-7.017255428314209,6.954257997131347
1788861525781916200,11.145916259765626,-8.385392039489746,-7.064391273498535,6.557269434356689
1788861525791923000,11.1559228515625,-8.742726637268065,-7.348702720642089,6.162824710845947
1788861525801930200,11.16593017578125,-8.217049735260009,-7.551162398529052,5.709123496246337
1788861525811937000,11.17593701171875,-7.2708911666870115,-7.651569230651855,5.04982021408081
1788861525821943000,11.185943115234375,-6.119130530548095,-7.702146740722656,4.246415919494629
1788861525831950000,11.1959501953125,-5.36914686050415,-7.331793671417236,3.7186440910339353
1788861525841957000,11.20595703125,-5.231929177856445,-6.5683426170349115,3.8302737434387204
1788861525851964000,11.2159638671875,-5.24794040145874,-5.883750579833984,4.2597336662292475
1788861525861970200,11.22597021484375,-5.411045389556884,-5.449951166534423,4.561253437805176
1788861525871977200,11.235977294921875,-5.703437267303467,-5.451148267364502,4.358045571899414
1788861525881984000,11.24598388671875,-6.114791040039062,-5.475239921569824,3.8461353294372556
1788861525891991000,11.255990966796874,-6.5966241241455075,-5.219509256744384,3.5238159309387207
1788861525901997000,11.2659970703125,-7.2270473487854,-4.8397290184021,3.5610756942749022
1788861525912004000,11.276004150390625,-7.6562079963684075,-4.556016121673584,3.6827310661315917
1788861525922011100,11.28601123046875,-7.28420891342163,-4.350563691711425,3.725976333618164
1788861525932018000,11.296017822265625,-6.437708988952636,-4.103811283111572,3.693205698394775
1788861525942024000,11.30602392578125,-5.763591584014892,-3.90060341720581,3.8138136070251463
1788861525952031200,11.31603125,-5.472995357513428,-3.794360718536377,4.144811986541748
1788861525962038000,11.3260380859375,-6.59512774810791,-3.6659716545104977,4.848407999420166
1788861525972045000,11.336045166015625,-8.267178332519531,-3.744381758880615,5.308693268585205
1788861525982051000,11.346051025390626,-8.686911811065674,-4.07927071609497,4.912303256225585
1788861525992058000,11.35605810546875,-7.9278002471923825,-4.369268392181397,3.81785382232666
1788861526002065200,11.366065185546875,-6.5224038726806635,-4.29025973739624,2.6818051345825196
1788861526012072200,11.376072265625,-5.663932939910889,-3.7262756088256834,1.6666636306762694
1788861526022078000,11.386077880859375,-6.12930588760376,-3.0542531303405758,1.345840608215332
1788861526032085200,11.396085205078125,-6.4469865203857415,-2.6836007858276365,1.3367127143859863
1788861526042092000,11.406092041015626,-5.852775595855713,-2.570175482177734,1.126920793914795
1788861526052099000,11.41609912109375,-5.268291115570068,-2.367266891479492,0.7056909393310546
1788861526062105000,11.42610498046875,-5.568763423919678,-2.1740847450256346,0.6001964286804199
1788861526072112000,11.436112060546876,-5.983858136749268,-1.7636287979125975,0.7314286071777343
1788861526082119000,11.446118896484375,-6.085013156890869,-1.2976572998046874,0.5122095176696777
1788861526092126200,11.456126220703124,-6.034136371612549,-0.994042601776123,0.35673604736328124
1788861526102132000,11.466132080078125,-5.587168849182128,-0.694617756652832,0.6413467697143554
1788861526112139000,11.476138916015625,-5.108627792358398,-0.5342062454223633,0.5874772323608398
1788861526122146000,11.48614599609375,-5.35657730178833,-0.528669654083252,0.32875381546020505
1788861526132153000,11.496153076171876,-5.518634826660156,-0.7942764007568359,0.6426935081481934
1788861526142159000,11.5061591796875,-5.690718070983887,-1.0510545288085937,1.0423755477905272
1788861526152166100,11.516166259765624,-5.581482620239258,-0.9976339042663573,1.2189479202270508
1788861526162173000,11.5261728515625,-5.428702626800537,-0.6591536445617675,1.304390991973877
1788861526172180200,11.53618017578125,-5.550806911468506,-0.31797990798950193,1.6223708999633788
1788861526182186200,11.546186279296874,-5.254823731231689,-0.3908534210205078,2.3376386459350584
1788861526192193000,11.556193115234375,-4.827009822082519,-0.9509469718933105,2.7232547508239744
1788861526202200000,11.566199951171875,-4.841973582458496,-1.6135422813415525,2.739415612030029
1788861526212207000,11.57620703125,-4.818330841064453,-2.2016180641174317,2.6598084068298338
1788861526222213000,11.586213134765625,-5.256469744873047,-2.736722135162353,2.485480598449707
1788861526232220200,11.59622021484375,-6.1176341545104975,-3.2199019577026364,2.3095067764282224
1788861526242227200,11.606227294921876,-6.86297905883789,-3.8147114326477047,2.2035633529663086
1788861526252233000,11.61623291015625,-6.979097839355468,-4.587140743255615,2.259378179168701
1788861526262240300,11.626240234375,-6.730699417114257,-5.4506993545532225,2.5547628089904784
1788861526272247000,11.6362470703125,-6.475118389892578,-6.272957987213134,2.9472622436523435
1788861526282254300,11.64625439453125,-6.1367877677917475,-6.995408338165283,3.278410260772705
1788861526292260000,11.656260009765624,-6.205770703124999,-7.587524336242676,3.393032665252685
1788861526302267100,11.66626708984375,-6.568492254638672,-7.971494427490234,3.406051136779785
1788861526312274200,11.676274169921875,-6.441001016235351,-8.139387818908691,3.649960430908203
1788861526322281200,11.68628125,-6.045658467102051,-8.255356961822509,4.102165269470214
1788861526332287000,11.696286865234375,-5.875969424438476,-8.442403966522216,4.476109641265869
1788861526342294300,11.706294189453125,-5.923853457641601,-8.639027777862548,4.611681310272217
1788861526352301000,11.716301025390624,-6.288969210815429,-8.731952729797364,4.574870459747314
1788861526362308000,11.72630810546875,-6.972962697601318,-8.660725230407714,4.59043277053833
1788861526372314000,11.736314208984375,-7.835324208068847,-8.45916337814331,4.636970065307617
1788861526382321200,11.746321044921874,-8.68317087097168,-8.473229312896729,4.777180500030517
1788861526392328000,11.756327880859375,-9.273042304992675,-8.993519261169434,5.1791071037292475
1788861526402335200,11.766335205078125,-9.392303475189209,-9.982474184417724,5.827935753631592
1788861526412341000,11.776341064453124,-9.312696269989013,-11.0187145904541,6.408230381011962
1788861526422348000,11.78634814453125,-9.509020806121825,-11.798925056457518,6.391022056579589
1788861526432355000,11.79635498046875,-9.635464581298828,-11.98986263885498,5.786186862182617
1788861526442362000,11.806362060546874,-9.228450299072264,-11.684901202392577,5.058798470306396
1788861526452368100,11.8163681640625,-8.738087871551514,-11.239280418395996,4.645649046325683
1788861526462375200,11.826375244140625,-8.282142092895507,-10.9045410987854,4.535665407562256
1788861526472382000,11.8363818359375,-7.441328397369384,-10.520271732330322,4.60270305404663
1788861526482389200,11.84638916015625,-6.622960342407226,-9.979780707550049,4.731391393280029
1788861526492395300,11.856395263671875,-6.2401873519897455,-9.266458250427245,4.8041152687072755
1788861526502402000,11.866402099609376,-6.280290229797363,-8.592191207885742,4.779574701690674
1788861526512409000,11.8764091796875,-6.526144812774658,-8.228422193145752,4.727051902770996
1788861526522416000,11.886416015625,-6.681319007873535,-8.141482745361328,4.675576567077637
1788861526532422100,11.896422119140626,-6.890961290740966,-8.109609935760497,4.552275181579589
1788861526542429200,11.90642919921875,-6.861931595611572,-8.149712813568115,4.473715439605713
1788861526552436200,11.916436279296875,-6.72217007369995,-8.292616725158691,4.404283591461182
1788861526562443000,11.926443115234376,-6.910563816833496,-8.390629355621337,4.1463083625793455
1788861526572449300,11.93644921875,-7.007379346466064,-8.56166513671875,3.9516298400878904
1788861526582456000,11.9464560546875,-6.963834803771972,-8.80946500854492,3.831919757080078
1788861526592463000,11.956463134765626,-6.8496613121032714,-8.909871840667725,3.7180455406188964
1788861526602470100,11.96647021484375,-6.67817661819458,-8.913463143157959,3.792864342498779
1788861526612476200,11.97647607421875,-6.354061568450927,-8.836848690032959,4.050839571380615
1788861526622483000,11.98648291015625,-5.690269158172607,-8.541613697814942,4.454262551116943
1788861526632490200,11.996490234375,-4.834342064666748,-8.169614614868163,4.947168817901611
1788861526642497000,12.0064970703125,-4.248810121154785,-7.663390601348876,5.278616110229492
1788861526652503000,12.0165029296875,-4.151545678710937,-7.017255428314209,5.561730456542969
1788861526662510000,12.026510009765625,-4.802319617462158,-6.323236222076416,5.747879635620117
1788861526672517000,12.03651708984375,-6.434566599273682,-5.859060375213622,5.765387235260009
1788861526682524200,12.046524169921875,-7.818265521240234,-5.908291146850585,5.782296284484863
1788861526692530200,12.0565302734375,-8.110208486175537,-6.344484761810302,5.726032545471191
1788861526702537000,12.066536865234376,-8.394819208526611,-6.725911013793945,5.488108755493164
1788861526712544300,12.076544189453125,-8.7593364112854,-6.874501154327392,5.059397020721435
1788861526722550300,12.08655029296875,-8.08866067123413,-7.031919913482666,4.529679903411865
1788861526732557000,12.09655712890625,-6.487538311004638,-7.198167291259765,4.206612316894531
1788861526742564000,12.106564208984375,-5.228038600158691,-7.261613635253906,4.136432280731201
1788861526752571100,12.116571044921875,-5.12688358001709,-7.070077502441406,4.3728596946716305
1788861526762577200,12.1265771484375,-6.134842478942871,-6.680720457458496,4.578312124633789
1788861526772584000,12.136583984375,-6.752696144866943,-6.328024625396728,4.324975661468506
1788861526782591000,12.146591064453125,-6.884975786590576,-5.96275923461914,4.02869320602417
1788861526792598000,12.156597900390626,-6.806715319824218,-5.736058264923096,3.969137439727783
1788861526802604000,12.16660400390625,-6.564003126525878,-5.543325031280517,4.097227228546142
1788861526812610800,12.17661083984375,-6.477662229156493,-5.203946945953369,4.337545220184326
1788861526822618000,12.1866181640625,-6.648847647857665,-4.712537055206298,4.498704919433593
1788861526832625000,12.196625,-6.676979517364502,-4.064606230926514,4.478204567718506
1788861526842631000,12.206630859375,-6.974758348846435,-3.4557308212280273,4.512471578979492
1788861526852638000,12.216637939453125,-7.42441934814453,-3.2468367263793945,4.621407754516602
1788861526862645000,12.22664501953125,-7.3545385871887206,-3.521571366882324,4.436156401062012
1788861526872652000,12.236652099609374,-6.816142488861083,-3.8084266532897946,3.7734114540100094
1788861526882658000,12.246657958984375,-6.124816759490966,-3.812167593383789,2.850446714019775
1788861526892664800,12.256664794921875,-5.955875904846191,-3.726724521636963,2.029684457397461
1788861526902672100,12.266672119140624,-5.914725563812255,-3.5338416503906247,1.4474445411682129
1788861526912678000,12.276677978515625,-6.0160302215576165,-3.225139273834228,0.630123949432373
1788861526922685000,12.286684814453125,-6.627748745727539,-3.08358210067749,-0.1236006607055664
1788861526932692000,12.29669189453125,-7.281665074157714,-2.98152925491333,-0.16445172653198242
1788861526942699000,12.306698974609375,-6.306027897644043,-2.7343279335021973,0.5009866973876953
1788861526952705000,12.316705078125,-4.612429498291015,-2.161215911102295,0.8997709114074707
1788861526962712000,12.326712158203126,-4.836736266326904,-1.5343839889526367,0.9065046035766601
1788861526972718800,12.33671875,-5.66303511428833,-0.9732429748535155,1.0718541557312011
1788861526982726000,12.346725830078125,-5.699696327209472,-0.7095815170288086,1.4311340423583983
1788861526992732200,12.356732177734376,-5.8283846664428705,-1.0694599540710448,1.3346177879333496
1788861527002739000,12.366739013671875,-5.896619413757324,-1.0289081634521484,1.1315595596313477
1788861527012746000,12.37674609375,-6.019172611236572,-0.49859249572753905,0.9656114570617675
1788861527022753000,12.3867529296875,-5.738901379394531,0.006584054565429687,0.9063549659729003
1788861527032759000,12.396759033203125,-5.434538493347167,0.2171241630554199,1.1991957565307616
1788861527042766000,12.40676611328125,-5.19032992401123,0.02454056701660156,1.6786346389770508
1788861527052773000,12.416773193359376,-5.0023850936889644,-0.26171616897583005,1.9107225624084472
1788861527062780000,12.42677978515625,-5.078700271606445,-0.5536591339111328,1.9614497100830077
1788861527072786200,12.4367861328125,-4.885368487548828,-1.0739490821838378,2.2164321868896484
1788861527082793000,12.44679296875,-4.883123923492431,-1.6114473548889159,2.340032847595215
1788861527092800000,12.456800048828125,-5.094112944793701,-2.0501848091125487,2.291250988769531
1788861527102806000,12.466805908203124,-5.065232887268066,-2.4938603042602536,2.47081611328125
1788861527112813000,12.47681298828125,-5.1803042045593255,-2.877830395507812,2.9110499435424804
1788861527122819800,12.48681982421875,-5.648819541931152,-3.2631472251892086,3.2047885597229
1788861527132827100,12.4968271484375,-6.17344898071289,-3.7153520637512205,3.173813575744629
1788861527142833000,12.5068330078125,-6.493673452758789,-4.25838692779541,3.093009269714355
1788861527152840000,12.51683984375,-6.4457894195556635,-4.913500357055664,3.2032921836853023
1788861527162847000,12.526846923828124,-6.315155791473388,-5.620837310028076,3.3975217933654784
1788861527172854000,12.53685400390625,-6.400598863220215,-6.354809756469726,3.4715924072265625
1788861527182859800,12.54685986328125,-6.550685379791259,-7.100453936004638,3.441814524078369
1788861527192867000,12.5568671875,-6.7645175155639645,-7.729829697418213,3.4620156005859375
1788861527202873900,12.566873779296875,-6.951863795471191,-8.307730123138427,3.693953886413574
1788861527212880000,12.5768798828125,-6.944381915283203,-8.859743243408202,4.1103953376770015
1788861527222887000,12.586886962890626,-7.007379346466064,-9.426121573638916,4.511424115753173
1788861527232894000,12.59689404296875,-7.234080316162109,-9.857975698089598,4.702960248565674
1788861527242901000,12.60690087890625,-7.5354504501342765,-10.031405680847167,4.799326865386963
1788861527252907000,12.616906982421876,-7.843105363464355,-9.948057535552978,4.835239890289307
1788861527262914000,12.6269140625,-8.275558038330077,-9.643545011901855,4.623801956176758
1788861527272921000,12.636921142578124,-8.484302495574951,-9.363273780059814,4.3540053565979004
1788861527282927900,12.646927978515626,-8.568997379302978,-9.133580058288574,4.097975416564942
1788861527292934000,12.656933837890625,-8.550591954040527,-8.87994431991577,3.976768957519531
1788861527302941200,12.666941162109374,-8.608052793884276,-8.66326906967163,4.270357936096191
1788861527312948000,12.676947998046876,-8.763226988983154,-8.796147261810303,5.059845933532714
1788861527322955000,12.686955078125,-8.828768259429932,-9.466673364257812,6.20562106552124
1788861527332961000,12.6969609375,-8.971372895812987,-10.429292069244385,7.155520574188232
1788861527342968000,12.706968017578125,-8.94997471847534,-11.263820985412597,7.27193862991333
1788861527352974800,12.716974853515625,-8.540416596984862,-11.534365773010252,6.356605407714843
1788861527362981000,12.726981201171874,-7.744643820190429,-11.11493156967163,4.959289463806152
1788861527372988000,12.73698779296875,-7.331045483398437,-10.497676454162598,3.792864342498779
1788861527382995000,12.746994873046875,-6.956951473999023,-10.000580334472655,3.3634044197082518
1788861527393002000,12.757001953125,-6.762871501922607,-9.720907653045654,3.717746265411377
1788861527403008000,12.767008056640625,-6.994360874938964,-9.356839363098144,4.196586597442627
1788861527413014800,12.777014892578125,-7.42471862335205,-8.913912055969238,4.3068695114135735
1788861527423022000,12.78702197265625,-7.28465782623291,-8.50435393447876,4.327968413543701
1788861527433028900,12.79702880859375,-6.659621555328369,-8.091354148101805,4.333355367279053
1788861527443035000,12.807034912109375,-6.139331607055664,-7.753322801208496,4.284573508453369
