time,seconds_elapsed,z,y,x
1788862178120681000,0.043680908203125,10.372130504608153,2.348262915802002,0.15996259841918944
1788862178130723300,0.053723388671875,9.68454571533203,2.305316923522949,-0.2219125663757324
1788862178140764200,0.06376416015625,8.788515744018554,2.3294085777282714,-0.6124667121887206
1788862178150806300,0.07380615234375,8.546551738739014,2.547879479217529,-0.6305728622436523
1788862178160848100,0.08384814453125,8.844480207824706,2.4844331352233886,-0.4691138877868652
1788862178170889200,0.09388916015625,9.152733671569823,2.492812841033935,-0.21607669982910155
1788862178180931300,0.103931396484375,9.071031539916993,2.5745149726867673,0.3016694091796875
1788862178190973200,0.11397314453125,8.035688959503174,2.4124574478149414,0.8129811012268066
1788862178201014300,0.12401416015625,6.402244876861572,2.2436662307739255,1.38549457321167
1788862178211056000,0.13405615234375,5.379621492767334,2.686743175506592,1.4170681076049805
1788862178221098200,0.14409814453125,5.0571524566650385,3.17306538772583,1.230320378112793
1788862178231139000,0.15413916015625,5.123591552734375,3.0343513290405273,1.5553332534790039
1788862178241181400,0.164181396484375,4.294748865509033,2.1282956382751466,2.2918495391845704
1788862178251223300,0.174223388671875,3.969287077331543,1.9330185653686522,2.834734765625
1788862178261264400,0.184264404296875,4.065354418945312,1.525256095123291,3.3565210899353026
1788862178271306200,0.19430615234375,3.762188633728027,0.6922235549926757,3.76682739944458
1788862178281348400,0.204348388671875,3.610156828308105,0.43245267486572264,4.059518552398681
1788862178291389200,0.21438916015625,3.9077860221862792,0.49799394531249996,4.394557147216797
1788862178301431300,0.224431396484375,4.064157318115234,0.5609913764953613,4.170400016784668
1788862178311473400,0.234473388671875,4.6164697135925294,1.2382511711120605,0.3634697395324707
1788862178321514500,0.244514404296875,5.9017070922851556,2.3777415237426758,-1.8523638969421385
1788862178331556400,0.254556396484375,5.44576131362915,0.5735609352111816,3.4458547393798824
1788862178341598200,0.26459814453125,3.1281741065979003,-1.3245920684814452,6.819883428955078
1788862178351639300,0.274639404296875,1.7417817077636717,-1.25770405960083,7.401973707580566
1788862178361681200,0.28468115234375,1.99826056060791,-0.2937386161804199,7.397783854675293
1788862178371723300,0.29472314453125,2.4256255569458007,0.20335750350952148,7.448062089538574
1788862178381764000,0.30476416015625,2.4811411079406738,-0.3719990829467773,7.332541859436034
1788862178391806500,0.314806396484375,2.6497826873779293,-1.0696095916748045,7.164049917602538
1788862178401848300,0.324848388671875,3.1637878562927244,-1.1462240447998047,7.331344758605956
1788862178411889400,0.334889404296875,3.415029393005371,-1.1215338401794432,7.495497209930419
1788862178421931300,0.34493115234375,3.328838133239746,-0.9463082061767577,7.5899185379028316
1788862178431972400,0.354972412109375,3.286041778564453,-0.5621884773254394,7.871237232971191
1788862178442014200,0.36501416015625,3.3008559013366696,-0.09756371765136718,8.218995024108887
1788862178452056000,0.37505615234375,3.1392472892761227,-0.06808510971069336,8.558223471832274
1788862178462097200,0.38509716796875,3.0992940490722654,0.12779051361083985,9.342324515533447
1788862178472139300,0.39513916015625,3.0482676261901855,0.7175123100280761,10.4954318901062
1788862178482181400,0.405181396484375,2.9644705680847165,1.5099930595397948,12.04747311630249
1788862178492222200,0.41522216796875,2.9222727638244628,1.8906711235046385,13.598915792083739
1788862178502264300,0.425264404296875,3.4549826332092284,1.5477017356872558,14.422820438385008
1788862178512306200,0.43530615234375,4.28981082458496,1.5331868881225585,15.081375532531737
1788862178522347300,0.44534716796875,4.829852936553955,1.8855834449768065,16.097714137268067
1788862178532389400,0.455389404296875,4.784812017822265,2.473958502960205,17.5432133895874
1788862178542431200,0.46543115234375,4.144811986541748,3.2426468734741207,19.008015892791747
1788862178552472300,0.475472412109375,3.2460885383605955,3.7597944320678707,20.17309427566528
1788862178562514400,0.485514404296875,1.9053356086730955,3.8507740951538083,20.692935311126707
1788862178572556300,0.495556396484375,0.19467852249145506,3.9559693305969237,19.403358441925047
1788862178582597400,0.505597412109375,-1.0525509048461914,3.826682440948486,17.989582361602782
1788862178592639200,0.51563916015625,-1.2351087814331054,3.245190712738037,17.287781999969482
1788862178602681300,0.525681396484375,-1.1499649848937987,2.642450444793701,16.45310344619751
1788862178612722400,0.535722412109375,-1.6813281158447264,2.2149358108520505,15.324985551452636
1788862178622764300,0.545764404296875,-1.9850924514770507,1.4918869094848632,13.914501498413085
1788862178632806400,0.555806396484375,-2.120065570068359,0.7366659233093261,12.367996863555907
1788862178642847200,0.56584716796875,-2.6788123825073242,0.3184288208007812,11.28791263961792
1788862178652889300,0.575889404296875,-3.995174382781982,0.30316578521728516,10.472686974334716
1788862178662931200,0.58593115234375,-5.272780243682861,0.3098994773864746,9.967959336853026
1788862178672972300,0.59597216796875,-5.861753852081298,0.9573813888549804,10.04936219329834
1788862178683014400,0.606014404296875,-5.904250931549072,0.5559036979675293,9.821015209960937
1788862178693056300,0.61605615234375,-5.127781405639648,-0.10893617553710937,9.526977318572998
1788862178703097300,0.626097412109375,-6.06496171798706,-1.0449193870544433,8.590545194244385
1788862178713139200,0.63613916015625,-8.663119432067871,-1.9542671051025389,7.1297829063415525
1788862178723181300,0.646181396484375,-9.175927500152588,-2.1459528755187987,6.9415388008117676
1788862178733222100,0.65622216796875,-8.35127466583252,-1.811213555908203,7.87198542098999
1788862178743264300,0.66626416015625,-4.4199955398559565,-2.061407629394531,8.917054445648192
1788862178753306400,0.676306396484375,-2.861370259094238,-1.5019126289367675,9.222464794921875
1788862178763347500,0.686347412109375,-3.2191537696838375,-1.5824176597595214,9.673771807861328
1788862178773389300,0.696389404296875,-3.6993408401489254,-1.928679074859619,9.932495224761963
1788862178783431200,0.70643115234375,-4.109647149658203,-1.9292776252746582,9.65970587310791
1788862178793472300,0.71647216796875,-4.349815503692627,-2.129193463897705,9.129090930175781
1788862178803514400,0.726514404296875,-4.606593631744384,-2.621501180267334,8.412626083374024
1788862178813556200,0.73655615234375,-4.507982450866699,-3.178003428649902,7.668179004669189
1788862178823597300,0.746597412109375,-3.733009300994873,-3.703530693054199,7.46317548751831
1788862178833639400,0.756639404296875,-2.4191911399841306,-3.8392519996643064,7.9001172904968255
1788862178843681300,0.766681396484375,-0.5220855995178222,-3.4668040039062498,8.725219037628174
1788862178853722400,0.776722412109375,1.9553145683288573,-3.066224138641357,9.579649755096435
1788862178863764200,0.78676416015625,2.464980246734619,-2.7597663261413574,10.249726944732666
1788862178873806300,0.796806396484375,2.8764836570739742,-2.411409984588623,10.237755936431885
1788862178883847200,0.80684716796875,2.574963885498047,-2.442684243774414,10.069263994598389
1788862178893889300,0.81688916015625,2.18321263885498,-2.5809493896484375,9.745148944854735
1788862178903931400,0.826931396484375,1.951723265838623,-2.57915373840332,9.598204817962646
1788862178913972500,0.836972412109375,1.2113164024353027,-2.5664345420837402,9.803507610321045
1788862178924014300,0.847014404296875,0.7092822418212891,-2.3259669128417966,10.186430238342284
1788862178934056200,0.85705615234375,0.9059060531616211,-2.306065111541748,10.357017106628417
1788862178944097300,0.86709716796875,1.06616792678833,-2.487425887298584,10.33666639251709
1788862178954139100,0.87713916015625,0.9473556694030761,-2.5597008499145506,10.294318950653075
1788862178964181200,0.88718115234375,0.7679401824951172,-2.5005939964294432,10.277559539031982
1788862178974222000,0.89722216796875,0.6602011077880859,-2.5007436340332028,10.341305158233641
1788862178984264400,0.907264404296875,0.3705027069091797,-2.587383806610107,10.357765294647216
1788862178994306300,0.917306396484375,-0.18480244064331053,-2.528276953125,10.18927335281372
1788862179004347400,0.927347412109375,-3.2185552192687985,-2.2198738517761227,9.638606970977783
1788862179014389200,0.93738916015625,-10.343400084686278,-1.7245733833312988,8.501510820007324
1788862179024431000,0.94743115234375,-10.267384181976318,-2.6090812591552734,7.691223195648193
1788862179034472200,0.95747216796875,-4.688295763397217,-3.355473626708984,8.639925603485107
1788862179044514300,0.967514404296875,-2.287510048675537,-3.5263597702026366,9.685892453765868
1788862179054555100,0.97755517578125,-3.676745561981201,-2.965368393707275,9.888202494049072
1788862179064597200,0.98759716796875,-3.6049195121765134,-2.0979192047119137,10.405050777435303
1788862179074639400,0.997639404296875,-2.8794764091491696,-1.9201497314453124,10.817751288604736
1788862179084680200,1.00768017578125,-2.714126856994629,-1.7622820594787596,11.037568928527831
1788862179094722300,1.017722412109375,-2.093579714202881,-1.5279495719909668,10.98699141845703
1788862179104764200,1.02776416015625,-1.7699135772705077,-1.6136919189453125,10.92354507446289
1788862179114805200,1.03780517578125,-1.3736732025146483,-1.7874211769104003,10.925340725708008
1788862179124847000,1.04784716796875,-1.2714707191467285,-1.8043302261352538,10.876409229278563
1788862179134889500,1.057889404296875,-1.3684358863830566,-1.5598223815917969,10.861445468902588
1788862179144930300,1.067930419921875,0.430956298828125,-1.6392799491882324,10.933570793914795
1788862179154972400,1.077972412109375,0.0028431144714355467,-2.0233996780395507,10.938808110046386
1788862179165014300,1.08801416015625,-3.146429894256592,-2.1149778915405273,9.558700490570068
1788862179175055400,1.098055419921875,-4.356549195861816,-1.8409914390563964,8.884283810424805
1788862179185097700,1.10809765625,-5.6389434600830075,-1.6494553062438964,8.652644799804687
1788862179195139600,1.1181396484375,-4.802768530273437,-1.2873323051452636,8.645312557220459
1788862179205180700,1.1281806640625,-3.090615068054199,-0.7381622993469238,8.883984535217285
1788862179215222500,1.138222412109375,-1.974019268798828,-0.1696890426635742,9.388861810302734
1788862179225264600,1.1482646484375,-1.0513538040161132,-0.5984007774353027,9.130587306213378
1788862179235305500,1.158305419921875,-0.09561842880249023,-0.7951742263793945,8.424597091674805
1788862179245347800,1.168347900390625,-1.045069024658203,-0.41404724960327144,7.621791347503661
1788862179255389700,1.1783896484375,-3.105429190826416,0.3612251754760742,6.032639995574951
1788862179265430800,1.1884306640625,-4.214692747497558,-0.19348142166137694,3.135955261993408
1788862179275472600,1.19847265625,-5.869684645080566,-1.1982979309082031,3.1693244476318356
1788862179285514500,1.208514404296875,-1.3787608810424803,-1.4610615631103514,4.043806604003906
1788862179295555600,1.2185556640625,-0.7357680976867675,-2.0266917053222655,4.30312857131958
1788862179305597400,1.228597412109375,-3.0897172424316404,-1.5538368774414062,4.36717346572876
1788862179315639800,1.238639892578125,-4.477306742095947,-0.31094694061279293,3.9323265892028805
1788862179325680600,1.2486806640625,-4.126107286071777,-0.361973363494873,1.873163523864746
1788862179335722800,1.25872265625,-5.289689292907714,-3.632153556060791,3.4665047286987303
1788862179345764600,1.2687646484375,-4.3923125831604,-10.379313109588622,9.738415252685547
1788862179355805700,1.2788056640625,-1.5257050079345702,-6.452223836517334,9.73587141342163
1788862179365847600,1.28884765625,-3.3782185424804685,-6.573729570770263,12.00826806411743
1788862179375888600,1.298888671875,-4.161571398162842,-8.199691773223876,11.709591407012939
1788862179385930800,1.3089306640625,-5.168931746673584,-8.510937989044189,12.374431280517577
1788862179395972600,1.31897265625,-3.7618893585205075,-9.44228243484497,13.446135798645019
1788862179406013700,1.329013671875,-3.651157531738281,-8.0820766166687,10.353725079345702
1788862179416055600,1.3390556640625,-0.3042132484436035,-4.736179796600341,9.985317298889159
1788862179426097700,1.34909765625,2.993649900817871,-1.9940707077026365,10.134505989837646
1788862179436138800,1.359138671875,0.41060558471679687,-2.897283283996582,8.73389801864624
1788862179446180600,1.3691806640625,-2.9447184043884276,-7.072621341705322,6.268319221496582
1788862179456222700,1.37922265625,-3.358616016387939,-10.349984139251708,5.512649322509765
1788862179466263800,1.389263916015625,-4.040813851928711,-14.406210664367675,2.924517327880859
1788862179476305700,1.3993056640625,-3.77311217880249,-19.282151982879636,-8.38269856262207
1788862179486347800,1.40934765625,-4.012831620025635,-21.504569673919676,-27.295395301818846
1788862179496388600,1.419388671875,-0.8101379867553711,-8.626308581542968,-11.308412991333007
1788862179506430700,1.4294306640625,1.5484499237060545,-7.696011598968505,15.128062464904785
1788862179516472600,1.43947265625,-5.813570543670654,-0.4996399589538574,23.458088591003417
1788862179526513700,1.449513671875,-4.700117134094238,2.8755858314514158,24.00516367034912
1788862179536555800,1.4595556640625,0.04339490509033203,-3.4777275489807127,17.002273451995848
1788862179546597600,1.46959765625,1.4812626396179198,-3.2703298301696777,14.023886586761474
1788862179556638700,1.479638671875,-2.8254572341918944,2.808697822570801,17.865682425689695
1788862179566680600,1.4896806640625,-5.15860675201416,3.0220810455322265,18.728492848968504
1788862179576722700,1.49972265625,-5.672163008117676,0.6099228729248046,14.81711552429199
1788862179586763500,1.509763427734375,-4.5708302444458,5.740248117828369,15.729904907226562
1788862179596805600,1.5198056640625,-5.2271407745361325,9.648034140014648,18.11093845825195
1788862179606847700,1.52984765625,-4.197035510253906,8.11454797668457,18.755577255249023
1788862179616888800,1.539888916015625,0.5111620544433594,2.9097032051086424,15.270068550872802
1788862179626930700,1.5499306640625,2.289904250335693,-2.8796260467529295,8.553135793304444
1788862179636972500,1.55997265625,0.08858546142578125,-8.510788351440429,3.778050219726562
1788862179647013600,1.570013671875,-3.387645711517334,-15.026608169555663,-6.003460662841796
1788862179657055700,1.5800556640625,-7.580341731262207,-26.61020471420288,-19.474885216522214
1788862179667097600,1.59009765625,-3.7817911598205565,-23.498191468811033,-10.682778170013426
1788862179677138700,1.600138671875,0.6793547210693359,-13.704410302734374,5.832275244140624
1788862179687180800,1.610180908203125,0.5991489654541016,-12.737003194427489,9.422829546356201
1788862179697221600,1.6202216796875,-0.35464112091064454,-13.23544605255127,4.838083004760742
1788862179707263700,1.630263671875,-2.928557543182373,-11.37634846343994,3.7855320999145508
1788862179717305600,1.6403056640625,-2.375496959686279,-9.581894319152832,3.9846997505187987
1788862179727346700,1.6503466796875,-4.427477420043945,-8.77863966217041,4.4568063903808595
1788862179737388500,1.660388427734375,-6.206219615936279,-9.000552228546143,2.999934680175781
1788862179747430700,1.6704306640625,-3.3337761741638183,-7.5637319572448725,5.468805504608154
1788862179757471500,1.680471435546875,-5.681141264343261,-8.74676685256958,5.936722291564941
1788862179767513900,1.690513916015625,-3.3678935478210446,-8.88039323272705,5.095010770416259
1788862179777555700,1.7005556640625,-1.0164882423400878,-7.538293564605713,5.314379497528076
1788862179787596800,1.7105966796875,-1.4353238952636718,-6.6629135826110835,5.896469776153564
1788862179797638700,1.720638671875,-2.4383447532653806,-6.919542073059081,6.496067654418945
1788862179807680500,1.730680419921875,-3.923049057769775,-7.486518953704834,5.488108755493164
1788862179817721600,1.7407216796875,-5.304353778076171,-6.297199279022216,4.893448918151855
1788862179827763500,1.750763427734375,-4.378396286010742,-5.96934328918457,4.803965631103515
1788862179837805800,1.760805908203125,-3.5954923431396484,-6.685957773590087,5.006724584197998
1788862179847846700,1.7708466796875,-4.4945150665283204,-7.292887894439697,5.014356101989746
1788862179857888800,1.780888671875,-3.4454058265686034,-7.2069959098815914,5.314978047943115
1788862179867930600,1.7909306640625,-1.9170073417663573,-7.055413017272949,5.962011046600342
1788862179877971700,1.8009716796875,-4.432265823364258,-6.736984196472168,6.035333472442627
1788862179888013600,1.811013671875,-3.9342718780517574,-7.0449383850097655,6.4543187629699705
1788862179898055700,1.8210556640625,-2.961028903198242,-7.809586540222168,6.410175669860839
1788862179908096500,1.831096435546875,-3.7490205245971677,-7.7413517929077145,6.281337693023681
1788862179918138600,1.841138671875,-4.333056092071533,-6.26263299255371,5.92475128326416
1788862179928180700,1.8511806640625,-3.462913426208496,-4.574870459747314,6.251410172271728
1788862179938221600,1.8612216796875,-2.5775077247619627,-5.117007498168945,4.865765961456298
1788862179948263700,1.871263671875,-2.4678233612060545,-5.219658894348144,4.352658618164062
1788862179958305500,1.881305419921875,-3.3036990158081054,-4.601057040405273,5.236119030761718
1788862179968346600,1.8913466796875,-4.2317514343261715,-3.3653497085571287,5.739051016998291
1788862179978388500,1.901388427734375,-4.082113830566406,-3.3693899238586424,5.470002605438232
1788862179988429600,1.9114296875,-3.525312306976318,-5.52895982131958,4.096927953338623
1788862179998471700,1.9214716796875,-3.6745009979248047,-6.9898717468261715,3.404554760742187
1788862180008513800,1.931513671875,-3.478775012207031,-7.538742477416991,4.42418539276123
1788862180018554600,1.9415546875,-2.736871772766113,-7.78878691329956,4.795735562896728
1788862180028596700,1.9515966796875,-2.723105113220215,-7.221211482238769,4.700117134094238
1788862180038638600,1.961638671875,-3.680486502075195,-6.662763945007324,4.166958351898193
1788862180048679700,1.9716796875,-3.619284722137451,-5.5826797210693355,2.775178999328613
1788862180058721500,1.981721435546875,-2.844910122680664,-2.6240450195312497,0.8438064476013183
1788862180068763600,1.991763671875,-4.152443504333496,-1.9161095161437987,0.6001964286804199
1788862180078804700,2.0018046875,-4.645798683929443,-5.659593449401855,3.261052298736572
1788862180088846600,2.0118466796875,-2.7775732009887695,-6.323236222076416,3.3707366622924804
1788862180098888700,2.021888671875,-2.974346649932861,-4.720916761016845,3.455132270812988
1788862180108929500,2.031929443359375,-3.9743747558593747,-10.6609310798645,5.344755931091308
1788862180118971600,2.0419716796875,-6.732495068359374,-16.690428685760498,3.339462403106689
1788862180129013800,2.052013671875,-5.397278730010986,-16.91817711868286,1.1966519172668457
1788862180139054800,2.062054931640625,-3.5257612197875976,-14.92036547088623,2.643797183227539
1788862180149096700,2.0720966796875,-3.3967736053466795,-13.287370301055907,4.182371025085449
1788862180159138600,2.082138671875,-2.9887118598937987,-10.488698197937012,4.151844953918457
1788862180169179600,2.0921796875,-3.2058360229492187,-7.532906610870361,3.393182302856445
1788862180179221500,2.102221435546875,-4.103661645507812,-5.215618679046631,2.1230583221435544
1788862180189263000,2.11226318359375,-3.360710942840576,-4.362534700012207,1.6142904693603515
1788862180199304200,2.12230419921875,-1.0335469291687012,-4.125209460449218,1.1555015762329102
1788862180209346300,2.13234619140625,-2.8502970764160156,-5.077652808380127,1.0024223075866698
1788862180219387400,2.142387451171875,-4.527285701751708,-6.260238790893554,1.1296142707824706
1788862180229429200,2.15242919921875,-5.559785167694091,-4.324077835845947,0.8450035484313965
1788862180239471000,2.16247119140625,-7.690325370025635,-3.4765304481506347,-0.37020343170166015
1788862180249512200,2.17251220703125,-1.09160631942749,-5.936123741149902,0.20350714111328125
1788862180259554000,2.182553955078125,-1.4636054023742675,-4.92217933807373,1.8487725944519042
1788862180269596200,2.19259619140625,-3.5344402008056637,-8.819490727996826,3.6037224113464355
1788862180279637000,2.202636962890625,-6.252008722686767,-10.799794776153563,4.257788377380371
1788862180289679400,2.212679443359375,-7.060351058197021,-12.999018638610838,4.659415705871582
1788862180299721200,2.22272119140625,-7.593958753204345,-9.232939427185059,5.632060130310058
1788862180309762300,2.23276220703125,-4.134786267089844,-10.725125611877441,6.909516353607177
1788862180319804200,2.24280419921875,-3.8456864166259765,-12.617742024230957,6.107309159851074
1788862180329846000,2.252845947265625,-5.1140147460937495,-12.093262223052978,4.799326865386963
1788862180339887000,2.26288720703125,-6.011241818237305,-11.691485256958007,4.370016580200195
1788862180349929200,2.27292919921875,-4.356698833465576,-15.563507891845703,3.006369097137451
1788862180359971300,2.282971435546875,-2.946514055633545,-15.019724839782715,1.5465046348571776
1788862180370012200,2.29301220703125,-2.516605220031738,-10.425700766754149,1.3940239166259765
1788862180380054300,2.30305419921875,-2.2246622550964354,-8.783278427886962,1.0905588562011719
1788862180390096100,2.31309619140625,-3.233518979644775,-9.951648838043212,-0.8539818046569824
1788862180400137200,2.32313720703125,-4.352957893371582,-10.600627125549316,-2.1478981643676756
1788862180410179000,2.333178955078125,-5.762693758392333,-10.186879151153564,-2.512714642333984
1788862180420221200,2.34322119140625,-5.937320841979981,-8.418761225128174,-1.6928502113342283
1788862180430262000,2.353261962890625,-5.922656356811523,-7.861361151123046,-0.7200561492919921
1788862180440304400,2.363304443359375,-6.294206526947021,-8.251167108917237,-1.1953051788330078
1788862180450345200,2.37334521484375,-6.0993783668518065,-10.548553239440917,-3.3610102180480954
1788862180460387300,2.38338720703125,-4.332906454467773,-10.369137752532959,-3.741837919616699
1788862180470429200,2.39342919921875,-3.0398879203796385,-9.39813934173584,-2.7515362579345704
1788862180480470300,2.40347021484375,-3.6730046218872068,-9.189544522094726,-1.9207482818603514
1788862180490512100,2.41351220703125,-3.4968811622619627,-9.332149158477783,-1.2478279777526855
1788862180500554000,2.423553955078125,-4.042010952758789,-10.16952118911743,-0.5303156677246094
1788862180510595000,2.433594970703125,-5.162646967315673,-9.312696269989013,1.1022305892944335
1788862180520637200,2.44363720703125,-4.569483506011963,-7.498789237213134,2.276436865997314
1788862180530679300,2.45367919921875,-3.859453076171875,-6.25021307144165,2.0000562118530274
1788862180540720000,2.46372021484375,-4.279934742736816,-6.024858840179443,1.0308534523010253
1788862180550762200,2.47376220703125,-4.576965386199951,-5.79082562789917,0.8806172981262207
1788862180560804000,2.48380419921875,-4.450072698211669,-6.100425830078125,1.3000515014648437
1788862180570845200,2.49384521484375,-4.504989698791504,-7.50148271408081,1.3244424308776854
1788862180580887300,2.50388720703125,-5.089923091888427,-9.041253656768799,0.501136334991455
1788862180590929200,2.51392919921875,-5.467907678985595,-8.099584216308592,0.16340426330566404
1788862180600970200,2.52397021484375,-5.282955600738525,-7.550863123321533,-0.08514379653930663
1788862180611012000,2.53401220703125,-5.77122310180664,-8.607005330657959,-0.7755717002868652
1788862180621054200,2.54405419921875,-5.383661708068847,-7.781005757904052,-1.1953051788330078
1788862180631095300,2.55409521484375,-4.140023583221435,-8.7846251663208,-1.2349591438293457
1788862180641137200,2.56413720703125,-4.003853363800048,-8.935459870910645,-0.9674071083068847
1788862180651179300,2.57417919921875,-4.721365673828124,-7.156119124603271,-0.7936778503417968
1788862180661220400,2.584220458984375,-5.181800580596923,-8.352471766662598,-1.3690344367980956
1788862180671262200,2.59426220703125,-4.593724797821045,-8.901492134857177,-2.386570142364502
1788862180681304300,2.60430419921875,-2.817975354003906,-9.175328949737548,-2.3650223274230955
1788862180691345200,2.61434521484375,-2.5845406921386718,-10.58491517715454,-2.367266891479492
1788862180701387300,2.62438720703125,-4.229057957458496,-13.510180693054199,-1.9575591323852537
1788862180711429000,2.63442919921875,-5.565172121429443,-12.64781918258667,-0.503081623840332
1788862180721470200,2.64447021484375,-4.7946880996704095,-5.666327141571045,1.3857938484191894
1788862180731512300,2.65451220703125,-3.8226422256469723,-2.5966613380432126,0.668431175994873
1788862180741553400,2.664553466796875,-2.5188497840881348,-7.452850492858886,-1.546803910064697
1788862180751595300,2.67459521484375,-1.4661492416381836,-12.047772391510009,-2.338087558746338
1788862180761637000,2.68463720703125,-2.638110954284668,-11.628936738586425,-0.994641152191162
1788862180771678200,2.69467822265625,-4.7870565818786615,-10.077494062805176,0.06419453201293945
1788862180781720000,2.704719970703125,-5.846490816497802,-9.74245546798706,-0.05686228942871093
1788862180791762200,2.71476220703125,-5.969792201995849,-10.295067138671874,-0.9268553176879882
1788862180801803000,2.724802978515625,-5.336076950073242,-10.995520761871337,-1.6733973228454588
1788862180811845400,2.734845458984375,-4.920982237243652,-10.538826795196533,-1.5459060844421386
1788862180821887200,2.74488720703125,-4.808604396820068,-9.6273841506958,-1.3875894996643066
1788862180831928300,2.75492822265625,-4.4482770469665525,-8.882338521575928,-1.2877812179565429
1788862180841970200,2.76497021484375,-4.008492129516601,-8.272864561462402,-0.7276876670837402
1788862180852012000,2.775011962890625,-3.2519244049072262,-8.350975390624999,-0.6838438491821288
1788862180862053000,2.78505322265625,-2.9123966819763183,-8.598326349639892,-0.744447078704834
1788862180872095200,2.79509521484375,-3.265541426849365,-9.210344149017333,-0.7971195152282714
1788862180882137300,2.805137451171875,-3.7243303199768065,-9.663746088409424,-0.5940612869262695
1788862180892178200,2.81517822265625,-4.254346712493896,-8.996960926055907,-0.41973347854614257
1788862180902220300,2.82522021484375,-4.460696968078613,-8.4391119392395,-0.9745897132873534
1788862180912262100,2.83526220703125,-4.3555017326354974,-8.579771286773681,-1.6481085678100584
1788862180922303200,2.84530322265625,-4.5425487373352045,-8.905233074951171,-1.6938976745605467
1788862180932345000,2.855344970703125,-4.630984561157226,-9.166649968719481,-1.449838742828369
1788862180942387200,2.86538720703125,-4.059668190002441,-8.49103618774414,-0.8481459381103515
1788862180952428000,2.875427978515625,-3.6629789024353023,-8.922890312194824,-1.2714707191467285
1788862180962470400,2.885470458984375,-3.3916859268188473,-10.102782817840575,-2.0319290214538572
1788862180972512300,2.89551220703125,-3.339612040710449,-10.77675058517456,-2.501342184448242
1788862180982553300,2.90555322265625,-3.6349966705322263,-11.157727924346924,-2.9715035354614256
1788862180992595200,2.91559521484375,-3.993827644348144,-11.460744071960448,-3.314173648071289
1788862181002636300,2.92563623046875,-4.344727825164795,-11.704054815673828,-3.1591490905761717
1788862181012678100,2.93567822265625,-5.0112137123107905,-11.276689819335937,-2.556259185028076
1788862181022720000,2.945719970703125,-5.4884080307006835,-10.424653303527831,-1.8216881881713867
1788862181032761000,2.955760986328125,-5.547514884185791,-9.132382957458496,-1.1020809516906738
1788862181042803200,2.96580322265625,-5.747131447601318,-7.136815873718262,-0.7273883918762206
1788862181052845300,2.97584521484375,-6.3886278549194335,-5.3770776535034175,-0.932691184234619
1788862181062886100,2.98588623046875,-5.10099627456665,-4.070591735076904,-0.7537246101379395
1788862181072928300,2.99592822265625,-3.041683571624756,-4.143016335296631,-0.6428431457519531
1788862181082970000,3.00597021484375,-3.454683358001709,-5.851578495025635,-0.41419688720703124
1788862181093011200,3.01601123046875,-4.230404695892334,-7.847594491577148,-0.17806874847412107
1788862181103053000,3.026052978515625,-4.424035755157471,-8.477718441009522,0.21817162628173828
1788862181113095200,3.03609521484375,-3.7771523941040037,-8.271218547821045,0.5855319435119628
1788862181123136300,3.04613623046875,-3.567510111236572,-8.055291485595703,0.34102409896850583
1788862181133178000,3.05617822265625,-3.6851252677917476,-8.505551035308837,-0.6413467697143554
1788862181143220200,3.06622021484375,-4.2791865547180175,-9.363423417663574,-1.6606781265258788
1788862181153261300,3.07626123046875,-4.864269585418701,-9.52578021774292,-1.926733786010742
1788862181163303200,3.08630322265625,-4.551227718353271,-9.025392070770263,-1.746719748687744
1788862181173345000,3.096344970703125,-4.007743941497803,-9.041104019165038,-2.025045691680908
1788862181183386600,3.10638671875,-4.154688068389892,-8.672396963500976,-1.990629042816162
1788862181193428500,3.116428466796875,-3.8706758964538572,-7.466467514801025,-1.6356886466979979
1788862181203470600,3.126470703125,-2.938882537841797,-7.168239770507812,-0.6166565650939941
1788862181213511400,3.136511474609375,-3.1007904251098632,-8.35067611541748,0.10743979949951171
1788862181223553500,3.146553466796875,-3.4204163467407223,-8.910620028686523,-0.03277063522338867
1788862181233595600,3.156595703125,-3.595791618347168,-8.850615349578858,-0.7312789695739745
1788862181243636700,3.16663671875,-3.5525463508605957,-8.927229802703858,-1.4203601348876953
1788862181253678600,3.1766787109375,-3.4331355430603026,-8.080131327819824,-0.9234136528015137
1788862181263719700,3.1867197265625,-4.040215301513672,-7.152228546905517,-0.3983353012084961
1788862181273761500,3.196761474609375,-4.095281939697266,-7.161057165527343,-0.5078700271606446
1788862181283803400,3.206803466796875,-4.503194047546386,-9.166649968719481,-1.638232485961914
1788862181293844500,3.216844482421875,-5.1219455390930175,-11.629086376190186,-3.188777336120605
1788862181303886600,3.226886474609375,-5.3472997703552245,-11.892897471618651,-3.865737855529785
1788862181313928700,3.2369287109375,-5.326949056243897,-9.680056587219237,-3.6234745750427244
1788862181323969500,3.246969482421875,-4.837933367156982,-8.20298380050659,-3.771017252349853
1788862181334011600,3.25701171875,-4.17503878250122,-8.594735047149658,-4.065204781341553
1788862181344053500,3.267053466796875,-4.1280525749206545,-9.057115242767333,-3.751265088653564
1788862181354094600,3.277094482421875,-4.727949728393554,-8.916755170440673,-3.071461454772949
1788862181364136400,3.287136474609375,-5.154117623901367,-8.620023802185058,-3.2893338058471677
1788862181374178600,3.297178466796875,-3.8777088638305663,-8.296058390045166,-3.4579753852844237
1788862181384219600,3.3072197265625,-3.088819416809082,-7.307103466796875,-2.4717139389038083
1788862181394261500,3.317261474609375,-2.4589947425842285,-6.479008967590332,-1.0899603057861327
1788862181404303600,3.3273037109375,-3.2939725715637205,-6.290465586853027,-0.6983586967468262
1788862181414344400,3.337344482421875,-3.886088569641113,-8.515876029968261,-2.1863550285339355
1788862181424386600,3.347386474609375,-4.287715898132324,-10.302698656463622,-3.759046244049072
1788862181434428400,3.357428466796875,-4.3926118583679195,-8.228272555541992,-3.632153556060791
1788862181444469500,3.367469482421875,-4.9832314804077145,-8.384344576263427,-4.39216294555664
1788862181454511600,3.37751171875,-4.448127409362793,-8.387038053131104,-4.102464544677734
1788862181464553500,3.387553466796875,-4.341884710693359,-8.872312802124023,-3.684825992584228
1788862181474594600,3.397594482421875,-4.886415950775146,-9.853187294769286,-3.675847736358642
1788862181484636700,3.40763671875,-5.653009394836426,-11.522993315124511,-4.520552009582519
1788862181494677500,3.417677490234375,-5.981763210296631,-12.119748078918457,-5.452644643402099
1788862181504719600,3.4277197265625,-6.6157777374267575,-12.463764929962158,-6.436811163330078
1788862181514761500,3.437761474609375,-6.508038662719726,-10.535834043121337,-5.733963338470459
1788862181524802600,3.447802490234375,-4.802469255065918,-6.535721619415283,-3.1741128509521483
1788862181534844700,3.4578447265625,-3.0187890182495116,-6.518214019775391,-2.0452467681884765
1788862181544886500,3.467886474609375,-1.5209166046142577,-6.303035145568847,-0.37544074783325193
1788862181554927600,3.477927734375,-1.1589432411193847,-6.745064627075195,0.6482300994873047
1788862181564969500,3.487969482421875,-1.8365023109436034,-8.495226040649413,0.7897872726440429
1788862181575011600,3.498011474609375,-2.66878666305542,-8.653093712615966,0.9488520454406738
1788862181585052400,3.508052490234375,-3.572597789764404,-8.536825294494628,0.5455787033081054
1788862181595094500,3.518094482421875,-4.246415919494629,-8.986785569000244,-0.556053335571289
1788862181605136600,3.52813671875,-3.9088334854125972,-8.914959519195556,-1.3057377304077147
1788862181615177700,3.538177734375,-4.142268147277832,-9.304765476989745,-2.378190436553955
1788862181625219600,3.548219482421875,-5.224596935272216,-8.64396581878662,-2.9905075111389157
1788862181635261400,3.558261474609375,-6.37141953048706,-8.783428065490723,-3.2805051872253417
1788862181645302500,3.568302490234375,-7.1607578903198235,-9.186252494812011,-2.9453169548034666
1788862181655344400,3.578344482421875,-7.847444853973388,-9.242067321014403,-2.3367408203125
1788862181665386500,3.588386474609375,-8.16557439956665,-9.486126252746581,-2.0569185012817384
1788862181675427300,3.59842724609375,-8.023269038391113,-9.585186346435547,-1.808669716644287
1788862181685469700,3.6084697265625,-7.751227874755859,-9.581445406341553,-1.4851532173156738
1788862181695511600,3.618511474609375,-6.898592808532714,-9.431508527374268,-1.1023802268981933
1788862181705552600,3.628552734375,-5.43977580947876,-9.269451002502441,-0.859368758392334
1788862181715594500,3.638594482421875,-4.5227965736389155,-9.025691345977783,-0.8369231178283691
1788862181725636600,3.64863671875,-4.292953214263916,-8.56106658630371,-1.027262149810791
1788862181735677400,3.658677490234375,-4.452317262268066,-8.014440419769286,-1.5897499023437498
1788862181745719600,3.668719482421875,-4.583250165557861,-7.587673973846435,-2.413953823852539
1788862181755761700,3.67876171875,-4.9926586494445795,-7.3365820747375485,-2.937535799407959
1788862181765802500,3.688802490234375,-5.43304211730957,-7.288997316741943,-3.0078654731750487
1788862181775844600,3.6988447265625,-5.517737001037597,-7.3760864021301265,-2.741360900878906
1788862181785885700,3.7088857421875,-5.702838716888428,-7.726986582946777,-2.5489269424438477
1788862181795927600,3.718927490234375,-6.162974348449707,-7.957877405548095,-2.3473650901794434
1788862181805969400,3.728969482421875,-6.684012484741211,-7.944260383605957,-2.5555109970092773
1788862181816010500,3.739010498046875,-7.4682631660461425,-7.897124538421631,-2.4851813232421875
1788862181826052400,3.74905224609375,-8.173804467773436,-7.984213623809814,-2.376245147705078
1788862181836094700,3.7590947265625,-7.921365830230712,-7.916278151702881,-2.6607062324523922
1788862181846135600,3.769135498046875,-7.43773709487915,-7.3672577835083,-2.7825112419128417
1788862181856177700,3.779177734375,-7.181557517242431,-6.706009212493896,-2.8226141197204586
1788862181866219500,3.789219482421875,-6.883479410552978,-6.003011750030518,-2.869151414489746
1788862181876260600,3.799260498046875,-6.744765351867676,-5.667973155212402,-2.7430069145202634
1788862181886302500,3.809302490234375,-6.989422834014892,-5.755062240600585,-2.701258023071289
1788862181896344300,3.81934423828125,-7.330596570587158,-6.247369956970214,-2.9370868865966795
1788862181906385400,3.829385498046875,-7.548618559265137,-6.795791774749755,-3.09001651763916
1788862181916427500,3.839427490234375,-7.2249524223327635,-6.867468186950683,-3.0909143432617188
1788862181926469600,3.8494697265625,-6.673537852478027,-6.143671097564697,-3.0181904678344726
1788862181936510500,3.859510498046875,-6.522254235076904,-5.00537784576416,-2.831891651153564
1788862181946552600,3.869552490234375,-6.837091753387451,-4.31554849243164,-2.7720366096496583
1788862181956594400,3.879594482421875,-7.4699091796875,-3.349188847351074,-2.5815479400634764
1788862181966635500,3.889635498046875,-7.833229281616211,-2.848501425170898,-2.4799440071105954
1788862181976677400,3.899677490234375,-7.651569230651855,-4.312406102752686,-3.0539538551330563
1788862181986719500,3.909719482421875,-7.376984227752685,-5.083339037322998,-3.0322564025878904
1788862181996760600,3.919760498046875,-6.405237628936767,-5.094112944793701,-2.388814706420898
1788862182006802400,3.929802490234375,-5.794267292785644,-6.6905965393066404,-2.6514287010192867
1788862182016844500,3.939844482421875,-6.9792474769592285,-5.814169094085693,-2.919579286956787
1788862182026885600,3.9498857421875,-6.903081936645507,-2.992153524780273,-2.951452096557617
1788862182036927500,3.959927490234375,-5.9026049179077145,-2.4013842651367185,-3.8615480026245117
1788862182046969600,3.969969482421875,-5.278316835021973,-3.7119103988647457,-5.1797056541442865
1788862182057010700,3.9800107421875,-4.171746755218505,-5.2067900604248045,-5.8268882904052735
1788862182067052500,3.990052490234375,-3.7734114540100094,-5.668571705627441,-5.327846881866455
1788862182077094700,4.0000947265625,-4.438700240325928,-5.36316135635376,-4.4756607284545895
1788862182087135500,4.010135498046875,-4.737676172637939,-5.224447297668457,-3.971681278991699
1788862182097177600,4.020177490234375,-5.549460173034667,-5.067926364135742,-3.863194016265869
1788862182107219500,4.030219482421875,-6.88871672668457,-4.837783729553222,-4.064905506134033
1788862182117260500,4.040260498046875,-8.145223685455322,-4.559008873748779,-4.484938259887695
1788862182127302700,4.050302734375,-8.838045790863037,-4.332756816864014,-4.7117888671875
1788862182137344500,4.060344482421875,-9.044396046447753,-4.072237748718261,-4.477157104492187
1788862182147385600,4.070385498046875,-8.875754467010497,-4.096479040527344,-3.9841012001037597
1788862182157427500,4.080427490234375,-8.171559903717041,-4.326621675109863,-3.53683440246582
1788862182167469600,4.090469482421875,-7.89757345123291,-4.4479777717590325,-3.3637036949157713
1788862182177510400,4.100510498046875,-8.543558986663818,-4.464886820983886,-3.508103982543945
1788862182187552300,4.11055224609375,-8.979902239227295,-4.566939666748047,-3.8310219314575193
1788862182197593000,4.120593017578125,-8.756493296813964,-4.656422953796387,-4.207809417724609
1788862182207635200,4.13063525390625,-8.089708134460448,-4.485536810302734,-4.457404940795898
1788862182217677000,4.140677001953125,-7.707234419250488,-4.240131140136718,-4.525340412902832
1788862182227718100,4.15071826171875,-7.832780368804931,-4.017171110534668,-4.5325230178833005
1788862182237760000,4.160760009765625,-8.240991751861571,-3.840299462890625,-4.4005426513671875
1788862182247802400,4.17080224609375,-8.042721926879882,-4.116979392242431,-4.268711922454834
1788862182257843200,4.18084326171875,-7.692569934082031,-4.761318914031982,-4.044854067230224
1788862182267885300,4.19088525390625,-8.140435282135009,-4.465485371398925,-3.330633784484863
1788862182277927200,4.20092724609375,-8.169315339660644,-3.927538185882568,-3.0289643753051756
1788862182287968300,4.21096826171875,-8.480711193084716,-3.577984743499756,-3.8899791473388667
1788862182298010000,4.221010009765625,-9.605237785339355,-3.0199861190795896,-5.0371010177612305
1788862182308052000,4.231052001953125,-9.900173502349853,-2.7617116149902343,-5.919663604736328
1788862182318093000,4.241093017578125,-9.405920497131348,-3.1274259185791013,-5.795763668823242
1788862182328135200,4.25113525390625,-8.882188883972168,-3.700537940979004,-4.6921863410949705
1788862182338177300,4.26117724609375,-8.689754925537109,-4.228758682250977,-3.8126165061950683
1788862182348218000,4.271218017578125,-8.935160595703124,-4.598064288330078,-3.430292428588867
1788862182358260200,4.28126025390625,-8.977807312774658,-4.819228666687011,-3.285293590545654
1788862182368302000,4.291302001953125,-9.183259742736816,-4.773888472747802,-3.3885435371398924
1788862182378343200,4.30134326171875,-9.038709817504882,-4.66076244430542,-3.83057301864624
1788862182388385000,4.311385009765625,-8.366088788604737,-4.303727121734619,-4.302230745697021
1788862182398427100,4.32142724609375,-7.725490206909179,-3.686920919036865,-4.537610696411132
1788862182408468200,4.33146826171875,-7.125892328643799,-2.96207636642456,-4.253448886871338
1788862182418510000,4.341510009765625,-7.555202613830566,-2.4498668487548825,-3.6745009979248047
1788862182428552200,4.35155224609375,-7.998279558563232,-2.7834090675354,-3.501220652770996
1788862182438593000,4.361593017578125,-7.851335431671142,-3.5582325798034664,-3.7544074783325194
1788862182448635100,4.37163525390625,-7.941117993927001,-4.282628219604492,-4.307468061828613
1788862182458677000,4.381677001953125,-8.341548221588134,-4.875941318511963,-4.857386255645752
1788862182468718000,4.391718017578125,-8.793453784942626,-5.269338578796386,-5.0185459548950195
1788862182478760200,4.40176025390625,-8.569446292114257,-5.400570757293701,-4.909909054565429
1788862182488802300,4.41180224609375,-8.064569017028807,-5.366303746032714,-4.747103341674804
1788862182498843100,4.421843017578125,-7.877073099517822,-5.058648832702636,-4.73722725982666
1788862182508885200,4.43188525390625,-7.030573175048827,-4.626645070648193,-5.129577056884766
1788862182518927000,4.441927001953125,-7.213579964447021,-4.639813179779052,-5.690418795776367
1788862182528968200,4.45196826171875,-7.841758625030517,-5.067627088928222,-6.1379848686218255
1788862182539010000,4.462010009765625,-8.013841869354248,-5.295225884246826,-6.188861653900146
1788862182549052200,4.47205224609375,-7.925256407928466,-5.162946242523193,-5.847687917327881
1788862182559093200,4.48209326171875,-7.363666481018066,-4.58998385772705,-5.212925202178955
1788862182569135000,4.492135009765625,-6.98478406829834,-3.821894037628174,-4.404433229064941
1788862182579177200,4.50217724609375,-7.161506078338623,-3.2549171569824216,-3.9188592048645017
1788862182589218000,4.512218017578125,-7.876624186706542,-2.9804817916870117,-3.6367923217773437
1788862182599260200,4.52226025390625,-8.60595786743164,-3.282749751281738,-3.405452586364746
1788862182609302000,4.532302001953125,-9.00878229675293,-3.7951089065551757,-3.407248237609863
1788862182619343000,4.542343017578125,-9.258377819824219,-4.069544271850586,-3.5709517761230467
1788862182629385200,4.55238525390625,-9.368660733795165,-4.231003246307373,-3.816955996704101
1788862182639427000,4.562427001953125,-9.421931720733642,-4.233696723175049,-3.765630298614502
1788862182649468200,4.57246826171875,-9.400234268188475,-4.4196962646484375,-3.608361177062988
1788862182659510000,4.582510009765625,-9.260173471069335,-4.535515769958496,-3.248931652832031
1788862182669552000,4.59255224609375,-8.830713548278808,-4.349965141296386,-2.9435213035583496
1788862182679593000,4.602593017578125,-8.685565072631835,-4.049043920135498,-2.5565584602355957
1788862182689635300,4.61263525390625,-8.969577244567871,-3.737498429107666,-2.2002713256835937
1788862182699677200,4.62267724609375,-9.45560018157959,-3.719541916656494,-2.319382858276367
1788862182709719300,4.63271923828125,-9.860070624542235,-3.819200560760498,-3.045723786926269
1788862182719760100,4.642760009765625,-9.853187294769286,-3.771915077972412,-4.154987343597412
1788862182729802200,4.65280224609375,-8.40140326309204,-3.4280478645324703,-5.041141233062744
1788862182739844000,4.662843994140625,-7.059752507781982,-2.5493758552551267,-5.128230318450927
1788862182749885200,4.67288525390625,-5.809380690765381,-0.9630676177978515,-4.2968437919616695
1788862182759927300,4.68292724609375,-5.0203416061401365,0.45010991210937495,-3.00068286819458
1788862182769969200,4.69296923828125,-5.097105696868896,0.9425672660827636,-2.5706243949890135
1788862182780010200,4.70301025390625,-6.296002178192138,0.5500678314208984,-3.4850597915649413
1788862182790052000,4.713052001953125,-7.941566906738281,-0.7522282341003418,-4.777180500030517
1788862182800094200,4.72309423828125,-9.07163009033203,-2.2284031951904297,-5.80339518661499
1788862182810135000,4.733135009765625,-9.290400267028808,-3.2206501457214354,-6.188263103485107
1788862182820177200,4.74317724609375,-8.661623056030272,-3.1191958503723143,-5.1051861274719235
1788862182830219300,4.75321923828125,-6.85011022491455,-2.3740005836486815,-3.256563170623779
1788862182840260400,4.76326025390625,-6.1626750732421876,-0.7990648040771484,-1.8104653678894043
1788862182850302200,4.77330224609375,-6.0993783668518065,0.4445733207702636,-1.7378911300659179
1788862182860344000,4.783343994140625,-6.99735362701416,0.12150573425292968,-2.87289235458374
1788862182870385200,4.79338525390625,-7.85253253250122,-1.284489190673828,-4.395903885650634
1788862182880427000,4.803427001953125,-8.158840707397461,-2.7576713996887205,-5.517886638641357
1788862182890469000,4.81346923828125,-8.269722171783446,-3.0820857246398923,-5.5467666961669915
1788862182900510000,4.823510009765625,-8.476222064971923,-3.1323639595031736,-4.663755196380615
1788862182910552300,4.83355224609375,-8.599224175262451,-2.587533444213867,-3.7388451675415038
1788862182920594200,4.84359423828125,-8.681075944519042,-1.369333712005615,-3.4076971504211424
1788862182930635300,4.85363525390625,-9.243414059448241,-0.7835024932861328,-3.813364694213867
1788862182940677000,4.863677001953125,-8.717288244628906,-1.2831424522399901,-4.454262551116943
1788862182950719200,4.87371923828125,-8.28678085861206,-0.9847650703430175,-4.591031320953369
1788862182960760000,4.883760009765625,-8.326285186004638,0.1862988166809082,-4.352658618164062
1788862182970802200,4.89380224609375,-8.575282158660888,0.6275801101684569,-4.237736938476562
1788862182980844300,4.90384423828125,-9.620201545715332,0.31049802780151364,-4.683806635284424
1788862182990885400,4.913885498046875,-10.87910270614624,0.3758896606445312,-4.947468093109131
1788862183000927200,4.92392724609375,-12.330138549804687,1.2307692909240722,-4.190152180480957
1788862183010969000,4.933968994140625,-11.749694284820556,1.2656348526000976,-4.336797032165527
1788862183021010200,4.94401025390625,-9.998784683227539,-0.6209960556030273,-4.540004898071289
1788862183031052000,4.954052001953125,-8.48445213317871,-2.9523499221801757,-4.096179765319824
1788862183041094100,4.96409423828125,-8.678532105255126,-3.5913024902343746,-4.28367568283081
1788862183051135000,4.974135009765625,-10.603470240020751,-3.528753971862793,-5.615300718688965
1788862183061177300,4.98417724609375,-10.733654955291748,-2.1365257064819336,-5.76493832244873
1788862183071219200,4.99421923828125,-9.560645779418945,-0.5559036979675293,-5.080346285247803
1788862183081260300,5.00426025390625,-8.457667002105712,-0.15248071823120116,-4.701314234924316
1788862183091302100,5.01430224609375,-7.2653545753479,-0.23912089080810545,-4.979191265106201
1788862183101344000,5.024343994140625,-6.65902300491333,-0.12823942642211913,-5.400870032501221
1788862183111385000,5.034385009765625,-6.848164936065674,-0.02424129180908203,-5.783343747711181
1788862183121427000,5.044427001953125,-6.94602792892456,-0.6489782875061034,-5.964554885864257
1788862183131469300,5.05446923828125,-6.925527577209472,-1.1921627891540527,-5.6441807762146
1788862183141510100,5.06451025390625,-6.293757614135742,-0.7119757186889648,-4.934000708770752
1788862183151552300,5.07455224609375,-6.60126288986206,0.10190320816040038,-4.702361698150635
1788862183161594000,5.084593994140625,-6.921636999511718,1.061080248260498,-4.444685744476318
1788862183171636200,5.09463623046875,-7.339874102020263,1.1807903312683106,-4.678718956756591
1788862183181677000,5.104677001953125,-7.253383567047119,0.5913678100585937,-4.981136553955078
1788862183191719200,5.11471923828125,-6.559364360809326,0.11267711563110351,-5.14528900527954
1788862183201761300,5.12476123046875,-5.9688943763732905,0.028880057525634766,-5.238812507629394
1788862183211802400,5.13480224609375,-6.343437298583984,-0.053121349334716794,-5.284302339172363
1788862183221844200,5.14484423828125,-7.4025722579956055,-0.022296002960205077,-4.870853639984131
1788862183231886300,5.15488623046875,-7.640346410369872,-0.012569558715820313,-4.819378304290772
1788862183241927400,5.164927490234375,-8.045565041351319,0.1936310592651367,-5.3938370651245116
1788862183251969300,5.17496923828125,-8.528295951080322,0.5798457145690917,-6.133795015716553
1788862183262011400,5.185011474609375,-7.757811929321289,0.9118915573120117,-6.565948415374756
1788862183272052200,5.19505224609375,-6.468235060119628,0.2893991256713867,-7.2517375534057615
1788862183282094300,5.20509423828125,-6.02066898727417,-0.958877764892578,-7.895179249572753
1788862183292136200,5.21513623046875,-6.1070098846435545,-1.9349638542175291,-7.160009702301025
1788862183302177300,5.22517724609375,-6.230311270141601,-2.037315975189209,-6.126462773132324
1788862183312219400,5.235219482421875,-6.4454901443481445,-1.0235212097167967,-5.24180525970459
1788862183322261200,5.24526123046875,-6.18003303527832,0.23119009780883787,-4.625148694610595
1788862183332302300,5.25530224609375,-5.948992575073242,1.2325649421691893,-4.396801711273193
1788862183342344200,5.26534423828125,-5.937769754791259,1.5764321556091307,-4.193593845367431
1788862183352386300,5.27538623046875,-6.271611248779297,1.0447697494506836,-4.942081139373779
1788862183362427100,5.28542724609375,-7.794922055053711,0.02154781494140625,-6.232406196594238
1788862183372469200,5.29546923828125,-10.051756394958495,-1.348982997894287,-6.687753424835205
1788862183382511400,5.305511474609375,-9.707290631103515,-2.4438813446044922,-6.280589505004882
1788862183392552400,5.315552490234375,-7.957278855133056,-2.4251766441345213,-6.015282033538818
1788862183402594300,5.32559423828125,-8.275707675933837,-1.7298106994628906,-5.84215132598877
1788862183412636200,5.33563623046875,-8.751854531097411,-0.9692027595520019,-5.7514709381103515
1788862183422678300,5.34567822265625,-9.029731561279297,-0.30750527572631836,-5.510853671264648
1788862183432719000,5.355718994140625,-8.93725552215576,-0.05746083984375,-4.957344174957275
1788862183442761200,5.36576123046875,-8.879046494293213,-0.43230303726196284,-4.318990157318115
1788862183452803300,5.37580322265625,-8.987234481811523,-0.821061531829834,-3.8099230293273925
1788862183462844400,5.385844482421875,-8.809614646148681,-1.1905167755126953,-3.328089945220947
1788862183472886300,5.39588623046875,-8.086865019989013,-1.4264952766418457,-2.9433716659545897
1788862183482928400,5.405928466796875,-7.658452560424804,-1.5071499450683592,-2.830844187927246
1788862183492969200,5.41596923828125,-7.76978293762207,-1.4318822303771972,-2.984821282196045
1788862183503011300,5.42601123046875,-8.109460298156737,-1.323544605255127,-3.1603461914062496
1788862183513053200,5.43605322265625,-8.527697400665282,-1.346439158630371,-3.2323218788146972
1788862183523094300,5.44609423828125,-8.786121542358398,-1.5337854385375975,-3.1425393165588376
1788862183533136400,5.456136474609375,-8.992621435546875,-1.7337012771606444,-2.986616933441162
1788862183543178200,5.46617822265625,-9.353696973419188,-1.6952444129943847,-2.756025386047363
1788862183553219300,5.47621923828125,-9.951499200439452,-1.5560814414978026,-2.414552374267578
1788862183563261200,5.48626123046875,-10.23371572113037,-1.5191209533691405,-2.070834798431396
1788862183573303300,5.49630322265625,-9.979481432342528,-1.6306009681701659,-1.7197849800109861
1788862183583344000,5.50634423828125,-9.683797527313232,-1.8863316329956055,-1.7542016288757323
1788862183593386200,5.51638623046875,-9.986514399719237,-2.3479636405944824,-2.375796234893799
1788862183603428400,5.526428466796875,-10.665719483184814,-2.7364228599548337,-3.4243069244384765
1788862183613469400,5.536469482421875,-10.823287879943846,-3.0564976943969726,-4.307318424224853
1788862183623511300,5.54651123046875,-10.695347728729248,-3.2181063064575195,-4.665850122833252
1788862183633553200,5.55655322265625,-10.069413632202147,-3.1694740852355956,-4.377797735595703
1788862183643595300,5.56659521484375,-9.24371333465576,-3.005920184326172,-3.7204397422790527
1788862183653636000,5.576635986328125,-8.640524153900145,-2.8321909263610836,-2.9076082786560056
1788862183663678200,5.58667822265625,-9.112630793762207,-2.7352257591247557,-2.337189733123779
1788862183673720300,5.59672021484375,-9.598953005981445,-2.851344539642334,-1.8350059349060057
1788862183683761400,5.606761474609375,-9.291447730255127,-2.9601310775756833,-1.4531307701110838
1788862183693803300,5.61680322265625,-9.335141910552977,-2.8790274963378906,-1.366939510345459
1788862183703845400,5.626845458984375,-9.16754779434204,-2.7052982383728024,-1.3856442108154297
1788862183713886200,5.63688623046875,-8.548197752380371,-2.4260744697570797,-1.2515689178466796
1788862183723928300,5.64692822265625,-7.893832511138916,-2.103755071258545,-0.9299977073669433
1788862183733970400,5.656970458984375,-7.508515681457519,-1.9502268898010253,-0.5651812294006348
1788862183744011500,5.667011474609375,-7.7419503433227534,-1.8697218589782714,-0.36047698745727536
1788862183754053400,5.677053466796875,-8.195801195526123,-1.9460370368957518,-0.2905962265014648
1788862183764095200,5.68709521484375,-8.755894746398925,-2.20909994430542,-0.41150341033935545
1788862183774136300,5.69713623046875,-9.025691345977783,-2.6678888374328613,-0.48018707046508785
1788862183784178200,5.70717822265625,-9.293991569519042,-3.1253309921264645,-0.4978443077087402
1788862183794220300,5.71722021484375,-9.267954626464844,-3.4528877067565915,-0.6308721374511719
1788862183804262400,5.727262451171875,-8.793154509735107,-3.5899557518005367,-0.7647977928161621
1788862183814303500,5.737303466796875,-8.539967684173584,-3.492990584564209,-0.8125321884155273
1788862183824345300,5.747345458984375,-8.723273748779297,-3.3726819511413573,-1.0301052642822266
1788862183834387200,5.75738720703125,-9.281122735595703,-3.334075449371338,-1.5080477706909179
1788862183844428300,5.76742822265625,-9.762806182098387,-3.436128295135498,-1.9532196418762207
1788862183854470100,5.77747021484375,-9.668833766937256,-3.573794890594482,-2.0063409912109376
1788862183864512300,5.78751220703125,-9.353846611022949,-3.930830213165283,-2.1077952865600587
1788862183874553000,5.797552978515625,-9.48118821182251,-4.376450997161865,-2.3050176483154297
1788862183884595500,5.807595458984375,-9.747393508911133,-4.706252275848389,-2.2795792556762695
1788862183894637300,5.81763720703125,-9.795726454925537,-4.936544548034668,-1.8888754722595213
1788862183904678400,5.827678466796875,-9.855282221221923,-5.061342309570312,-1.4680945304870605
1788862183914720300,5.83772021484375,-9.81263550415039,-4.983530755615234,-1.2541127571105957
1788862183924762400,5.847762451171875,-9.467122277069091,-4.788852233123779,-1.105672254180908
1788862183934803200,5.85780322265625,-8.873060990142822,-4.56469510269165,-0.8780734588623046
1788862183944845300,5.86784521484375,-8.54221224822998,-4.415506411743164,-0.5499181938171387
1788862183954887400,5.877887451171875,-8.324040621948242,-4.537909971618652,-0.38142625198364255
1788862183964929300,5.88792919921875,-7.99962629699707,-4.828356560516357,-0.28520927276611324
1788862183974970400,5.897970458984375,-7.983764710998535,-5.106233590698242,-0.35179800643920894
1788862183985012200,5.90801220703125,-8.036886060333252,-5.307945080566406,-0.7606079399108886
1788862183995054300,5.918054443359375,-8.301295706176758,-5.300612837982177,-1.1864765602111815
1788862184005095200,5.92809521484375,-8.436268824768065,-5.285499440002441,-1.5421651443481443
1788862184015137300,5.93813720703125,-8.212859882354735,-5.333084197998047,-1.5578770927429197
1788862184025179400,5.948179443359375,-7.970895877075195,-5.423166035461425,-1.2401964599609374
1788862184035220500,5.958220458984375,-8.1847280128479,-5.423166035461425,-0.8544307174682617
1788862184045262300,5.968262451171875,-8.581417300415039,-5.406107348632812,-0.3630208267211914
1788862184055304200,5.97830419921875,-8.4666452583313,-5.4501008041381835,-0.13736732025146484
1788862184065345300,5.98834521484375,-8.03194801940918,-5.457283409118652,-0.1671452033996582
1788862184075387100,5.99838720703125,-7.944858934020996,-5.525069243621826,-0.38531682968139647
1788862184085429200,6.00842919921875,-7.926603146362305,-5.633855781555176,-0.9555857376098632
1788862184095471400,6.018471435546875,-7.602338459014892,-5.625775350952148,-1.193210252380371
1788862184105512400,6.028512451171875,-7.448810277557373,-5.782146646881103,-1.207276187133789
1788862184115554300,6.03855419921875,-7.536497913360595,-5.9783215454101555,-1.2102689392089843
1788862184125596200,6.04859619140625,-7.564480145263672,-6.264877556610107,-1.0357914932250976
1788862184135637200,6.05863720703125,-7.506420755004882,-6.543353137207031,-0.9702502227783203
1788862184145679400,6.068679443359375,-7.032817739105224,-6.75464143371582,-1.055394019317627
1788862184155721200,6.07872119140625,-6.256198575592041,-6.989422834014892,-1.127519344329834
1788862184165762300,6.08876220703125,-5.56083263092041,-7.088034014892577,-1.2048819854736328
1788862184175804400,6.098804443359375,-5.346551582336425,-7.149684707641601,-1.3637971206665038
1788862184185846300,6.10884619140625,-5.7511716629028315,-7.200112580108642,-1.4558242469787597
1788862184195888600,6.118888671875,-6.640767217254639,-7.390451612091064,-1.413476805114746
1788862184205929500,6.128929443359375,-7.356034963226318,-7.6473793777465815,-1.0703577796936035
1788862184215971600,6.1389716796875,-7.4980410491943355,-8.008454915618897,-0.5226841499328613
1788862184226013400,6.149013427734375,-7.194276713562012,-8.361898935699463,-0.17896657409667968
1788862184236054500,6.159054443359375,-6.831704799652099,-8.560916948699951,-0.051774610900878905
1788862184246096400,6.169096435546875,-6.590488982391357,-8.570493755340575,-0.11851298217773437
1788862184256138200,6.17913818359375,-6.450577822875976,-8.355015605926512,-0.2925415153503418
1788862184266179300,6.189179443359375,-6.371120255279541,-8.021174111938477,-0.5966051261901855
1788862184276221400,6.199221435546875,-6.534075605773926,-7.767388735961914,-0.89378540725708
1788862184286263600,6.209263671875,-6.9421373512268065,-7.592462377166748,-1.124825867462158
1788862184296305400,6.219305419921875,-7.097161908721923,-7.605780123901367,-1.3456909706115723
1788862184306346500,6.229346435546875,-6.836493202972412,-7.726986582946777,-1.408987677001953
1788862184316388400,6.239388427734375,-6.6820671958923334,-8.08881030883789,-1.298555125427246
1788862184326430200,6.24943017578125,-6.9533601715087885,-8.369829728698729,-0.9020154754638672
1788862184336471300,6.25947119140625,-7.34181939086914,-8.529792327117919,-0.35583822174072266
1788862184346513400,6.269513427734375,-7.515548648834228,-8.636932851409911,0.42601825790405273
1788862184356555500,6.279555419921875,-7.146691955566406,-8.789563207244873,0.7234978141784667
1788862184366596400,6.289596435546875,-6.621164691162109,-8.779687125396729,0.27039514999389647
1788862184376638500,6.299638427734375,-6.563703851318359,-8.301295706176758,-0.5672761558532714
1788862184386680300,6.309680419921875,-6.197390997314453,-7.789984014129638,-1.2671312286376952
1788862184396722400,6.319722412109375,-5.306897617340088,-7.499986338043213,-1.556380716705322
1788862184406763300,6.32976318359375,-4.857386255645752,-7.5156982864379875,-1.3287819213867187
1788862184416805600,6.3398056640625,-4.879382983398437,-7.819761897277831,-0.5310638557434082
1788862184426847500,6.349847412109375,-4.741566750335693,-8.56151549911499,0.32231939849853514
1788862184436888600,6.359888671875,-4.3065702362060545,-9.457844745635986,0.7130231819152831
1788862184446930400,6.369930419921875,-4.6164697135925294,-10.037241547393798,0.26755203552246093
1788862184456972300,6.37997216796875,-5.691316621398926,-10.012700980377197,-0.6985083343505859
1788862184467013400,6.390013427734375,-5.9591679321289055,-9.656114570617675,-1.55772745513916
1788862184477055200,6.40005517578125,-5.202600207519531,-8.994117811584472,-1.9820996994018554
1788862184487097600,6.41009765625,-4.727201540374756,-8.145672598266602,-2.0337246726989746
1788862184497139500,6.420139404296875,-5.095310045623779,-7.528417482757568,-1.9783587593078613
1788862184507180500,6.4301806640625,-5.298218636322021,-7.130082181549072,-1.735197653198242
1788862184517222400,6.440222412109375,-4.7240591506958,-6.919093160247803,-1.1254244178771973
1788862184527264300,6.45026416015625,-3.7689223258972167,-6.944681190490722,-0.4332008628845215
1788862184537305300,6.460305419921875,-3.623175299835205,-7.326406717681884,-0.17268179473876952
1788862184547347200,6.47034716796875,-4.425532131195068,-7.888894470214844,-0.36481647796630856
1788862184557389600,6.4803896484375,-5.079897372436523,-8.461856855010986,-0.7627028663635254
1788862184567430400,6.490430419921875,-4.935646722412109,-8.993668898773192,-1.0127473022460938
1788862184577472500,6.500472412109375,-4.595969361877441,-9.43539910507202,-1.25126964263916
1788862184587514400,6.510514404296875,-4.793341361236572,-9.879822788238524,-1.528997035217285
1788862184597556500,6.520556396484375,-5.3676504844665525,-10.16383496017456,-1.651550232696533
1788862184607597300,6.530597412109375,-5.823296987915039,-10.059986463165282,-1.4199112220764158
1788862184617639400,6.540639404296875,-6.229114169311523,-9.702951140594482,-1.164479832458496
1788862184627681500,6.550681640625,-6.530185028076171,-9.217975666809082,-1.2677297790527342
1788862184637722400,6.560722412109375,-6.91400548171997,-8.569595929718018,-1.5831658477783201
1788862184647764500,6.570764404296875,-7.189338672637939,-8.03119983139038,-1.8436849159240722
1788862184657806300,6.580806396484375,-7.23363140335083,-7.8429557258605955,-1.987337015533447
1788862184667848400,6.590848388671875,-7.432200503540039,-7.925256407928466,-1.7004817291259764
1788862184677889300,6.60088916015625,-7.561188117980957,-8.31865366821289,-1.2756605720520018
1788862184687931400,6.610931396484375,-7.785794161224365,-8.743025912475586,-1.24498486328125
1788862184697973500,6.620973388671875,-8.271817098236083,-8.847173684692383,-1.5465046348571776
1788862184708014600,6.6310146484375,-8.794201972961424,-8.690952026367187,-1.7791911087036132
1788862184718056400,6.641056396484375,-8.915408432006835,-8.231115670013427,-1.7051204948425291
1788862184728098300,6.651098388671875,-8.27406166229248,-7.32910019454956,-1.2575544219970702
1788862184738140400,6.661140380859375,-7.397185304260254,-6.335057592773437,-0.6408978569030761
1788862184748181200,6.67118115234375,-6.617274113464355,-5.702689079284668,-0.2041056915283203
1788862184758223400,6.681223388671875,-6.085611707305908,-5.349544334411621,0.07766191635131836
1788862184768265500,6.691265380859375,-5.865195516967773,-5.163694430541992,0.2572270408630371
1788862184778306600,6.701306640625,-6.047753393554687,-5.12688358001709,0.3167828071594238
1788862184788348400,6.711348388671875,-6.508637213134765,-5.249287139892578,0.3414730117797851
1788862184798390300,6.721390380859375,-7.161805353546142,-5.4701522430419915,0.2371756019592285
1788862184808431400,6.731431396484375,-7.87782128753662,-5.61784455795288,0.201112939453125
1788862184818473200,6.74147314453125,-8.424597091674805,-5.657947435760498,0.060303954315185544
1788862184828515300,6.751515380859375,-8.95655877304077,-5.66902061843872,-0.06823474731445311
1788862184838557400,6.761557373046875,-9.511415007781983,-5.738003553771972,-0.21951836471557615
1788862184848598500,6.7715986328125,-9.976937593078613,-5.719448490905761,-0.3233668617248535
1788862184858640400,6.781640380859375,-10.136301641082763,-5.616198544311523,-0.3480570663452148
1788862184868682500,6.7916826171875,-9.905710093688965,-5.453243193817138,-0.17387889556884764
1788862184878723300,6.801723388671875,-9.375394425964355,-5.466710578155517,-0.06449380722045898
1788862184888765400,6.811765380859375,-8.820388553619384,-5.550956549072265,-0.03172317199707031
1788862184898807600,6.8218076171875,-8.372822480773925,-5.571456900787354,0.06883329772949218
1788862184908849400,6.831849365234375,-8.049305981445311,-5.575497116088867,0.24974516067504882
1788862184918890500,6.841890380859375,-7.7793597442626945,-5.799504608917236,0.30750527572631836
1788862184928932400,6.851932373046875,-7.687182980346679,-6.198288822937012,0.2424129180908203
1788862184938974500,6.861974365234375,-7.616853306579589,-6.26906740951538,0.12898761444091797
1788862184949015300,6.872015380859375,-7.688828993988037,-5.829282492065429,0.33473931961059566
1788862184959057400,6.882057373046875,-7.753921351623535,-5.260210684967041,0.6654384239196777
1788862184969099500,6.892099609375,-7.7787611938476555,-4.715080894470215,0.728435855102539
1788862184979141400,6.902141357421875,-7.795819880676269,-4.571877707672119,0.6931213806152343
1788862184989182500,6.912182373046875,-7.895179249572753,-4.952256496429443,0.34700960311889645
1788862184999224300,6.922224365234375,-8.201936337280273,-5.478531948852539,-0.3871124809265136
1788862185009266400,6.932266357421875,-8.590395556640624,-5.866392617797851,-0.8053495834350586
1788862185019307300,6.942307373046875,-8.875455191802978,-5.996427695465088,-1.1218331153869627
1788862185029349400,6.952349365234375,-9.163357941436766,-5.929539686584472,-1.1145008728027344
1788862185039391500,6.9623916015625,-9.30820714187622,-5.9105357109069825,-0.8596680335998534
1788862185049433300,6.972433349609375,-9.270348828125,-5.9126306373596185,-0.5671265182495117
1788862185059474400,6.982474365234375,-9.298331060028076,-5.784540848541259,-0.2120364845275879
1788862185069516500,6.9925166015625,-9.277381795501709,-5.690119520568848,-0.14933832855224607
1788862185079558400,7.002558349609375,-9.135674984741211,-5.503820703887939,-0.4317044868469238
1788862185089599500,7.012599609375,-9.076568131256103,-5.212625926971436,-0.8578723823547363
1788862185099641300,7.022641357421875,-9.185354669189453,-4.8421232200622555,-1.2279261764526366
1788862185109683500,7.032683349609375,-9.294141207122802,-4.573673358917236,-1.4423568626403809
1788862185119725600,7.0427255859375,-9.423727371978758,-4.514267230224609,-1.4215572357177733
1788862185129766400,7.052766357421875,-9.360879578399658,-4.342782536315918,-1.2849381034851073
1788862185139808500,7.06280859375,-9.280973097991943,-4.036773636627197,-0.8972270721435547
1788862185149850400,7.072850341796875,-9.304615839385987,-4.006247565460205,-0.390703783416748
1788862185159891500,7.082891357421875,-9.430610701751709,-4.393808959197997,-0.10235212097167969
1788862185169933300,7.092933349609375,-9.194332925415038,-5.071966579437255,-0.177470198059082
1788862185179975400,7.102975341796875,-8.628553145599366,-5.224148022460938,-0.2958335426330566
1788862185190018000,7.11301806640625,-8.308029398345946,-4.731690668487548,-0.08140285644531249
1788862185200059000,7.123058837890625,-8.275258763122558,-4.333804280090332,0.2346317626953125
1788862185210101200,7.133101318359375,-8.109609935760497,-4.393360046386719,0.20919337005615232
1788862185220143000,7.14314306640625,-7.996034994506836,-4.36073904876709,0.014664485168457031
1788862185230184200,7.15318408203125,-7.993790430450439,-3.8648400299072265,0.12135609664916991
1788862185240226000,7.16322607421875,-7.836371671295166,-3.4467525650024413,0.4343979637145996
1788862185250268000,7.173267822265625,-7.642590974426269,-3.292326557922363,0.6872855140686035
1788862185260310000,7.18331005859375,-7.7507789619445795,-3.170521548461914,0.8078934226989746
1788862185270350800,7.193350830078125,-8.096441826629638,-3.047070525360107,0.7101800674438477
1788862185280393200,7.203393310546875,-8.490437637329102,-3.205985660552978,0.15158289260864258
1788862185290435000,7.21343505859375,-8.897900832366943,-3.576039454650879,-0.7811082916259765
1788862185300476200,7.22347607421875,-8.762628438568115,-3.9905356170654294,-1.7705121276855467
1788862185310518000,7.23351806640625,-8.328380112457275,-3.9885903282165525,-2.307860762786865
1788862185320559900,7.243559814453125,-7.89772308883667,-3.82413860168457,-2.5671827301025387
1788862185330602000,7.25360205078125,-7.558345003509521,-3.547009759521484,-2.565835991668701
1788862185340642800,7.263642822265625,-8.091803060913085,-3.3743279647827147,-1.8754080879211426
1788862185350685200,7.273685302734375,-9.094823918914795,-3.365648983764648,-1.2126631408691406
1788862185360727000,7.28372705078125,-9.560346504211426,-3.339612040710449,-0.8903437423706054
1788862185370768100,7.29376806640625,-10.039037198638916,-3.6444238395690918,-1.1284171699523926
1788862185380810000,7.30381005859375,-10.01778865890503,-3.961655559539795,-1.8064251525878905
1788862185390852000,7.31385205078125,-9.264363323974608,-3.7931636177062984,-1.9792565849304198
1788862185400894000,7.32389404296875,-9.021651130676268,-3.344101168823242,-1.7381904052734374
1788862185410935000,7.33393505859375,-9.013121787261962,-2.9242180526733397,-1.4872481437683105
1788862185420977200,7.34397705078125,-9.341725965118407,-2.7884967460632324,-1.4116811538696288
1788862185431019000,7.35401904296875,-9.539247602081298,-2.6692355758666992,-1.5770307060241697
1788862185441060000,7.36406005859375,-9.193734375,-2.4350527259826658,-1.8040309509277344
1788862185451102000,7.37410205078125,-8.933514582061767,-2.1308394775390624,-1.976563108062744
1788862185461144000,7.38414404296875,-8.764573727416991,-1.8626888916015625,-1.7995418228149413
1788862185471186000,7.39418603515625,-8.54879630279541,-1.9158102409362792,-1.5454571716308594
1788862185481227000,7.40422705078125,-8.35770908279419,-2.1312883903503415,-1.3340192375183104
1788862185491269000,7.41426904296875,-8.308478311157225,-2.105700360107422,-1.0600327850341795
1788862185501311000,7.42431103515625,-8.601618376922607,-1.9158102409362792,-1.16837041015625
1788862185511353000,7.43435302734375,-8.885480911254882,-1.8818425048828125,-1.309478670501709
1788862185521394000,7.444393798828125,-8.518719144439697,-1.8260276786804197,-1.6123451805114746
1788862185531436000,7.45443603515625,-8.447940557861328,-1.7507599639892577,-1.8454805671691894
1788862185541478000,7.464477783203125,-8.851662812805175,-2.051681185150146,-1.8947113388061523
1788862185551519000,7.47451904296875,-8.942941751098632,-2.072181536865234,-1.9499276145935058
1788862185561561000,7.48456103515625,-8.990825784301757,-1.69180274810791,-1.7884686401367187
1788862185571603000,7.49460302734375,-8.821735292053223,-1.2337620429992675,-1.1499649848937987
1788862185581645000,7.50464501953125,-8.844031295013426,-0.8699930282592773,-1.0365396812438965
1788862185591686000,7.514685791015625,-9.036614891052245,-0.17552490921020505,-1.177947216796875
1788862185601728000,7.52472802734375,-9.572167874908446,0.22176292877197265,-1.4425065002441406
1788862185611770000,7.53477001953125,-10.267234544372558,0.1771709228515625,-1.4272434646606444
1788862185621811200,7.544811279296875,-9.096170657348631,0.15726912155151365,-1.387290224456787
1788862185631853000,7.55485302734375,-7.5710641998291015,0.7769184387207031,-1.5975310577392576
1788862185641895200,7.564895263671875,-7.891438309478759,1.442207225036621,-2.064101106262207
1788862185651937000,7.57493701171875,-8.584260414886474,1.6457143661499023,-2.2096984947204588
1788862185661978000,7.58497802734375,-8.585158240509033,1.2828431770324706,-1.6880618080139158
1788862185672020000,7.59502001953125,-8.271068910217284,0.8298901504516601,-0.7998129920959473
1788862185682062000,7.60506201171875,-8.04511612854004,0.6558616172790527,-0.28924948806762696
1788862185692104200,7.615104248046875,-8.098985665893554,0.6844423995971679,-0.36586394119262694
1788862185702145000,7.62514501953125,-8.632593360900879,0.7128735443115234,-0.8288426872253417
1788862185712187100,7.635187255859375,-9.120112673950194,0.5412392127990723,-0.743100340270996
1788862185722229000,7.64522900390625,-9.052326839447021,0.04414309310913086,-0.022296002960205077
1788862185732270000,7.65527001953125,-8.738237509155272,-0.4113537727355957,0.2882020248413086
1788862185742312000,7.66531201171875,-8.991573972320555,-0.6597521949768066,-0.2258031440734863
1788862185752354000,7.67535400390625,-9.234884716033935,-0.7106289802551269,-1.2855366539001465
1788862185762396200,7.685396240234375,-9.347561831665038,-0.40880993347167965,-1.686116519165039
1788862185772437000,7.69543701171875,-9.491064293670654,-0.1662473777770996,-1.1849801841735839
1788862185782479000,7.70547900390625,-9.523086740875243,-0.3329436683654785,-0.41539398803710936
1788862185792521000,7.71552099609375,-9.162310478210449,-0.7637503295898437,0.14814122772216795
1788862185802562000,7.72556201171875,-8.81096138458252,-1.1257236930847168,-0.037409400939941405
1788862185812604000,7.73560400390625,-8.959102612304687,-1.1942577156066894,-0.5529109458923339
1788862185822646000,7.74564599609375,-8.783727340698242,-1.0139444030761717,-0.8922890312194823
1788862185832688000,7.755688232421875,-8.410680794525145,-0.6006453414916992,-0.8366238426208495
1788862185842729200,7.765729248046875,-8.012644768524169,-0.3082534637451172,-0.7106289802551269
1788862185852771000,7.77577099609375,-7.851185794067383,-0.5141548065185546,-0.8038532073974609
1788862185862813000,7.78581298828125,-8.053196559143066,-1.084124439239502,-0.8990227233886718
1788862185872855000,7.79585498046875,-8.4789155418396,-1.8625392539978027,-0.9900023864746094
1788862185882896000,7.805895751953125,-8.579920924377442,-2.6885388267517087,-1.1495160720825195
1788862185892938200,7.815938232421875,-8.795997624206542,-3.1808465431213375,-1.5081974082946776
1788862185902980000,7.82597998046875,-8.923937775421143,-3.299808438110351,-1.6823755790710448
1788862185913021200,7.836021240234375,-9.300725261688232,-3.0445266860961913,-1.6187795974731445
1788862185923063000,7.84606298828125,-9.784952547454834,-2.708739903259277,-1.4827590156555175
1788862185933105000,7.85610498046875,-9.47370633163452,-2.5369559341430663,-1.4712369201660156
1788862185943147000,7.86614697265625,-9.099761959838867,-2.45794727935791,-1.4368202713012694
1788862185953187800,7.876187744140625,-8.902090685272217,-2.462436407470703,-1.277605860900879
1788862185963230200,7.886230224609375,-9.04095438156128,-2.5116671791076657,-1.041926634979248
1788862185973272000,7.89627197265625,-9.415796578979492,-2.6587609436035153,-0.8406640579223632
1788862185983313200,7.906313232421875,-9.573664250946045,-2.881272060394287,-0.572663109588623
1788862185993355000,7.91635498046875,-9.228151023864745,-3.071760729980469,-0.19871873779296872
1788862186003396900,7.92639697265625,-8.875604829406738,-3.2495302032470703,0.03441664886474609
1788862186013439000,7.93643896484375,-9.023446781921386,-3.3378163894653317,0.11806406936645507
1788862186023480000,7.94647998046875,-9.2443118850708,-3.4299931533813472,-0.025438392639160156
1788862186033522200,7.956522216796875,-9.585485621643066,-3.572597789764404,-0.2846107223510742
1788862186043564000,7.96656396484375,-9.64578957595825,-3.766228849029541,-0.28535891036987304
1788862186053606100,7.976606201171875,-9.189394884490966,-3.9407062950134275,-0.048931496429443354
1788862186063647000,7.98664697265625,-8.744821563720702,-4.089595710754394,0.10354922180175781
1788862186073689000,7.996689208984375,-8.614636848449706,-4.254047437286377,0.09382277755737305
1788862186083731000,8.00673095703125,-8.691700214385985,-4.423586842346191,-0.024091654205322263
1788862186093772000,8.01677197265625,-8.423100715637206,-4.56439582748413,-0.1470937644958496
1788862186103814100,8.026814208984375,-7.901464028930664,-4.555267933654785,-0.13287819213867186
1788862186113856000,8.03685595703125,-7.581538832092285,-4.561851988220215,-0.10803834991455077
1788862186123898000,8.046898193359375,-7.575403690338134,-4.655225852966308,-0.07601590270996093
1788862186133939000,8.05693896484375,-7.631218516540527,-4.938938749694824,-0.06703764648437499
1788862186143981000,8.06698095703125,-7.829787616729736,-5.406705899047851,-0.1571194839477539
1788862186154023000,8.07702294921875,-7.965957836151123,-5.965452711486816,-0.3360860580444336
1788862186164065000,8.08706494140625,-7.926303871154785,-6.469881073760986,-0.49545010604858397
1788862186174106000,8.097106201171876,-8.014739694976805,-6.817788502502441,-0.5922656356811523
1788862186184148000,8.10714794921875,-8.289025422668457,-7.122749938964843,-0.7923311119079589
1788862186194190000,8.117190185546875,-8.539369133758544,-7.313088970947265,-1.003619408416748
1788862186204231000,8.12723095703125,-8.429984045410155,-7.399729143524169,-1.2774562232971192
1788862186214273000,8.13727294921875,-8.29396346359253,-7.446416075897217,-1.4616601135253906
1788862186224315000,8.14731494140625,-8.15809251937866,-7.398831317901611,-1.4423568626403809
1788862186234357000,8.15735693359375,-8.055590760803222,-7.307702017211914,-1.3180080139160155
1788862186244397800,8.167397705078125,-7.915978876495361,-7.24635059967041,-1.181688156890869
1788862186254440000,8.17743994140625,-7.720103253173828,-7.195623451995849,-1.0699088668823242
1788862186264482000,8.18748193359375,-7.714417024230957,-7.272986093139648,-0.9723451492309569
1788862186274523100,8.197523193359375,-7.813926030731201,-7.480084536743163,-0.8506897773742675
1788862186284565000,8.20756494140625,-7.794024229431152,-7.644536263275146,-0.7411550514221191
1788862186294606800,8.21760693359375,-7.777564093017578,-7.815422406768798,-0.6416460449218749
1788862186304649000,8.22764892578125,-7.9658081985473626,-8.014440419769286,-0.6070797584533691
1788862186314689800,8.237689697265624,-8.175899394226073,-8.153603391265868,-0.5027823486328125
1788862186324732000,8.24773193359375,-8.128464273834227,-8.137741805267334,-0.31094694061279293
1788862186334774000,8.25777392578125,-7.968352037811279,-7.926004595947266,-0.19557634811401367
1788862186344815900,8.26781591796875,-7.83367819442749,-7.5716627502441405,-0.11596914291381835
1788862186354857000,8.27785693359375,-7.615207292938232,-7.20789373550415,-0.17357962036132812
1788862186364898800,8.28789892578125,-7.211485037994384,-6.955904010772705,-0.31169512863159177
1788862186374941000,8.29794091796875,-6.9539587219238275,-6.881683759307861,-0.464774397277832
1788862186384981800,8.307981689453126,-6.891260565948486,-6.922235549926757,-0.629525399017334
1788862186395024000,8.31802392578125,-6.772298670959472,-7.050175701141357,-0.7935282127380371
1788862186405066000,8.32806591796875,-6.7462617279052735,-7.272237905120849,-0.9065046035766601
1788862186415107800,8.33810791015625,-7.015459777069092,-7.507019305419921,-1.0372878692626952
1788862186425149000,8.34814892578125,-7.31608172302246,-7.799261545562744,-1.1725602630615233
1788862186435191000,8.35819091796875,-7.711723547363281,-8.135197966003417,-1.1279682571411132
1788862186445233000,8.36823291015625,-8.11454797668457,-8.421753977203368,-0.9361328491210937
1788862186455274800,8.378274658203125,-8.17904178390503,-8.419509413146972,-0.7302315063476562
1788862186465315800,8.38831591796875,-8.138190718078613,-8.141632382965087,-0.7240963645935058
1788862186475358000,8.39835791015625,-8.223783427429199,-7.796119155883789,-0.8212111694335937
1788862186485400000,8.408400146484375,-8.090456322479248,-7.485321852874756,-0.7050923889160156
1788862186495441000,8.41844091796875,-7.32251613998413,-7.299023036193847,-0.3456628646850586
1788862186505483000,8.42848291015625,-6.2846297203063965,-7.311442957305908,0.06628945846557617
1788862186515524900,8.43852490234375,-5.679644888305663,-7.5822870201110835,0.19871873779296872
1788862186525566700,8.448566650390624,-5.735459714508056,-7.886200993347168,-0.029478607940673827
1788862186535607800,8.45860791015625,-5.777657518768311,-8.049904531860351,-0.40611645660400386
1788862186545650000,8.46864990234375,-5.5826797210693355,-7.927351334381103,-0.7703343841552734
1788862186555692000,8.478692138671875,-5.488258393096923,-7.387159584808349,-0.9756371765136718
1788862186565734000,8.48873388671875,-5.437381607818603,-6.956053648376464,-0.9193734375
1788862186575775000,8.49877490234375,-5.653308670043945,-6.887818901062011,-0.8294412376403808
1788862186585816800,8.50881689453125,-6.198288822937012,-6.999448553466796,-0.7432499778747558
1788862186595858700,8.518858642578126,-6.776787799072265,-7.181707154846191,-0.8560767311096191
1788862186605899800,8.528899658203125,-7.265953125762939,-7.361721192169189,-1.034893667602539
1788862186615942000,8.53894189453125,-7.794622779846191,-7.500285613250732,-1.192611701965332
1788862186625984000,8.54898388671875,-8.313565989685058,-7.645134813690185,-1.258302610015869
1788862186636025900,8.55902587890625,-8.69454332885742,-7.6997525390625,-1.1586439659118652
1788862186646067000,8.56906689453125,-8.834604125976561,-7.607725412750244,-0.8677484642028808
1788862186656108800,8.57910888671875,-8.70172593383789,-7.44402187423706,-0.5520131202697753
1788862186666151000,8.58915087890625,-8.43956085205078,-7.321618314361571,-0.2790741310119629
1788862186676193000,8.599193115234375,-7.991545866394042,-7.174674187469482,-0.08424597091674804
1788862186686234000,8.609234130859376,-7.489212430572509,-6.782025115203857,0.025737667846679687
1788862186696276000,8.61927587890625,-7.076661557006836,-6.437708988952636,0.1283890640258789
1788862186706317800,8.62931787109375,-6.676081691741943,-6.44833325881958,0.06793547210693358
1788862186716359000,8.63935888671875,-6.542754586791991,-6.657676266479492,0.010324994659423827
1788862186726400800,8.64940087890625,-6.550835017395019,-6.894402955627441,-0.06449380722045898
1788862186736443000,8.65944287109375,-6.788309894561767,-7.177966214752197,-0.1571194839477539
1788862186746485000,8.669485107421876,-7.111527118682861,-7.355286775207519,-0.30316578521728516
1788862186756526000,8.679526123046875,-7.502230902099609,-7.352294023132324,-0.37394437179565426
1788862186766568000,8.68956787109375,-7.80195502243042,-7.1887401222229,-0.4327519500732422
1788862186776609800,8.69960986328125,-8.111255949401855,-6.921786637115478,-0.4508581001281738
1788862186786651000,8.70965087890625,-8.423100715637206,-6.739677673339843,-0.3456628646850586
1788862186796692700,8.719692626953124,-8.674192614746094,-6.630142947387695,-0.24181436767578124
1788862186806734800,8.72973486328125,-8.82981572265625,-6.581810001373291,-0.14918869094848633
1788862186816777000,8.73977685546875,-8.902689235687255,-6.555922695922852,-0.16879121704101563
1788862186826818000,8.749818115234374,-8.806472256469727,-6.5505357421875,-0.23642741394042968
1788862186836860000,8.75985986328125,-8.624213655090331,-6.522553510284424,-0.31379005508422847
1788862186846902000,8.769902099609375,-8.457517364501953,-6.414664797973632,-0.3826233528137207
1788862186856943900,8.77994384765625,-8.328230474853514,-6.270114872741699,-0.32127193527221676
1788862186866985000,8.78998486328125,-7.939172705078125,-5.834669445800781,-0.3350385948181152
1788862186877026800,8.80002685546875,-7.634510543823242,-5.69445901107788,-0.5183446594238281
1788862186887069000,8.81006884765625,-7.502979090118408,-5.625775350952148,-0.5707178207397461
1788862186897110000,8.820110107421876,-7.454047593688965,-5.384559533691406,-0.4059668190002441
1788862186907152000,8.83015185546875,-7.629871778106689,-5.1611505912780755,-0.16175824966430663
1788862186917194000,8.840194091796874,-7.977928844451903,-5.077952083587646,0.08708908538818359
1788862186927235800,8.85023583984375,-8.454225337219238,-5.153070160675049,0.22340894241333006
1788862186937277000,8.86027685546875,-8.973617459869384,-5.391293225860595,0.2859574607849121
1788862186947318800,8.87031884765625,-9.442731347656249,-5.708824221038818,0.3172317199707031
1788862186957361000,8.88036083984375,-9.424176284790038,-5.993734218597412,0.18300678939819334
1788862186967402000,8.890402099609375,-9.048436261749266,-6.20592034072876,-0.21951836471557615
1788862186977443800,8.90044384765625,-8.640823429107666,-6.0327896331787105,-0.5159504577636719
1788862186987486000,8.91048583984375,-8.036586785125731,-5.557091690826415,-0.503680174255371
1788862186997527800,8.92052783203125,-7.646930464935302,-4.912602531433105,-0.46582186050415036
1788862187007569000,8.93056884765625,-8.076988938140868,-4.428973796081543,-0.6003460662841796
1788862187017611000,8.940611083984376,-8.971971446228027,-4.291606475830078,-0.8321347145080565
1788862187027652900,8.95065283203125,-9.72943699645996,-4.399495188140869,-0.9404723396301269
1788862187037695000,8.960695068359374,-9.641300447845458,-4.7007156845092775,-0.9777321029663085
1788862187047735800,8.97073583984375,-8.745869026947021,-4.9286137550354,-0.8257002975463866
1788862187057778000,8.98077783203125,-8.358307633209227,-4.861426470947265,-0.5102642288208008
1788862187067819800,8.99081982421875,-8.403049276733398,-4.562600176239013,-0.2711433380126953
1788862187077860900,9.00086083984375,-8.805574430847168,-4.2706572113037105,-0.1806125877380371
1788862187087903000,9.010903076171875,-9.09721812057495,-3.9450457855224608,-0.3058592620849609
1788862187097945000,9.020945068359374,-9.164255767059325,-3.6456209403991697,-0.4472667976379394
1788862187107987000,9.030987060546876,-9.044096771240234,-3.3776199920654295,-0.6476315490722656
1788862187118028000,9.041028076171875,-8.814552687072753,-3.11545491027832,-0.891241567993164
1788862187128070000,9.05106982421875,-8.857349041748046,-3.0352491546630858,-1.1125555839538575
1788862187138111700,9.06111181640625,-8.771905970001221,-3.087323040771484,-1.3208511283874511
1788862187148152800,9.07115283203125,-8.471134386444092,-3.268234903717041,-1.3521253875732422
1788862187158195000,9.08119482421875,-8.470984748840332,-3.462314875793457,-1.1935095275878906
1788862187168237000,9.091237060546876,-8.598775262451172,-3.4235587364196776,-0.9228151023864746
1788862187178279000,9.10127880859375,-8.523507547760008,-3.3954268669128416,-0.929548794555664
1788862187188320000,9.111320068359374,-8.681973770141601,-3.1145570846557615,-1.0646715507507323
1788862187198360600,9.121360595703125,-8.828169709014892,-2.917035447692871,-1.4474445411682129
1788862187208403000,9.13140283203125,-9.079860158538818,-2.754678647613525,-1.7485153999328613
1788862187218444800,9.14144482421875,-8.763675901794434,-2.608482708740234,-1.772307778930664
1788862187228486000,9.15148583984375,-8.21719937286377,-2.2833201957702633,-1.5867571502685547
1788862187238527700,9.16152783203125,-8.138489993286132,-1.9870377403259276,-1.2737152832031249
1788862187248569600,9.171569580078126,-8.289324697875976,-1.85790048828125,-1.1279682571411132
1788862187258610700,9.181610595703125,-8.46529851989746,-1.8748095375061034,-1.2413935607910156
1788862187268652800,9.19165283203125,-8.232462408447265,-1.8887258346557616,-1.29601128616333
1788862187278695000,9.20169482421875,-8.316259466552735,-1.827823329925537,-1.4547767837524412
1788862187288735700,9.21173583984375,-8.122029856872558,-1.5734394035339354,-1.779340746307373
1788862187298777900,9.22177783203125,-7.94845023651123,-1.2973580245971679,-1.8037316757202146
1788862187308819700,9.23181982421875,-8.452579323577881,-1.350180098724365,-1.5560814414978026
1788862187318861800,9.24186181640625,-8.646360020446776,-1.4981716888427734,-1.4662988792419434
1788862187328902700,9.251902587890624,-8.38883370437622,-1.5900491775512695,-1.579424907684326
1788862187338944800,9.26194482421875,-8.525901749420166,-1.5575778175354003,-1.7931074058532714
1788862187348987000,9.27198681640625,-8.857049766540527,-1.4818611900329588,-1.4706383697509764
1788862187359028700,9.28202880859375,-8.941744650268554,-0.8240542839050292,-1.027262149810791
1788862187369069800,9.29206982421875,-8.7470661277771,-0.5301660301208496,-1.2268787132263184
1788862187379111700,9.302111572265625,-8.863184908294677,-0.3920505218505859,-1.490091258239746
1788862187389153800,9.31215380859375,-9.114127169799804,-0.5467758041381836,-1.6514005950927733
1788862187399194600,9.322194580078126,-9.329754956817627,-0.8779238212585448,-1.8688240333557127
1788862187409236700,9.33223681640625,-9.109638041687012,-0.9428665412902831,-1.9677344894409179
1788862187419278800,9.34227880859375,-7.799860095977783,-0.8583212951660156,-1.9946692581176757
1788862187429320700,9.35232080078125,-7.472303381347656,-0.4896142395019531,-1.919850456237793
1788862187439361800,9.36236181640625,-8.398410511016845,-0.40357261734008787,-1.4006079711914061
1788862187449403600,9.372403564453125,-8.313565989685058,-0.1897404815673828,-1.1403881782531737
1788862187459445800,9.38244580078125,-8.295010926818847,0.24256255569458007,-1.1192892761230469
1788862187469486600,9.392486572265625,-8.442553604125976,0.4300584732055664,-1.0622773490905761
1788862187479529000,9.402529052734375,-8.111854499816895,0.474351203918457,-1.237203707885742
1788862187489570800,9.41257080078125,-7.810634003448486,0.4337994132995605,-1.6234183631896972
1788862187499613000,9.422613037109375,-8.65773247833252,0.06599018325805664,-1.696291876220703
1788862187509653800,9.43265380859375,-9.677512747955321,-0.4852747489929199,-1.2387000839233397
1788862187519696000,9.44269580078125,-9.525480942535399,-0.7439981658935546,-0.6338648895263671
1788862187529737700,9.45273779296875,-8.827271883392333,-0.6072293960571289,-0.44412440795898434
1788862187539778800,9.46277880859375,-8.754697645568847,-0.23582886352539062,-0.752078596496582
1788862187549821000,9.472821044921876,-8.9891797706604,0.12240355987548827,-0.9204209007263183
1788862187559862800,9.48286279296875,-8.82323166809082,0.06359598159790039,-0.9151835845947265
1788862187569905000,9.49290478515625,-8.468740184783934,-0.17821838607788085,-0.7773673515319823
1788862187579945700,9.50294580078125,-8.598475987243653,-0.47629649276733393,-0.6370072792053222
1788862187589987800,9.51298779296875,-8.821436016845702,-0.8345289161682128,-0.870142665863037
1788862187600029700,9.52302978515625,-8.737190045928955,-1.0344447547912596,-1.2874819427490234
1788862187610070800,9.53307080078125,-8.551489779663086,-1.159990704345703,-1.2665326782226562
1788862187620113000,9.54311279296875,-8.116193990325927,-1.1569979522705078,-1.0857704528808594
1788862187630154800,9.55315478515625,-7.957727767944336,-1.0664672019958497,-1.1777975791931152
1788862187640196900,9.56319677734375,-8.5678002784729,-1.0567407577514647,-1.5167267517089842
1788862187650237700,9.57323779296875,-9.318232861328125,-1.3045406295776367,-1.8306664443969725
1788862187660279800,9.58327978515625,-9.674519995880127,-1.7603367706298827,-1.783829874420166
1788862187670321700,9.59332177734375,-9.66000514831543,-2.2221184158325196,-1.4915876342773438
1788862187680362800,9.60336279296875,-9.548225858306884,-2.6255413955688476,-1.1309610092163085
1788862187690404900,9.61340478515625,-9.548525133514405,-2.882469161224365,-0.8280944992065429
1788862187700446700,9.62344677734375,-9.509918631744384,-2.9761423011779784,-0.8714894042968749
1788862187710488800,9.63348876953125,-9.45470235595703,-2.9828759933471676,-1.1837830833435057
1788862187720530000,9.643530029296874,-9.453205979919433,-2.9809307044982907,-1.4290391159057616
1788862187730571800,9.65357177734375,-9.37808790283203,-3.087472678375244,-1.2650363021850586
1788862187740613600,9.663613525390625,-8.780584951019286,-3.275716783905029,-0.8705915786743164
1788862187750654700,9.67365478515625,-8.085219006347655,-3.4184710578918454,-0.37334582138061523
1788862187760696800,9.68369677734375,-8.076988938140868,-3.5372833152770995,-0.05985504150390625
1788862187770739000,9.693739013671875,-8.385092764282225,-3.733607851409912,0.09112930068969725
1788862187780780800,9.70378076171875,-8.49791951751709,-3.9827544616699218,0.1484405029296875
1788862187790822000,9.71382177734375,-8.517671681213379,-4.221576077270508,0.19288287124633788
1788862187800863700,9.72386376953125,-8.400954350280761,-4.446780670928955,0.32172084808349605
1788862187810905600,9.733905517578124,-8.24892254486084,-4.687996488189697,0.5458779785156249
1788862187820946700,9.74394677734375,-7.8341271072387695,-4.8509518386840815,0.4929062667846679
1788862187830988800,9.75398876953125,-7.612214540863037,-4.870853639984131,0.1833060646057129
1788862187841031000,9.764031005859374,-8.12636934738159,-4.749497543334961,-0.020201076507568357
1788862187851072800,9.77407275390625,-8.6321444480896,-4.790797521972656,-0.20231004028320312
1788862187861113900,9.78411376953125,-8.605359317016601,-5.017049578857422,-0.4037222549438476
1788862187871155700,9.79415576171875,-8.487295247650145,-5.385457359313965,-0.6705261024475098
1788862187881197600,9.804197509765626,-8.435370999145507,-5.830928505706787,-0.8231564582824706
1788862187891238700,9.81423876953125,-8.533084354400634,-6.260089153289795,-0.7549217109680175
1788862187901280800,9.82428076171875,-8.431480421447754,-6.679373719024658,-0.5948094749450683
1788862187911323000,9.834322998046876,-7.953388277435303,-7.023240932464599,-0.6356605407714844
1788862187921364700,9.84436474609375,-7.443423323822021,-7.210437574768066,-0.8403647827148437
1788862187931405800,9.85440576171875,-7.584232308959961,-7.3192241127014155,-1.1691185981750487
1788862187941447700,9.86444775390625,-8.103175518798828,-7.357980252075195,-1.4591162742614745
1788862187951489800,9.87448974609375,-7.8709379577636716,-7.3861121215820305,-1.5722423027038572
1788862187961530600,9.884530517578124,-7.208492285919189,-7.442525498199463,-1.594837580871582
1788862187971573000,9.894572998046876,-7.101351761627197,-7.3748893013000485,-1.3932757286071777
1788862187981614800,9.90461474609375,-7.183502806091308,-7.331793671417236,-1.1991957565307616
1788862187991656700,9.91465673828125,-7.057208668518066,-7.296479196929932,-0.9548375495910644
1788862188001697800,9.92469775390625,-6.747009915924072,-7.316231360626221,-0.7848492317199707
1788862188011739600,9.93473974609375,-6.476016215515136,-7.473350844573974,-0.8297405128479003
1788862188021781800,9.94478173828125,-6.443095942687988,-7.708132244873046,-1.0203788200378416
1788862188031822600,9.954822509765625,-6.591686083221435,-7.9952868064880365,-1.2517185554504393
1788862188041865000,9.964864990234375,-6.899041721343994,-8.259097901916503,-1.4713865577697753
1788862188051906800,9.97490673828125,-7.461080561065673,-8.555978907775879,-1.6888099960327148
1788862188061948000,9.984947998046875,-8.123675870513916,-8.898200107574462,-1.7845780624389647
1788862188071989800,9.99498974609375,-8.580818749999999,-9.104849638366698,-1.7845780624389647
1788862188082031600,10.005031494140624,-8.558822022247314,-9.003844255828858,-1.7117045494079588
1788862188092073700,10.01507373046875,-8.29950005493164,-8.709956002044677,-1.6144401069641112
1788862188102114600,10.025114501953125,-8.020575561523437,-8.290821073913573,-1.4712369201660156
1788862188112157000,10.035156982421874,-7.703942391967773,-7.889642658233642,-1.3024457031249999
1788862188122198800,10.04519873046875,-7.450905204010009,-7.647678652954101,-1.097442185974121
1788862188132240000,10.055239990234375,-7.157914775848388,-7.507318580627441,-0.8801683853149413
1788862188142281700,10.06528173828125,-6.822277630615234,-7.3843164703369135,-0.716913759613037
1788862188152323800,10.07532373046875,-6.609792233276367,-7.333589322662353,-0.49589901885986326
1788862188162365700,10.08536572265625,-6.551583205413818,-7.404367909240722,-0.39668928756713867
1788862188172406800,10.09540673828125,-6.409427481842041,-7.63555800704956,-0.47719431838989257
1788862188182449000,10.105448974609375,-6.42903000793457,-7.942764007568359,-0.6907271789550781
1788862188192491300,10.1154912109375,-6.775291423034668,-7.93558140258789,-0.8467991996765136
1788862188202532400,10.125532470703124,-7.0738184425354,-7.719055789947509,-1.0353425804138183
1788862188212574200,10.13557421875,-7.208791561126708,-7.417984931182861,-1.1718120750427246
1788862188222616300,10.1456162109375,-7.211634675598144,-7.1303814567565915,-1.30229606552124
1788862188232658200,10.155658203125,-7.0658876495361325,-6.9059250511169425,-1.2975076622009276
1788862188242699300,10.16569921875,-6.695684217834472,-7.058256131744384,-1.1665747589111328
1788862188252741000,10.1757412109375,-6.340145271301269,-7.5335051612854,-1.0787374855041503
1788862188262783200,10.185783203125,-6.225971779632568,-7.993790430450439,-0.9594763153076171
1788862188272824300,10.19582421875,-6.146065299224853,-8.279149340820313,-0.8559270935058593
1788862188282866200,10.2058662109375,-6.008099428558349,-8.303689907836914,-0.9415198028564452
1788862188292908300,10.215908203125,-6.217741711425781,-8.236951536560058,-0.9997288307189941
1788862188302950100,10.2259501953125,-6.629544396972656,-8.113350875854492,-1.1659762084960936
1788862188312991200,10.2359912109375,-7.154473110961914,-7.924508219909668,-1.467795255279541
1788862188323033000,10.246033203125,-7.951442988586425,-7.696460511779785,-1.5607202072143553
1788862188333075200,10.2560751953125,-8.743923738098143,-7.515249373626709,-1.4347253448486328
1788862188343116300,10.2661162109375,-9.093177905273437,-7.3575313392639154,-0.9867103591918944
1788862188353158100,10.276158203125,-8.697685718536377,-7.152976734924316,-0.46836569976806636
1788862188363200300,10.2862001953125,-8.02461577682495,-6.993612686920166,-0.14948796615600585
1788862188373241000,10.296240966796875,-7.677606173706054,-6.916998233795166,-0.33623569564819333
1788862188383283200,10.306283203125,-7.466317877197265,-7.107786178588867,-0.8761281700134277
1788862188393325000,10.316324951171875,-7.349750183868408,-7.397933492279052,-1.2856862915039062
1788862188403367200,10.3263671875,-7.345560330963134,-7.542932330322265,-1.362450382232666
1788862188413408300,10.336408203125,-7.14414811630249,-7.517344300079345,-1.263539926147461
1788862188423450000,10.3464501953125,-6.806116769409179,-7.284807463836669,-1.1299135459899903
1788862188433492200,10.3564921875,-6.6048541923522945,-6.941089888000488,-0.852934341430664
1788862188443533000,10.366532958984376,-6.324283685302734,-6.56325493850708,-0.5636848533630371
1788862188453575200,10.3765751953125,-6.312761589813232,-6.16686492614746,-0.24570494537353516
1788862188463617000,10.386616943359375,-6.738630210113525,-5.890633909606933,0.04159925384521484
1788862188473659400,10.396659423828124,-7.440879484558105,-5.8740241355895995,0.06389525680541992
1788862188483700200,10.4067001953125,-8.340650395965575,-6.07768091430664,-0.10369885940551757
1788862188493742300,10.416742431640625,-9.033023588562012,-6.32009383239746,-0.5162497329711914
1788862188503784200,10.4267841796875,-9.367463632965087,-6.5403603851318355,-0.8875006278991698
1788862188513825300,10.4368251953125,-9.143605777740477,-6.638522653198242,-1.1098621070861816
1788862188523867100,10.4468671875,-8.642319805145263,-6.5014546081542965,-1.0473135887145995
1788862188533909200,10.4569091796875,-8.12696789779663,-6.256348213195801,-0.8738836059570312
1788862188543951400,10.466951416015625,-7.879616938781738,-6.085910982513427,-0.5606921012878417
1788862188553992200,10.4769921875,-7.911938661193847,-6.0351838348388664,-0.2088940948486328
1788862188564034300,10.487034423828124,-8.208969304656982,-5.9205614303588865,-0.2410661796569824
1788862188574076200,10.497076171875,-8.680776669311523,-6.0148331207275385,-0.44532150878906246
1788862188584117200,10.5071171875,-8.962544277191162,-6.040570788574218,-0.675464143371582
1788862188594159000,10.5171591796875,-9.159766638946532,-6.068104107666016,-0.9264064048767089
1788862188604201200,10.527201171875,-9.15482859802246,-6.206369253540038,-1.1577461402893066
1788862188614243300,10.537243408203125,-8.807669357299805,-6.331017377471923,-1.2831424522399901
1788862188624284200,10.5472841796875,-8.360252922058105,-6.284031169891357,-1.2105682144165038
1788862188634326300,10.557326171875,-8.306981935119628,-5.991489654541016,-0.953191535949707
1788862188644368100,10.5673681640625,-8.691700214385985,-5.755810428619385,-0.7821557548522948
1788862188654409200,10.5774091796875,-8.863334545898438,-5.689820245361328,-0.9317933586120605
1788862188664451000,10.587451171875,-8.501061907196044,-5.389796849822997,-1.056591120147705
1788862188674493400,10.597493408203125,-7.837868047332763,-4.961683665466309,-0.9606734161376953
1788862188684535300,10.607535400390624,-7.529315308380126,-4.585943642425537,-0.6534674156188964
1788862188694576400,10.617576416015625,-7.884854254913329,-4.42433503036499,-0.5746083984375
1788862188704618200,10.6276181640625,-8.583961139678955,-4.480898044586182,-0.8547299926757812
1788862188714660000,10.63766015625,-8.9891797706604,-4.585794004821777,-1.338209090423584
1788862188724701200,10.647701171875,-8.62541075592041,-4.5605052497863765,-1.6463129165649413
1788862188734743000,10.657742919921875,-8.24892254486084,-4.115483016204834,-1.6629226905822754
1788862188744785400,10.667785400390626,-8.486098146820067,-3.5131916610717773,-1.455674609375
1788862188754826200,10.677826171875,-8.936956246948242,-3.266888165283203,-1.3895347885131835
1788862188764868400,10.687868408203125,-9.042899670410156,-3.464709077453613,-1.495777487182617
1788862188774910200,10.69791015625,-8.86782367401123,-3.810970492553711,-1.7559972801208494
1788862188784952000,10.7079521484375,-8.747814315795898,-3.9140708015441894,-1.8267758666992187
1788862188794993200,10.7179931640625,-8.873060990142822,-3.997269309234619,-1.6973393394470213
1788862188805035000,10.728034912109376,-9.045892422485352,-3.8804023406982417,-1.4781202499389647
1788862188815077400,10.738077392578125,-9.428216500091553,-3.7677252250671383,-1.4273931022644042
1788862188825118200,10.7481181640625,-9.319729237365722,-3.641730362701416,-1.3793594314575195
1788862188835160300,10.758160400390626,-9.1799677154541,-3.6077626266479492,-1.4086884017944334
1788862188845202200,10.7682021484375,-8.626458219146729,-3.4844612411499023,-1.132607022857666
1788862188855244000,10.778244140625,-7.869591219329833,-3.3131261848449705,-0.6902782661437988
1788862188865285000,10.78828515625,-7.700949639892578,-2.967463320159912,-0.7502829452514648
1788862188875327200,10.7983271484375,-8.10227769317627,-2.5354595581054684,-1.2783540489196776
1788862188885369300,10.808369384765625,-8.214505895996094,-2.2732944763183593,-1.889025109863281
1788862188895410200,10.81841015625,-7.851933982086181,-2.2514473861694335,-2.5248352882385254
1788862188905452300,10.828452392578125,-7.358129889678954,-2.38776724319458,-2.7392659744262695
1788862188915494100,10.838494140625,-7.302464701080321,-2.4601918434143064,-2.4054244804382323
1788862188925535200,10.84853515625,-7.066785475158691,-2.4699182876586914,-2.0795137794494627
1788862188935577000,10.8585771484375,-7.4679638908386226,-2.274192301940918,-1.8900725730895995
1788862188945619200,10.868619140625,-8.265083406066895,-2.064550019073486,-1.774253067779541
1788862188955661300,10.878661376953126,-8.087164295196533,-1.568651000213623,-1.6397288619995116
1788862188965702400,10.888702392578125,-8.43387462310791,-1.1643301948547362,-1.8351555725097655
1788862188975744300,10.898744140625,-8.419359775543212,-1.0378864196777342,-2.0766706649780273
1788862188985786000,10.9087861328125,-8.43387462310791,-1.112106671142578,-2.1848586524963376
1788862188995827200,10.9188271484375,-9.109638041687012,-0.7603086647033691,-2.203114440155029
1788862189005869000,10.928869140625,-9.166949243927002,-0.7638999671936034,-2.1664532272338866
1788862189015911200,10.9389111328125,-9.485826977539062,-0.7139210075378417,-1.9402011703491209
1788862189025953300,10.948953369140625,-10.123432807159423,-0.3354875076293945,-1.750011775970459
1788862189035994400,10.958994384765624,-9.597007717132568,-0.049530046844482416,-2.1710919929504393
1788862189046036200,10.9690361328125,-8.17754540786743,0.1452981132507324,-2.4883237129211424
1788862189056078000,10.979078125,-7.274931381988525,0.23852234039306638,-2.481590020751953
1788862189066119200,10.989119140625,-7.299023036193847,0.23089082260131835,-2.2616227432250975
1788862189076161000,10.9991611328125,-7.9560817543029785,-0.029328970336914062,-2.1115362266540525
1788862189086203100,11.009203125,-8.017882084655762,-0.405368268585205,-1.9283797996520995
1788862189096245200,11.019245361328124,-8.326285186004638,-0.39594109954833984,-1.6707038459777832
1788862189106286300,11.029286376953126,-8.110807036590575,-0.2145803237915039,-1.5674538993835447
1788862189116328200,11.039328125,-7.819312984466552,-0.014514847564697266,-1.3187562019348145
1788862189126370300,11.049370361328124,-8.17126062850952,0.0282815071105957,-0.8494926765441894
1788862189136411100,11.0594111328125,-8.68317087097168,0.061650692749023434,-0.6287772109985351
1788862189146453200,11.069453369140625,-8.016535346221923,0.12075754623413085,-0.7185597732543945
1788862189156495000,11.0794951171875,-7.31024585647583,0.29658173065185545,-0.8970774345397948
1788862189166536200,11.0895361328125,-7.9934911552429195,0.2867056488037109,-1.2114660400390624
1788862189176578300,11.099578369140625,-8.46619634552002,-0.06883329772949218,-1.6279074913024902
1788862189186620200,11.1096201171875,-8.45841519012451,-0.4655225852966308,-1.968781952667236
1788862189196662800,11.119662841796876,-8.392724282073974,-0.7851485069274902,-2.1619640991210938
1788862189206703900,11.129703857421875,-8.535029643249512,-0.8505401397705078,-2.0150199722290036
1788862189216745700,11.139745849609374,-8.662520881652831,-0.7012018112182616,-1.8180968856811521
1788862189226787800,11.149787841796876,-8.541314422607421,-0.5346551582336425,-1.7477672119140624
1788862189236829000,11.159828857421875,-8.520814070892333,-0.44592005920410155,-1.4960767623901365
1788862189246871000,11.16987109375,-8.948328704833983,-0.4969464820861816,-1.2458826889038086
1788862189256913000,11.179912841796876,-9.572317512512207,-0.903362213897705,-1.127519344329834
1788862189266955000,11.189955078125,-10.058639724731444,-1.5797241828918456,-1.1225813034057617
1788862189276995800,11.199995849609374,-10.206481677246094,-2.2348376121520994,-1.2093711135864258
1788862189287038000,11.210037841796876,-9.663596450805663,-2.726546778106689,-1.13649760055542
1788862189297079800,11.220079833984375,-8.749011416625976,-2.8296470870971677,-0.9440636421203613
1788862189307121000,11.230120849609374,-8.649951322937012,-2.7115830177307125,-0.847248112487793
1788862189317163000,11.2401630859375,-8.966883767700194,-2.5959131500244137,-0.828693049621582
1788862189327204900,11.250204833984375,-8.676886091613769,-2.4944588546752926,-0.8815151237487793
1788862189337246000,11.260245849609374,-8.540715872192383,-2.4344541755676268,-0.9632172554016113
1788862189347287800,11.270287841796875,-8.764124814605712,-2.5481787544250487,-1.0342951171875
1788862189357330000,11.280329833984375,-8.592191207885742,-2.793135511779785,-0.8309376136779785
1788862189367371800,11.290371826171874,-8.03703569793701,-3.080439710998535,-0.512658430480957
1788862189377412900,11.300412841796875,-7.803900311279296,-3.3445500816345213,-0.27727847976684566
1788862189387455000,11.310455078125,-8.05125127029419,-3.5417724433898923,-0.1822586013793945
1788862189397496800,11.320496826171874,-8.49058727493286,-3.796605282592773,-0.16041151123046873
1788862189407538000,11.330537841796875,-8.585158240509033,-4.112939176940918,-0.1696890426635742
1788862189417579800,11.340579833984375,-8.352322129058837,-4.356998108673095,-0.16519991455078123
1788862189427622000,11.350621826171874,-8.212111694335936,-4.5227965736389155,-0.1984194625854492
1788862189437663700,11.360663818359376,-8.212859882354735,-4.689193589019775,-0.28730419921875
1788862189447704800,11.370704833984375,-7.99962629699707,-4.765658404541015,-0.3871124809265136
1788862189457747000,11.380746826171874,-8.002619049072266,-4.786906944274902,-0.429011009979248
1788862189467789000,11.3907890625,-8.432078971862792,-4.8317982254028315,-0.4996399589538574
1788862189477830000,11.400829833984375,-8.736591495513915,-5.012560450744629,-0.685040950012207
1788862189487872000,11.4108720703125,-8.73958424758911,-5.3399675277709955,-0.9623194297790527
1788862189497913900,11.420913818359375,-8.696338980102539,-5.830030680084228,-1.1887211242675781
1788862189507955000,11.430954833984375,-8.718634983062744,-6.36483547592163,-1.2315174789428711
1788862189517997000,11.4409970703125,-8.321347145080566,-6.896946794891357,-1.1130044967651367
1788862189528039000,11.451038818359375,-7.716811225891113,-7.3861121215820305,-1.013196215057373
1788862189538081000,11.4610810546875,-7.685237691497802,-7.705588405609131,-0.9938929641723632
1788862189548121900,11.471121826171874,-7.98077195892334,-7.9761331932067865,-0.8397662322998046
1788862189558164000,11.4811640625,-8.219743212127685,-8.284087381744385,-0.6028899055480956
1788862189568205800,11.491205810546875,-8.276755139160155,-8.563610425567626,-0.36152445068359373
1788862189578247000,11.501246826171876,-8.131008113098144,-8.674641527557373,-0.2888005752563476
1788862189588289000,11.5112890625,-7.58438194656372,-8.45916337814331,-0.40462008056640625
1788862189598331000,11.521330810546875,-7.082796698760986,-8.009652016448975,-0.5066729263305664
1788862189608373000,11.531373046875,-7.09895755996704,-7.548468921661376,-0.5336076950073242
1788862189618413800,11.541413818359375,-7.25936907119751,-7.225700610351562,-0.4993406837463379
1788862189628456000,11.5514560546875,-6.987776820373535,-6.894552593231201,-0.4170400016784668
1788862189638497800,11.561497802734374,-6.483049182891845,-6.593332096862793,-0.4128501487731933
1788862189648539000,11.571538818359375,-6.162375798034668,-6.495918016815185,-0.49245735397338863
1788862189658581000,11.5815810546875,-6.387580391693115,-6.641216130065917,-0.4955997436523437
1788862189668622800,11.591622802734374,-6.858340293121337,-7.093720243835449,-0.6554127044677734
1788862189678664000,11.601663818359375,-7.109881105041503,-7.6282257644653315,-0.9189245246887207
1788862189688706000,11.6117060546875,-7.3748893013000485,-8.225728716278075,-1.2189479202270508
1788862189698748000,11.621747802734374,-7.912387574005127,-8.885630548858643,-1.4769231491088866
1788862189708789800,11.631789794921875,-8.460809391784668,-9.48702407836914,-1.7030255683898925
1788862189718830800,11.641830810546875,-8.557624921417236,-9.802011234283446,-1.7018284675598143
1788862189728873000,11.651873046875,-8.387038053131104,-9.788992762756347,-1.560869844818115
1788862189738915000,11.6619150390625,-8.023269038391113,-9.471312129974365,-1.3377601776123047
1788862189748956000,11.671955810546875,-7.658602198028564,-8.990376871490477,-1.1749544647216796
1788862189758998000,11.681998046875,-7.229890463256836,-8.495076403045653,-1.112106671142578
1788862189769040000,11.692039794921875,-6.900388459777831,-8.182034535980224,-1.0386346076965332
1788862189779081000,11.7020810546875,-6.599467238616943,-8.059331700897216,-1.063624087524414
1788862189789122800,11.712122802734376,-6.187814190673827,-7.954435740661621,-1.2108674896240235
1788862189799165000,11.7221650390625,-6.077082363891601,-7.826046676635742,-1.3518261123657225
1788862189809207000,11.73220703125,-6.307075360870361,-7.796568068695068,-1.445499252319336
1788862189819247900,11.742247802734376,-6.51851329498291,-7.856722385406494,-1.5369278282165526
1788862189829290000,11.7522900390625,-6.624157443237304,-7.958475955963134,-1.5553332534790039
1788862189839331800,11.762331787109375,-6.694786392211913,-8.036287509918212,-1.5267524711608886
1788862189849373000,11.772373046875,-6.764218240356445,-8.03808316116333,-1.5019126289367675
1788862189859414800,11.782414794921875,-6.837091753387451,-8.011597305297851,-1.4221557861328125
1788862189869457000,11.792456787109375,-6.950517057037353,-7.956530667114257,-1.2949638229370117
1788862189879498000,11.802498046875,-7.102249587249755,-7.782651771545409,-1.2421417488098143
1788862189889539800,11.812539794921875,-7.37997697982788,-7.84594847793579,-1.3789105186462403
1788862189899582000,11.82258203125,-7.685985879516601,-8.032546569824218,-1.6265607528686523
1788862189909623800,11.832623779296876,-7.520037776947021,-8.019378460693359,-1.8320131828308104
1788862189919665000,11.842664794921875,-6.988076095581055,-7.682993127441406,-1.861641428375244
1788862189929706800,11.852706787109375,-6.785466780090331,-7.326107442474365,-1.560271294403076
1788862189939749000,11.8627490234375,-6.625504181671142,-7.19517453918457,-0.8849567886352538
1788862189949790000,11.8727900390625,-6.328473538208008,-7.01635760269165,0.148739778137207
1788862189959832000,11.88283203125,-6.402394514465332,-6.727557027435302,1.013794765472412
1788862189969874000,11.8928740234375,-6.8308069740295405,-6.725013188171387,1.0829273384094238
1788862189979915000,11.9029150390625,-7.507617855834961,-6.93315909500122,0.7116764434814453
1788862189989956900,11.912956787109374,-8.092850524139404,-7.09297205581665,0.2316390106201172
1788862189999998700,11.922998779296876,-8.331073589324951,-7.079504671478271,-0.2002151138305664
1788862190010041000,11.933041015625,-8.419808688354491,-6.976105087280273,-0.38202480239868164
1788862190020082000,11.94308203125,-8.245031967163085,-6.8691142005920405,-0.4161421760559082
1788862190030124000,11.9531240234375,-8.01189658050537,-6.83754066619873,-0.395192911529541
1788862190040166000,11.963165771484375,-7.828291240692138,-6.897994258117675,-0.45968671875
1788862190050207000,11.97320703125,-7.5816884696960445,-6.882880860137939,-0.5931634613037109
1788862190060248800,11.983248779296876,-7.376535314941406,-6.76107585067749,-0.5889736083984375
1788862190070290700,11.993290771484375,-7.383568282318115,-6.621912879180908,-0.5787982513427734
1788862190080331800,12.003331787109374,-7.587823611450195,-6.471676725006103,-0.6666355247497558
1788862190090374000,12.013373779296876,-7.980921596527099,-6.236446411895751,-0.6028899055480956
1788862190100416000,12.023416015625,-8.268824346160889,-5.869535007476807,-0.462230558013916
1788862190110457900,12.033457763671874,-8.664466170501708,-5.654655408477783,-0.502483073425293
1788862190120499000,12.0434990234375,-9.395894777679443,-5.937021566772461,-0.6144120010375976
1788862190130540800,12.053540771484375,-9.832986218261718,-6.3241340476989745,-0.8470984748840331
1788862190140583000,12.0635830078125,-8.566154264831543,-6.423792691802978,-1.0366893188476562
1788862190150623700,12.073623779296875,-7.324910341644287,-6.159532683563232,-0.745045629119873
1788862190160666000,12.083666015625,-7.242759297180175,-6.044910279083251,-0.17133505630493162
1788862190170708000,12.0937080078125,-7.924358582305908,-5.995230594635009,0.3172317199707031
1788862190180749800,12.103749755859376,-9.022249681091308,-5.756857891845703,0.5283703788757323
1788862190190791000,12.113791015625,-10.079140076446533,-5.665279678344726,0.27787703018188475
1788862190200832300,12.123832275390624,-10.57833112258911,-5.825092639160156,-0.23433248748779295
1788862190210874400,12.133874267578125,-10.038737923431396,-6.01378565750122,-0.7439981658935546
1788862190220915200,12.143915283203125,-9.128941292572021,-5.898564702606201,-1.0935516082763672
1788862190230957300,12.153957275390624,-8.437316287994385,-5.4698529678344725,-1.0666168395996094
1788862190240999200,12.163999267578125,-8.16617294998169,-5.052513690948486,-0.7899369102478027
1788862190251040300,12.174040283203125,-8.264335218048096,-4.874594580078124,-0.5264250900268554
1788862190261082000,12.18408203125,-8.488492348480223,-4.8117467864990235,-0.4905120651245117
1788862190271124500,12.19412451171875,-8.552387605285643,-4.644302307891845,-0.5683236190795898
1788862190281166300,12.204166259765625,-8.557475283813476,-4.41146619644165,-0.773776049041748
1788862190291207400,12.21420751953125,-8.601468739318847,-4.129399313354492,-1.02786070022583
1788862190301249300,12.224249267578125,-8.727463601684569,-3.9606080963134764,-1.1156979736328125
1788862190311291100,12.234291015625,-8.639925603485107,-3.9591117202758785,-1.07245270614624
1788862190321332200,12.244332275390626,-8.409184418487548,-3.9022494308471676,-1.013196215057373
1788862190331374000,12.2543740234375,-8.306981935119628,-3.6254198638916013,-0.8846575134277344
1788862190341416400,12.26441650390625,-8.315960191345214,-3.1950621154785153,-0.7631517791748046
1788862190351457300,12.274457275390626,-8.616133224487305,-2.701108385467529,-0.8267477607727051
1788862190361499400,12.28449951171875,-8.75843858566284,-2.325069087219238,-0.9885060104370117
1788862190371541200,12.294541259765625,-8.74646757736206,-2.3460183517456055,-1.2900257820129393
1788862190381583000,12.3045830078125,-8.827421520996094,-2.660855870056152,-1.5887024391174316
1788862190391624200,12.314624267578125,-8.776245460510253,-3.0569466072082516,-1.8677765701293945
1788862190401666300,12.324666259765625,-8.698284268951415,-3.163338943481445,-1.9825486122131346
1788862190411708400,12.33470849609375,-8.84163709335327,-2.9779379524230953,-1.9170073417663573
1788862190421749200,12.344749267578125,-9.389310723114013,-2.505232762145996,-1.739088230895996
1788862190431791400,12.354791259765625,-9.575010989379882,-2.1616648239135743,-1.3187562019348145
1788862190441833200,12.364833251953126,-8.871863889312744,-2.1121347770690915,-0.8417115211486816
1788862190451874300,12.374874267578125,-8.430283320617676,-2.260575279998779,-0.8354267417907715
1788862190461916200,12.384916259765625,-8.435819911956786,-2.3973440498352048,-1.2381015335083008
1788862190471958300,12.394958251953126,-7.746439471435546,-1.9265841484069823,-1.7525556152343749
1788862190481999400,12.404999267578125,-7.237222705841064,-1.2234370483398436,-1.8589479515075682
1788862190492041500,12.41504150390625,-7.274781744384765,-0.7505822204589844,-1.7356465660095213
1788862190502083300,12.425083251953126,-7.5251254554748535,-0.6102221481323242,-1.694346587371826
1788862190512125200,12.435125244140625,-7.818415158843994,-0.6959644950866699,-1.5822680221557617
1788862190522166300,12.445166259765625,-8.004713975524902,-0.8476970252990722,-1.5394716674804687
1788862190532208000,12.4552080078125,-7.79507169265747,-0.8508394149780273,-1.683572679901123
1788862190542250500,12.46525048828125,-7.7036431167602535,-0.16265607528686524,-2.0060417160034176
1788862190552291300,12.475291259765624,-8.33122322692871,0.20485387954711912,-2.1785738731384274
1788862190562333400,12.48533349609375,-8.448539108276366,0.2867056488037109,-1.8353052101135252
1788862190572375300,12.495375244140625,-8.118288916778564,0.36691140441894526,-1.7049708572387694
1788862190582416400,12.50541650390625,-8.307131572723389,0.309001651763916,-1.7118541870117185
1788862190592458200,12.515458251953126,-8.475623514556885,0.2715922508239746,-1.5750854171752928
1788862190602500000,12.5255,-8.531887253570556,0.27174188842773433,-1.5070003074645995
1788862190612542500,12.53554248046875,-8.402899639129638,0.258573779296875,-1.6524480583190917
1788862190622583300,12.545583251953126,-8.128464273834227,0.20605098037719724,-1.9858406394958494
1788862190632625400,12.55562548828125,-7.687631893157959,0.48632221221923827,-2.111236951446533
1788862190642667300,12.565667236328125,-7.967903124999999,0.6118681617736816,-1.9078794479370116
1788862190652708400,12.575708251953126,-8.12681826019287,0.27608137893676754,-1.8599954147338866
1788862190662750200,12.585750244140625,-7.938723792266845,0.16699556579589842,-2.1019594200134275
1788862190672792300,12.595792236328125,-7.9086466339111325,0.20545242996215818,-1.7658733619689941
1788862190682833200,12.605833251953126,-8.186374026489258,0.047884033203124995,-0.9376292251586914
1788862190692875300,12.615875244140625,-8.214655533599853,-0.3962403747558593,-0.4207809417724609
1788862190702917400,12.62591748046875,-7.915679601287842,-0.6789058082580566,-0.4445733207702636
1788862190712959200,12.635959228515626,-8.352022853851318,-0.711227530670166,-0.7966706024169922
1788862190723000300,12.646000244140625,-9.196577489471435,-0.6221931564331055,-1.181688156890869
1788862190733042200,12.656042236328124,-8.889221851348877,-0.5684732566833496,-1.3338695999145507
1788862190743084300,12.666084228515626,-8.470386198425292,-0.5225345123291015,-1.2535142066955565
1788862190753125000,12.676125,-8.592191207885742,-0.49814358291625976,-1.0895113929748534
1788862190763167500,12.68616748046875,-8.636633576202392,-0.6899789909362792,-0.8301894256591796
1788862190773209300,12.696209228515626,-7.9773302940368644,-0.7930792999267577,-0.6811503723144531
1788862190783250400,12.70625048828125,-7.663540238952637,-0.8239046463012695,-0.5855319435119628
